#time,accel_x,accel_y,accel_z
2523.214497,766.095498,-222.061783,8808.450710
2523.214826,306.438199,-74.020594,8808.450710
2523.215155,0.000000,-0.000000,8882.471304
2523.215484,306.438199,-0.000000,8808.450710
2523.215813,153.219100,-74.020594,8956.491898
2523.216142,153.219100,-74.020594,8882.471304
2523.216471,383.047749,-0.000000,9178.553681
2523.216800,0.000000,-296.082377,8882.471304
2523.217129,919.314598,-148.041188,9178.553681
2523.217458,383.047749,-0.000000,8734.430116
2523.217787,229.828649,-0.000000,8956.491898
2523.218116,459.657299,-0.000000,8882.471304
2523.218445,383.047749,-74.020594,8882.471304
2523.218774,153.219100,-444.123565,8956.491898
2523.219103,306.438199,-148.041188,9178.553681
2523.219432,229.828649,-0.000000,9104.533087
2523.219761,153.219100,-444.123565,9030.512492
2523.220090,306.438199,-0.000000,9252.574275
2523.220419,536.266849,-148.041188,9326.594869
2523.220748,229.828649,-296.082377,9178.553681
2523.221077,306.438199,-518.144159,9400.615463
2523.221406,612.876398,-370.102971,9252.574275
2523.221735,306.438199,-518.144159,9104.533087
2523.222064,459.657299,-222.061783,9178.553681
2523.222393,306.438199,-74.020594,9178.553681
2523.222722,306.438199,-74.020594,9178.553681
2523.223051,306.438199,-296.082377,9178.553681
2523.223379,612.876398,-74.020594,9474.636058
2523.223708,153.219100,-148.041188,9252.574275
2523.224037,1225.752797,-518.144159,9178.553681
2523.224366,153.219100,-222.061783,9030.512492
2523.224695,383.047749,-148.041188,9030.512492
2523.225024,229.828649,-222.061783,9104.533087
2523.225353,229.828649,-0.000000,9178.553681
2523.225682,306.438199,-74.020594,9030.512492
2523.226011,229.828649,-74.020594,9178.553681
2523.226340,459.657299,-444.123565,8882.471304
2523.226669,536.266849,-0.000000,8956.491898
2523.226998,76.609550,-222.061783,8956.491898
2523.227327,383.047749,-74.020594,8956.491898
2523.227656,153.219100,-74.020594,8956.491898
2523.227985,459.657299,-444.123565,8734.430116
2523.228314,383.047749,-222.061783,8882.471304
2523.228643,229.828649,-0.000000,8882.471304
2523.228972,306.438199,-148.041188,8956.491898
2523.229301,306.438199,-148.041188,8660.409521
2523.229630,229.828649,-0.000000,8956.491898
2523.229959,459.657299,-0.000000,8882.471304
2523.230288,229.828649,-148.041188,8882.471304
2523.230617,459.657299,-370.102971,9326.594869
2523.230946,536.266849,-296.082377,9326.594869
2523.231275,459.657299,-296.082377,9252.574275
2523.231604,306.438199,-74.020594,9030.512492
2523.231933,383.047749,-222.061783,9178.553681
2523.232262,306.438199,-222.061783,9104.533087
2523.232591,306.438199,-666.185348,9326.594869
2523.232920,306.438199,-666.185348,9400.615463
2523.233249,459.657299,-444.123565,9400.615463
2523.233578,383.047749,-370.102971,9400.615463
2523.233907,306.438199,-222.061783,9178.553681
2523.234236,229.828649,-0.000000,9178.553681
2523.234565,383.047749,-222.061783,9178.553681
2523.234894,612.876398,-518.144159,9400.615463
2523.235223,536.266849,-296.082377,9252.574275
2523.235552,766.095498,-222.061783,9104.533087
2523.235881,229.828649,-666.185348,8956.491898
2523.236210,306.438199,-0.000000,8956.491898
2523.236539,383.047749,-222.061783,9178.553681
2523.236868,536.266849,-0.000000,9030.512492
2523.237197,0.000000,-148.041188,8808.450710
2523.237526,383.047749,-148.041188,9104.533087
2523.237855,536.266849,-148.041188,8956.491898
2523.238184,689.485948,-74.020594,8438.347739
2523.238513,229.828649,-148.041188,9104.533087
2523.238842,306.438199,-0.000000,9104.533087
2523.239171,459.657299,-0.000000,8956.491898
2523.239500,306.438199,-0.000000,8808.450710
2523.239829,229.828649,-148.041188,8882.471304
2523.240158,76.609550,-148.041188,8808.450710
2523.240487,-229.828649,-296.082377,9030.512492
2523.240816,306.438199,-222.061783,9104.533087
2523.241145,612.876398,-296.082377,8956.491898
2523.241474,76.609550,-0.000000,8956.491898
2523.241803,306.438199,-74.020594,8882.471304
2523.242132,306.438199,-74.020594,9104.533087
2523.242461,76.609550,-370.102971,9178.553681
2523.242790,0.000000,-296.082377,9178.553681
2523.243119,842.705048,-148.041188,10140.821405
2523.243448,1532.190996,-1258.350101,9622.677246
2523.243777,1225.752797,-814.226536,9474.636058
2523.244106,1685.410096,-666.185348,9474.636058
2523.244435,2221.676944,-74.020594,9104.533087
2523.244764,2911.162892,222.061783,8808.450710
2523.245093,3524.039291,-0.000000,8882.471304
2523.245422,4290.134789,-74.020594,8956.491898
2523.245750,3294.210641,-0.000000,8956.491898
2523.246079,3217.601092,370.102971,8512.368333
2523.246408,2757.943793,-74.020594,8956.491898
2523.246737,3217.601092,-148.041188,9474.636058
2523.247066,2145.067394,-666.185348,8882.471304
2523.247395,766.095498,-1036.288319,9844.739029
2523.247724,2068.457845,-2220.617826,10214.842000
2523.248053,2987.772442,-74.020594,9548.656652
2523.248382,2374.896044,-222.061783,9770.718434
2523.248711,3600.648841,-1184.329507,9548.656652
2523.249040,3370.820191,-0.000000,8956.491898
2523.249369,4903.011187,666.185348,9104.533087
2523.249698,5132.839837,592.164754,7105.977043
2523.250027,3753.867940,1924.535449,9326.594869
2523.250356,5669.106685,1110.308913,8586.388927
2523.250685,4290.134789,1184.329507,7179.997637
2523.251014,3983.696590,592.164754,9104.533087
2523.251343,3140.991542,-0.000000,8290.306550
2523.251672,2221.676944,370.102971,9400.615463
2523.252001,1532.190996,-888.247130,9548.656652
2523.252330,1532.190996,-1406.391290,9696.697840
2523.252659,1455.581446,-1258.350101,10140.821405
2523.252988,919.314598,-1184.329507,9548.656652
2523.253317,1378.971896,-592.164754,9474.636058
2523.253646,2604.724693,-0.000000,9918.759623
2523.253975,2911.162892,296.082377,7698.141797
2523.254304,4136.915689,296.082377,9696.697840
2523.254633,3907.087040,740.205942,8290.306550
2523.254962,4213.525239,888.247130,8290.306550
2523.255291,4136.915689,666.185348,9104.533087
2523.255620,3600.648841,148.041188,8660.409521
2523.255949,3447.429741,-74.020594,9178.553681
2523.256278,2911.162892,-1480.411884,9770.718434
2523.256607,2681.334243,-962.267725,9992.780217
2523.256936,2528.115143,-2146.597232,9844.739029
2523.257265,2528.115143,-1480.411884,9992.780217
2523.257594,2528.115143,-1258.350101,10140.821405
2523.257923,2987.772442,-148.041188,9548.656652
2523.258252,3524.039291,-0.000000,8808.450710
2523.258581,4136.915689,1184.329507,8364.327145
2523.258910,4596.572988,1998.556043,8364.327145
2523.259239,4749.792088,2812.782580,7994.224174
2523.259568,4519.963438,2368.659014,7550.100608
2523.259897,3983.696590,2072.576638,7920.203579
2523.260226,3370.820191,1554.432478,7994.224174
2523.260555,2681.334243,-0.000000,8364.327145
2523.260884,2374.896044,-1184.329507,9400.615463
2523.261213,1991.848295,-2294.638420,10214.842000
2523.261542,2068.457845,-3182.885551,10436.903782
2523.261871,2221.676944,-3182.885551,10584.944971
2523.262200,2987.772442,-2442.679609,10436.903782
2523.262529,3907.087040,-1036.288319,9696.697840
2523.262858,5209.449386,296.082377,9030.512492
2523.263187,6052.154434,1850.514855,8438.347739
2523.263516,5515.887586,2368.659014,7772.162391
2523.263845,5439.278036,3256.906145,7402.059420
2523.264174,4979.620737,3923.091493,6883.915261
2523.264503,3830.477490,3997.112087,6587.832884
2523.264832,2068.457845,1258.350101,7550.100608
2523.265161,-536.266849,-1406.391290,9104.533087
2523.265490,-2068.457845,-3330.926739,10362.883188
2523.265819,-1838.629195,-4737.318029,11695.253884
2523.266148,-3294.210641,-4885.359217,9474.636058
2523.266477,-3294.210641,-3775.050304,11695.253884
2523.266806,-2528.115143,-2812.782580,10658.965565
2523.267135,-1685.410096,-1258.350101,10955.047942
2523.267464,-459.657299,-148.041188,10214.842000
2523.267793,842.705048,1332.370696,8364.327145
2523.268121,459.657299,2368.659014,8512.368333
2523.268450,2221.676944,666.185348,11917.315666
2523.268779,2911.162892,888.247130,7105.977043
2523.269108,5898.935335,2368.659014,7476.080014
2523.269437,5592.497135,1850.514855,4367.215058
2523.269766,5209.449386,2738.761985,5625.565159
2523.270095,2987.772442,1702.473667,8068.244768
2523.270424,1455.581446,518.144159,6587.832884
2523.270753,229.828649,-2368.659014,9178.553681
2523.271082,-1302.362347,-3108.864956,10066.800811
2523.271411,-2451.505594,-2886.803174,9030.512492
2523.271740,-3294.210641,-4071.132681,10807.006753
2523.272069,-2834.553343,-3182.885551,10584.944971
2523.272398,-2374.896044,-2886.803174,11843.295072
2523.272727,-2221.676944,-2812.782580,12583.501014
2523.273056,-2068.457845,-0.000000,10140.821405
2523.273385,-306.438199,296.082377,10362.883188
2523.273714,0.000000,2738.761985,8956.491898
2523.274043,-536.266849,3923.091493,9104.533087
2523.274372,919.314598,740.205942,10140.821405
2523.274701,3370.820191,1480.411884,8660.409521
2523.275030,4826.401637,1850.514855,5921.647536
2523.275359,4749.792088,1258.350101,5551.544565
2523.275688,4826.401637,-0.000000,6809.894666
2523.276017,3983.696590,-296.082377,7402.059420
2523.276346,2451.505594,444.123565,7920.203579
2523.276675,1838.629195,148.041188,7920.203579
2523.277004,-229.828649,-1110.308913,8438.347739
2523.277333,-842.705048,-1332.370696,10362.883188
2523.277662,-1991.848295,-1924.535449,11103.089130
2523.277991,-2145.067394,-1554.432478,9770.718434
2523.278320,-1455.581446,-1850.514855,10881.027347
2523.278649,-1915.238745,-1332.370696,11325.150913
2523.278978,-2451.505594,-148.041188,10732.986159
2523.279307,-2221.676944,-370.102971,11325.150913
2523.279636,-1455.581446,-0.000000,9622.677246
2523.279965,-459.657299,1554.432478,9252.574275
2523.280294,-153.219100,1480.411884,8956.491898
2523.280623,306.438199,1110.308913,8068.244768
2523.280952,536.266849,296.082377,9030.512492
2523.281281,1149.143247,-962.267725,8586.388927
2523.281610,1072.533697,-2442.679609,9474.636058
2523.281939,2528.115143,-2072.576638,9474.636058
2523.282268,3907.087040,444.123565,7031.956449
2523.282597,4519.963438,888.247130,7624.121203
2523.282926,3753.867940,2368.659014,6735.874072
2523.283255,4213.525239,2886.803174,7772.162391
2523.283584,3064.381992,2738.761985,7105.977043
2523.283913,1685.410096,1554.432478,7105.977043
2523.284242,-612.876398,-1036.288319,9178.553681
2523.284571,-2681.334243,-2368.659014,10584.944971
2523.284900,-2757.943793,-3552.988522,11251.130318
2523.285229,-2374.896044,-3182.885551,9992.780217
2523.285558,-2068.457845,-2516.700203,9622.677246
2523.285887,-2068.457845,-1110.308913,9844.739029
2523.286216,-1838.629195,-74.020594,10584.944971
2523.286545,-1915.238745,444.123565,9696.697840
2523.286874,-153.219100,148.041188,9548.656652
2523.287203,1149.143247,740.205942,8734.430116
2523.287532,536.266849,1184.329507,7254.018232
2523.287861,536.266849,-814.226536,11029.068536
2523.288190,842.705048,-2368.659014,12287.418637
2523.288519,2911.162892,-666.185348,7624.121203
2523.288848,4596.572988,592.164754,7328.038826
2523.289177,3983.696590,888.247130,5403.503377
2523.289506,3524.039291,3034.844362,7031.956449
2523.289835,2911.162892,1628.453072,8808.450710
2523.290164,459.657299,1184.329507,6735.874072
2523.290493,-459.657299,-1702.473667,9178.553681
2523.290822,-1991.848295,-2664.741391,10955.047942
2523.291151,-2298.286494,-2146.597232,9252.574275
2523.291480,-2604.724693,-2664.741391,10066.800811
2523.291810,-3064.381992,-3108.864956,10214.842000
2523.292139,-2604.724693,-1628.453072,11621.233289
2523.292468,-2681.334243,962.267725,11547.212695
2523.292797,-2911.162892,1850.514855,9918.759623
2523.293126,-1608.800546,518.144159,9548.656652
2523.293455,-306.438199,888.247130,9770.718434
2523.293784,995.924147,2220.617826,8364.327145
2523.294114,229.828649,-0.000000,7698.141797
2523.294443,383.047749,-444.123565,10436.903782
2523.294772,995.924147,-1776.494261,11029.068536
2523.295101,2528.115143,-1406.391290,8364.327145
2523.295430,3983.696590,-0.000000,5551.544565
2523.295759,3677.258390,296.082377,6143.709319
2523.296088,2221.676944,2294.638420,7402.059420
2523.296418,2068.457845,2146.597232,8512.368333
2523.296747,919.314598,518.144159,7476.080014
2523.297076,0.000000,-1702.473667,8734.430116
2523.297405,-1072.533697,-2072.576638,11029.068536
2523.297734,-2451.505594,-2516.700203,9548.656652
2523.298063,-2145.067394,-1924.535449,9696.697840
2523.298392,-995.924147,-1332.370696,10362.883188
2523.298722,-306.438199,592.164754,10288.862594
2523.299051,-842.705048,1850.514855,9696.697840
2523.299380,-306.438199,1628.453072,9178.553681
2523.299709,229.828649,-0.000000,9178.553681
2523.300038,1225.752797,-0.000000,9474.636058
2523.300367,536.266849,296.082377,8734.430116
2523.300697,229.828649,-2368.659014,11029.068536
2523.301026,-229.828649,-2072.576638,10584.944971
2523.301355,2374.896044,-2072.576638,11547.212695
2523.301684,2911.162892,-0.000000,5995.668130
2523.302013,4903.011187,-0.000000,6809.894666
2523.302342,3447.429741,2368.659014,6291.750507
2523.302671,3830.477490,3701.029710,7105.977043
2523.303001,1532.190996,1480.411884,8216.285956
2523.303330,383.047749,222.061783,7328.038826
2523.303659,-689.485948,-2368.659014,10362.883188
2523.303988,-2681.334243,-2220.617826,10436.903782
2523.304317,-2374.896044,-2220.617826,9548.656652
2523.304646,-1762.019645,-1110.308913,9548.656652
2523.304975,-383.047749,444.123565,9178.553681
2523.305305,-1149.143247,1702.473667,9770.718434
2523.305634,-995.924147,1332.370696,9992.780217
2523.305963,-1302.362347,296.082377,9326.594869
2523.306292,306.438199,-962.267725,9696.697840
2523.306621,536.266849,-222.061783,8956.491898
2523.306950,-612.876398,-444.123565,9030.512492
2523.307279,-536.266849,-1924.535449,10955.047942
2523.307609,229.828649,-2146.597232,10658.965565
2523.307938,2987.772442,-740.205942,8956.491898
2523.308267,3294.210641,444.123565,5773.606348
2523.308596,3983.696590,1406.391290,6217.729913
2523.308925,1685.410096,2886.803174,6513.812290
2523.309254,1149.143247,2294.638420,8216.285956
2523.309583,0.000000,592.164754,7994.224174
2523.309913,-919.314598,-1184.329507,8882.471304
2523.310242,-1532.190996,-2590.720797,10362.883188
2523.310571,-2834.553343,-1924.535449,8512.368333
2523.310900,-2145.067394,-2072.576638,10214.842000
2523.311229,-1991.848295,-1258.350101,9918.759623
2523.311558,-995.924147,444.123565,11029.068536
2523.311888,-1532.190996,962.267725,10510.924376
2523.312217,-612.876398,592.164754,9622.677246
2523.312546,0.000000,-74.020594,9474.636058
2523.312875,153.219100,-1036.288319,9474.636058
2523.313204,689.485948,-0.000000,8808.450710
2523.313533,-612.876398,-2072.576638,11325.150913
2523.313862,1302.362347,-2220.617826,11547.212695
2523.314192,3370.820191,370.102971,6809.894666
2523.314521,4903.011187,1554.432478,6513.812290
2523.314850,3677.258390,1924.535449,4737.318029
2523.315179,3524.039291,2146.597232,7550.100608
2523.315508,612.876398,1036.288319,8734.430116
2523.315837,-229.828649,370.102971,8734.430116
2523.316166,-1225.752797,-2294.638420,10510.924376
2523.316496,-2298.286494,-2368.659014,10140.821405
2523.316825,-2757.943793,-1702.473667,9252.574275
2523.317154,-2451.505594,-1998.556043,10584.944971
2523.317483,-1685.410096,-518.144159,9696.697840
2523.317812,153.219100,444.123565,10362.883188
2523.318141,76.609550,1924.535449,9400.615463
2523.318470,229.828649,1924.535449,8734.430116
2523.318800,842.705048,-888.247130,8956.491898
2523.319129,689.485948,444.123565,7772.162391
2523.319458,-306.438199,-888.247130,10288.862594
2523.319787,459.657299,-2812.782580,10732.986159
2523.320116,2145.067394,-1184.329507,9252.574275
2523.320445,4136.915689,1036.288319,6809.894666
2523.320774,3907.087040,1036.288319,6883.915261
2523.321104,2528.115143,666.185348,6883.915261
2523.321433,1532.190996,1702.473667,9326.594869
2523.321762,919.314598,740.205942,8216.285956
2523.322091,-1225.752797,-444.123565,8068.244768
2523.322420,-1378.971896,-2368.659014,10658.965565
2523.322749,-2528.115143,-2072.576638,10584.944971
2523.323078,-2145.067394,-1850.514855,10066.800811
2523.323408,-1762.019645,-1850.514855,9548.656652
2523.323737,-536.266849,-370.102971,9548.656652
2523.324066,-383.047749,1184.329507,10658.965565
2523.324395,0.000000,2294.638420,8734.430116
2523.324724,229.828649,592.164754,9030.512492
2523.325053,766.095498,-814.226536,8586.388927
2523.325383,229.828649,-0.000000,8734.430116
2523.325712,229.828649,-1998.556043,10881.027347
2523.326041,76.609550,-2368.659014,10584.944971
2523.326370,2681.334243,-814.226536,9474.636058
2523.326699,3907.087040,592.164754,6365.771101
2523.327028,4136.915689,1036.288319,5847.626942
2523.327357,3753.867940,1924.535449,7105.977043
2523.327687,3140.991542,2294.638420,7624.121203
2523.328016,1149.143247,1554.432478,7772.162391
2523.328345,-612.876398,-518.144159,8142.265362
2523.328674,-1915.238745,-2590.720797,10436.903782
2523.329003,-2604.724693,-2146.597232,10214.842000
2523.329332,-2451.505594,-2368.659014,9252.574275
2523.329661,-2068.457845,-1998.556043,9992.780217
2523.329991,-1991.848295,-888.247130,10955.047942
2523.330320,-1225.752797,1406.391290,9918.759623
2523.330649,-383.047749,1702.473667,8882.471304
2523.330978,153.219100,-0.000000,8882.471304
2523.331307,995.924147,-222.061783,8364.327145
2523.331636,229.828649,666.185348,8512.368333
2523.331965,383.047749,-1998.556043,11177.109724
2523.332295,1378.971896,-1776.494261,10584.944971
2523.332624,4136.915689,-148.041188,7698.141797
2523.332953,4213.525239,518.144159,7254.018232
2523.333282,3524.039291,962.267725,5847.626942
2523.333611,3217.601092,2072.576638,7920.203579
2523.333940,1838.629195,1332.370696,7698.141797
2523.334269,153.219100,592.164754,9474.636058
2523.334599,-1685.410096,-1332.370696,10510.924376
2523.334928,-2221.676944,-2590.720797,10807.006753
2523.335257,-3140.991542,-1998.556043,10658.965565
2523.335586,-2834.553343,-1776.494261,10288.862594
2523.335915,-2068.457845,-1850.514855,9844.739029
2523.336244,-1225.752797,-74.020594,10732.986159
2523.336574,-919.314598,1702.473667,10066.800811
2523.336903,-383.047749,1850.514855,9178.553681
2523.337232,1072.533697,-222.061783,8512.368333
2523.337561,842.705048,1406.391290,7476.080014
2523.337890,766.095498,-0.000000,9400.615463
2523.338219,612.876398,-2516.700203,11177.109724
2523.338548,2681.334243,-1184.329507,9104.533087
2523.338878,3983.696590,-0.000000,7105.977043
2523.339207,4903.011187,296.082377,6143.709319
2523.339536,4060.306139,1406.391290,5995.668130
2523.339865,3524.039291,2220.617826,7920.203579
2523.340194,2068.457845,1924.535449,7105.977043
2523.340523,306.438199,222.061783,8586.388927
2523.340852,-1685.410096,-2220.617826,10214.842000
2523.341182,-2681.334243,-2590.720797,10881.027347
2523.341511,-3140.991542,-2664.741391,10510.924376
2523.341840,-2604.724693,-2368.659014,10140.821405
2523.342169,-2221.676944,-2294.638420,10510.924376
2523.342498,-1685.410096,518.144159,10658.965565
2523.342827,-1149.143247,2220.617826,9548.656652
2523.343156,-689.485948,888.247130,8660.409521
2523.343486,689.485948,592.164754,8438.347739
2523.343815,1455.581446,1554.432478,7846.182985
2523.344144,153.219100,-74.020594,9696.697840
2523.344473,383.047749,-1924.535449,11769.274478
2523.344802,2681.334243,-962.267725,9030.512492
2523.345131,3600.648841,666.185348,7624.121203
2523.345460,3753.867940,-0.000000,6661.853478
2523.345790,3447.429741,1332.370696,6291.750507
2523.346119,3140.991542,2368.659014,8660.409521
2523.346448,1149.143247,2072.576638,8290.306550
2523.346777,-306.438199,-0.000000,8882.471304
2523.347106,-2221.676944,-2220.617826,10510.924376
2523.347435,-2604.724693,-2146.597232,10510.924376
2523.347764,-3370.820191,-2146.597232,9326.594869
2523.348094,-3140.991542,-2442.679609,10066.800811
2523.348423,-919.314598,-1702.473667,10955.047942
2523.348752,-1455.581446,740.205942,10288.862594
2523.349081,-1762.019645,1702.473667,9770.718434
2523.349410,-842.705048,592.164754,8586.388927
2523.349739,459.657299,296.082377,9326.594869
2523.350069,766.095498,1776.494261,7994.224174
2523.350398,612.876398,-296.082377,8586.388927
2523.350727,0.000000,-1924.535449,10955.047942
2523.351056,1838.629195,-962.267725,10510.924376
2523.351385,3524.039291,518.144159,6809.894666
2523.351714,4213.525239,518.144159,6291.750507
2523.352043,3677.258390,1850.514855,5699.585753
2523.352373,3294.210641,2516.700203,7698.141797
2523.352702,1225.752797,2072.576638,7402.059420
2523.353031,0.000000,-148.041188,8142.265362
2523.353360,-1378.971896,-2220.617826,10288.862594
2523.353689,-2451.505594,-2590.720797,10658.965565
2523.354018,-3447.429741,-3108.864956,9918.759623
2523.354347,-2911.162892,-2812.782580,10436.903782
2523.354677,-1762.019645,-1998.556043,10732.986159
2523.355006,-1608.800546,592.164754,10732.986159
2523.355335,-1302.362347,1924.535449,9844.739029
2523.355664,-612.876398,1258.350101,9326.594869
2523.355993,612.876398,444.123565,8882.471304
2523.356322,612.876398,1702.473667,8142.265362
2523.356651,0.000000,-0.000000,10066.800811
2523.356981,0.000000,-1998.556043,11029.068536
2523.357310,2374.896044,-1110.308913,9992.780217
2523.357639,3524.039291,296.082377,7179.997637
2523.357968,4060.306139,-0.000000,6587.832884
2523.358297,3140.991542,1184.329507,6735.874072
2523.358626,3294.210641,2368.659014,7772.162391
2523.358955,1608.800546,1554.432478,8068.244768
2523.359285,153.219100,148.041188,8216.285956
2523.359614,-919.314598,-2146.597232,9844.739029
2523.359943,-2681.334243,-2146.597232,10881.027347
2523.360272,-2451.505594,-3034.844362,10362.883188
2523.360601,-2374.896044,-2590.720797,9326.594869
2523.360930,-1455.581446,-1702.473667,10584.944971
2523.361259,-995.924147,1110.308913,10214.842000
2523.361589,-306.438199,2146.597232,9326.594869
2523.361918,0.000000,1406.391290,8882.471304
2523.362247,1225.752797,592.164754,8290.306550
2523.362576,1072.533697,1110.308913,8290.306550
2523.362905,229.828649,-296.082377,9770.718434
2523.363234,919.314598,-2590.720797,10881.027347
2523.363564,2451.505594,-592.164754,8808.450710
2523.363893,4290.134789,-370.102971,7698.141797
2523.364222,4673.182538,-74.020594,6217.729913
2523.364551,4290.134789,1702.473667,6883.915261
2523.364880,3217.601092,2072.576638,8142.265362
2523.365209,2068.457845,1258.350101,7846.182985
2523.365538,0.000000,-0.000000,8734.430116
2523.365868,-1532.190996,-1628.453072,9918.759623
2523.366197,-2528.115143,-2590.720797,11325.150913
2523.366526,-2834.553343,-2812.782580,10584.944971
2523.366855,-2145.067394,-1924.535449,10288.862594
2523.367184,-1915.238745,-1628.453072,11251.130318
2523.367513,-1225.752797,814.226536,9696.697840
2523.367842,-689.485948,1998.556043,9622.677246
2523.368172,-536.266849,1036.288319,8882.471304
2523.368501,919.314598,1110.308913,8512.368333
2523.368830,919.314598,1628.453072,8882.471304
2523.369159,306.438199,-370.102971,9844.739029
2523.369488,689.485948,-2368.659014,11325.150913
2523.369817,2834.553343,-1110.308913,9474.636058
2523.370146,3294.210641,-74.020594,7179.997637
2523.370476,3907.087040,-0.000000,6661.853478
2523.370805,3524.039291,2072.576638,6957.935855
2523.371134,2834.553343,2220.617826,7846.182985
2523.371463,1608.800546,1184.329507,7698.141797
2523.371792,0.000000,296.082377,8290.306550
2523.372121,-1838.629195,-1480.411884,9992.780217
2523.372450,-2451.505594,-2146.597232,10510.924376
2523.372780,-2604.724693,-2072.576638,9474.636058
2523.373109,-2451.505594,-2368.659014,9992.780217
2523.373438,-1608.800546,-1776.494261,10584.944971
2523.373767,-995.924147,370.102971,9622.677246
2523.374096,-689.485948,962.267725,9992.780217
2523.374425,-1072.533697,518.144159,8512.368333
2523.374755,536.266849,-0.000000,9178.553681
2523.375084,766.095498,962.267725,7920.203579
2523.375413,229.828649,-74.020594,8512.368333
2523.375742,0.000000,-2220.617826,11325.150913
2523.376071,2298.286494,-1480.411884,10436.903782
2523.376400,2987.772442,-370.102971,8438.347739
2523.376729,4366.744339,222.061783,6439.791695
2523.377059,3600.648841,1776.494261,6143.709319
2523.377388,2987.772442,2442.679609,7772.162391
2523.377717,1455.581446,1776.494261,7772.162391
2523.378046,383.047749,-74.020594,8586.388927
2523.378375,-1072.533697,-2072.576638,9918.759623
2523.378704,-1608.800546,-2590.720797,10436.903782
2523.379033,-3217.601092,-2442.679609,9844.739029
2523.379363,-2374.896044,-2442.679609,9992.780217
2523.379692,-1532.190996,-1406.391290,10362.883188
2523.380021,-1149.143247,740.205942,10214.842000
2523.380350,-995.924147,1702.473667,10140.821405
2523.380679,-1225.752797,1110.308913,9104.533087
2523.381008,689.485948,370.102971,9474.636058
2523.381337,1149.143247,814.226536,8956.491898
2523.381667,-153.219100,296.082377,8512.368333
2523.381996,0.000000,-1850.514855,11399.171507
2523.382325,919.314598,-1628.453072,10510.924376
2523.382654,3370.820191,-370.102971,8586.388927
2523.382983,3983.696590,370.102971,5921.647536
2523.383312,4443.353888,592.164754,7105.977043
2523.383641,3294.210641,2146.597232,7105.977043
2523.383971,2604.724693,2368.659014,7179.997637
2523.384300,1149.143247,1110.308913,7550.100608
2523.384629,0.000000,-814.226536,8882.471304
2523.384958,-1915.238745,-1924.535449,10214.842000
2523.385287,-3677.258390,-2220.617826,11399.171507
2523.385616,-2757.943793,-3034.844362,10362.883188
2523.385945,-1838.629195,-1110.308913,10140.821405
2523.386275,-1149.143247,740.205942,10362.883188
2523.386604,-1149.143247,2368.659014,9474.636058
2523.386933,-383.047749,1702.473667,9696.697840
2523.387262,0.000000,-0.000000,9326.594869
2523.387591,1302.362347,444.123565,8586.388927
2523.387920,0.000000,-74.020594,8882.471304
2523.388250,-919.314598,-2664.741391,10807.006753
2523.388579,612.876398,-2590.720797,11843.295072
2523.388908,3064.381992,-518.144159,7920.203579
2523.389237,4519.963438,-0.000000,6809.894666
2523.389566,3830.477490,370.102971,5699.585753
2523.389896,3064.381992,2738.761985,7624.121203
2523.390225,2298.286494,1998.556043,8216.285956
2523.390554,76.609550,592.164754,8216.285956
2523.390883,-1072.533697,-1036.288319,9548.656652
2523.391212,-2757.943793,-2442.679609,11029.068536
2523.391542,-3217.601092,-2368.659014,10288.862594
2523.391871,-2374.896044,-2146.597232,10140.821405
2523.392200,-1838.629195,-1776.494261,9696.697840
2523.392529,-919.314598,222.061783,10584.944971
2523.392858,-383.047749,1850.514855,9548.656652
2523.393188,-383.047749,1480.411884,8290.306550
2523.393517,612.876398,148.041188,8512.368333
2523.393846,995.924147,888.247130,7920.203579
2523.394175,612.876398,888.247130,8734.430116
2523.394504,229.828649,-2516.700203,10362.883188
2523.394834,2528.115143,-1776.494261,10362.883188
2523.395163,3294.210641,-0.000000,6439.791695
2523.395492,4749.792088,-0.000000,7105.977043
2523.395821,3830.477490,1480.411884,5625.565159
2523.396150,3753.867940,2738.761985,7402.059420
2523.396480,2604.724693,1850.514855,8142.265362
2523.396809,689.485948,666.185348,8216.285956
2523.397138,-766.095498,-2146.597232,9696.697840
2523.397467,-2757.943793,-2590.720797,10732.986159
2523.397796,-3064.381992,-2664.741391,10732.986159
2523.398126,-3064.381992,-2294.638420,9918.759623
2523.398455,-1455.581446,-2072.576638,10955.047942
2523.398784,-842.705048,-0.000000,10807.006753
2523.399113,536.266849,1628.453072,9770.718434
2523.399442,229.828649,1702.473667,9104.533087
2523.399772,842.705048,518.144159,8438.347739
2523.400101,919.314598,1554.432478,8734.430116
2523.400430,689.485948,-814.226536,10658.965565
2523.400759,2068.457845,-2294.638420,10807.006753
2523.401089,3217.601092,148.041188,7476.080014
2523.401418,5132.839837,-0.000000,8068.244768
2523.401747,3907.087040,592.164754,5773.606348
2523.402076,3677.258390,1850.514855,7846.182985
2523.402405,1838.629195,1258.350101,8290.306550
2523.402735,689.485948,814.226536,8438.347739
2523.403064,-1378.971896,-814.226536,10362.883188
2523.403393,-2451.505594,-2738.761985,10881.027347
2523.403722,-3447.429741,-2886.803174,10732.986159
2523.404051,-3140.991542,-2368.659014,10584.944971
2523.404381,-2221.676944,-2738.761985,10066.800811
2523.404710,-2374.896044,-1628.453072,11177.109724
2523.405039,-1149.143247,1332.370696,10140.821405
2523.405368,-612.876398,2072.576638,8512.368333
2523.405697,0.000000,1258.350101,8364.327145
2523.406027,1455.581446,1628.453072,8068.244768
2523.406356,0.000000,1110.308913,7105.977043
2523.406685,0.000000,-592.164754,10288.862594
2523.407014,1532.190996,-2960.823768,10955.047942
2523.407343,1685.410096,-888.247130,7031.956449
2523.407673,3447.429741,-444.123565,7105.977043
2523.408002,3677.258390,-0.000000,6439.791695
2523.408331,3064.381992,814.226536,7402.059420
2523.408660,2604.724693,2368.659014,8290.306550
2523.408989,1149.143247,1702.473667,8068.244768
2523.409319,-536.266849,-444.123565,9104.533087
2523.409648,-1762.019645,-1850.514855,10214.842000
2523.409977,-2528.115143,-1850.514855,10584.944971
2523.410306,-2298.286494,-2442.679609,9474.636058
2523.410635,-1838.629195,-2072.576638,10140.821405
2523.410965,-1608.800546,-1406.391290,10362.883188
2523.411294,-1149.143247,740.205942,9474.636058
2523.411623,-995.924147,1406.391290,9474.636058
2523.411952,0.000000,148.041188,8660.409521
2523.412281,1072.533697,518.144159,8808.450710
2523.412611,612.876398,1184.329507,8068.244768
2523.412940,153.219100,-740.205942,9696.697840
2523.413269,1072.533697,-2146.597232,11917.315666
2523.413598,3294.210641,-0.000000,8290.306550
2523.413928,4290.134789,666.185348,7920.203579
2523.414257,3907.087040,-0.000000,5847.626942
2523.414586,2911.162892,2220.617826,7254.018232
2523.414915,1991.848295,2072.576638,8660.409521
2523.415244,459.657299,1036.288319,8290.306550
2523.415574,-1072.533697,-1184.329507,9696.697840
2523.415903,-1991.848295,-2516.700203,11029.068536
2523.416232,-2987.772442,-1924.535449,9696.697840
2523.416561,-2987.772442,-2664.741391,9770.718434
2523.416890,-2834.553343,-2368.659014,10510.924376
2523.417220,-2298.286494,-1258.350101,11103.089130
2523.417549,-1838.629195,962.267725,10584.944971
2523.417878,-1455.581446,1406.391290,8882.471304
2523.418207,-153.219100,222.061783,8586.388927
2523.418536,1762.019645,1628.453072,8808.450710
2523.418866,689.485948,1850.514855,7624.121203
2523.419195,919.314598,-1332.370696,10436.903782
2523.419524,2604.724693,-1480.411884,10436.903782
2523.419853,3983.696590,740.205942,6291.750507
2523.420182,4826.401637,-0.000000,7550.100608
2523.420512,4366.744339,296.082377,5181.441594
2523.420841,3983.696590,1628.453072,7624.121203
2523.421170,1991.848295,962.267725,8364.327145
2523.421499,689.485948,888.247130,7846.182985
2523.421828,-1072.533697,-1924.535449,10362.883188
2523.422158,-2451.505594,-2516.700203,10510.924376
2523.422487,-2604.724693,-2590.720797,10362.883188
2523.422816,-2681.334243,-1998.556043,9622.677246
2523.423145,-1762.019645,-2368.659014,9844.739029
2523.423474,-1455.581446,-592.164754,11029.068536
2523.423804,-459.657299,1850.514855,9696.697840
2523.424133,-689.485948,1850.514855,9178.553681
2523.424462,612.876398,370.102971,8586.388927
2523.424791,919.314598,1776.494261,8364.327145
2523.425120,383.047749,1110.308913,8882.471304
2523.425450,153.219100,-1998.556043,10732.986159
2523.425779,1532.190996,-1702.473667,11399.171507
2523.426108,2681.334243,-222.061783,8364.327145
2523.426437,4290.134789,370.102971,7179.997637
2523.426766,4136.915689,814.226536,5847.626942
2523.427096,3983.696590,2664.741391,6957.935855
2523.427425,3294.210641,2220.617826,8068.244768
2523.427754,1225.752797,1702.473667,7031.956449
2523.428083,76.609550,-1110.308913,9030.512492
2523.428413,-2221.676944,-2294.638420,10510.924376
2523.428742,-2757.943793,-2664.741391,10807.006753
2523.429071,-3217.601092,-3034.844362,9622.677246
2523.429400,-2604.724693,-2664.741391,10732.986159
2523.429729,-2145.067394,-888.247130,11325.150913
2523.430059,-1532.190996,1406.391290,9696.697840
2523.430388,-2221.676944,1628.453072,9622.677246
2523.430717,-919.314598,740.205942,9030.512492
2523.431046,995.924147,888.247130,9474.636058
2523.431375,306.438199,1332.370696,7920.203579
2523.431705,0.000000,-518.144159,9252.574275
2523.432034,0.000000,-2812.782580,11917.315666
2523.432363,3140.991542,-2368.659014,9400.615463
2523.432692,4136.915689,296.082377,6735.874072
2523.433021,4596.572988,-222.061783,6809.894666
2523.433351,3600.648841,1776.494261,5699.585753
2523.433680,3447.429741,2516.700203,7994.224174
2523.434009,1225.752797,1850.514855,7179.997637
2523.434338,153.219100,-74.020594,8142.265362
2523.434667,-1455.581446,-1998.556043,10510.924376
2523.434997,-3294.210641,-1998.556043,10510.924376
2523.435326,-3753.867940,-2960.823768,11177.109724
2523.435655,-2834.553343,-2664.741391,10362.883188
2523.435984,-1532.190996,-1258.350101,10436.903782
2523.436313,-1762.019645,1184.329507,10362.883188
2523.436643,-1149.143247,2072.576638,9918.759623
2523.436972,-612.876398,444.123565,8808.450710
2523.437301,1532.190996,-0.000000,9104.533087
2523.437630,1149.143247,1628.453072,7920.203579
2523.437959,383.047749,-518.144159,8808.450710
2523.438289,1455.581446,-2368.659014,11991.336260
2523.438618,2451.505594,-296.082377,7105.977043
2523.438947,4749.792088,222.061783,7994.224174
2523.439276,4136.915689,-0.000000,5181.441594
2523.439605,4213.525239,2146.597232,6291.750507
2523.439935,2298.286494,1998.556043,8734.430116
2523.440264,689.485948,1332.370696,7328.038826
2523.440593,-689.485948,-518.144159,9104.533087
2523.440922,-2298.286494,-2220.617826,10066.800811
2523.441252,-2604.724693,-2516.700203,10732.986159
2523.441581,-3677.258390,-2738.761985,10214.842000
2523.441910,-2145.067394,-3034.844362,9844.739029
2523.442239,-2221.676944,-1332.370696,10732.986159
2523.442568,-1072.533697,1110.308913,10140.821405
2523.442898,-1225.752797,2072.576638,9030.512492
2523.443227,-612.876398,814.226536,8882.471304
2523.443556,612.876398,1776.494261,9474.636058
2523.443885,536.266849,1406.391290,8364.327145
2523.444214,76.609550,-740.205942,9844.739029
2523.444544,995.924147,-2368.659014,11843.295072
2523.444873,2528.115143,-444.123565,8290.306550
2523.445202,4290.134789,296.082377,8364.327145
2523.445531,4213.525239,-0.000000,6069.688724
2523.445860,4290.134789,1998.556043,7698.141797
2523.446190,2604.724693,2146.597232,8882.471304
2523.446519,1378.971896,1776.494261,7550.100608
2523.446848,76.609550,-0.000000,9326.594869
2523.447177,-1685.410096,-1776.494261,9992.780217
2523.447506,-2451.505594,-1998.556043,10881.027347
2523.447836,-3140.991542,-2072.576638,9918.759623
2523.448165,-1685.410096,-2294.638420,9696.697840
2523.448494,-1378.971896,-1258.350101,10510.924376
2523.448823,-536.266849,1480.411884,9548.656652
2523.449152,-459.657299,2220.617826,9474.636058
2523.449482,0.000000,592.164754,8808.450710
2523.449811,1302.362347,1110.308913,8956.491898
2523.450140,459.657299,962.267725,8660.409521
2523.450469,459.657299,-1702.473667,9992.780217
2523.450798,919.314598,-2072.576638,11177.109724
2523.451128,2604.724693,-888.247130,9030.512492
2523.451457,3753.867940,-0.000000,7402.059420
2523.451786,4136.915689,370.102971,6217.729913
2523.452115,3907.087040,2072.576638,6587.832884
2523.452444,2987.772442,2072.576638,7920.203579
2523.452774,1378.971896,1184.329507,7105.977043
2523.453103,-153.219100,-888.247130,8290.306550
2523.453432,-1915.238745,-2146.597232,9696.697840
2523.453761,-2911.162892,-2664.741391,10955.047942
2523.454091,-3370.820191,-2960.823768,9474.636058
2523.454420,-2757.943793,-2590.720797,10066.800811
2523.454749,-1991.848295,-1628.453072,10436.903782
2523.455078,-995.924147,518.144159,9844.739029
2523.455407,-1072.533697,666.185348,10066.800811
2523.455737,-766.095498,592.164754,9104.533087
2523.456066,766.095498,518.144159,9252.574275
2523.456395,0.000000,1406.391290,8290.306550
2523.456724,306.438199,-444.123565,9622.677246
2523.457053,612.876398,-2368.659014,12065.356855
2523.457383,2911.162892,-888.247130,8216.285956
2523.457712,4596.572988,370.102971,7328.038826
2523.458041,4519.963438,-0.000000,5921.647536
2523.458370,4060.306139,2368.659014,6513.812290
2523.458699,3294.210641,1850.514855,8808.450710
2523.459029,1072.533697,1850.514855,7624.121203
2523.459358,-229.828649,-296.082377,9030.512492
2523.459687,-2145.067394,-2368.659014,10288.862594
2523.460016,-3064.381992,-2294.638420,11177.109724
2523.460345,-3753.867940,-2590.720797,10584.944971
2523.460675,-2528.115143,-2368.659014,10732.986159
2523.461004,-1991.848295,-1110.308913,10807.006753
2523.461333,-383.047749,1258.350101,9696.697840
2523.461662,-383.047749,2590.720797,9474.636058
2523.461991,459.657299,1036.288319,8660.409521
2523.462321,1302.362347,1110.308913,7846.182985
2523.462650,459.657299,1110.308913,8956.491898
2523.462979,1225.752797,-2812.782580,11843.295072
2523.463308,2145.067394,-1258.350101,7624.121203
2523.463637,4979.620737,814.226536,8512.368333
2523.463967,4060.306139,222.061783,5773.606348
2523.464296,4673.182538,1702.473667,6661.853478
2523.464625,2757.943793,1480.411884,8142.265362
2523.464954,1991.848295,1184.329507,7328.038826
2523.465283,919.314598,-222.061783,9178.553681
2523.465613,-1915.238745,-962.267725,10066.800811
2523.465942,-2604.724693,-3404.947333,11473.192101
2523.466271,-3830.477490,-3108.864956,11621.233289
2523.466600,-2528.115143,-2442.679609,9844.739029
2523.466930,-2221.676944,-2590.720797,10881.027347
2523.467259,-1838.629195,-222.061783,10510.924376
2523.467588,-1149.143247,2146.597232,9918.759623
2523.467917,536.266849,962.267725,9104.533087
2523.468246,612.876398,1998.556043,7994.224174
2523.468576,612.876398,2072.576638,8068.244768
2523.468905,229.828649,296.082377,9104.533087
2523.469234,306.438199,-1924.535449,11103.089130
2523.469563,2145.067394,-1480.411884,8660.409521
2523.469892,3370.820191,-518.144159,7698.141797
2523.470222,3294.210641,-370.102971,7254.018232
2523.470551,3753.867940,814.226536,7328.038826
2523.470880,2757.943793,1924.535449,8734.430116
2523.471209,1532.190996,2368.659014,7698.141797
2523.471538,766.095498,1184.329507,8808.450710
2523.471868,-995.924147,-666.185348,9918.759623
2523.472197,-2604.724693,-1258.350101,9770.718434
2523.472526,-2911.162892,-1998.556043,11177.109724
2523.472855,-2834.553343,-2146.597232,9548.656652
2523.473184,-1991.848295,-2146.597232,10881.027347
2523.473514,-1532.190996,-0.000000,9770.718434
2523.473843,-689.485948,1998.556043,8734.430116
2523.474172,-459.657299,962.267725,9030.512492
2523.474501,0.000000,1332.370696,7994.224174
2523.474830,842.705048,1110.308913,8586.388927
2523.475160,459.657299,-0.000000,9104.533087
2523.475489,-383.047749,-1776.494261,10881.027347
2523.475818,1838.629195,-1850.514855,10214.842000
2523.476147,3217.601092,-0.000000,6809.894666
2523.476476,4366.744339,-222.061783,7550.100608
2523.476806,3907.087040,1332.370696,6143.709319
2523.477135,3447.429741,2960.823768,7920.203579
2523.477464,1838.629195,1776.494261,8142.265362
2523.477793,612.876398,296.082377,7550.100608
2523.478122,-1072.533697,-1702.473667,10140.821405
2523.478452,-2987.772442,-2442.679609,10214.842000
2523.478781,-3753.867940,-3404.947333,11103.089130
2523.479110,-3830.477490,-2812.782580,10140.821405
2523.479439,-1991.848295,-2812.782580,10881.027347
2523.479768,-2374.896044,-444.123565,10362.883188
2523.480098,-1072.533697,1332.370696,9548.656652
2523.480427,-1072.533697,1332.370696,8808.450710
2523.480756,76.609550,1110.308913,8882.471304
2523.481085,612.876398,1850.514855,8586.388927
2523.481415,153.219100,518.144159,8438.347739
2523.481744,76.609550,-1258.350101,10140.821405
2523.482073,1302.362347,-2516.700203,11251.130318
2523.482402,2298.286494,-814.226536,7328.038826
2523.482731,4443.353888,-370.102971,7772.162391
2523.483061,4213.525239,888.247130,5995.668130
2523.483390,3983.696590,2812.782580,7328.038826
2523.483719,1915.238745,2442.679609,8734.430116
2523.484048,0.000000,1702.473667,8142.265362
2523.484377,-536.266849,-962.267725,9474.636058
2523.484707,-2374.896044,-1480.411884,9622.677246
2523.485036,-2834.553343,-2368.659014,10881.027347
2523.485365,-3140.991542,-2368.659014,9770.718434
2523.485694,-1685.410096,-2294.638420,10362.883188
2523.486023,-1762.019645,-814.226536,10510.924376
2523.486353,-536.266849,962.267725,9622.677246
2523.486682,153.219100,1110.308913,9326.594869
2523.487011,536.266849,444.123565,8512.368333
2523.487340,995.924147,1554.432478,8216.285956
2523.487669,229.828649,296.082377,9178.553681
2523.487999,1149.143247,-2368.659014,11843.295072
2523.488328,2681.334243,-1036.288319,8808.450710
2523.488657,4979.620737,222.061783,7624.121203
2523.488986,4749.792088,370.102971,5551.544565
2523.489315,4826.401637,1332.370696,6143.709319
2523.489645,3983.696590,2220.617826,8216.285956
2523.489974,2145.067394,1480.411884,8216.285956
2523.490303,306.438199,-0.000000,8586.388927
2523.490632,-1838.629195,-1480.411884,10584.944971
2523.490961,-2681.334243,-2960.823768,11621.233289
2523.491290,-3447.429741,-3034.844362,10510.924376
2523.491619,-2681.334243,-2516.700203,10436.903782
2523.491949,-2374.896044,-2516.700203,10732.986159
2523.492278,-1838.629195,-0.000000,10510.924376
2523.492607,-995.924147,1924.535449,9622.677246
2523.492936,-766.095498,1332.370696,8956.491898
2523.493265,76.609550,1480.411884,8512.368333
2523.493594,1302.362347,1924.535449,7994.224174
2523.493923,229.828649,592.164754,7994.224174
2523.494252,-229.828649,-1406.391290,11177.109724
2523.494581,2681.334243,-2294.638420,11177.109724
2523.494910,2451.505594,-0.000000,6069.688724
2523.495240,3907.087040,-888.247130,7105.977043
2523.495569,3983.696590,962.267725,6217.729913
2523.495898,3600.648841,1776.494261,7550.100608
2523.496227,2374.896044,2442.679609,7550.100608
2523.496556,1455.581446,740.205942,7698.141797
2523.496885,-919.314598,-1332.370696,9400.615463
2523.497214,-2374.896044,-1480.411884,9844.739029
2523.497543,-2681.334243,-2220.617826,10732.986159
2523.497872,-3217.601092,-2442.679609,9400.615463
2523.498202,-1685.410096,-1998.556043,11103.089130
2523.498531,-1685.410096,-518.144159,10066.800811
2523.498860,-842.705048,962.267725,9178.553681
2523.499189,-306.438199,1258.350101,9400.615463
2523.499518,383.047749,-0.000000,8734.430116
2523.499847,766.095498,888.247130,8808.450710
2523.500176,76.609550,296.082377,8586.388927
2523.500505,-153.219100,-1628.453072,10658.965565
2523.500834,842.705048,-2590.720797,11547.212695
2523.501163,3140.991542,-370.102971,8216.285956
2523.501493,4136.915689,814.226536,6809.894666
2523.501822,4519.963438,1258.350101,6365.771101
2523.502151,3294.210641,3182.885551,6735.874072
2523.502480,2911.162892,2664.741391,8216.285956
2523.502809,919.314598,1332.370696,7698.141797
2523.503138,-766.095498,-962.267725,8956.491898
2523.503467,-1762.019645,-2738.761985,10955.047942
2523.503796,-2528.115143,-2960.823768,11103.089130
2523.504125,-3447.429741,-3256.906145,10214.842000
2523.504454,-1838.629195,-2368.659014,10584.944971
2523.504784,-1225.752797,-666.185348,10066.800811
2523.505113,-919.314598,1924.535449,9696.697840
2523.505442,-766.095498,1628.453072,9548.656652
2523.505771,-536.266849,1702.473667,8364.327145
2523.506100,1762.019645,222.061783,9104.533087
2523.506429,76.609550,1628.453072,7698.141797
2523.506758,-459.657299,-962.267725,9474.636058
2523.507087,0.000000,-2516.700203,12065.356855
2523.507416,2374.896044,-1628.453072,9252.574275
2523.507746,3907.087040,296.082377,6143.709319
2523.508075,4673.182538,222.061783,7402.059420
2523.508404,3983.696590,2294.638420,6143.709319
2523.508733,3524.039291,2516.700203,7846.182985
2523.509062,1302.362347,2220.617826,6513.812290
2523.509391,76.609550,444.123565,8290.306550
2523.509720,-1225.752797,-2368.659014,10214.842000
2523.510049,-2757.943793,-1776.494261,11029.068536
2523.510378,-3064.381992,-3256.906145,10807.006753
2523.510707,-1915.238745,-2516.700203,9548.656652
2523.511037,-1302.362347,-1110.308913,10584.944971
2523.511366,-1149.143247,1332.370696,9770.718434
2523.511695,-383.047749,2072.576638,9622.677246
2523.512024,-612.876398,740.205942,8808.450710
2523.512353,1149.143247,592.164754,9326.594869
2523.512682,306.438199,592.164754,8808.450710
2523.513011,-459.657299,-592.164754,9252.574275
2523.513340,-459.657299,-2516.700203,11843.295072
2523.513669,1762.019645,-1332.370696,9622.677246
2523.513998,3370.820191,296.082377,6587.832884
2523.514328,4136.915689,-0.000000,6587.832884
2523.514657,3064.381992,2220.617826,5847.626942
2523.514986,3140.991542,1628.453072,8660.409521
2523.515315,995.924147,1184.329507,7105.977043
2523.515644,-689.485948,222.061783,8142.265362
2523.515973,-1838.629195,-2368.659014,10584.944971
2523.516302,-2451.505594,-1998.556043,10362.883188
2523.516631,-3447.429741,-2590.720797,9918.759623
2523.516960,-2451.505594,-2294.638420,10214.842000
2523.517289,-1991.848295,-1776.494261,10362.883188
2523.517619,-1685.410096,1184.329507,10584.944971
2523.517948,-1225.752797,2072.576638,8956.491898
2523.518277,-612.876398,1184.329507,9252.574275
2523.518606,842.705048,-0.000000,9104.533087
2523.518935,995.924147,1480.411884,7772.162391
2523.519264,0.000000,-888.247130,9326.594869
2523.519593,0.000000,-2960.823768,11769.274478
2523.519922,2298.286494,-1702.473667,8882.471304
2523.520251,3983.696590,370.102971,7105.977043
2523.520581,4290.134789,-222.061783,6291.750507
2523.520910,3600.648841,1850.514855,6439.791695
2523.521239,3677.258390,2294.638420,8586.388927
2523.521568,2068.457845,1850.514855,7328.038826
2523.521897,76.609550,296.082377,8438.347739
2523.522226,-1225.752797,-1776.494261,9992.780217
2523.522555,-2451.505594,-1258.350101,10436.903782
2523.522884,-2834.553343,-2664.741391,11325.150913
2523.523213,-2298.286494,-2072.576638,9474.636058
2523.523542,-995.924147,-1776.494261,10955.047942
2523.523872,-842.705048,1184.329507,9992.780217
2523.524201,766.095498,1258.350101,9252.574275
2523.524530,-153.219100,666.185348,9030.512492
2523.524859,1149.143247,444.123565,8512.368333
2523.525188,1149.143247,888.247130,8956.491898
2523.525517,842.705048,-1924.535449,10732.986159
2523.525846,1991.848295,-1184.329507,9252.574275
2523.526175,4290.134789,370.102971,8216.285956
2523.526504,4519.963438,814.226536,6291.750507
2523.526833,3983.696590,1628.453072,6143.709319
2523.527163,3600.648841,2146.597232,7920.203579
2523.527492,2221.676944,2294.638420,7179.997637
2523.527821,995.924147,1184.329507,8068.244768
2523.528150,-1378.971896,-888.247130,9548.656652
2523.528479,-2451.505594,-2738.761985,10584.944971
2523.528808,-3447.429741,-3182.885551,10732.986159
2523.529137,-2145.067394,-2812.782580,10066.800811
2523.529466,-2834.553343,-2590.720797,9992.780217
2523.529795,-2834.553343,-962.267725,10436.903782
2523.530124,-1685.410096,962.267725,10362.883188
2523.530454,-1455.581446,814.226536,9104.533087
2523.530783,0.000000,518.144159,9030.512492
2523.531112,1149.143247,1258.350101,8660.409521
2523.531441,0.000000,1332.370696,7846.182985
2523.531770,76.609550,-1258.350101,10807.006753
2523.532099,1378.971896,-2294.638420,11251.130318
2523.532428,2528.115143,-0.000000,7031.956449
2523.532757,4213.525239,-0.000000,7698.141797
2523.533086,3447.429741,740.205942,5477.523971
2523.533416,3600.648841,1480.411884,7476.080014
2523.533745,2145.067394,2146.597232,8142.265362
2523.534074,306.438199,962.267725,7772.162391
2523.534403,-766.095498,-1554.432478,9992.780217
2523.534732,-2604.724693,-2220.617826,9696.697840
2523.535061,-3524.039291,-2664.741391,11103.089130
2523.535390,-4136.915689,-2368.659014,9918.759623
2523.535719,-2757.943793,-2812.782580,11399.171507
2523.536048,-2834.553343,-740.205942,10807.006753
2523.536377,-995.924147,1480.411884,10288.862594
2523.536707,-995.924147,1850.514855,9104.533087
2523.537036,306.438199,296.082377,8882.471304
2523.537365,1225.752797,1554.432478,8216.285956
2523.537694,689.485948,740.205942,9178.553681
2523.538023,1532.190996,-2146.597232,11917.315666
2523.538352,2987.772442,-148.041188,6809.894666
2523.538681,5209.449386,1184.329507,7105.977043
2523.539010,4060.306139,1406.391290,5329.482782
2523.539339,4826.401637,2146.597232,6217.729913
2523.539668,2911.162892,2072.576638,7772.162391
2523.539998,1608.800546,1406.391290,7624.121203
2523.540327,0.000000,-518.144159,8956.491898
2523.540656,-2681.334243,-2220.617826,10436.903782
2523.540985,-2604.724693,-3182.885551,11473.192101
2523.541314,-4213.525239,-2516.700203,10214.842000
2523.541643,-2528.115143,-2886.803174,10584.944971
2523.541972,-2911.162892,-2368.659014,10807.006753
2523.542301,-1302.362347,222.061783,10584.944971
2523.542630,-1149.143247,2220.617826,9252.574275
2523.542960,-689.485948,888.247130,8586.388927
2523.543289,689.485948,1998.556043,8882.471304
2523.543618,76.609550,2294.638420,7846.182985
2523.543947,229.828649,-370.102971,9622.677246
2523.544276,1378.971896,-2220.617826,11621.233289
2523.544605,2987.772442,-740.205942,7328.038826
2523.544934,4443.353888,-222.061783,7772.162391
2523.545263,4290.134789,-444.123565,6513.812290
2523.545592,4519.963438,1258.350101,7328.038826
2523.545921,2528.115143,1554.432478,8660.409521
2523.546251,1532.190996,1850.514855,7624.121203
2523.546580,-229.828649,-222.061783,9400.615463
2523.546909,-1991.848295,-1628.453072,10288.862594
2523.547238,-3524.039291,-2590.720797,11251.130318
2523.547567,-3217.601092,-2664.741391,10584.944971
2523.547896,-2298.286494,-1998.556043,10214.842000
2523.548225,-2451.505594,-1850.514855,11177.109724
2523.548554,-1302.362347,888.247130,9918.759623
2523.548883,-919.314598,1924.535449,9252.574275
2523.549212,0.000000,666.185348,9104.533087
2523.549542,1149.143247,1850.514855,8068.244768
2523.549871,536.266849,1332.370696,7772.162391
2523.550200,0.000000,-1184.329507,10140.821405
2523.550529,2298.286494,-1850.514855,10881.027347
2523.550858,3907.087040,148.041188,6735.874072
2523.551187,4826.401637,-0.000000,7105.977043
2523.551516,4290.134789,592.164754,5625.565159
2523.551845,4596.572988,2146.597232,7105.977043
2523.552174,2528.115143,2960.823768,7772.162391
2523.552503,1685.410096,666.185348,7920.203579
2523.552833,-612.876398,-740.205942,9548.656652
2523.553162,-2221.676944,-1998.556043,10140.821405
2523.553491,-3140.991542,-3330.926739,11843.295072
2523.553820,-3983.696590,-3034.844362,10140.821405
2523.554149,-2451.505594,-3256.906145,10732.986159
2523.554478,-2068.457845,-1924.535449,10807.006753
2523.554807,-1302.362347,888.247130,9548.656652
2523.555136,-995.924147,1480.411884,9548.656652
2523.555465,-153.219100,518.144159,8512.368333
2523.555795,689.485948,2294.638420,8290.306550
2523.556124,536.266849,1480.411884,8216.285956
2523.556453,-459.657299,-666.185348,9844.739029
2523.556782,2145.067394,-2072.576638,11399.171507
2523.557111,3524.039291,-518.144159,6809.894666
2523.557440,4519.963438,-370.102971,7994.224174
2523.557769,3524.039291,-74.020594,6513.812290
2523.558098,4290.134789,1924.535449,7698.141797
2523.558427,2145.067394,2294.638420,8290.306550
2523.558756,1532.190996,1628.453072,7846.182985
2523.559086,-459.657299,370.102971,10140.821405
2523.559415,-1915.238745,-1776.494261,10214.842000
2523.559744,-2834.553343,-2664.741391,10881.027347
2523.560073,-3524.039291,-2590.720797,9918.759623
2523.560402,-2145.067394,-3182.885551,10584.944971
2523.560731,-2221.676944,-1702.473667,10807.006753
2523.561060,-1378.971896,1110.308913,9992.780217
2523.561389,-1608.800546,1258.350101,9474.636058
2523.561718,-229.828649,370.102971,8512.368333
2523.562047,766.095498,2220.617826,8364.327145
2523.562377,459.657299,1554.432478,7698.141797
2523.562706,229.828649,-518.144159,9696.697840
2523.563035,2145.067394,-1702.473667,10807.006753
2523.563364,3677.258390,592.164754,5699.585753
2523.563693,4903.011187,222.061783,8142.265362
2523.564022,3677.258390,-0.000000,5699.585753
2523.564351,4826.401637,2220.617826,7105.977043
2523.564680,2221.676944,1554.432478,7994.224174
2523.565009,1072.533697,740.205942,7550.100608
2523.565339,-612.876398,-1702.473667,10066.800811
2523.565668,-2681.334243,-2442.679609,9770.718434
2523.565997,-2757.943793,-3627.009116,10732.986159
2523.566326,-3524.039291,-2886.803174,9844.739029
2523.566655,-1838.629195,-3034.844362,10584.944971
2523.566984,-2068.457845,-1110.308913,10955.047942
2523.567313,-1149.143247,1258.350101,9696.697840
2523.567642,-995.924147,1850.514855,9400.615463
2523.567971,0.000000,1036.288319,9178.553681
2523.568300,766.095498,2442.679609,8882.471304
2523.568630,229.828649,1776.494261,8142.265362
2523.568959,0.000000,-1184.329507,10214.842000
2523.569288,1225.752797,-1776.494261,11103.089130
2523.569617,3370.820191,-74.020594,7254.018232
2523.569946,4136.915689,-148.041188,7624.121203
2523.570275,3600.648841,-0.000000,6069.688724
2523.570604,3753.867940,2072.576638,7624.121203
2523.570933,2145.067394,1850.514855,8290.306550
2523.571262,689.485948,1480.411884,7698.141797
2523.571591,-1302.362347,-518.144159,9474.636058
2523.571921,-1991.848295,-2072.576638,10881.027347
2523.572250,-2987.772442,-2072.576638,9992.780217
2523.572579,-2604.724693,-2368.659014,9918.759623
2523.572908,-1838.629195,-2886.803174,10362.883188
2523.573237,-1838.629195,-1036.288319,10881.027347
2523.573566,-1378.971896,1036.288319,9992.780217
2523.573895,-1302.362347,1628.453072,9104.533087
2523.574224,-612.876398,888.247130,8734.430116
2523.574553,383.047749,1702.473667,8734.430116
2523.574882,153.219100,1702.473667,8068.244768
2523.575212,-1149.143247,-814.226536,10658.965565
2523.575541,536.266849,-2368.659014,11473.192101
2523.575870,1838.629195,-814.226536,9030.512492
2523.576199,2681.334243,-666.185348,7105.977043
2523.576528,3830.477490,-0.000000,7179.997637
2523.576857,3983.696590,1998.556043,7254.018232
2523.577186,3524.039291,2368.659014,8142.265362
2523.577515,2374.896044,2368.659014,7624.121203
2523.577844,612.876398,-518.144159,8068.244768
2523.578174,-1225.752797,-1110.308913,9992.780217
2523.578503,-2374.896044,-2368.659014,9918.759623
2523.578832,-3217.601092,-3552.988522,11621.233289
2523.579161,-3294.210641,-2886.803174,9622.677246
2523.579490,-1149.143247,-1184.329507,11103.089130
2523.579819,-1608.800546,370.102971,9696.697840
2523.580148,-1302.362347,1776.494261,9178.553681
2523.580477,-766.095498,740.205942,8956.491898
2523.580806,153.219100,740.205942,9104.533087
2523.581135,689.485948,1258.350101,8216.285956
2523.581465,0.000000,-370.102971,8882.471304
2523.581794,0.000000,-2368.659014,11547.212695
2523.582123,1838.629195,-2294.638420,9770.718434
2523.582452,4060.306139,-0.000000,6735.874072
2523.582781,4903.011187,-444.123565,7105.977043
2523.583110,4290.134789,1628.453072,5921.647536
2523.583439,4366.744339,3108.864956,7550.100608
2523.583768,2451.505594,2220.617826,7105.977043
2523.584097,1685.410096,1110.308913,8142.265362
2523.584426,-536.266849,-814.226536,9474.636058
2523.584756,-2451.505594,-1924.535449,9696.697840
2523.585085,-2681.334243,-3404.947333,11695.253884
2523.585414,-2987.772442,-2738.761985,9400.615463
2523.585743,-1225.752797,-2220.617826,10510.924376
2523.586072,-1608.800546,-222.061783,9992.780217
2523.586401,-459.657299,1480.411884,9474.636058
2523.586730,-1532.190996,814.226536,9474.636058
2523.587059,612.876398,888.247130,8808.450710
2523.587388,612.876398,1554.432478,8364.327145
2523.587717,0.000000,-814.226536,9696.697840
2523.588047,459.657299,-2368.659014,11695.253884
2523.588376,2145.067394,-962.267725,8512.368333
2523.588705,4903.011187,-148.041188,7920.203579
2523.589034,4596.572988,148.041188,6069.688724
2523.589363,4673.182538,2368.659014,6587.832884
2523.589692,3677.258390,2738.761985,8216.285956
2523.590021,2145.067394,1554.432478,7254.018232
2523.590350,459.657299,-0.000000,8882.471304
2523.590679,-1915.238745,-1258.350101,9844.739029
2523.591008,-2987.772442,-3108.864956,11399.171507
2523.591337,-2987.772442,-3997.112087,11029.068536
2523.591666,-2451.505594,-2516.700203,9844.739029
2523.591995,-1838.629195,-1998.556043,10658.965565
2523.592324,-1838.629195,148.041188,10140.821405
2523.592653,-1378.971896,1924.535449,10140.821405
2523.592982,-1072.533697,1258.350101,9326.594869
2523.593311,689.485948,1332.370696,8660.409521
2523.593640,229.828649,1628.453072,8290.306550
2523.593969,306.438199,-296.082377,8808.450710
2523.594298,-689.485948,-1850.514855,10955.047942
2523.594627,919.314598,-1776.494261,10436.903782
2523.594955,2528.115143,-518.144159,7698.141797
2523.595284,3294.210641,-296.082377,7328.038826
2523.595613,3294.210641,1702.473667,6069.688724
2523.595942,2757.943793,2886.803174,7402.059420
2523.596271,2068.457845,1998.556043,7550.100608
2523.596600,689.485948,962.267725,7994.224174
2523.596929,-383.047749,-1036.288319,9178.553681
2523.597258,-2451.505594,-1998.556043,9474.636058
2523.597587,-2911.162892,-2664.741391,10436.903782
2523.597916,-3140.991542,-2442.679609,9400.615463
2523.598245,-1455.581446,-2294.638420,11325.150913
2523.598574,-1302.362347,222.061783,9992.780217
2523.598903,-1072.533697,1184.329507,10658.965565
2523.599232,-1149.143247,814.226536,9696.697840
2523.599561,0.000000,666.185348,8882.471304
2523.599890,536.266849,518.144159,9252.574275
2523.600219,612.876398,-518.144159,8586.388927
2523.600548,-229.828649,-2368.659014,11029.068536
2523.600877,766.095498,-2072.576638,10732.986159
2523.601206,3524.039291,-148.041188,7624.121203
2523.601535,4213.525239,666.185348,6735.874072
2523.601864,4290.134789,1480.411884,5477.523971
2523.602193,4213.525239,2960.823768,6735.874072
2523.602522,2528.115143,1776.494261,7994.224174
2523.602851,1149.143247,666.185348,8142.265362
2523.603180,-306.438199,-1406.391290,9548.656652
2523.603509,-2374.896044,-1850.514855,10362.883188
2523.603838,-3217.601092,-2812.782580,11177.109724
2523.604167,-3064.381992,-2368.659014,9992.780217
2523.604496,-1915.238745,-1850.514855,10658.965565
2523.604825,-1378.971896,444.123565,10066.800811
2523.605154,-1149.143247,1924.535449,9252.574275
2523.605483,-689.485948,1850.514855,9252.574275
2523.605812,383.047749,444.123565,8512.368333
2523.606141,1149.143247,592.164754,8512.368333
2523.606470,0.000000,148.041188,8290.306550
2523.606799,-229.828649,-2516.700203,10807.006753
2523.607128,153.219100,-2442.679609,10584.944971
2523.607457,2604.724693,-1332.370696,8734.430116
2523.607786,3447.429741,-74.020594,6883.915261
2523.608115,4519.963438,-0.000000,6365.771101
2523.608444,3524.039291,2442.679609,7179.997637
2523.608773,2911.162892,2368.659014,7846.182985
2523.609102,1455.581446,1332.370696,7994.224174
2523.609431,0.000000,-814.226536,8956.491898
2523.609759,-1762.019645,-1628.453072,9770.718434
2523.610088,-3600.648841,-2368.659014,11695.253884
2523.610417,-3140.991542,-3701.029710,10732.986159
2523.610746,-2681.334243,-2220.617826,9696.697840
2523.611075,-1225.752797,-518.144159,10288.862594
2523.611404,-1302.362347,1258.350101,9474.636058
2523.611733,-459.657299,1554.432478,9474.636058
2523.612062,153.219100,666.185348,8956.491898
2523.612391,153.219100,222.061783,8364.327145
2523.612720,459.657299,-592.164754,10214.842000
2523.613049,1838.629195,-1554.432478,10881.027347
2523.613378,2757.943793,296.082377,7328.038826
2523.613707,4519.963438,518.144159,8216.285956
2523.614036,4596.572988,592.164754,6365.771101
2523.614365,4903.011187,2146.597232,6883.915261
2523.614694,2987.772442,2072.576638,7846.182985
2523.615023,2451.505594,1480.411884,7254.018232
2523.615352,0.000000,-370.102971,9178.553681
2523.615681,-2145.067394,-1258.350101,9992.780217
2523.616010,-3370.820191,-3404.947333,11695.253884
2523.616339,-3907.087040,-3256.906145,10807.006753
2523.616668,-2681.334243,-3182.885551,10214.842000
2523.616997,-2374.896044,-1332.370696,10584.944971
2523.617326,-1378.971896,296.082377,9474.636058
2523.617655,-689.485948,2146.597232,9326.594869
2523.617984,76.609550,1406.391290,8956.491898
2523.618313,766.095498,2442.679609,7476.080014
2523.618642,536.266849,1110.308913,8290.306550
2523.618971,919.314598,-1406.391290,10955.047942
2523.619300,2451.505594,-1554.432478,9326.594869
2523.619629,4519.963438,-0.000000,7772.162391
2523.619958,4213.525239,-518.144159,6809.894666
2523.620287,4290.134789,740.205942,7031.956449
2523.620616,3983.696590,1702.473667,8068.244768
2523.620945,2451.505594,2146.597232,7476.080014
2523.621274,1532.190996,666.185348,8216.285956
2523.621603,-1378.971896,-740.205942,9992.780217
2523.621932,-3294.210641,-2442.679609,10658.965565
2523.622261,-3370.820191,-3478.967927,11547.212695
2523.622590,-3294.210641,-2664.741391,9696.697840
2523.622919,-2604.724693,-3034.844362,10658.965565
2523.623248,-2528.115143,-1480.411884,10807.006753
2523.623577,-1608.800546,1036.288319,10066.800811
2523.623906,-995.924147,592.164754,9622.677246
2523.624234,383.047749,1036.288319,8734.430116
2523.624563,766.095498,1850.514855,7994.224174
2523.624892,306.438199,370.102971,8956.491898
2523.625221,1149.143247,-1406.391290,10881.027347
2523.625550,2757.943793,-888.247130,8068.244768
2523.625879,4749.792088,296.082377,6957.935855
2523.626208,4136.915689,-0.000000,6661.853478
2523.626537,4060.306139,1406.391290,7031.956449
2523.626866,3600.648841,1998.556043,7698.141797
2523.627195,1838.629195,1554.432478,7550.100608
2523.627524,0.000000,444.123565,8438.347739
2523.627853,-1608.800546,-1184.329507,9992.780217
2523.628182,-3217.601092,-2738.761985,10881.027347
2523.628511,-3677.258390,-3108.864956,10881.027347
2523.628840,-2451.505594,-2960.823768,9622.677246
2523.629169,-2757.943793,-3552.988522,11103.089130
2523.629498,-2757.943793,-888.247130,10881.027347
2523.629827,-2068.457845,1258.350101,9474.636058
2523.630156,-1302.362347,1036.288319,8882.471304
2523.630485,459.657299,1998.556043,8068.244768
2523.630814,383.047749,2664.741391,8216.285956
2523.631143,612.876398,1036.288319,8142.265362
2523.631472,1455.581446,-2146.597232,11843.295072
2523.631801,2528.115143,-1406.391290,7994.224174
2523.632130,4749.792088,370.102971,6957.935855
2523.632459,4213.525239,-296.082377,6661.853478
2523.632788,3830.477490,1332.370696,6735.874072
2523.633117,3370.820191,2146.597232,9400.615463
2523.633446,2145.067394,1480.411884,7994.224174
2523.633775,612.876398,444.123565,8586.388927
2523.634104,-1838.629195,-1332.370696,10288.862594
2523.634433,-3294.210641,-1924.535449,10658.965565
2523.634762,-3600.648841,-2812.782580,11621.233289
2523.635091,-2911.162892,-2590.720797,9918.759623
2523.635420,-2451.505594,-2960.823768,11177.109724
2523.635749,-1685.410096,-666.185348,10584.944971
2523.636078,-995.924147,1702.473667,9696.697840
2523.636407,-2068.457845,592.164754,9178.553681
2523.636736,0.000000,1258.350101,8808.450710
2523.637065,612.876398,2516.700203,8216.285956
2523.637394,76.609550,592.164754,8956.491898
2523.637723,919.314598,-1036.288319,11325.150913
2523.638052,3447.429741,-370.102971,8734.430116
2523.638381,4749.792088,222.061783,7550.100608
2523.638709,4443.353888,-222.061783,6735.874072
2523.639038,4290.134789,1850.514855,7179.997637
2523.639367,3140.991542,2368.659014,8216.285956
2523.639696,1762.019645,1850.514855,7698.141797
2523.640025,766.095498,370.102971,8364.327145
2523.640354,-1225.752797,-1110.308913,9770.718434
2523.640683,-2528.115143,-2590.720797,10214.842000
2523.641012,-3064.381992,-3478.967927,11399.171507
2523.641341,-2911.162892,-2886.803174,9252.574275
2523.641670,-2068.457845,-2960.823768,11177.109724
2523.641999,-2145.067394,-518.144159,10288.862594
2523.642328,-1149.143247,1332.370696,9252.574275
2523.642657,-919.314598,518.144159,9326.594869
2523.642986,919.314598,1406.391290,8364.327145
2523.643315,229.828649,2220.617826,8216.285956
2523.643644,0.000000,-74.020594,9252.574275
2523.643973,689.485948,-1850.514855,11177.109724
2523.644302,2681.334243,-1406.391290,8808.450710
2523.644631,4519.963438,-74.020594,7476.080014
2523.644960,4519.963438,-814.226536,6365.771101
2523.645289,4366.744339,740.205942,6587.832884
2523.645618,3753.867940,2294.638420,8438.347739
2523.645947,1915.238745,1924.535449,7624.121203
2523.646276,995.924147,740.205942,8364.327145
2523.646605,-1072.533697,-814.226536,9770.718434
2523.646934,-3064.381992,-1776.494261,10214.842000
2523.647263,-3370.820191,-3404.947333,11547.212695
2523.647592,-2451.505594,-2886.803174,9474.636058
2523.647921,-1915.238745,-2812.782580,10214.842000
2523.648250,-1532.190996,-444.123565,10066.800811
2523.648579,-919.314598,1406.391290,9474.636058
2523.648908,-1225.752797,962.267725,9474.636058
2523.649237,0.000000,1776.494261,8290.306550
2523.649566,229.828649,1776.494261,8512.368333
2523.649895,536.266849,-0.000000,8364.327145
2523.650224,0.000000,-1332.370696,10658.965565
2523.650553,1838.629195,-2220.617826,11251.130318
2523.650882,3524.039291,-296.082377,6883.915261
2523.651211,4749.792088,-74.020594,7476.080014
2523.651540,4290.134789,1110.308913,6069.688724
2523.651869,4826.401637,3701.029710,6809.894666
2523.652198,2451.505594,1924.535449,8068.244768
2523.652527,1378.971896,1850.514855,7772.162391
2523.652856,0.000000,-370.102971,9252.574275
2523.653184,-2298.286494,-1702.473667,9844.739029
2523.653513,-3370.820191,-3330.926739,11399.171507
2523.653842,-3447.429741,-4071.132681,10955.047942
2523.654171,-2451.505594,-3330.926739,10362.883188
2523.654500,-1991.848295,-1554.432478,11325.150913
2523.654829,-1532.190996,592.164754,10066.800811
2523.655158,-1378.971896,1554.432478,9622.677246
2523.655487,-612.876398,1184.329507,9252.574275
2523.655816,459.657299,1924.535449,8438.347739
2523.656145,0.000000,1110.308913,8660.409521
2523.656474,0.000000,-814.226536,10362.883188
2523.656803,1149.143247,-2368.659014,11621.233289
2523.657132,2757.943793,-1406.391290,7994.224174
2523.657461,4673.182538,-814.226536,7402.059420
2523.657790,4290.134789,-0.000000,6587.832884
2523.658119,4060.306139,2886.803174,7031.956449
2523.658448,2604.724693,2738.761985,7994.224174
2523.658777,1838.629195,1406.391290,7105.977043
2523.659106,689.485948,148.041188,8660.409521
2523.659435,-1608.800546,-2368.659014,9400.615463
2523.659764,-3524.039291,-2960.823768,10584.944971
2523.660093,-3294.210641,-3701.029710,11547.212695
2523.660422,-2451.505594,-2590.720797,9696.697840
2523.660751,-1915.238745,-1998.556043,10732.986159
2523.661080,-1378.971896,370.102971,9474.636058
2523.661409,-612.876398,2146.597232,9030.512492
2523.661738,-1072.533697,1184.329507,8882.471304
2523.662067,689.485948,1998.556043,8142.265362
2523.662396,536.266849,1702.473667,8512.368333
2523.662725,0.000000,-666.185348,9548.656652
2523.663054,842.705048,-2368.659014,11473.192101
2523.663383,2528.115143,-1036.288319,7624.121203
2523.663712,4596.572988,-0.000000,7402.059420
2523.664041,4596.572988,740.205942,6217.729913
2523.664370,4290.134789,2442.679609,6661.853478
2523.664699,2911.162892,2812.782580,8290.306550
2523.665028,1608.800546,1924.535449,7105.977043
2523.665357,0.000000,444.123565,8290.306550
2523.665686,-1608.800546,-1628.453072,9918.759623
2523.666015,-3524.039291,-3182.885551,11251.130318
2523.666344,-3370.820191,-3775.050304,11769.274478
2523.666673,-2757.943793,-2886.803174,9992.780217
2523.667002,-2221.676944,-1628.453072,11029.068536
2523.667331,-2221.676944,666.185348,10436.903782
2523.667659,-995.924147,2146.597232,9696.697840
2523.667988,-612.876398,1258.350101,9548.656652
2523.668317,459.657299,1776.494261,8438.347739
2523.668646,153.219100,1776.494261,8808.450710
2523.668975,-612.876398,-814.226536,10066.800811
2523.669304,766.095498,-2368.659014,11473.192101
2523.669633,2681.334243,-814.226536,8586.388927
2523.669962,3983.696590,-888.247130,7698.141797
2523.670291,4213.525239,-74.020594,6587.832884
2523.670620,4519.963438,2368.659014,7105.977043
2523.670949,3370.820191,2812.782580,7476.080014
2523.671278,1915.238745,2220.617826,7402.059420
2523.671607,1072.533697,296.082377,8660.409521
2523.671936,-1149.143247,-1480.411884,9696.697840
2523.672265,-3064.381992,-2516.700203,10584.944971
2523.672594,-2757.943793,-3182.885551,11473.192101
2523.672923,-2681.334243,-2812.782580,9400.615463
2523.673252,-1762.019645,-2072.576638,11177.109724
2523.673581,-1378.971896,-0.000000,9844.739029
2523.673910,-842.705048,2146.597232,9548.656652
2523.674239,-536.266849,370.102971,9326.594869
2523.674568,689.485948,962.267725,8438.347739
2523.674897,306.438199,1554.432478,8956.491898
2523.675226,689.485948,-1702.473667,10066.800811
2523.675555,689.485948,-2146.597232,10140.821405
2523.675884,2451.505594,-296.082377,7402.059420
2523.676213,4903.011187,-666.185348,7846.182985
2523.676542,4366.744339,148.041188,6069.688724
2523.676871,4519.963438,2516.700203,7179.997637
2523.677200,3370.820191,2072.576638,7402.059420
2523.677529,1915.238745,1776.494261,6809.894666
2523.677858,229.828649,-148.041188,9326.594869
2523.678187,-1532.190996,-1480.411884,9400.615463
2523.678516,-3524.039291,-3330.926739,10658.965565
2523.678845,-3983.696590,-3404.947333,11695.253884
2523.679174,-2834.553343,-3034.844362,10214.842000
2523.679503,-2145.067394,-2146.597232,11547.212695
2523.679832,-1762.019645,740.205942,10140.821405
2523.680161,-689.485948,2072.576638,9400.615463
2523.680490,-459.657299,814.226536,9326.594869
2523.680819,1149.143247,1998.556043,8068.244768
2523.681148,842.705048,1480.411884,8438.347739
2523.681477,306.438199,-1258.350101,10214.842000
2523.681806,2298.286494,-1850.514855,10214.842000
2523.682134,3524.039291,-0.000000,6883.915261
2523.682463,5056.230287,-0.000000,7031.956449
2523.682792,3983.696590,888.247130,5921.647536
2523.683121,4596.572988,2072.576638,7772.162391
2523.683450,2681.334243,3108.864956,7994.224174
2523.683779,1532.190996,1184.329507,7031.956449
2523.684108,-995.924147,-444.123565,9844.739029
2523.684437,-2834.553343,-1998.556043,9992.780217
2523.684766,-3600.648841,-3330.926739,12287.418637
2523.685095,-3830.477490,-3478.967927,11103.089130
2523.685424,-2451.505594,-3034.844362,10584.944971
2523.685753,-2681.334243,-1850.514855,11325.150913
2523.686082,-1378.971896,1184.329507,9770.718434
2523.686411,-1225.752797,1554.432478,9400.615463
2523.686740,229.828649,1110.308913,8586.388927
2523.687069,536.266849,2442.679609,7328.038826
2523.687398,689.485948,518.144159,9548.656652
2523.687727,766.095498,-1850.514855,11325.150913
2523.688056,2834.553343,-1036.288319,7846.182985
2523.688385,4749.792088,-74.020594,7698.141797
2523.688714,4213.525239,-74.020594,6143.709319
2523.689043,4596.572988,1110.308913,7031.956449
2523.689372,3064.381992,1850.514855,7846.182985
2523.689701,1685.410096,1480.411884,8068.244768
2523.690030,459.657299,-74.020594,9326.594869
2523.690359,-2145.067394,-1036.288319,9400.615463
2523.690688,-3370.820191,-2516.700203,11103.089130
2523.691017,-3753.867940,-3552.988522,11473.192101
2523.691346,-3064.381992,-2738.761985,9400.615463
2523.691675,-2681.334243,-3034.844362,10807.006753
2523.692004,-1838.629195,-814.226536,10140.821405
2523.692333,-766.095498,1702.473667,9326.594869
2523.692663,-229.828649,1110.308913,9326.594869
2523.692992,229.828649,2368.659014,7920.203579
2523.693321,229.828649,2516.700203,7994.224174
2523.693650,306.438199,740.205942,8956.491898
2523.693979,919.314598,-1702.473667,11103.089130
2523.694308,1685.410096,-148.041188,8586.388927
2523.694637,4290.134789,-0.000000,7328.038826
2523.694966,4213.525239,-666.185348,6365.771101
2523.695296,4596.572988,1628.453072,7105.977043
2523.695625,3370.820191,2442.679609,7624.121203
2523.695954,1991.848295,2146.597232,7402.059420
2523.696283,689.485948,1110.308913,8142.265362
2523.696612,-919.314598,-444.123565,10066.800811
2523.696941,-2834.553343,-2368.659014,9844.739029
2523.697270,-3677.258390,-3256.906145,11917.315666
2523.697600,-2987.772442,-3627.009116,10214.842000
2523.697929,-2681.334243,-2664.741391,10584.944971
2523.698258,-2298.286494,-370.102971,10288.862594
2523.698587,-1225.752797,1406.391290,9400.615463
2523.698916,-995.924147,592.164754,9696.697840
2523.699245,459.657299,1702.473667,8512.368333
2523.699574,1149.143247,2072.576638,8734.430116
2523.699904,153.219100,148.041188,9474.636058
2523.700233,1762.019645,-1406.391290,11177.109724
2523.700562,2681.334243,-222.061783,7179.997637
2523.700891,4903.011187,-148.041188,8142.265362
2523.701220,4596.572988,-74.020594,6661.853478
2523.701549,5209.449386,1628.453072,7402.059420
2523.701878,3217.601092,2368.659014,8142.265362
2523.702207,1838.629195,1480.411884,7254.018232
2523.702537,153.219100,-0.000000,9400.615463
2523.702866,-1838.629195,-1258.350101,9696.697840
2523.703195,-3217.601092,-2886.803174,10881.027347
2523.703524,-3677.258390,-3182.885551,11547.212695
2523.703853,-2834.553343,-3404.947333,9400.615463
2523.704182,-2451.505594,-2368.659014,10881.027347
2523.704511,-1991.848295,-444.123565,10436.903782
2523.704841,-1532.190996,1332.370696,9326.594869
2523.705170,-766.095498,666.185348,9400.615463
2523.705499,383.047749,2368.659014,7624.121203
2523.705828,842.705048,1998.556043,8068.244768
2523.706157,76.609550,518.144159,8882.471304
2523.706486,1455.581446,-2072.576638,11103.089130
2523.706815,2451.505594,-370.102971,7179.997637
2523.707145,5209.449386,-74.020594,7254.018232
2523.707474,4596.572988,-0.000000,5847.626942
2523.707803,4903.011187,1998.556043,6735.874072
2523.708132,3294.210641,2442.679609,7920.203579
2523.708461,1915.238745,1332.370696,7254.018232
2523.708790,995.924147,-0.000000,8808.450710
2523.709119,-1685.410096,-1110.308913,9844.739029
2523.709448,-3140.991542,-2886.803174,10436.903782
2523.709778,-3677.258390,-3775.050304,11621.233289
2523.710107,-2757.943793,-3330.926739,9696.697840
2523.710436,-2298.286494,-2146.597232,11251.130318
2523.710765,-2374.896044,-592.164754,11103.089130
2523.711094,-766.095498,1554.432478,9992.780217
2523.711423,-766.095498,740.205942,9474.636058
2523.711752,229.828649,2368.659014,8216.285956
2523.712082,766.095498,2368.659014,8364.327145
2523.712411,536.266849,-222.061783,9918.759623
2523.712740,2145.067394,-1554.432478,10288.862594
2523.713069,3677.258390,-0.000000,6809.894666
2523.713398,5669.106685,-222.061783,7402.059420
2523.713727,4136.915689,-74.020594,6439.791695
2523.714056,4749.792088,1998.556043,8142.265362
2523.714385,2451.505594,2368.659014,7550.100608
2523.714715,1225.752797,1332.370696,7920.203579
2523.715044,-536.266849,-222.061783,9770.718434
2523.715373,-1991.848295,-1110.308913,9326.594869
2523.715702,-2834.553343,-2812.782580,12139.377449
2523.716031,-3677.258390,-3627.009116,10510.924376
2523.716360,-2298.286494,-3404.947333,10362.883188
2523.716689,-2451.505594,-2442.679609,10955.047942
2523.717019,-1762.019645,-0.000000,9770.718434
2523.717348,-1532.190996,1184.329507,9548.656652
2523.717677,536.266849,962.267725,9326.594869
2523.718006,536.266849,2812.782580,7772.162391
2523.718335,153.219100,2220.617826,8142.265362
2523.718664,0.000000,222.061783,8956.491898
2523.718993,919.314598,-2368.659014,11843.295072
2523.719323,2604.724693,-1110.308913,7550.100608
2523.719652,4596.572988,-518.144159,7698.141797
2523.719981,4290.134789,-740.205942,6883.915261
2523.720310,4136.915689,1554.432478,7105.977043
2523.720639,2451.505594,1998.556043,7920.203579
2523.720968,1302.362347,1924.535449,7105.977043
2523.721297,536.266849,518.144159,8808.450710
2523.721626,-1608.800546,-740.205942,9474.636058
2523.721956,-2911.162892,-2368.659014,10510.924376
2523.722285,-3600.648841,-3849.070898,11695.253884
2523.722614,-2451.505594,-3775.050304,10362.883188
2523.722943,-2221.676944,-2220.617826,11621.233289
2523.723272,-1991.848295,-148.041188,10066.800811
2523.723601,-995.924147,1554.432478,9548.656652
2523.723930,-766.095498,1110.308913,9326.594869
2523.724260,229.828649,2368.659014,8142.265362
2523.724589,459.657299,2294.638420,8512.368333
2523.724918,842.705048,-0.000000,9326.594869
2523.725247,612.876398,-2146.597232,11621.233289
2523.725576,2374.896044,-814.226536,8882.471304
2523.725905,4366.744339,148.041188,7402.059420
2523.726234,4213.525239,-222.061783,6661.853478
2523.726563,4213.525239,2368.659014,6661.853478
2523.726893,3830.477490,2590.720797,7328.038826
2523.727222,1991.848295,2220.617826,7254.018232
2523.727551,612.876398,814.226536,8660.409521
2523.727880,-1302.362347,-814.226536,9696.697840
2523.728209,-2987.772442,-2590.720797,10288.862594
2523.728538,-3370.820191,-4071.132681,11843.295072
2523.728867,-2757.943793,-3627.009116,10362.883188
2523.729197,-2298.286494,-2886.803174,11177.109724
2523.729526,-2145.067394,-148.041188,10807.006753
2523.729855,-1608.800546,1628.453072,10288.862594
2523.730184,-1072.533697,1406.391290,9548.656652
2523.730513,306.438199,2368.659014,8290.306550
2523.730842,383.047749,2960.823768,8216.285956
2523.731171,-229.828649,1110.308913,8734.430116
2523.731501,76.609550,-1406.391290,11029.068536
2523.731830,2298.286494,-2146.597232,10510.924376
2523.732159,3830.477490,-296.082377,6883.915261
2523.732488,4290.134789,-1036.288319,7550.100608
2523.732817,3983.696590,592.164754,6291.750507
2523.733146,4136.915689,2664.741391,7846.182985
2523.733475,2221.676944,1924.535449,7550.100608
2523.733804,1378.971896,1258.350101,7550.100608
2523.734134,-459.657299,-888.247130,9400.615463
2523.734463,-1991.848295,-2146.597232,9918.759623
2523.734792,-3524.039291,-3701.029710,11843.295072
2523.735121,-3447.429741,-3478.967927,11177.109724
2523.735450,-2298.286494,-3182.885551,10362.883188
2523.735779,-1762.019645,-888.247130,11177.109724
2523.736108,-1455.581446,1036.288319,9474.636058
2523.736438,-1072.533697,1702.473667,9030.512492
2523.736767,-306.438199,1184.329507,8586.388927
2523.737096,612.876398,2368.659014,7772.162391
2523.737425,383.047749,-0.000000,9104.533087
2523.737754,1838.629195,-1554.432478,10658.965565
2523.738083,2528.115143,-740.205942,7402.059420
2523.738412,4443.353888,-740.205942,7772.162391
2523.738741,3753.867940,-444.123565,6587.832884
2523.739071,5515.887586,1406.391290,7105.977043
2523.739400,3677.258390,2368.659014,7772.162391
2523.739729,2374.896044,2368.659014,7402.059420
2523.740058,1072.533697,666.185348,8512.368333
2523.740387,-919.314598,-222.061783,8956.491898
2523.740716,-2528.115143,-2368.659014,10288.862594
2523.741045,-3294.210641,-4071.132681,11251.130318
2523.741375,-2451.505594,-3478.967927,10510.924376
2523.741704,-2451.505594,-3256.906145,10510.924376
2523.742033,-1762.019645,-814.226536,10066.800811
2523.742362,-1455.581446,888.247130,9030.512492
2523.742691,-766.095498,1184.329507,9474.636058
2523.743020,383.047749,1998.556043,7772.162391
2523.743349,766.095498,1628.453072,8290.306550
2523.743679,919.314598,-222.061783,9548.656652
2523.744008,1225.752797,-1332.370696,10881.027347
2523.744337,2451.505594,-814.226536,7994.224174
2523.744666,4596.572988,-370.102971,8068.244768
2523.744995,4596.572988,-444.123565,6809.894666
2523.745324,4826.401637,1998.556043,7402.059420
2523.745653,3370.820191,2220.617826,7550.100608
2523.745982,2145.067394,2294.638420,7328.038826
2523.746312,995.924147,222.061783,8216.285956
2523.746641,-995.924147,-222.061783,9474.636058
2523.746970,-2987.772442,-2738.761985,10362.883188
2523.747299,-3600.648841,-3330.926739,11917.315666
2523.747628,-2834.553343,-3182.885551,10362.883188
2523.747957,-2451.505594,-2294.638420,11399.171507
2523.748286,-2298.286494,-1036.288319,10214.842000
2523.748616,-1149.143247,1036.288319,9474.636058
2523.748945,-919.314598,666.185348,9770.718434
2523.749274,153.219100,2294.638420,8438.347739
2523.749603,229.828649,1850.514855,8512.368333
2523.749932,306.438199,222.061783,9252.574275
2523.750261,-459.657299,-1184.329507,11251.130318
2523.750590,2604.724693,-518.144159,8660.409521
2523.750919,4749.792088,-148.041188,7105.977043
2523.751249,4213.525239,592.164754,6513.812290
2523.751578,4443.353888,1998.556043,6439.791695
2523.751907,2987.772442,2812.782580,7179.997637
2523.752236,1685.410096,1480.411884,7846.182985
2523.752565,612.876398,148.041188,8734.430116
2523.752894,-2374.896044,-1036.288319,9548.656652
2523.753223,-3294.210641,-3034.844362,10658.965565
2523.753553,-3830.477490,-3997.112087,11103.089130
2523.753882,-3524.039291,-3034.844362,10140.821405
2523.754211,-2451.505594,-3256.906145,11473.192101
2523.754540,-2681.334243,-962.267725,10362.883188
2523.754869,-2145.067394,444.123565,10288.862594
2523.755198,-1455.581446,740.205942,9474.636058
2523.755527,153.219100,1702.473667,8512.368333
2523.755857,536.266849,2072.576638,8512.368333
2523.756186,76.609550,740.205942,8586.388927
2523.756515,76.609550,-1850.514855,11843.295072
2523.756844,2068.457845,-1776.494261,9104.533087
2523.757173,4519.963438,370.102971,6957.935855
2523.757502,4213.525239,-518.144159,6809.894666
2523.757831,4213.525239,1332.370696,5847.626942
2523.758160,3907.087040,2516.700203,8586.388927
2523.758490,2221.676944,1702.473667,7328.038826
2523.758819,1149.143247,1184.329507,7846.182985
2523.759148,-842.705048,-592.164754,9770.718434
2523.759477,-2374.896044,-2146.597232,9400.615463
2523.759806,-4519.963438,-3256.906145,12657.521608
2523.760135,-3524.039291,-3330.926739,10732.986159
2523.760464,-2298.286494,-2590.720797,10436.903782
2523.760794,-1915.238745,-222.061783,10732.986159
2523.761123,-1225.752797,2072.576638,8882.471304
2523.761452,-306.438199,2146.597232,9252.574275
2523.761781,0.000000,1998.556043,9252.574275
2523.762110,842.705048,2368.659014,9030.512492
2523.762439,1991.848295,-0.000000,9326.594869
2523.762768,2987.772442,-0.000000,7402.059420
2523.763097,4290.134789,-0.000000,7550.100608
2523.763427,4060.306139,-0.000000,6735.874072
2523.763756,3830.477490,-0.000000,7920.203579
2523.764085,3753.867940,518.144159,7994.224174
2523.764414,2451.505594,1406.391290,7624.121203
2523.764743,383.047749,444.123565,8882.471304
2523.765072,-1532.190996,-814.226536,9326.594869
2523.765401,-2757.943793,-2294.638420,10955.047942
2523.765731,-3830.477490,-3256.906145,11473.192101
2523.766060,-3370.820191,-3330.926739,11103.089130
2523.766389,-3447.429741,-2886.803174,10362.883188
2523.766718,-2911.162892,-1776.494261,10510.924376
2523.767047,-1915.238745,-370.102971,9474.636058
2523.767376,-919.314598,1184.329507,9992.780217
2523.767705,-689.485948,1702.473667,8438.347739
2523.768035,0.000000,1850.514855,8660.409521
2523.768364,919.314598,962.267725,9474.636058
2523.768693,2451.505594,-0.000000,8660.409521
2523.769022,3830.477490,-74.020594,7994.224174
2523.769351,4826.401637,-370.102971,7105.977043
2523.769680,4979.620737,-222.061783,6957.935855
2523.770009,5132.839837,518.144159,7994.224174
2523.770338,3600.648841,1924.535449,7698.141797
2523.770668,2451.505594,1184.329507,7920.203579
2523.770997,459.657299,370.102971,8956.491898
2523.771326,-1225.752797,-296.082377,9400.615463
2523.771655,-2374.896044,-2072.576638,11103.089130
2523.771984,-2987.772442,-3108.864956,11399.171507
2523.772313,-3140.991542,-3478.967927,10066.800811
2523.772642,-2834.553343,-2664.741391,10881.027347
2523.772972,-2374.896044,-1406.391290,9918.759623
2523.773301,-1685.410096,-370.102971,9474.636058
2523.773630,-995.924147,962.267725,9474.636058
2523.773959,76.609550,2516.700203,8586.388927
2523.774288,76.609550,1776.494261,8364.327145
2523.774617,1838.629195,-74.020594,10288.862594
2523.774946,3447.429741,740.205942,6217.729913
2523.775275,5132.839837,518.144159,7994.224174
2523.775605,5132.839837,222.061783,6735.874072
2523.775934,5056.230287,1258.350101,7402.059420
2523.776263,4136.915689,1628.453072,8216.285956
2523.776592,3370.820191,2294.638420,7105.977043
2523.776921,2068.457845,444.123565,8142.265362
2523.777250,-766.095498,370.102971,9622.677246
2523.777579,-2145.067394,-1480.411884,10214.842000
2523.777909,-4290.134789,-3552.988522,12065.356855
2523.778238,-3830.477490,-3701.029710,10658.965565
2523.778567,-3217.601092,-4071.132681,11177.109724
2523.778896,-4213.525239,-3182.885551,11473.192101
2523.779225,-2528.115143,-1850.514855,10288.862594
2523.779554,-1991.848295,-592.164754,10732.986159
2523.779883,-842.705048,1258.350101,9178.553681
2523.780213,0.000000,3108.864956,8216.285956
2523.780542,0.000000,2368.659014,8586.388927
2523.780871,1149.143247,296.082377,10510.924376
2523.781200,1915.238745,592.164754,8290.306550
2523.781529,4903.011187,814.226536,7328.038826
2523.781858,4749.792088,-148.041188,6217.729913
2523.782187,4443.353888,962.267725,7105.977043
2523.782516,3600.648841,1406.391290,7846.182985
2523.782846,2374.896044,1258.350101,7476.080014
2523.783175,1225.752797,444.123565,8438.347739
2523.783504,-766.095498,-222.061783,9104.533087
2523.783833,-2374.896044,-1554.432478,9844.739029
2523.784162,-3524.039291,-2812.782580,11547.212695
2523.784491,-2911.162892,-2960.823768,9992.780217
2523.784820,-2451.505594,-3034.844362,10436.903782
2523.785150,-2911.162892,-2590.720797,11103.089130
2523.785479,-2374.896044,-888.247130,10140.821405
2523.785808,-1225.752797,-222.061783,9844.739029
2523.786137,-229.828649,1554.432478,8586.388927
2523.786466,0.000000,2886.803174,7624.121203
2523.786795,383.047749,1628.453072,8734.430116
2523.787124,1608.800546,518.144159,9622.677246
2523.787453,2911.162892,370.102971,7402.059420
2523.787783,4673.182538,222.061783,7550.100608
2523.788112,4826.401637,444.123565,6513.812290
2523.788441,4136.915689,518.144159,7624.121203
2523.788770,3447.429741,1332.370696,8586.388927
2523.789099,1838.629195,1332.370696,7994.224174
2523.789428,919.314598,296.082377,8956.491898
2523.789757,-919.314598,-0.000000,9474.636058
2523.790087,-2451.505594,-1406.391290,10510.924376
2523.790416,-4290.134789,-2886.803174,12287.418637
2523.790745,-2604.724693,-2960.823768,11029.068536
2523.791074,-2604.724693,-3034.844362,10807.006753
2523.791403,-2757.943793,-2072.576638,10807.006753
2523.791732,-2528.115143,-296.082377,9770.718434
2523.792061,-1762.019645,-0.000000,9696.697840
2523.792390,-842.705048,1480.411884,9178.553681
2523.792719,-306.438199,2368.659014,8216.285956
2523.793049,0.000000,1554.432478,9252.574275
2523.793378,306.438199,888.247130,9622.677246
2523.793707,2374.896044,222.061783,8808.450710
2523.794036,3600.648841,-0.000000,7698.141797
2523.794365,4060.306139,-666.185348,7031.956449
2523.794694,3524.039291,-0.000000,7328.038826
2523.795023,3370.820191,814.226536,7994.224174
2523.795352,2528.115143,814.226536,7698.141797
2523.795681,1532.190996,222.061783,8290.306550
2523.796011,-536.266849,296.082377,9252.574275
2523.796340,-1762.019645,-962.267725,9400.615463
2523.796669,-2528.115143,-2294.638420,10436.903782
2523.796998,-2528.115143,-2738.761985,10584.944971
2523.797327,-2451.505594,-3404.947333,10362.883188
2523.797656,-2298.286494,-1776.494261,10732.986159
2523.797985,-1608.800546,-666.185348,9918.759623
2523.798314,-1225.752797,-222.061783,9400.615463
2523.798643,-689.485948,1110.308913,9104.533087
2523.798972,-153.219100,1850.514855,8512.368333
2523.799302,842.705048,370.102971,9474.636058
2523.799631,2451.505594,444.123565,8956.491898
2523.799960,3677.258390,740.205942,7550.100608
2523.800289,4519.963438,148.041188,7698.141797
2523.800618,4519.963438,-0.000000,7179.997637
2523.800947,4596.572988,518.144159,8068.244768
2523.801276,3830.477490,1332.370696,7994.224174
2523.801605,2987.772442,1184.329507,7698.141797
2523.801934,1685.410096,370.102971,8734.430116
2523.802264,0.000000,-370.102971,9030.512492
2523.802593,-1685.410096,-1924.535449,10584.944971
2523.802922,-2681.334243,-2886.803174,10955.047942
2523.803251,-2528.115143,-3330.926739,10955.047942
2523.803580,-2681.334243,-3108.864956,10584.944971
2523.803909,-2528.115143,-2294.638420,10214.842000
2523.804238,-1762.019645,-1554.432478,9770.718434
2523.804567,-1225.752797,-0.000000,9548.656652
2523.804896,-383.047749,1628.453072,9548.656652
2523.805226,-459.657299,2220.617826,8290.306550
2523.805555,0.000000,2072.576638,8586.388927
2523.805884,995.924147,444.123565,10066.800811
2523.806213,2987.772442,-0.000000,8142.265362
2523.806542,3753.867940,-296.082377,7920.203579
2523.806871,4136.915689,-222.061783,7328.038826
2523.807200,4136.915689,666.185348,7105.977043
2523.807529,3753.867940,1258.350101,7846.182985
2523.807858,2451.505594,1554.432478,7254.018232
2523.808188,2145.067394,666.185348,8216.285956
2523.808517,0.000000,518.144159,9178.553681
2523.808846,-1532.190996,-370.102971,9252.574275
2523.809175,-2221.676944,-3034.844362,11547.212695
2523.809504,-2681.334243,-3330.926739,10955.047942
2523.809833,-2757.943793,-2738.761985,10658.965565
2523.810162,-2681.334243,-2442.679609,11029.068536
2523.810491,-2451.505594,-962.267725,9770.718434
2523.810820,-1302.362347,-444.123565,9770.718434
2523.811149,-153.219100,962.267725,9622.677246
2523.811479,-459.657299,1702.473667,8882.471304
2523.811808,383.047749,1110.308913,8734.430116
2523.812137,1225.752797,296.082377,10288.862594
2523.812466,2221.676944,-74.020594,8142.265362
2523.812795,4366.744339,-0.000000,8290.306550
2523.813124,4596.572988,-296.082377,7105.977043
2523.813453,4673.182538,814.226536,7105.977043
2523.813782,4213.525239,2072.576638,7698.141797
2523.814111,2604.724693,2146.597232,7328.038826
2523.814441,1762.019645,1258.350101,8216.285956
2523.814770,-229.828649,222.061783,9178.553681
2523.815099,-1991.848295,-888.247130,9474.636058
2523.815428,-3140.991542,-3182.885551,11103.089130
2523.815757,-2604.724693,-3404.947333,11251.130318
2523.816086,-3064.381992,-3182.885551,10362.883188
2523.816415,-2834.553343,-2590.720797,11103.089130
2523.816744,-2451.505594,-666.185348,9770.718434
2523.817073,-1608.800546,148.041188,9770.718434
2523.817403,-766.095498,1628.453072,8882.471304
2523.817732,-536.266849,2442.679609,7994.224174
2523.818061,0.000000,1850.514855,8586.388927
2523.818390,0.000000,1628.453072,9030.512492
2523.818719,1225.752797,-1110.308913,10881.027347
2523.819048,2068.457845,-814.226536,7994.224174
2523.819377,4366.744339,-222.061783,7624.121203
2523.819706,4213.525239,-0.000000,6735.874072
2523.820035,4673.182538,1480.411884,6809.894666
2523.820365,3830.477490,1776.494261,7772.162391
2523.820694,2298.286494,1406.391290,6957.935855
2523.821023,1532.190996,518.144159,8364.327145
2523.821352,-766.095498,-74.020594,8956.491898
2523.821681,-2451.505594,-2072.576638,9622.677246
2523.822010,-3294.210641,-3330.926739,11695.253884
2523.822339,-3064.381992,-3627.009116,10881.027347
2523.822668,-2681.334243,-3478.967927,11177.109724
2523.822997,-2451.505594,-1406.391290,11103.089130
2523.823326,-1762.019645,370.102971,9844.739029
2523.823656,-1225.752797,814.226536,9844.739029
2523.823985,-459.657299,1850.514855,9178.553681
2523.824314,153.219100,2220.617826,8438.347739
2523.824643,229.828649,592.164754,9696.697840
2523.824972,2298.286494,-592.164754,9474.636058
2523.825301,3600.648841,-0.000000,7254.018232
2523.825630,4749.792088,-222.061783,7624.121203
2523.825959,3600.648841,-0.000000,6069.688724
2523.826288,4903.011187,666.185348,8216.285956
2523.826618,3447.429741,2072.576638,7105.977043
2523.826947,2068.457845,1850.514855,7179.997637
2523.827276,459.657299,-666.185348,9474.636058
2523.827605,-1608.800546,-444.123565,9104.533087
2523.827934,-2451.505594,-2294.638420,9992.780217
2523.828263,-3294.210641,-2812.782580,11399.171507
2523.828592,-2987.772442,-3256.906145,10436.903782
2523.828921,-2757.943793,-2664.741391,10881.027347
2523.829250,-1378.971896,-592.164754,10066.800811
2523.829580,-2145.067394,222.061783,9548.656652
2523.829909,-1225.752797,148.041188,9770.718434
2523.830238,-536.266849,2886.803174,8438.347739
2523.830567,0.000000,2146.597232,8438.347739
2523.830896,0.000000,444.123565,8808.450710
2523.831225,1532.190996,-1036.288319,10732.986159
2523.831554,2374.896044,-814.226536,7846.182985
2523.831883,4749.792088,-296.082377,7624.121203
2523.832212,4519.963438,-592.164754,6661.853478
2523.832542,4826.401637,740.205942,7550.100608
2523.832871,3753.867940,2368.659014,7772.162391
2523.833200,2145.067394,2294.638420,7179.997637
2523.833529,1302.362347,592.164754,9104.533087
2523.833858,-766.095498,-0.000000,9252.574275
2523.834187,-2451.505594,-2072.576638,9770.718434
2523.834516,-3907.087040,-3478.967927,12287.418637
2523.834845,-4060.306139,-3108.864956,11473.192101
2523.835174,-3217.601092,-3108.864956,10658.965565
2523.835504,-2374.896044,-1850.514855,10881.027347
2523.835833,-1915.238745,-0.000000,9474.636058
2523.836162,-306.438199,148.041188,9474.636058
2523.836491,383.047749,2072.576638,8512.368333
2523.836820,766.095498,1776.494261,8808.450710
2523.837149,2681.334243,444.123565,9474.636058
2523.837478,3753.867940,1480.411884,6735.874072
2523.837807,5286.058936,814.226536,7846.182985
2523.838136,4903.011187,962.267725,6513.812290
2523.838465,5515.887586,370.102971,7328.038826
2523.838795,4443.353888,1480.411884,7105.977043
2523.839124,3217.601092,2590.720797,6957.935855
2523.839453,1915.238745,962.267725,8512.368333
2523.839782,-612.876398,-148.041188,9030.512492
2523.840111,-2451.505594,-1924.535449,9992.780217
2523.840440,-3753.867940,-3478.967927,11029.068536
2523.840769,-3294.210641,-4293.194464,10140.821405
2523.841098,-3294.210641,-3404.947333,10658.965565
2523.841427,-2528.115143,-2664.741391,11103.089130
2523.841757,-3294.210641,-1480.411884,9622.677246
2523.842086,-1532.190996,-592.164754,10066.800811
2523.842415,-536.266849,1702.473667,8808.450710
2523.842744,0.000000,2886.803174,7994.224174
2523.843073,0.000000,2146.597232,8956.491898
2523.843402,842.705048,296.082377,10066.800811
2523.843731,3064.381992,518.144159,7846.182985
2523.844060,4290.134789,296.082377,7550.100608
2523.844389,3983.696590,-0.000000,6735.874072
2523.844719,4290.134789,518.144159,7920.203579
2523.845048,3064.381992,1036.288319,7550.100608
2523.845377,1685.410096,888.247130,7179.997637
2523.845706,1072.533697,-888.247130,8882.471304
2523.846035,-1762.019645,-0.000000,10214.842000
2523.846364,-2834.553343,-2146.597232,11177.109724
2523.846693,-3447.429741,-3108.864956,11621.233289
2523.847022,-2987.772442,-2590.720797,10288.862594
2523.847351,-2987.772442,-2664.741391,10658.965565
2523.847681,-2834.553343,-1480.411884,10732.986159
2523.848010,-1991.848295,370.102971,10288.862594
2523.848339,-612.876398,-0.000000,10066.800811
2523.848668,0.000000,2072.576638,8734.430116
2523.848997,0.000000,2368.659014,8068.244768
2523.849326,995.924147,1036.288319,9326.594869
2523.849655,2221.676944,1110.308913,7772.162391
2523.849984,3524.039291,740.205942,7179.997637
2523.850313,4826.401637,518.144159,7328.038826
2523.850642,4749.792088,444.123565,6809.894666
2523.850972,3830.477490,888.247130,8290.306550
2523.851301,3294.210641,1406.391290,7920.203579
2523.851630,2298.286494,666.185348,7624.121203
2523.851959,459.657299,740.205942,9326.594869
2523.852288,-995.924147,-0.000000,9400.615463
2523.852617,-1991.848295,-2146.597232,10584.944971
2523.852946,-2681.334243,-2146.597232,11103.089130
2523.853275,-2145.067394,-3478.967927,11029.068536
2523.853604,-2987.772442,-2664.741391,10881.027347
2523.853934,-2451.505594,-1332.370696,10288.862594
2523.854263,-2221.676944,-444.123565,9918.759623
2523.854592,-1149.143247,444.123565,9326.594869
2523.854921,-459.657299,2368.659014,8586.388927
2523.855250,-306.438199,2072.576638,8364.327145
2523.855579,995.924147,666.185348,9992.780217
2523.855908,1685.410096,1110.308913,8142.265362
2523.856237,3217.601092,666.185348,7772.162391
2523.856566,3830.477490,-0.000000,7550.100608
2523.856896,3983.696590,-74.020594,7624.121203
2523.857225,3983.696590,370.102971,8142.265362
2523.857554,2604.724693,444.123565,7994.224174
2523.857883,2221.676944,-0.000000,8512.368333
2523.858212,229.828649,-222.061783,9992.780217
2523.858541,-1225.752797,-444.123565,9400.615463
2523.858870,-2451.505594,-1850.514855,10436.903782
2523.859199,-2757.943793,-2368.659014,10510.924376
2523.859528,-2298.286494,-2590.720797,10658.965565
2523.859858,-2451.505594,-2294.638420,10140.821405
2523.860187,-2451.505594,-1258.350101,10140.821405
2523.860516,-1915.238745,-1036.288319,9696.697840
2523.860845,-995.924147,148.041188,9178.553681
2523.861174,-612.876398,1776.494261,8882.471304
2523.861503,-153.219100,1480.411884,8438.347739
2523.861832,919.314598,444.123565,9696.697840
2523.862161,2451.505594,1184.329507,7550.100608
2523.862490,4213.525239,962.267725,7698.141797
2523.862820,4596.572988,370.102971,7031.956449
2523.863149,4826.401637,518.144159,7105.977043
2523.863478,3830.477490,1258.350101,7698.141797
2523.863807,3140.991542,1036.288319,7476.080014
2523.864136,2298.286494,592.164754,7698.141797
2523.864465,76.609550,-518.144159,9252.574275
2523.864794,-1378.971896,-666.185348,9770.718434
2523.865123,-2681.334243,-2516.700203,10732.986159
2523.865452,-2911.162892,-3256.906145,10584.944971
2523.865781,-2757.943793,-2960.823768,10658.965565
2523.866111,-2757.943793,-2368.659014,10807.006753
2523.866440,-2451.505594,-1850.514855,9992.780217
2523.866769,-1838.629195,-1554.432478,10214.842000
2523.867098,-1225.752797,592.164754,10140.821405
2523.867427,-766.095498,1998.556043,8512.368333
2523.867756,0.000000,1702.473667,9326.594869
2523.868085,842.705048,1184.329507,9622.677246
2523.868414,2221.676944,1332.370696,8068.244768
2523.868743,4366.744339,518.144159,7624.121203
2523.869073,4060.306139,-0.000000,6883.915261
2523.869402,4519.963438,-0.000000,7920.203579
2523.869731,3753.867940,814.226536,7920.203579
2523.870060,2834.553343,888.247130,7328.038826
2523.870389,1532.190996,74.020594,8586.388927
2523.870718,-383.047749,-444.123565,9474.636058
2523.871047,-1378.971896,-888.247130,9696.697840
2523.871376,-2757.943793,-2146.597232,10732.986159
2523.871705,-2604.724693,-3034.844362,10658.965565
2523.872035,-2451.505594,-2590.720797,9992.780217
2523.872364,-2221.676944,-1924.535449,10584.944971
2523.872693,-2221.676944,-1036.288319,9844.739029
2523.873022,-1608.800546,-444.123565,9918.759623
2523.873351,-766.095498,1036.288319,9104.533087
2523.873680,-1225.752797,1998.556043,8660.409521
2523.874009,306.438199,1258.350101,8808.450710
2523.874338,1455.581446,888.247130,9178.553681
2523.874667,2374.896044,1258.350101,7254.018232
2523.874997,3753.867940,592.164754,7772.162391
2523.875326,4060.306139,222.061783,6957.935855
2523.875655,4979.620737,-0.000000,7550.100608
2523.875984,3447.429741,148.041188,7624.121203
2523.876313,3370.820191,962.267725,7402.059420
2523.876642,1762.019645,-0.000000,8734.430116
2523.876971,153.219100,-0.000000,8882.471304
2523.877300,-1149.143247,-962.267725,9770.718434
2523.877629,-2528.115143,-2664.741391,10510.924376
2523.877958,-2681.334243,-2960.823768,10881.027347
2523.878288,-2451.505594,-3552.988522,10658.965565
2523.878617,-2451.505594,-2146.597232,10140.821405
2523.878946,-2451.505594,-1258.350101,10140.821405
2523.879275,-2068.457845,-444.123565,10362.883188
2523.879604,-1072.533697,1406.391290,9400.615463
2523.879933,-689.485948,2072.576638,9030.512492
2523.880262,-153.219100,1628.453072,8882.471304
2523.880591,0.000000,740.205942,9474.636058
2523.880920,1762.019645,888.247130,9030.512492
2523.881250,3064.381992,518.144159,7328.038826
2523.881579,4136.915689,-74.020594,7550.100608
2523.881908,3677.258390,592.164754,7179.997637
2523.882237,3753.867940,1332.370696,7846.182985
2523.882566,2681.334243,1110.308913,7328.038826
2523.882895,2681.334243,1036.288319,7254.018232
2523.883224,1225.752797,-0.000000,8660.409521
2523.883553,-1149.143247,-0.000000,8882.471304
2523.883882,-2528.115143,-1776.494261,10288.862594
2523.884212,-2987.772442,-2516.700203,11029.068536
2523.884541,-2528.115143,-2812.782580,10436.903782
2523.884870,-2681.334243,-2072.576638,10436.903782
2523.885199,-2451.505594,-1776.494261,10140.821405
2523.885528,-1915.238745,-444.123565,10066.800811
2523.885857,-995.924147,296.082377,9918.759623
2523.886186,-766.095498,1702.473667,9178.553681
2523.886515,-766.095498,1258.350101,9104.533087
2523.886844,-153.219100,888.247130,9104.533087
2523.887174,995.924147,-222.061783,10214.842000
2523.887503,2145.067394,-370.102971,8142.265362
2523.887832,4979.620737,-74.020594,7994.224174
2523.888161,4979.620737,-370.102971,6587.832884
2523.888490,3600.648841,814.226536,7328.038826
2523.888819,3983.696590,1184.329507,8068.244768
2523.889148,2451.505594,1480.411884,6957.935855
2523.889477,1532.190996,666.185348,8512.368333
2523.889806,-383.047749,296.082377,9178.553681
2523.890136,-1915.238745,-2220.617826,9622.677246
2523.890465,-3217.601092,-3034.844362,11695.253884
2523.890794,-2604.724693,-3404.947333,11029.068536
2523.891123,-3064.381992,-3256.906145,10362.883188
2523.891452,-2604.724693,-2294.638420,10881.027347
2523.891781,-1991.848295,-296.082377,9844.739029
2523.892110,-1608.800546,222.061783,9844.739029
2523.892439,-1225.752797,1480.411884,8734.430116
2523.892769,-306.438199,1924.535449,8364.327145
2523.893098,0.000000,1332.370696,9104.533087
2523.893427,459.657299,518.144159,9844.739029
2523.893756,2298.286494,-74.020594,8586.388927
2523.894085,3830.477490,148.041188,7328.038826
2523.894414,4903.011187,-0.000000,6661.853478
2523.894744,4826.401637,666.185348,6513.812290
2523.895073,4136.915689,1776.494261,8364.327145
2523.895402,1915.238745,1776.494261,7105.977043
2523.895731,1915.238745,222.061783,8142.265362
2523.896060,-153.219100,296.082377,9178.553681
2523.896389,-2221.676944,-1184.329507,9252.574275
2523.896719,-2757.943793,-2812.782580,11399.171507
2523.897048,-2834.553343,-3256.906145,11177.109724
2523.897377,-1838.629195,-3404.947333,9992.780217
2523.897706,-1915.238745,-2368.659014,11029.068536
2523.898035,-1532.190996,-518.144159,10807.006753
2523.898364,-1225.752797,-0.000000,9548.656652
2523.898694,-689.485948,1406.391290,9104.533087
2523.899023,-306.438199,2368.659014,8438.347739
2523.899352,229.828649,962.267725,9548.656652
2523.899681,1685.410096,-0.000000,9400.615463
2523.900010,3677.258390,666.185348,7402.059420
2523.900339,4443.353888,-222.061783,7994.224174
2523.900668,4213.525239,-0.000000,6883.915261
2523.900998,4749.792088,962.267725,8290.306550
2523.901327,3753.867940,1480.411884,7846.182985
2523.901656,2911.162892,1850.514855,7179.997637
2523.901985,1532.190996,-0.000000,9252.574275
2523.902314,-689.485948,-0.000000,9326.594869
2523.902643,-1915.238745,-1406.391290,10510.924376
2523.902973,-3140.991542,-2590.720797,10881.027347
2523.903302,-2451.505594,-3478.967927,11177.109724
2523.903631,-2987.772442,-2886.803174,10362.883188
2523.903960,-2451.505594,-1850.514855,10510.924376
2523.904289,-2221.676944,-370.102971,9548.656652
2523.904618,-1378.971896,-0.000000,9844.739029
2523.904948,-766.095498,1554.432478,9104.533087
2523.905277,-689.485948,2220.617826,8660.409521
2523.905606,-153.219100,1332.370696,8808.450710
2523.905935,306.438199,592.164754,9548.656652
2523.906264,1762.019645,-0.000000,8808.450710
2523.906593,3600.648841,-592.164754,8068.244768
2523.906923,4290.134789,-0.000000,7698.141797
2523.907252,3677.258390,814.226536,7105.977043
2523.907581,3447.429741,1480.411884,7698.141797
2523.907910,2374.896044,1850.514855,7624.121203
2523.908239,1762.019645,592.164754,8142.265362
2523.908568,0.000000,296.082377,8882.471304
2523.908898,-1532.190996,-814.226536,9178.553681
2523.909227,-2451.505594,-2812.782580,10436.903782
2523.909556,-3677.258390,-3330.926739,11103.089130
2523.909885,-3677.258390,-3849.070898,11251.130318
2523.910214,-3294.210641,-2664.741391,10510.924376
2523.910543,-2528.115143,-1332.370696,10140.821405
2523.910873,-1838.629195,-148.041188,9252.574275
2523.911202,-766.095498,1258.350101,9178.553681
2523.911531,-612.876398,1924.535449,8660.409521
2523.911860,1915.238745,1332.370696,8808.450710
2523.912189,2987.772442,1480.411884,7772.162391
2523.912518,3600.648841,1332.370696,7994.224174
2523.912848,4519.963438,592.164754,7698.141797
2523.913177,4519.963438,-0.000000,7328.038826
2523.913506,4366.744339,518.144159,7624.121203
2523.913835,3907.087040,1184.329507,7254.018232
2523.914164,2681.334243,814.226536,8290.306550
2523.914493,306.438199,666.185348,9030.512492
2523.914823,-1225.752797,-1110.308913,9770.718434
2523.915152,-2757.943793,-2072.576638,10214.842000
2523.915481,-3217.601092,-3034.844362,10584.944971
2523.915810,-2834.553343,-3182.885551,10881.027347
2523.916139,-2911.162892,-2886.803174,10214.842000
2523.916468,-1915.238745,-1776.494261,10658.965565
2523.916798,-1838.629195,-814.226536,9770.718434
2523.917127,-612.876398,1110.308913,9252.574275
2523.917456,-229.828649,1702.473667,8734.430116
2523.917785,1302.362347,2220.617826,8734.430116
2523.918114,1685.410096,2294.638420,7254.018232
2523.918443,3983.696590,2072.576638,7328.038826
2523.918773,4443.353888,1332.370696,6809.894666
2523.919102,4826.401637,666.185348,7179.997637
2523.919431,3983.696590,-0.000000,7772.162391
2523.919760,3294.210641,-0.000000,7846.182985
2523.920089,2068.457845,-296.082377,8438.347739
2523.920418,383.047749,-518.144159,9030.512492
2523.920748,-612.876398,-1258.350101,9918.759623
2523.921077,-2221.676944,-1406.391290,10732.986159
2523.921406,-2757.943793,-2220.617826,10510.924376
2523.921735,-3294.210641,-2812.782580,11103.089130
2523.922064,-3677.258390,-2368.659014,10732.986159
2523.922393,-3140.991542,-2368.659014,10584.944971
2523.922723,-2451.505594,-2072.576638,10510.924376
2523.923052,-995.924147,-296.082377,9622.677246
2523.923381,-459.657299,296.082377,9474.636058
2523.923710,0.000000,888.247130,9622.677246
2523.924039,1378.971896,1554.432478,8290.306550
2523.924368,2681.334243,2146.597232,7846.182985
2523.924697,3524.039291,1850.514855,6957.935855
2523.925027,4366.744339,1184.329507,7698.141797
2523.925356,4366.744339,888.247130,7402.059420
2523.925685,3830.477490,592.164754,8216.285956
2523.926014,2987.772442,-0.000000,7994.224174
2523.926343,1991.848295,296.082377,8142.265362
2523.926672,612.876398,-74.020594,8808.450710
2523.927002,0.000000,-592.164754,9548.656652
2523.927331,-1685.410096,-1406.391290,9992.780217
2523.927660,-2451.505594,-2294.638420,10510.924376
2523.927989,-2757.943793,-2886.803174,10510.924376
2523.928318,-2681.334243,-1628.453072,10436.903782
2523.928647,-2604.724693,-3256.906145,9992.780217
2523.928977,-1915.238745,-1924.535449,9622.677246
2523.929306,-1455.581446,-74.020594,9400.615463
2523.929635,-612.876398,740.205942,9400.615463
2523.929964,536.266849,1702.473667,8586.388927
2523.930293,1685.410096,2220.617826,7698.141797
2523.930622,2911.162892,2294.638420,7328.038826
2523.930952,3753.867940,1332.370696,7328.038826
2523.931281,3753.867940,962.267725,7994.224174
2523.931610,3677.258390,666.185348,7772.162391
2523.931939,3447.429741,444.123565,8142.265362
2523.932268,2374.896044,-74.020594,8290.306550
2523.932597,1838.629195,-518.144159,8808.450710
2523.932927,459.657299,-74.020594,9918.759623
2523.933256,-459.657299,-1406.391290,9918.759623
2523.933585,-1532.190996,-1258.350101,10584.944971
2523.933914,-1838.629195,-1554.432478,10510.924376
2523.934243,-2451.505594,-1480.411884,10510.924376
2523.934572,-2911.162892,-1850.514855,10362.883188
2523.934902,-2451.505594,-2294.638420,10732.986159
2523.935231,-1685.410096,-1480.411884,10066.800811
2523.935560,-1608.800546,-0.000000,10066.800811
2523.935889,-153.219100,-0.000000,10066.800811
2523.936218,306.438199,1184.329507,8808.450710
2523.936547,1762.019645,2368.659014,8586.388927
2523.936877,2834.553343,2072.576638,7698.141797
2523.937206,3447.429741,1480.411884,7550.100608
2523.937535,4136.915689,666.185348,7994.224174
2523.937864,3907.087040,296.082377,7846.182985
2523.938193,3294.210641,222.061783,7920.203579
2523.938522,2451.505594,-0.000000,8142.265362
2523.938852,1991.848295,-0.000000,8364.327145
2523.939181,612.876398,-0.000000,9030.512492
2523.939510,76.609550,-962.267725,9104.533087
2523.939839,-1225.752797,-1110.308913,9696.697840
2523.940168,-1915.238745,-1924.535449,10584.944971
2523.940497,-2528.115143,-2220.617826,9992.780217
2523.940827,-2987.772442,-2442.679609,9992.780217
2523.941156,-2911.162892,-2368.659014,10362.883188
2523.941485,-2374.896044,-1258.350101,9770.718434
2523.941814,-1915.238745,-518.144159,9696.697840
2523.942143,-766.095498,592.164754,9252.574275
2523.942472,0.000000,1628.453072,9104.533087
2523.942802,612.876398,2368.659014,8216.285956
2523.943131,2374.896044,2146.597232,7624.121203
2523.943460,3140.991542,1554.432478,7624.121203
2523.943789,3524.039291,1480.411884,7698.141797
2523.944118,3370.820191,518.144159,7920.203579
2523.944447,2681.334243,370.102971,8438.347739
2523.944777,2374.896044,-444.123565,8216.285956
2523.945106,1072.533697,-518.144159,9030.512492
2523.945435,0.000000,-740.205942,9326.594869
2523.945764,-1149.143247,-1184.329507,9474.636058
2523.946093,-2068.457845,-1258.350101,10288.862594
2523.946422,-2757.943793,-1406.391290,10584.944971
2523.946752,-2834.553343,-2146.597232,10732.986159
2523.947081,-2757.943793,-1850.514855,10362.883188
2523.947410,-2681.334243,-1924.535449,10510.924376
2523.947739,-2221.676944,-1036.288319,9992.780217
2523.948068,-1302.362347,-0.000000,9474.636058
2523.948397,-612.876398,740.205942,9474.636058
2523.948727,76.609550,1628.453072,8734.430116
2523.949056,1149.143247,2072.576638,8290.306550
2523.949385,2604.724693,1702.473667,7402.059420
2523.949714,2987.772442,1850.514855,7476.080014
2523.950043,3370.820191,962.267725,7920.203579
2523.950372,3217.601092,-0.000000,7920.203579
2523.950701,2451.505594,-222.061783,8290.306550
2523.951031,2068.457845,-888.247130,8808.450710
2523.951360,76.609550,-814.226536,9252.574275
2523.951689,383.047749,-962.267725,9622.677246
2523.952018,-383.047749,-666.185348,9178.553681
2523.952347,-766.095498,-888.247130,9474.636058
2523.952676,-1378.971896,-1110.308913,9474.636058
2523.953006,-1838.629195,-1184.329507,9696.697840
2523.953335,-1762.019645,-1776.494261,10066.800811
2523.953664,-1762.019645,-2072.576638,10140.821405
2523.953993,-1991.848295,-1628.453072,10362.883188
2523.954322,-1149.143247,-888.247130,9770.718434
2523.954651,-612.876398,-0.000000,9474.636058
2523.954981,76.609550,962.267725,9326.594869
2523.955310,1302.362347,1702.473667,8660.409521
2523.955639,2451.505594,2220.617826,8290.306550
2523.955968,2681.334243,1406.391290,7550.100608
2523.956297,3907.087040,1332.370696,7698.141797
2523.956626,3447.429741,370.102971,7920.203579
2523.956956,3294.210641,-0.000000,7920.203579
2523.957285,2834.553343,-518.144159,8068.244768
2523.957614,1915.238745,-518.144159,8734.430116
2523.957943,1149.143247,-814.226536,8956.491898
2523.958272,383.047749,-962.267725,9252.574275
2523.958601,-306.438199,-1036.288319,9696.697840
2523.958931,-1225.752797,-1184.329507,9622.677246
2523.959260,-1991.848295,-1480.411884,9992.780217
2523.959589,-2298.286494,-1850.514855,10288.862594
2523.959918,-2298.286494,-1924.535449,10288.862594
2523.960247,-2068.457845,-1406.391290,10362.883188
2523.960576,-1608.800546,-666.185348,9770.718434
2523.960906,153.219100,296.082377,9178.553681
2523.961235,0.000000,1554.432478,9104.533087
2523.961564,995.924147,1850.514855,8216.285956
2523.961893,2068.457845,2072.576638,7772.162391
2523.962222,2834.553343,1702.473667,7698.141797
2523.962551,3140.991542,962.267725,7624.121203
2523.962881,3217.601092,-0.000000,7920.203579
2523.963210,2757.943793,-74.020594,7920.203579
2523.963539,2834.553343,-444.123565,7994.224174
2523.963868,2068.457845,-518.144159,8438.347739
2523.964197,1072.533697,222.061783,8438.347739
2523.964526,76.609550,-444.123565,9326.594869
2523.964856,-689.485948,-740.205942,9474.636058
2523.965185,-1455.581446,-1406.391290,9844.739029
2523.965514,-2451.505594,-1850.514855,9918.759623
2523.965843,-3217.601092,-2368.659014,10436.903782
2523.966172,-2987.772442,-2368.659014,10584.944971
2523.966501,-2604.724693,-1776.494261,10066.800811
2523.966831,-1838.629195,-1110.308913,10214.842000
2523.967160,-1685.410096,518.144159,9918.759623
2523.967489,-1685.410096,1184.329507,9474.636058
2523.967818,0.000000,1628.453072,9400.615463
2523.968147,1455.581446,1332.370696,8660.409521
2523.968476,2528.115143,1480.411884,7994.224174
2523.968806,3294.210641,1110.308913,7772.162391
2523.969135,3600.648841,1036.288319,7624.121203
2523.969464,3907.087040,370.102971,7920.203579
2523.969793,3370.820191,518.144159,7550.100608
2523.970122,2451.505594,592.164754,7846.182985
2523.970451,1455.581446,518.144159,8586.388927
2523.970781,0.000000,-444.123565,9104.533087
2523.971110,-1302.362347,-666.185348,9696.697840
2523.971439,-2298.286494,-1554.432478,9992.780217
2523.971768,-2451.505594,-2368.659014,10732.986159
2523.972097,-2681.334243,-2812.782580,10510.924376
2523.972426,-2451.505594,-1998.556043,10214.842000
2523.972756,-2528.115143,-2146.597232,10066.800811
2523.973085,-1762.019645,-814.226536,9474.636058
2523.973414,-612.876398,592.164754,9030.512492
2523.973743,-612.876398,1776.494261,8808.450710
2523.974072,0.000000,1702.473667,8808.450710
2523.974401,1378.971896,1332.370696,8808.450710
2523.974731,2604.724693,1258.350101,7698.141797
2523.975060,3983.696590,518.144159,8068.244768
2523.975389,3830.477490,-0.000000,7105.977043
2523.975718,4519.963438,-0.000000,7772.162391
2523.976047,3447.429741,888.247130,7328.038826
2523.976376,3370.820191,1184.329507,7550.100608
2523.976705,2145.067394,888.247130,8142.265362
2523.977035,842.705048,296.082377,8660.409521
2523.977364,-229.828649,-740.205942,9474.636058
2523.977693,-1455.581446,-1998.556043,10214.842000
2523.978022,-2451.505594,-2812.782580,11103.089130
2523.978351,-2911.162892,-2960.823768,11399.171507
2523.978680,-3140.991542,-2368.659014,10436.903782
2523.979010,-2604.724693,-2072.576638,10658.965565
2523.979339,-1378.971896,-592.164754,10436.903782
2523.979668,-1225.752797,1036.288319,9400.615463
2523.979997,-1072.533697,1702.473667,9474.636058
2523.980326,229.828649,1850.514855,9030.512492
2523.980655,306.438199,1332.370696,9400.615463
2523.980985,1762.019645,666.185348,9104.533087
2523.981314,2911.162892,666.185348,7698.141797
2523.981643,3907.087040,-0.000000,7550.100608
2523.981972,3983.696590,148.041188,7105.977043
2523.982301,4060.306139,666.185348,7920.203579
2523.982630,2987.772442,740.205942,7179.997637
2523.982960,2068.457845,666.185348,7846.182985
2523.983289,612.876398,-0.000000,8956.491898
2523.983618,-995.924147,-0.000000,8808.450710
2523.983947,-2451.505594,-1702.473667,10288.862594
2523.984276,-3064.381992,-2442.679609,10584.944971
2523.984605,-3140.991542,-3627.009116,10584.944971
2523.984935,-3447.429741,-3108.864956,10732.986159
2523.985264,-2604.724693,-2072.576638,10436.903782
2523.985593,-2374.896044,-740.205942,9548.656652
2523.985922,-1225.752797,518.144159,9104.533087
2523.986251,-306.438199,1702.473667,8660.409521
2523.986580,0.000000,1702.473667,8660.409521
2523.986910,1455.581446,666.185348,8808.450710
2523.987239,2834.553343,666.185348,7624.121203
2523.987568,3907.087040,444.123565,7254.018232
2523.987897,3983.696590,-74.020594,7105.977043
2523.988226,4596.572988,-0.000000,8068.244768
2523.988555,3600.648841,-0.000000,7920.203579
2523.988885,3064.381992,1036.288319,7624.121203
2523.989214,1915.238745,-0.000000,8734.430116
2523.989543,-153.219100,-0.000000,9400.615463
2523.989872,-1532.190996,-740.205942,9844.739029
2523.990201,-2374.896044,-1776.494261,10436.903782
2523.990530,-2757.943793,-2590.720797,10658.965565
2523.990860,-3140.991542,-3108.864956,10955.047942
2523.991189,-2757.943793,-2664.741391,10584.944971
2523.991518,-2374.896044,-888.247130,11103.089130
2523.991847,-1685.410096,-1036.288319,9992.780217
2523.992176,-766.095498,1036.288319,9474.636058
2523.992505,306.438199,2368.659014,9400.615463
2523.992835,1149.143247,2442.679609,8512.368333
2523.993164,2604.724693,2368.659014,7846.182985
2523.993493,3830.477490,1702.473667,7624.121203
2523.993822,4366.744339,888.247130,7476.080014
2523.994151,4903.011187,666.185348,8142.265362
2523.994480,3753.867940,444.123565,7994.224174
2523.994810,3447.429741,444.123565,7846.182985
2523.995139,2145.067394,148.041188,8216.285956
2523.995468,919.314598,-74.020594,8734.430116
2523.995797,-459.657299,-1036.288319,9548.656652
2523.996126,-1455.581446,-1184.329507,9770.718434
2523.996456,-2298.286494,-2368.659014,10066.800811
2523.996785,-2834.553343,-2886.803174,10510.924376
2523.997114,-3064.381992,-2738.761985,10732.986159
2523.997443,-2604.724693,-2146.597232,10066.800811
2523.997772,-2221.676944,-1480.411884,9918.759623
2523.998101,-842.705048,-222.061783,9474.636058
2523.998431,-766.095498,592.164754,9548.656652
2523.998760,229.828649,1850.514855,9030.512492
2523.999089,1149.143247,1998.556043,8586.388927
2523.999418,2604.724693,1628.453072,7846.182985
2523.999747,3217.601092,1332.370696,7402.059420
2524.000077,3600.648841,518.144159,7698.141797
2524.000406,3677.258390,-370.102971,7772.162391
2524.000735,3370.820191,-222.061783,8142.265362
2524.001064,2604.724693,518.144159,8438.347739
2524.001393,1532.190996,222.061783,8734.430116
2524.001723,229.828649,-0.000000,8808.450710
2524.002052,-919.314598,-666.185348,9474.636058
2524.002381,-2145.067394,-1332.370696,10066.800811
2524.002710,-2757.943793,-2368.659014,10658.965565
2524.003039,-3447.429741,-2294.638420,10955.047942
2524.003368,-2834.553343,-2442.679609,10214.842000
2524.003698,-2604.724693,-2220.617826,10362.883188
2524.004027,-2298.286494,-1406.391290,9622.677246
2524.004356,-1302.362347,-0.000000,9474.636058
2524.004685,-842.705048,1036.288319,8956.491898
2524.005014,-306.438199,1332.370696,8734.430116
2524.005344,612.876398,1480.411884,9548.656652
2524.005673,1838.629195,1480.411884,7920.203579
2524.006002,2987.772442,1998.556043,7772.162391
2524.006331,3524.039291,1036.288319,7328.038826
2524.006660,3753.867940,1110.308913,7476.080014
2524.006990,3600.648841,888.247130,7624.121203
2524.007319,2681.334243,740.205942,7402.059420
2524.007648,2145.067394,370.102971,8290.306550
2524.007977,919.314598,-0.000000,8956.491898
2524.008306,-536.266849,-296.082377,9400.615463
2524.008635,-1762.019645,-962.267725,10140.821405
2524.008965,-2451.505594,-1998.556043,10807.006753
2524.009294,-2528.115143,-2442.679609,11325.150913
2524.009623,-2451.505594,-2072.576638,10658.965565
2524.009952,-2834.553343,-1110.308913,10362.883188
2524.010281,-1915.238745,-888.247130,10807.006753
2524.010611,-1225.752797,-0.000000,9622.677246
2524.010940,-1149.143247,1554.432478,9474.636058
2524.011269,-306.438199,888.247130,9622.677246
2524.011598,689.485948,1110.308913,9326.594869
2524.011927,1302.362347,1406.391290,7772.162391
2524.012257,3370.820191,666.185348,7624.121203
2524.012586,3524.039291,444.123565,7920.203579
2524.012915,4366.744339,148.041188,8438.347739
2524.013244,3983.696590,-74.020594,7994.224174
2524.013573,3064.381992,518.144159,7624.121203
2524.013902,2451.505594,-0.000000,8512.368333
2524.014232,1762.019645,-0.000000,8660.409521
2524.014561,0.000000,-370.102971,9696.697840
2524.014890,-1302.362347,-444.123565,10066.800811
2524.015219,-1302.362347,-1924.535449,10288.862594
2524.015548,-2681.334243,-2220.617826,10510.924376
2524.015878,-2681.334243,-2146.597232,10584.944971
2524.016207,-2757.943793,-1850.514855,9992.780217
2524.016536,-2221.676944,-2294.638420,9918.759623
2524.016865,-1378.971896,-370.102971,9252.574275
2524.017194,-919.314598,444.123565,9400.615463
2524.017524,-459.657299,888.247130,8660.409521
2524.017853,689.485948,1036.288319,8882.471304
2524.018182,1915.238745,1332.370696,7476.080014
2524.018511,3140.991542,1554.432478,7476.080014
2524.018840,3600.648841,740.205942,7402.059420
2524.019169,4366.744339,370.102971,7772.162391
2524.019499,3677.258390,370.102971,8142.265362
2524.019828,2298.286494,814.226536,7624.121203
2524.020157,2068.457845,-0.000000,8216.285956
2524.020486,995.924147,-148.041188,9030.512492
2524.020815,-229.828649,-666.185348,9178.553681
2524.021145,-1072.533697,-1036.288319,9770.718434
2524.021474,-1838.629195,-1924.535449,10658.965565
2524.021803,-2451.505594,-2220.617826,10807.006753
2524.022132,-2604.724693,-2516.700203,10510.924376
2524.022461,-2451.505594,-1998.556043,10362.883188
2524.022791,-2145.067394,-1628.453072,10214.842000
2524.023120,-1455.581446,-222.061783,9918.759623
2524.023449,0.000000,1184.329507,9548.656652
2524.023778,229.828649,1036.288319,9622.677246
2524.024107,766.095498,1554.432478,9104.533087
2524.024436,2451.505594,2146.597232,8364.327145
2524.024766,3677.258390,1554.432478,7550.100608
2524.025095,3983.696590,740.205942,7920.203579
2524.025424,4443.353888,592.164754,8290.306550
2524.025753,3830.477490,370.102971,7920.203579
2524.026082,2911.162892,518.144159,8142.265362
2524.026412,2068.457845,148.041188,8364.327145
2524.026741,919.314598,-148.041188,9252.574275
2524.027070,-612.876398,-518.144159,9474.636058
2524.027399,-1532.190996,-888.247130,10140.821405
2524.027728,-2374.896044,-1924.535449,9992.780217
2524.028058,-2681.334243,-2442.679609,10584.944971
2524.028387,-2298.286494,-2146.597232,10436.903782
2524.028716,-2987.772442,-1998.556043,10214.842000
2524.029045,-2068.457845,-1850.514855,10436.903782
2524.029374,-1302.362347,-222.061783,9844.739029
2524.029703,-842.705048,962.267725,9400.615463
2524.030033,-229.828649,1332.370696,9104.533087
2524.030362,1149.143247,1332.370696,8512.368333
2524.030691,2374.896044,1702.473667,7698.141797
2524.031020,3447.429741,1258.350101,7328.038826
2524.031349,3447.429741,814.226536,7254.018232
2524.031679,3907.087040,370.102971,7624.121203
2524.032008,3370.820191,222.061783,7846.182985
