#time,accel_x,accel_y,accel_z
2656.421440,383.047749,-0.000000,9400.615463
2656.421769,306.438199,-148.041188,9030.512492
2656.422099,689.485948,-0.000000,9400.615463
2656.422428,383.047749,-0.000000,9474.636058
2656.422757,766.095498,-74.020594,8956.491898
2656.423086,306.438199,-0.000000,9178.553681
2656.423416,229.828649,-0.000000,8882.471304
2656.423745,229.828649,-74.020594,8882.471304
2656.424074,229.828649,-296.082377,8808.450710
2656.424403,612.876398,-222.061783,9030.512492
2656.424733,383.047749,-444.123565,8956.491898
2656.425062,766.095498,-74.020594,9252.574275
2656.425391,919.314598,-148.041188,9104.533087
2656.425720,229.828649,-0.000000,8808.450710
2656.426050,306.438199,-74.020594,9104.533087
2656.426379,153.219100,-0.000000,8734.430116
2656.426708,459.657299,-370.102971,8512.368333
2656.427037,0.000000,-222.061783,8956.491898
2656.427367,-306.438199,-222.061783,9030.512492
2656.427696,76.609550,148.041188,9252.574275
2656.428025,76.609550,-74.020594,9178.553681
2656.428354,306.438199,-222.061783,9030.512492
2656.428684,229.828649,-222.061783,9030.512492
2656.429013,689.485948,-518.144159,9326.594869
2656.429342,459.657299,-370.102971,9178.553681
2656.429672,383.047749,-148.041188,8808.450710
2656.430001,229.828649,-222.061783,9252.574275
2656.430330,536.266849,-148.041188,9104.533087
2656.430659,383.047749,-222.061783,9178.553681
2656.430989,306.438199,-222.061783,9400.615463
2656.431318,153.219100,-222.061783,9474.636058
2656.431647,612.876398,-444.123565,9326.594869
2656.431976,766.095498,-296.082377,9178.553681
2656.432306,383.047749,-0.000000,9326.594869
2656.432635,229.828649,-0.000000,9178.553681
2656.432964,383.047749,-0.000000,9030.512492
2656.433293,383.047749,-0.000000,8882.471304
2656.433623,383.047749,-0.000000,9326.594869
2656.433952,383.047749,-222.061783,8808.450710
2656.434281,306.438199,-148.041188,9178.553681
2656.434610,0.000000,-222.061783,9252.574275
2656.434940,229.828649,-222.061783,9030.512492
2656.435269,459.657299,-148.041188,8956.491898
2656.435598,306.438199,-74.020594,8882.471304
2656.435927,459.657299,-0.000000,8734.430116
2656.436257,766.095498,-296.082377,8882.471304
2656.436586,536.266849,-296.082377,9104.533087
2656.436915,229.828649,-0.000000,8956.491898
2656.437244,153.219100,-148.041188,8734.430116
2656.437574,306.438199,-148.041188,8808.450710
2656.437903,229.828649,-0.000000,8956.491898
2656.438232,229.828649,-444.123565,9104.533087
2656.438561,689.485948,-444.123565,9030.512492
2656.438891,459.657299,-444.123565,8956.491898
2656.439220,459.657299,-296.082377,9030.512492
2656.439549,153.219100,-148.041188,9030.512492
2656.439878,383.047749,-74.020594,9104.533087
2656.440208,459.657299,-0.000000,9326.594869
2656.440537,842.705048,-444.123565,9030.512492
2656.440866,536.266849,-370.102971,9326.594869
2656.441195,306.438199,-370.102971,9400.615463
2656.441525,76.609550,-444.123565,9400.615463
2656.441854,383.047749,-0.000000,9326.594869
2656.442183,229.828649,-444.123565,9400.615463
2656.442513,153.219100,-148.041188,9326.594869
2656.442842,842.705048,-222.061783,9252.574275
2656.443171,536.266849,-444.123565,9178.553681
2656.443500,459.657299,-222.061783,9400.615463
2656.443830,689.485948,-148.041188,8734.430116
2656.444159,612.876398,-0.000000,9104.533087
2656.444488,459.657299,-0.000000,8956.491898
2656.444817,383.047749,-0.000000,8882.471304
2656.445147,536.266849,-370.102971,9030.512492
2656.445476,919.314598,-296.082377,9178.553681
2656.445805,459.657299,-148.041188,8882.471304
2656.446134,536.266849,-222.061783,9030.512492
2656.446464,0.000000,-148.041188,8956.491898
2656.446793,76.609550,-296.082377,8882.471304
2656.447122,229.828649,-0.000000,8882.471304
2656.447451,612.876398,-370.102971,8956.491898
2656.447781,306.438199,-0.000000,9178.553681
2656.448110,689.485948,-888.247130,9474.636058
2656.448439,995.924147,-1406.391290,9474.636058
2656.448768,1149.143247,-740.205942,9326.594869
2656.449098,1608.800546,-518.144159,9326.594869
2656.449427,2298.286494,-296.082377,8956.491898
2656.449756,2757.943793,296.082377,8808.450710
2656.450085,3217.601092,-74.020594,9178.553681
2656.450415,4749.792088,-370.102971,8660.409521
2656.450744,3447.429741,-0.000000,8660.409521
2656.451073,3064.381992,518.144159,8438.347739
2656.451402,2681.334243,148.041188,8586.388927
2656.451732,3140.991542,-370.102971,9474.636058
2656.452061,2374.896044,-666.185348,8882.471304
2656.452390,1685.410096,-1110.308913,9696.697840
2656.452719,2145.067394,-1776.494261,10214.842000
2656.453049,2451.505594,-1036.288319,9548.656652
2656.453378,2298.286494,-370.102971,9548.656652
2656.453707,2987.772442,-1258.350101,9918.759623
2656.454036,3064.381992,-0.000000,8956.491898
2656.454366,4673.182538,296.082377,9474.636058
2656.454695,4903.011187,518.144159,7328.038826
2656.455024,4290.134789,1332.370696,8438.347739
2656.455354,5439.278036,1036.288319,8882.471304
2656.455683,4443.353888,1036.288319,7105.977043
2656.456012,4136.915689,888.247130,9030.512492
2656.456341,3217.601092,-0.000000,8438.347739
2656.456671,2528.115143,370.102971,9178.553681
2656.457000,1455.581446,-1258.350101,9548.656652
2656.457329,1455.581446,-1184.329507,9400.615463
2656.457658,1455.581446,-1258.350101,9918.759623
2656.457988,766.095498,-1036.288319,9696.697840
2656.458317,1455.581446,-296.082377,9474.636058
2656.458646,2145.067394,-222.061783,10066.800811
2656.458975,2834.553343,592.164754,7846.182985
2656.459305,3907.087040,296.082377,10288.862594
2656.459634,4443.353888,1332.370696,8438.347739
2656.459963,4213.525239,740.205942,8216.285956
2656.460292,4673.182538,1036.288319,8586.388927
2656.460622,3983.696590,370.102971,8734.430116
2656.460951,3524.039291,-148.041188,9030.512492
2656.461280,2681.334243,-1406.391290,9548.656652
2656.461609,2374.896044,-962.267725,9844.739029
2656.461939,1838.629195,-1998.556043,10066.800811
2656.462268,1685.410096,-1998.556043,10510.924376
2656.462597,2068.457845,-1850.514855,10214.842000
2656.462926,2374.896044,-814.226536,9844.739029
2656.463256,3370.820191,-148.041188,9104.533087
2656.463585,4826.401637,740.205942,8660.409521
2656.463914,4213.525239,1406.391290,8216.285956
2656.464243,5056.230287,2220.617826,8142.265362
2656.464573,4290.134789,2368.659014,7254.018232
2656.464902,4290.134789,2368.659014,7846.182985
2656.465231,4136.915689,2294.638420,7772.162391
2656.465560,3447.429741,666.185348,8142.265362
2656.465890,2834.553343,-740.205942,9400.615463
2656.466219,2374.896044,-1998.556043,10066.800811
2656.466548,1685.410096,-2886.803174,10955.047942
2656.466877,1838.629195,-3182.885551,11177.109724
2656.467207,2451.505594,-2442.679609,11103.089130
2656.467536,3370.820191,-1702.473667,10436.903782
2656.467865,4290.134789,-0.000000,9844.739029
2656.468195,5362.668486,814.226536,9178.553681
2656.468524,5822.325785,1776.494261,8882.471304
2656.468853,5132.839837,2960.823768,8438.347739
2656.469182,4213.525239,3404.947333,7550.100608
2656.469512,4366.744339,3478.967927,6957.935855
2656.469841,3907.087040,2368.659014,6735.874072
2656.470170,3677.258390,2072.576638,6661.853478
2656.470499,2528.115143,-1110.308913,8364.327145
2656.470829,383.047749,-4293.194464,10658.965565
2656.471158,-919.314598,-4441.235652,10955.047942
2656.471487,0.000000,-4811.338623,12731.542202
2656.471816,-689.485948,-3552.988522,10584.944971
2656.472146,0.000000,-1110.308913,11177.109724
2656.472475,842.705048,-740.205942,10436.903782
2656.472804,3217.601092,962.267725,10807.006753
2656.473133,6205.373534,1258.350101,9326.594869
2656.473463,7890.783629,1036.288319,8882.471304
2656.473792,5898.935335,1184.329507,8290.306550
2656.474121,5822.325785,1036.288319,7105.977043
2656.474450,5515.887586,2442.679609,6587.832884
2656.474780,5515.887586,1184.329507,7031.956449
2656.475109,5209.449386,3034.844362,5181.441594
2656.475438,5439.278036,2146.597232,6735.874072
2656.475767,4596.572988,1036.288319,5995.668130
2656.476097,3907.087040,-1776.494261,8808.450710
2656.476426,306.438199,-6513.812290,12509.480420
2656.476755,-919.314598,-5921.647536,12287.418637
2656.477084,-2298.286494,-3256.906145,13101.645173
2656.477414,-1225.752797,-6587.832884,14211.954086
2656.477743,-1072.533697,-74.020594,10584.944971
2656.478072,2757.943793,370.102971,12657.521608
2656.478401,3294.210641,1258.350101,10066.800811
2656.478731,5822.325785,2294.638420,9252.574275
2656.479060,7277.907231,666.185348,9030.512492
2656.479389,7814.174080,3478.967927,6291.750507
2656.479718,8580.269578,4959.379811,4885.359217
2656.480048,8350.440928,1554.432478,5551.544565
2656.480377,7814.174080,1406.391290,4959.379811
2656.480706,6665.030833,1554.432478,7031.956449
2656.481036,5209.449386,-74.020594,6735.874072
2656.481365,3294.210641,2516.700203,5329.482782
2656.481694,3140.991542,-2294.638420,10436.903782
2656.482023,-1378.971896,-5033.400406,13693.809927
2656.482353,-2987.772442,-3552.988522,11621.233289
2656.482682,-1378.971896,-2516.700203,14137.933492
2656.483011,-1072.533697,-5847.626942,11843.295072
2656.483340,-919.314598,1850.514855,10955.047942
2656.483670,1991.848295,-1110.308913,10584.944971
2656.483999,0.000000,1998.556043,10584.944971
2656.484328,4519.963438,-592.164754,11695.253884
2656.484657,9116.536426,592.164754,5625.565159
2656.484987,7660.954980,1554.432478,8068.244768
2656.485316,5898.935335,1702.473667,6587.832884
2656.485645,7201.297681,1924.535449,5773.606348
2656.485974,6588.421283,-0.000000,8586.388927
2656.486304,5745.716235,1406.391290,4737.318029
2656.486633,4903.011187,2368.659014,8808.450710
2656.486962,2681.334243,1554.432478,7254.018232
2656.487291,3600.648841,-0.000000,8956.491898
2656.487621,1838.629195,-74.020594,9696.697840
2656.487950,1225.752797,-3775.050304,11695.253884
2656.488279,-612.876398,-666.185348,10584.944971
2656.488608,689.485948,-5699.585753,13175.665768
2656.488938,-1455.581446,-1184.329507,8956.491898
2656.489267,1608.800546,-74.020594,11695.253884
2656.489596,2068.457845,814.226536,8512.368333
2656.489925,2451.505594,888.247130,9178.553681
2656.490255,2145.067394,444.123565,7624.121203
2656.490584,4749.792088,962.267725,7772.162391
2656.490913,3600.648841,2072.576638,6957.935855
2656.491242,3753.867940,-0.000000,7624.121203
2656.491572,4136.915689,-1776.494261,8438.347739
2656.491901,2374.896044,-1702.473667,9400.615463
2656.492230,2298.286494,-1850.514855,10214.842000
2656.492559,1378.971896,-1110.308913,9770.718434
2656.492888,1302.362347,-666.185348,10066.800811
2656.493217,3294.210641,1628.453072,9474.636058
2656.493546,2911.162892,1554.432478,8882.471304
2656.493875,2987.772442,1702.473667,9474.636058
2656.494204,4596.572988,2220.617826,7328.038826
2656.494533,5056.230287,1776.494261,8290.306550
2656.494862,4290.134789,1406.391290,8216.285956
2656.495191,2451.505594,-0.000000,8290.306550
2656.495520,1225.752797,-1628.453072,8512.368333
2656.495849,383.047749,-1480.411884,8290.306550
2656.496178,-612.876398,-1110.308913,9474.636058
2656.496507,-1915.238745,-2294.638420,11769.274478
2656.496836,-2374.896044,-1998.556043,10510.924376
2656.497165,-612.876398,-2072.576638,10288.862594
2656.497495,-229.828649,-1110.308913,9696.697840
2656.497824,-1149.143247,-370.102971,9992.780217
2656.498153,-766.095498,-444.123565,10584.944971
2656.498482,0.000000,-444.123565,11769.274478
2656.498811,1991.848295,1628.453072,7920.203579
2656.499140,4519.963438,2368.659014,8068.244768
2656.499469,4213.525239,2146.597232,7402.059420
2656.499798,3370.820191,2072.576638,7698.141797
2656.500127,2451.505594,1184.329507,7402.059420
2656.500456,2221.676944,592.164754,7476.080014
2656.500785,2374.896044,-370.102971,8808.450710
2656.501114,76.609550,-1184.329507,8956.491898
2656.501443,-1532.190996,-2738.761985,9548.656652
2656.501772,-1915.238745,-3108.864956,11177.109724
2656.502101,-612.876398,-2072.576638,9918.759623
2656.502430,-919.314598,-296.082377,9918.759623
2656.502759,-1225.752797,222.061783,10288.862594
2656.503088,-995.924147,1406.391290,9770.718434
2656.503417,689.485948,518.144159,9770.718434
2656.503746,2451.505594,-74.020594,9178.553681
2656.504075,2681.334243,962.267725,7772.162391
2656.504404,2987.772442,1184.329507,7846.182985
2656.504734,2987.772442,1776.494261,6957.935855
2656.505063,4060.306139,1924.535449,6957.935855
2656.505392,1838.629195,444.123565,7031.956449
2656.505721,995.924147,-814.226536,8882.471304
2656.506050,-229.828649,222.061783,7994.224174
2656.506379,-1072.533697,-1258.350101,8364.327145
2656.506708,-1225.752797,-2294.638420,9918.759623
2656.507037,-2298.286494,-1998.556043,11177.109724
2656.507366,-2681.334243,-1554.432478,10807.006753
2656.507695,-2834.553343,-666.185348,9474.636058
2656.508024,-1532.190996,-962.267725,9326.594869
2656.508353,-1608.800546,148.041188,9770.718434
2656.508682,-919.314598,-592.164754,10214.842000
2656.509011,-1378.971896,962.267725,9104.533087
2656.509340,-536.266849,148.041188,9104.533087
2656.509669,0.000000,-740.205942,9474.636058
2656.509998,-689.485948,-1184.329507,8734.430116
2656.510327,-612.876398,-1406.391290,10066.800811
2656.510656,689.485948,-1184.329507,8512.368333
2656.510985,2374.896044,-222.061783,7624.121203
2656.511314,2451.505594,222.061783,7698.141797
2656.511643,1762.019645,1332.370696,7105.977043
2656.511973,2068.457845,2368.659014,7698.141797
2656.512302,1762.019645,1924.535449,7105.977043
2656.512631,1378.971896,-0.000000,8808.450710
2656.512960,-383.047749,-1332.370696,9992.780217
2656.513289,-842.705048,-592.164754,9178.553681
2656.513618,-919.314598,-1776.494261,9622.677246
2656.513947,-919.314598,-1850.514855,9992.780217
2656.514276,-1072.533697,-1332.370696,10584.944971
2656.514605,-1149.143247,-222.061783,10066.800811
2656.514934,0.000000,1036.288319,8216.285956
2656.515263,995.924147,-0.000000,8660.409521
2656.515592,689.485948,-962.267725,9918.759623
2656.515921,383.047749,-1184.329507,10140.821405
2656.516250,1532.190996,-592.164754,8808.450710
2656.516579,2834.553343,740.205942,7105.977043
2656.516908,2911.162892,888.247130,7624.121203
2656.517237,2451.505594,962.267725,8808.450710
2656.517566,2374.896044,1332.370696,9030.512492
2656.517895,1455.581446,888.247130,7550.100608
2656.518224,1072.533697,-0.000000,8512.368333
2656.518553,-383.047749,-814.226536,10584.944971
2656.518882,-1532.190996,-962.267725,10436.903782
2656.519212,-1991.848295,-1628.453072,10288.862594
2656.519541,-1302.362347,-1332.370696,9548.656652
2656.519870,-229.828649,-1258.350101,9400.615463
2656.520199,-689.485948,-1036.288319,9992.780217
2656.520528,-1302.362347,370.102971,9844.739029
2656.520857,459.657299,-0.000000,9178.553681
2656.521186,689.485948,-296.082377,9104.533087
2656.521515,0.000000,-1036.288319,9622.677246
2656.521844,0.000000,-1406.391290,10362.883188
2656.522173,689.485948,296.082377,8364.327145
2656.522502,2068.457845,-0.000000,9030.512492
2656.522831,1915.238745,-0.000000,9030.512492
2656.523160,1762.019645,962.267725,8216.285956
2656.523489,919.314598,1702.473667,8068.244768
2656.523818,919.314598,2146.597232,8290.306550
2656.524147,1455.581446,296.082377,9326.594869
2656.524476,-383.047749,-1258.350101,9474.636058
2656.524805,-1302.362347,-518.144159,9770.718434
2656.525134,-1225.752797,-1184.329507,9326.594869
2656.525463,-919.314598,-1480.411884,8734.430116
2656.525792,-766.095498,-1850.514855,9474.636058
2656.526121,-842.705048,-740.205942,9474.636058
2656.526450,-459.657299,222.061783,8660.409521
2656.526780,689.485948,370.102971,7920.203579
2656.527109,1685.410096,-148.041188,8808.450710
2656.527438,1455.581446,-148.041188,8808.450710
2656.527767,1608.800546,-74.020594,8364.327145
2656.528096,2221.676944,1036.288319,7846.182985
2656.528425,2681.334243,370.102971,8216.285956
2656.528754,1685.410096,296.082377,9104.533087
2656.529083,612.876398,296.082377,8808.450710
2656.529412,76.609550,666.185348,8734.430116
2656.529741,153.219100,-0.000000,8808.450710
2656.530070,-459.657299,-1258.350101,9030.512492
2656.530399,-1378.971896,-2294.638420,9992.780217
2656.530728,-1685.410096,-2072.576638,9770.718434
2656.531057,-536.266849,-740.205942,9400.615463
2656.531386,-306.438199,-1036.288319,8808.450710
2656.531715,-842.705048,-1036.288319,9770.718434
2656.532044,-995.924147,-0.000000,9992.780217
2656.532373,0.000000,518.144159,8068.244768
2656.532702,1455.581446,370.102971,8586.388927
2656.533031,1378.971896,-296.082377,9326.594869
2656.533360,1149.143247,-296.082377,8882.471304
2656.533689,1225.752797,1184.329507,8882.471304
2656.534019,1608.800546,814.226536,8660.409521
2656.534348,1608.800546,296.082377,8808.450710
2656.534677,1072.533697,740.205942,9326.594869
2656.535006,229.828649,814.226536,9104.533087
2656.535335,76.609550,666.185348,8882.471304
2656.535664,0.000000,-222.061783,8290.306550
2656.535993,-459.657299,-1184.329507,9474.636058
2656.536322,-1302.362347,-1184.329507,10140.821405
2656.536651,-1149.143247,-296.082377,9030.512492
2656.536980,-459.657299,-370.102971,9252.574275
2656.537309,-383.047749,-1110.308913,9918.759623
2656.537638,-842.705048,-962.267725,9622.677246
2656.537967,-766.095498,370.102971,9548.656652
2656.538296,76.609550,296.082377,8586.388927
2656.538625,689.485948,-296.082377,9104.533087
2656.538954,689.485948,-1184.329507,10066.800811
2656.539283,306.438199,-592.164754,8956.491898
2656.539612,1762.019645,-74.020594,8364.327145
2656.539941,3294.210641,518.144159,7328.038826
2656.540270,2834.553343,814.226536,7994.224174
2656.540599,2068.457845,740.205942,9030.512492
2656.540928,1455.581446,1702.473667,7698.141797
2656.541258,1685.410096,888.247130,7772.162391
2656.541587,1302.362347,-814.226536,9326.594869
2656.541916,-536.266849,-1036.288319,10066.800811
2656.542245,-995.924147,-1554.432478,10510.924376
2656.542574,-689.485948,-888.247130,10436.903782
2656.542903,-229.828649,-814.226536,9326.594869
2656.543232,-536.266849,-1110.308913,10140.821405
2656.543561,-1302.362347,-74.020594,11103.089130
2656.543890,-459.657299,-0.000000,8734.430116
2656.544219,1225.752797,370.102971,8216.285956
2656.544548,1072.533697,-444.123565,8660.409521
2656.544877,229.828649,-518.144159,9696.697840
2656.545206,612.876398,-74.020594,9918.759623
2656.545535,2221.676944,666.185348,6439.791695
2656.545864,2987.772442,888.247130,8142.265362
2656.546193,1762.019645,370.102971,8068.244768
2656.546522,1762.019645,1480.411884,8216.285956
2656.546851,1532.190996,1702.473667,7772.162391
2656.547180,842.705048,592.164754,7476.080014
2656.547509,0.000000,-1406.391290,9696.697840
2656.547838,-1915.238745,-2294.638420,10807.006753
2656.548167,-2681.334243,-1036.288319,9844.739029
2656.548497,-995.924147,-1554.432478,9622.677246
2656.548826,-1532.190996,-888.247130,9326.594869
2656.549155,-1149.143247,-1406.391290,10140.821405
2656.549484,-1072.533697,-0.000000,9326.594869
2656.549813,-689.485948,-0.000000,8586.388927
2656.550142,689.485948,-962.267725,8660.409521
2656.550471,153.219100,-370.102971,8882.471304
2656.550800,-1149.143247,-1184.329507,10510.924376
2656.551129,-995.924147,-1406.391290,10436.903782
2656.551458,1455.581446,-666.185348,9252.574275
2656.551787,1685.410096,518.144159,7624.121203
2656.552116,2374.896044,592.164754,8438.347739
2656.552445,2451.505594,518.144159,8216.285956
2656.552774,2068.457845,1924.535449,7402.059420
2656.553103,2528.115143,296.082377,8216.285956
2656.553432,1302.362347,-2146.597232,8956.491898
2656.553761,-689.485948,-740.205942,9918.759623
2656.554090,-919.314598,-0.000000,9326.594869
2656.554419,-459.657299,-1258.350101,9474.636058
2656.554748,-766.095498,-2368.659014,10288.862594
2656.555077,-536.266849,-1258.350101,9918.759623
2656.555406,0.000000,592.164754,9918.759623
2656.555736,306.438199,888.247130,8512.368333
2656.556065,919.314598,-0.000000,8586.388927
2656.556394,1302.362347,-296.082377,10584.944971
2656.556723,1455.581446,962.267725,8734.430116
2656.557052,2911.162892,1258.350101,8068.244768
2656.557381,3677.258390,1036.288319,7994.224174
2656.557710,2757.943793,592.164754,8956.491898
2656.558039,2068.457845,962.267725,8438.347739
2656.558368,1685.410096,592.164754,7624.121203
2656.558697,1378.971896,-740.205942,8438.347739
2656.559026,-842.705048,-1184.329507,9696.697840
2656.559355,-1302.362347,-1998.556043,11621.233289
2656.559684,-2757.943793,-1776.494261,9918.759623
2656.560013,-1608.800546,-1184.329507,10066.800811
2656.560342,-689.485948,-1184.329507,9474.636058
2656.560671,-1378.971896,-592.164754,9844.739029
2656.561000,-995.924147,444.123565,9770.718434
2656.561329,153.219100,1258.350101,9030.512492
2656.561658,1455.581446,888.247130,7846.182985
2656.561987,2221.676944,962.267725,8512.368333
2656.562316,1838.629195,148.041188,8512.368333
2656.562645,1455.581446,518.144159,7846.182985
2656.562975,2451.505594,814.226536,8142.265362
2656.563304,2374.896044,370.102971,8586.388927
2656.563633,842.705048,-888.247130,9178.553681
2656.563962,-612.876398,-0.000000,9474.636058
2656.564291,-536.266849,-148.041188,8586.388927
2656.564620,-612.876398,-740.205942,9400.615463
2656.564949,-2145.067394,-1480.411884,10362.883188
2656.565278,-2068.457845,-1036.288319,10584.944971
2656.565607,-2221.676944,-888.247130,9696.697840
2656.565936,-1302.362347,-222.061783,8512.368333
2656.566265,-919.314598,-962.267725,9030.512492
2656.566594,-1762.019645,-1184.329507,10288.862594
2656.566923,-995.924147,-0.000000,8956.491898
2656.567252,0.000000,-0.000000,8364.327145
2656.567581,995.924147,-518.144159,8660.409521
2656.567910,1149.143247,-592.164754,8734.430116
2656.568239,1302.362347,148.041188,8512.368333
2656.568568,2298.286494,666.185348,7846.182985
2656.568897,2834.553343,518.144159,7624.121203
2656.569226,2221.676944,296.082377,7772.162391
2656.569555,1455.581446,296.082377,8808.450710
2656.569884,995.924147,962.267725,7772.162391
2656.570214,842.705048,222.061783,7772.162391
2656.570543,306.438199,-1036.288319,8882.471304
2656.570872,-842.705048,-1702.473667,9770.718434
2656.571201,-1072.533697,-1110.308913,9696.697840
2656.571530,-1378.971896,-962.267725,9178.553681
2656.571859,-689.485948,-888.247130,9770.718434
2656.572188,-1225.752797,-1406.391290,10510.924376
2656.572517,-1225.752797,-740.205942,9992.780217
2656.572846,-919.314598,-0.000000,9326.594869
2656.573175,842.705048,666.185348,9104.533087
2656.573504,1455.581446,-222.061783,8734.430116
2656.573833,1302.362347,-370.102971,9622.677246
2656.574162,2298.286494,370.102971,8882.471304
2656.574491,3064.381992,1184.329507,7698.141797
2656.574820,3217.601092,888.247130,8882.471304
2656.575149,2604.724693,148.041188,9178.553681
2656.575478,1149.143247,740.205942,9104.533087
2656.575807,689.485948,1184.329507,8660.409521
2656.576136,842.705048,296.082377,8364.327145
2656.576465,-459.657299,-1110.308913,9992.780217
2656.576794,-1991.848295,-1480.411884,10807.006753
2656.577123,-2068.457845,-1110.308913,10807.006753
2656.577452,-1608.800546,-1258.350101,10066.800811
2656.577782,-1225.752797,-0.000000,9400.615463
2656.578111,-1072.533697,-888.247130,11473.192101
2656.578440,-1762.019645,-0.000000,9326.594869
2656.578769,-766.095498,888.247130,8882.471304
2656.579098,766.095498,-518.144159,9252.574275
2656.579427,0.000000,-666.185348,9104.533087
2656.579756,-689.485948,-1406.391290,11325.150913
2656.580085,229.828649,-296.082377,9252.574275
2656.580414,1455.581446,962.267725,7105.977043
2656.580743,2911.162892,-0.000000,8586.388927
2656.581072,2451.505594,1332.370696,7179.997637
2656.581401,2528.115143,1924.535449,8142.265362
2656.581730,2145.067394,1850.514855,6735.874072
2656.582059,2528.115143,962.267725,7105.977043
2656.582388,536.266849,-1036.288319,9622.677246
2656.582717,-919.314598,-518.144159,8512.368333
2656.583046,-1455.581446,-1480.411884,9400.615463
2656.583375,-1532.190996,-1924.535449,9474.636058
2656.583704,-689.485948,-3108.864956,9474.636058
2656.584033,-1378.971896,-2146.597232,10881.027347
2656.584362,-1378.971896,-592.164754,9326.594869
2656.584691,-306.438199,-222.061783,8438.347739
2656.585021,229.828649,-1110.308913,9400.615463
2656.585350,-306.438199,-444.123565,9252.574275
2656.585679,-229.828649,-962.267725,10732.986159
2656.586008,1149.143247,-518.144159,9474.636058
2656.586337,2528.115143,592.164754,7402.059420
2656.586666,3064.381992,592.164754,9030.512492
2656.586995,2451.505594,1184.329507,7846.182985
2656.587324,3140.991542,2442.679609,7476.080014
2656.587653,2145.067394,2442.679609,6957.935855
2656.587982,2221.676944,-0.000000,8660.409521
2656.588311,689.485948,-1406.391290,9326.594869
2656.588640,-1532.190996,-962.267725,9178.553681
2656.588969,-1762.019645,-2220.617826,10584.944971
2656.589298,-919.314598,-3034.844362,9918.759623
2656.589627,-1608.800546,-1998.556043,9770.718434
2656.589956,-1532.190996,-666.185348,11325.150913
2656.590285,-1532.190996,-296.082377,9030.512492
2656.590614,0.000000,1036.288319,8660.409521
2656.590943,459.657299,-222.061783,9474.636058
2656.591272,-229.828649,-0.000000,9992.780217
2656.591602,-383.047749,518.144159,9918.759623
2656.591931,995.924147,888.247130,9030.512492
2656.592260,1685.410096,814.226536,8364.327145
2656.592589,1915.238745,1258.350101,7920.203579
2656.592918,2068.457845,1110.308913,7550.100608
2656.593247,2681.334243,1184.329507,8142.265362
2656.593576,2068.457845,814.226536,7402.059420
2656.593905,1455.581446,-0.000000,8734.430116
2656.594234,-919.314598,-1110.308913,9474.636058
2656.594563,-1762.019645,-518.144159,8956.491898
2656.594892,-1225.752797,-1258.350101,9992.780217
2656.595221,-1455.581446,-2516.700203,10510.924376
2656.595551,-1915.238745,-1924.535449,10510.924376
2656.595880,-1685.410096,-74.020594,10510.924376
2656.596209,-1149.143247,148.041188,9178.553681
2656.596538,153.219100,-0.000000,9326.594869
2656.596867,-383.047749,-1184.329507,10066.800811
2656.597196,-842.705048,-666.185348,10362.883188
2656.597525,0.000000,-666.185348,10658.965565
2656.597854,1762.019645,-222.061783,8882.471304
2656.598183,2757.943793,-0.000000,8438.347739
2656.598512,2911.162892,518.144159,7550.100608
2656.598841,3524.039291,1702.473667,7254.018232
2656.599170,3294.210641,1850.514855,6809.894666
2656.599499,3524.039291,962.267725,7254.018232
2656.599829,2374.896044,-370.102971,7772.162391
2656.600158,229.828649,222.061783,8882.471304
2656.600487,0.000000,-444.123565,8808.450710
2656.600816,-919.314598,-1702.473667,9474.636058
2656.601145,-1991.848295,-2886.803174,11473.192101
2656.601474,-2145.067394,-1776.494261,10436.903782
2656.601803,-1378.971896,-592.164754,9474.636058
2656.602132,-229.828649,-74.020594,8660.409521
2656.602461,-383.047749,-444.123565,9548.656652
2656.602790,-612.876398,-888.247130,9918.759623
2656.603119,-459.657299,-444.123565,9696.697840
2656.603448,1072.533697,-148.041188,9400.615463
2656.603778,2298.286494,592.164754,7846.182985
2656.604107,2757.943793,148.041188,8364.327145
2656.604436,2834.553343,1036.288319,7402.059420
2656.604765,3370.820191,1776.494261,6439.791695
2656.605094,2604.724693,1332.370696,6513.812290
2656.605423,2451.505594,1332.370696,7698.141797
2656.605752,612.876398,-0.000000,8512.368333
2656.606081,-919.314598,-0.000000,8660.409521
2656.606410,-1378.971896,-962.267725,9696.697840
2656.606739,-1532.190996,-1480.411884,10732.986159
2656.607068,-1762.019645,-1850.514855,10658.965565
2656.607397,-2374.896044,-1702.473667,11103.089130
2656.607726,-1532.190996,-296.082377,8956.491898
2656.608056,0.000000,-74.020594,9622.677246
2656.608385,-1149.143247,-2294.638420,10510.924376
2656.608714,-1455.581446,-1480.411884,10510.924376
2656.609043,-689.485948,-370.102971,10510.924376
2656.609372,-306.438199,-814.226536,9400.615463
2656.609701,-459.657299,-518.144159,9326.594869
2656.610030,1608.800546,-444.123565,10362.883188
2656.610359,2068.457845,1110.308913,6735.874072
2656.610688,3753.867940,1628.453072,6661.853478
2656.611017,3830.477490,1332.370696,5995.668130
2656.611346,2911.162892,296.082377,7550.100608
2656.611675,1608.800546,666.185348,8882.471304
2656.612004,0.000000,1332.370696,7698.141797
2656.612334,-229.828649,-666.185348,9326.594869
2656.612663,-2068.457845,-1998.556043,10881.027347
2656.612992,-2451.505594,-1850.514855,11177.109724
2656.613321,-2145.067394,-1110.308913,10214.842000
2656.613650,-612.876398,-518.144159,8808.450710
2656.613979,229.828649,-518.144159,9104.533087
2656.614308,-612.876398,-1332.370696,10066.800811
2656.614637,-1302.362347,-370.102971,10362.883188
2656.614966,0.000000,-444.123565,10214.842000
2656.615295,1455.581446,-0.000000,8882.471304
2656.615624,1685.410096,592.164754,8142.265362
2656.615953,2911.162892,888.247130,8290.306550
2656.616283,3370.820191,1924.535449,6661.853478
2656.616612,4136.915689,1924.535449,6735.874072
2656.616941,3600.648841,1406.391290,7698.141797
2656.617270,1685.410096,666.185348,8808.450710
2656.617599,229.828649,222.061783,8956.491898
2656.617928,-306.438199,-296.082377,8882.471304
2656.618257,-1302.362347,-1554.432478,9474.636058
2656.618586,-1685.410096,-2886.803174,11843.295072
2656.618915,-1532.190996,-2072.576638,10658.965565
2656.619244,-1378.971896,-1406.391290,9696.697840
2656.619573,0.000000,-296.082377,8512.368333
2656.619902,0.000000,-888.247130,9178.553681
2656.620231,-1302.362347,-1184.329507,10881.027347
2656.620561,-306.438199,-0.000000,9992.780217
2656.620890,766.095498,1850.514855,7772.162391
2656.621219,1685.410096,1406.391290,8290.306550
2656.621548,1915.238745,814.226536,9104.533087
2656.621877,1685.410096,1258.350101,8216.285956
2656.622206,2068.457845,1776.494261,7772.162391
2656.622535,2298.286494,592.164754,7624.121203
2656.622864,1762.019645,-296.082377,8956.491898
2656.623193,0.000000,-74.020594,9178.553681
2656.623522,-1149.143247,-222.061783,7772.162391
2656.623851,-612.876398,-518.144159,9252.574275
2656.624180,-306.438199,-1258.350101,8956.491898
2656.624509,-1225.752797,-1406.391290,10362.883188
2656.624839,-1762.019645,-814.226536,9992.780217
2656.625168,-766.095498,-296.082377,8734.430116
2656.625497,229.828649,-1110.308913,9104.533087
2656.625826,229.828649,-1184.329507,9548.656652
2656.626155,-995.924147,-1110.308913,10362.883188
2656.626484,-383.047749,-148.041188,9696.697840
2656.626813,1149.143247,370.102971,8808.450710
2656.627142,1838.629195,296.082377,8882.471304
2656.627471,1302.362347,296.082377,8956.491898
2656.627800,1762.019645,1110.308913,8142.265362
2656.628129,2604.724693,1184.329507,7698.141797
2656.628458,3064.381992,-222.061783,8734.430116
2656.628788,1838.629195,-518.144159,8586.388927
2656.629117,76.609550,-0.000000,9252.574275
2656.629446,306.438199,-74.020594,8882.471304
2656.629775,-306.438199,-592.164754,8512.368333
2656.630104,-306.438199,-1924.535449,10214.842000
2656.630433,-1838.629195,-1702.473667,10658.965565
2656.630762,-1838.629195,-444.123565,9474.636058
2656.631091,-459.657299,-592.164754,8216.285956
2656.631420,-612.876398,-370.102971,9326.594869
2656.631749,-1608.800546,-1924.535449,12361.439231
2656.632078,-919.314598,-1258.350101,9992.780217
2656.632407,-1302.362347,222.061783,8142.265362
2656.632736,459.657299,222.061783,9104.533087
2656.633066,1302.362347,666.185348,9992.780217
2656.633395,766.095498,222.061783,8882.471304
2656.633724,2221.676944,1998.556043,7179.997637
2656.634053,3370.820191,1184.329507,6735.874072
2656.634382,2298.286494,962.267725,6957.935855
2656.634711,1762.019645,148.041188,8734.430116
2656.635040,1072.533697,740.205942,7994.224174
2656.635369,229.828649,962.267725,7698.141797
2656.635698,-383.047749,-962.267725,8660.409521
2656.636027,-1378.971896,-1702.473667,10214.842000
2656.636356,-2221.676944,-1406.391290,10140.821405
2656.636685,-1225.752797,-0.000000,8512.368333
2656.637014,-306.438199,-1036.288319,8808.450710
2656.637344,-1072.533697,-1480.411884,9770.718434
2656.637673,-842.705048,-1406.391290,10214.842000
2656.638002,-919.314598,-444.123565,9178.553681
2656.638331,-306.438199,-296.082377,9252.574275
2656.638660,306.438199,370.102971,9326.594869
2656.638989,-229.828649,-296.082377,9400.615463
2656.639318,459.657299,370.102971,10288.862594
2656.639647,1838.629195,962.267725,7402.059420
2656.639976,4290.134789,518.144159,7328.038826
2656.640305,2987.772442,370.102971,6587.832884
2656.640634,2298.286494,888.247130,7920.203579
2656.640963,1608.800546,592.164754,8142.265362
2656.641293,1072.533697,962.267725,7698.141797
2656.641622,0.000000,-1184.329507,9622.677246
2656.641951,-1685.410096,-1332.370696,10955.047942
2656.642280,-1608.800546,-1998.556043,10436.903782
2656.642609,-1225.752797,-740.205942,9992.780217
2656.642938,-306.438199,-1998.556043,9696.697840
2656.643267,-1608.800546,-2442.679609,11251.130318
2656.643596,-1455.581446,-666.185348,10881.027347
2656.643925,-689.485948,-0.000000,10362.883188
2656.644254,76.609550,296.082377,8586.388927
2656.644583,2834.553343,740.205942,9326.594869
2656.644912,2528.115143,1480.411884,8660.409521
2656.645241,2987.772442,2146.597232,7254.018232
2656.645571,2987.772442,1850.514855,6735.874072
2656.645900,3140.991542,888.247130,7476.080014
2656.646229,1838.629195,518.144159,8734.430116
2656.646558,0.000000,148.041188,8734.430116
2656.646887,-766.095498,-296.082377,9400.615463
2656.647216,-1378.971896,-1110.308913,10510.924376
2656.647545,-1838.629195,-1850.514855,10436.903782
2656.647874,-2374.896044,-666.185348,9844.739029
2656.648203,-1685.410096,-74.020594,9918.759623
2656.648532,-536.266849,-148.041188,8734.430116
2656.648861,-536.266849,-814.226536,9178.553681
2656.649190,-689.485948,-1036.288319,10658.965565
2656.649520,-612.876398,-370.102971,9992.780217
2656.649849,1072.533697,592.164754,8364.327145
2656.650178,1838.629195,962.267725,7624.121203
2656.650507,1608.800546,592.164754,8290.306550
2656.650836,2221.676944,888.247130,8216.285956
2656.651165,1991.848295,1776.494261,7254.018232
2656.651494,1608.800546,740.205942,7550.100608
2656.651823,1149.143247,-296.082377,8882.471304
2656.652152,-536.266849,-962.267725,9400.615463
2656.652481,-1838.629195,-592.164754,9252.574275
2656.652810,-1608.800546,-222.061783,9548.656652
2656.653139,-995.924147,-2072.576638,10436.903782
2656.653468,-1915.238745,-1406.391290,10510.924376
2656.653798,-1302.362347,-592.164754,10362.883188
2656.654127,-689.485948,-222.061783,9030.512492
2656.654456,0.000000,-1110.308913,8956.491898
2656.654785,229.828649,-1850.514855,10584.944971
2656.655114,459.657299,-592.164754,9548.656652
2656.655443,1302.362347,296.082377,8068.244768
2656.655772,2681.334243,1184.329507,8216.285956
2656.656101,3294.210641,1406.391290,8808.450710
2656.656430,2987.772442,1110.308913,9030.512492
2656.656759,2528.115143,1480.411884,7772.162391
2656.657088,2221.676944,1480.411884,7550.100608
2656.657417,1915.238745,-0.000000,8364.327145
2656.657746,153.219100,-74.020594,9252.574275
2656.658076,-1378.971896,-1036.288319,10436.903782
2656.658405,-1072.533697,-814.226536,9696.697840
2656.658734,-306.438199,-1184.329507,8882.471304
2656.659063,-1072.533697,-1554.432478,9918.759623
2656.659392,-1378.971896,-888.247130,10140.821405
2656.659721,-919.314598,-296.082377,9252.574275
2656.660050,383.047749,-148.041188,8882.471304
2656.660379,995.924147,-888.247130,9474.636058
2656.660708,842.705048,-1110.308913,9992.780217
2656.661037,1149.143247,-74.020594,9252.574275
2656.661366,2068.457845,1258.350101,8216.285956
2656.661695,2374.896044,370.102971,7698.141797
2656.662025,2145.067394,370.102971,8512.368333
2656.662354,1685.410096,222.061783,8586.388927
2656.662683,1072.533697,1258.350101,7402.059420
2656.663012,1302.362347,148.041188,7920.203579
2656.663341,0.000000,-1036.288319,9400.615463
2656.663670,-1762.019645,-1036.288319,10436.903782
2656.663999,-1685.410096,-1184.329507,10066.800811
2656.664328,-1225.752797,-296.082377,8586.388927
2656.664657,-1072.533697,-1110.308913,9400.615463
2656.664986,-1455.581446,-1036.288319,9992.780217
2656.665315,-1762.019645,-444.123565,10066.800811
2656.665644,-1378.971896,518.144159,9178.553681
2656.665973,0.000000,-370.102971,8660.409521
2656.666303,-229.828649,-1036.288319,9696.697840
2656.666632,0.000000,-1110.308913,10214.842000
2656.666961,995.924147,-0.000000,9178.553681
2656.667290,2145.067394,1258.350101,7994.224174
2656.667619,2451.505594,1036.288319,8142.265362
2656.667948,1685.410096,1036.288319,9548.656652
2656.668277,1149.143247,1406.391290,8882.471304
2656.668606,1762.019645,1998.556043,7031.956449
2656.668935,1225.752797,888.247130,7920.203579
2656.669264,76.609550,-888.247130,9178.553681
2656.669593,-612.876398,-1850.514855,9548.656652
2656.669922,-1455.581446,-518.144159,9400.615463
2656.670251,-459.657299,-1184.329507,9178.553681
2656.670581,-1072.533697,-1998.556043,9548.656652
2656.670910,-1685.410096,-1554.432478,10658.965565
2656.671239,-1149.143247,-0.000000,9326.594869
2656.671568,0.000000,370.102971,8290.306550
2656.671897,766.095498,-1924.535449,10584.944971
2656.672226,1685.410096,-814.226536,9770.718434
2656.672555,1685.410096,666.185348,8956.491898
2656.672884,2451.505594,-0.000000,7846.182985
2656.673213,3524.039291,2072.576638,7846.182985
2656.673542,3370.820191,1110.308913,9326.594869
2656.673871,1685.410096,814.226536,8290.306550
2656.674200,1991.848295,1036.288319,8512.368333
2656.674530,1149.143247,-222.061783,7624.121203
2656.674859,995.924147,-1036.288319,8364.327145
2656.675188,-766.095498,-2442.679609,10140.821405
2656.675517,-2145.067394,-1998.556043,10288.862594
2656.675846,-1838.629195,-1332.370696,9844.739029
2656.676175,-766.095498,-2294.638420,9030.512492
2656.676504,-1532.190996,-1776.494261,10288.862594
2656.676833,-1149.143247,-740.205942,9918.759623
2656.677162,0.000000,-0.000000,9326.594869
2656.677491,229.828649,-0.000000,8512.368333
2656.677820,1532.190996,-444.123565,9104.533087
2656.678149,1532.190996,-0.000000,8882.471304
2656.678478,2068.457845,888.247130,8364.327145
2656.678808,2757.943793,2220.617826,7105.977043
2656.679137,2834.553343,1628.453072,8068.244768
2656.679466,1915.238745,888.247130,8734.430116
2656.679795,612.876398,1332.370696,8512.368333
2656.680124,153.219100,1258.350101,7328.038826
2656.680453,-612.876398,-0.000000,8956.491898
2656.680782,-1378.971896,-2146.597232,9474.636058
2656.681111,-2451.505594,-2220.617826,10510.924376
2656.681440,-2068.457845,-2590.720797,10436.903782
2656.681769,-1455.581446,-1850.514855,8734.430116
2656.682098,-1225.752797,-592.164754,9178.553681
2656.682427,-1838.629195,-518.144159,10288.862594
2656.682756,-1225.752797,-0.000000,9474.636058
2656.683086,459.657299,666.185348,9474.636058
2656.683415,2374.896044,1184.329507,7772.162391
2656.683744,3524.039291,296.082377,8660.409521
2656.684073,2145.067394,-0.000000,8586.388927
2656.684402,2528.115143,1924.535449,7920.203579
2656.684731,2604.724693,1480.411884,8068.244768
2656.685060,1685.410096,666.185348,8216.285956
2656.685389,842.705048,-222.061783,9474.636058
2656.685718,0.000000,-0.000000,9252.574275
2656.686047,-536.266849,-296.082377,9030.512492
2656.686376,-1532.190996,-1924.535449,9252.574275
2656.686705,-1991.848295,-2590.720797,10362.883188
2656.687035,-2451.505594,-2220.617826,11473.192101
2656.687364,-1915.238745,-740.205942,9622.677246
2656.687693,-612.876398,-518.144159,9474.636058
2656.688022,-842.705048,-1258.350101,10214.842000
2656.688351,-153.219100,222.061783,9992.780217
2656.688680,306.438199,888.247130,8882.471304
2656.689009,1915.238745,1480.411884,7846.182985
2656.689338,2834.553343,592.164754,8438.347739
2656.689667,2298.286494,-222.061783,9178.553681
2656.689996,1608.800546,-0.000000,8734.430116
2656.690325,2298.286494,518.144159,7698.141797
2656.690654,2604.724693,-0.000000,7476.080014
2656.690983,1302.362347,-0.000000,8882.471304
2656.691313,536.266849,-74.020594,9622.677246
2656.691642,0.000000,296.082377,8364.327145
2656.691971,-153.219100,296.082377,8142.265362
2656.692300,-459.657299,-1110.308913,9178.553681
2656.692629,-1225.752797,-1110.308913,9992.780217
2656.692958,-1225.752797,-592.164754,10362.883188
2656.693287,-1532.190996,-74.020594,8882.471304
2656.693616,-919.314598,-592.164754,9548.656652
2656.693946,-1149.143247,-370.102971,10214.842000
2656.694275,-1302.362347,-74.020594,9844.739029
2656.694604,-306.438199,666.185348,8956.491898
2656.694933,995.924147,-148.041188,8956.491898
2656.695262,1072.533697,-1406.391290,9252.574275
2656.695591,1455.581446,-962.267725,8956.491898
2656.695921,2221.676944,-0.000000,8438.347739
2656.696250,2987.772442,888.247130,7402.059420
2656.696579,3370.820191,888.247130,7994.224174
2656.696908,1991.848295,370.102971,8734.430116
2656.697237,612.876398,444.123565,9400.615463
2656.697566,1302.362347,814.226536,8734.430116
2656.697896,1225.752797,-1036.288319,8216.285956
2656.698225,-1378.971896,-1850.514855,9918.759623
2656.698554,-1608.800546,-2738.761985,10807.006753
2656.698883,-2528.115143,-1258.350101,9696.697840
2656.699212,-1378.971896,-518.144159,9696.697840
2656.699541,-459.657299,-1480.411884,9992.780217
2656.699870,-1762.019645,-814.226536,10140.821405
2656.700200,-383.047749,-222.061783,10214.842000
2656.700529,1072.533697,-74.020594,8216.285956
2656.700858,2298.286494,-148.041188,8142.265362
2656.701187,2528.115143,-814.226536,9252.574275
2656.701516,2757.943793,592.164754,8734.430116
2656.701845,3140.991542,1480.411884,7550.100608
2656.702175,3983.696590,2368.659014,6439.791695
2656.702504,3753.867940,1258.350101,7698.141797
2656.702833,1838.629195,1036.288319,8808.450710
2656.703162,1072.533697,740.205942,7994.224174
2656.703491,306.438199,296.082377,8142.265362
2656.703820,-1072.533697,-1702.473667,9474.636058
2656.704150,-2451.505594,-3182.885551,10807.006753
2656.704479,-3064.381992,-2738.761985,10658.965565
2656.704808,-2068.457845,-962.267725,9992.780217
2656.705137,-766.095498,-1184.329507,8956.491898
2656.705466,-1302.362347,-1110.308913,9844.739029
2656.705795,-1915.238745,222.061783,10362.883188
2656.706125,-919.314598,814.226536,9474.636058
2656.706454,536.266849,592.164754,9030.512492
2656.706783,1608.800546,814.226536,8364.327145
2656.707112,3064.381992,888.247130,9400.615463
2656.707441,2374.896044,814.226536,8586.388927
2656.707770,3524.039291,1850.514855,7105.977043
2656.708099,3830.477490,2368.659014,6735.874072
2656.708429,1455.581446,1036.288319,8364.327145
2656.708758,306.438199,888.247130,9992.780217
2656.709087,-536.266849,518.144159,9178.553681
2656.709416,-1838.629195,-1036.288319,8068.244768
2656.709745,-2451.505594,-2294.638420,10140.821405
2656.710074,-2911.162892,-3627.009116,11251.130318
2656.710404,-2987.772442,-1776.494261,10288.862594
2656.710733,-1302.362347,-740.205942,9548.656652
2656.711062,-1762.019645,-814.226536,9252.574275
2656.711391,-1762.019645,-1702.473667,11251.130318
2656.711720,-1991.848295,-592.164754,10066.800811
2656.712049,-995.924147,-0.000000,9548.656652
2656.712379,1149.143247,-666.185348,9474.636058
2656.712708,1685.410096,-666.185348,8808.450710
2656.713037,2451.505594,-0.000000,8882.471304
2656.713366,3370.820191,1184.329507,7105.977043
2656.713695,4749.792088,1554.432478,6439.791695
2656.714024,4213.525239,1998.556043,7254.018232
2656.714354,3294.210641,1776.494261,7550.100608
2656.714683,2068.457845,2146.597232,7624.121203
2656.715012,689.485948,888.247130,7698.141797
2656.715341,-536.266849,-1258.350101,8586.388927
2656.715670,-2757.943793,-3404.947333,10955.047942
2656.715999,-3600.648841,-3330.926739,11917.315666
2656.716328,-2604.724693,-3108.864956,11251.130318
2656.716658,-2145.067394,-1554.432478,9696.697840
2656.716987,-1455.581446,-888.247130,9474.636058
2656.717316,-1838.629195,-370.102971,9400.615463
2656.717645,-536.266849,-222.061783,10436.903782
2656.717974,766.095498,222.061783,9178.553681
2656.718303,1838.629195,-518.144159,8808.450710
2656.718633,1991.848295,-1406.391290,9104.533087
2656.718962,2987.772442,-74.020594,8364.327145
2656.719291,3447.429741,1258.350101,7105.977043
2656.719620,4290.134789,2146.597232,7550.100608
2656.719949,3524.039291,1406.391290,7846.182985
2656.720278,2757.943793,2146.597232,7846.182985
2656.720608,1838.629195,1776.494261,8068.244768
2656.720937,306.438199,370.102971,7994.224174
2656.721266,-1532.190996,-2442.679609,9622.677246
2656.721595,-2604.724693,-2812.782580,10881.027347
2656.721924,-3370.820191,-3404.947333,11177.109724
2656.722253,-2451.505594,-1850.514855,10732.986159
2656.722583,-1685.410096,-1258.350101,9474.636058
2656.722912,-1685.410096,-1480.411884,9992.780217
2656.723241,-1532.190996,-592.164754,9696.697840
2656.723570,-383.047749,1184.329507,9178.553681
2656.723899,689.485948,962.267725,9030.512492
2656.724228,1838.629195,518.144159,8586.388927
2656.724557,2298.286494,444.123565,8660.409521
2656.724887,2757.943793,1184.329507,7994.224174
2656.725216,3447.429741,1924.535449,7254.018232
2656.725545,3064.381992,1406.391290,7772.162391
2656.725874,2528.115143,1332.370696,8216.285956
2656.726203,1225.752797,1406.391290,8438.347739
2656.726532,229.828649,1628.453072,7846.182985
2656.726862,-229.828649,-814.226536,8586.388927
2656.727191,-1532.190996,-2368.659014,9622.677246
2656.727520,-1762.019645,-3256.906145,11029.068536
2656.727849,-2681.334243,-2294.638420,10362.883188
2656.728178,-1685.410096,-814.226536,9400.615463
2656.728507,-1302.362347,-1628.453072,9474.636058
2656.728837,-1225.752797,-444.123565,10510.924376
2656.729166,-766.095498,518.144159,10140.821405
2656.729495,536.266849,1258.350101,8734.430116
2656.729824,2068.457845,962.267725,8808.450710
2656.730153,2757.943793,148.041188,9104.533087
2656.730482,2068.457845,444.123565,9474.636058
2656.730812,2604.724693,666.185348,8734.430116
2656.731141,2528.115143,1406.391290,7772.162391
2656.731470,2221.676944,518.144159,8882.471304
2656.731799,459.657299,-0.000000,10288.862594
2656.732128,153.219100,-0.000000,9474.636058
2656.732457,612.876398,296.082377,7994.224174
2656.732787,153.219100,-1332.370696,9030.512492
2656.733116,-536.266849,-2072.576638,10214.842000
2656.733445,-1608.800546,-2220.617826,9622.677246
2656.733774,-1455.581446,-518.144159,9474.636058
2656.734103,-1225.752797,-814.226536,9400.615463
2656.734432,0.000000,-1036.288319,10214.842000
2656.734761,-536.266849,-0.000000,10584.944971
2656.735091,-536.266849,592.164754,8956.491898
2656.735420,0.000000,1554.432478,7846.182985
2656.735749,842.705048,-222.061783,9104.533087
2656.736078,919.314598,-444.123565,9918.759623
2656.736407,2068.457845,-0.000000,8956.491898
2656.736736,1838.629195,1258.350101,7624.121203
2656.737066,2068.457845,888.247130,8068.244768
2656.737395,1532.190996,592.164754,8586.388927
2656.737724,919.314598,444.123565,8734.430116
2656.738053,689.485948,1036.288319,7624.121203
2656.738382,842.705048,148.041188,7846.182985
2656.738711,536.266849,-1480.411884,8808.450710
2656.739041,-1225.752797,-1554.432478,9474.636058
2656.739370,-1685.410096,-2072.576638,9400.615463
2656.739699,-1455.581446,-888.247130,9178.553681
2656.740028,-1532.190996,-1184.329507,9696.697840
2656.740357,-1991.848295,-1332.370696,10510.924376
2656.740686,-1838.629195,-74.020594,9770.718434
2656.741016,-995.924147,-0.000000,8956.491898
2656.741345,459.657299,-1332.370696,8808.450710
2656.741674,459.657299,-888.247130,9696.697840
2656.742003,1455.581446,-814.226536,9474.636058
2656.742332,2374.896044,666.185348,8438.347739
2656.742661,3294.210641,1850.514855,7402.059420
2656.742990,3677.258390,1184.329507,7994.224174
2656.743320,2451.505594,888.247130,8364.327145
2656.743649,2451.505594,1036.288319,8586.388927
2656.743978,2374.896044,1184.329507,7624.121203
2656.744307,1455.581446,-296.082377,8660.409521
2656.744636,76.609550,-1628.453072,10140.821405
2656.744965,-1302.362347,-2294.638420,10658.965565
2656.745295,-1991.848295,-1184.329507,9770.718434
2656.745624,-1455.581446,-814.226536,9400.615463
2656.745953,-1225.752797,-1850.514855,10436.903782
2656.746282,-2068.457845,-1332.370696,10658.965565
2656.746611,-1915.238745,-370.102971,10066.800811
2656.746940,-536.266849,-74.020594,8734.430116
2656.747270,383.047749,-518.144159,8586.388927
2656.747599,919.314598,-592.164754,9548.656652
2656.747928,1685.410096,-0.000000,8512.368333
2656.748257,3064.381992,1184.329507,7846.182985
2656.748586,3983.696590,1480.411884,6661.853478
2656.748915,3447.429741,1998.556043,7994.224174
2656.749245,2681.334243,1258.350101,7994.224174
2656.749574,1838.629195,1480.411884,7698.141797
2656.749903,842.705048,1184.329507,7624.121203
2656.750232,-153.219100,-1110.308913,9104.533087
2656.750561,-2298.286494,-2368.659014,10584.944971
2656.750890,-3140.991542,-1628.453072,10140.821405
2656.751219,-2298.286494,-1480.411884,10288.862594
2656.751549,-2145.067394,-814.226536,9474.636058
2656.751878,-1608.800546,-888.247130,9104.533087
2656.752207,-2221.676944,370.102971,9326.594869
2656.752536,-1225.752797,740.205942,9104.533087
2656.752865,-459.657299,-370.102971,8364.327145
2656.753194,-612.876398,-444.123565,9770.718434
2656.753524,1532.190996,-2590.720797,11177.109724
2656.753853,1225.752797,148.041188,7772.162391
2656.754182,2451.505594,1332.370696,8142.265362
2656.754511,2834.553343,1110.308913,7772.162391
2656.754840,3677.258390,1332.370696,9030.512492
2656.755169,2451.505594,2220.617826,8586.388927
2656.755499,3064.381992,3182.885551,7179.997637
2656.755828,1685.410096,888.247130,8068.244768
2656.756157,0.000000,-1110.308913,9178.553681
2656.756486,-1532.190996,-2368.659014,10436.903782
2656.756815,-2604.724693,-1776.494261,10362.883188
2656.757144,-1378.971896,-1776.494261,9770.718434
2656.757474,-1838.629195,-1850.514855,9622.677246
2656.757803,-2221.676944,-1702.473667,10584.944971
2656.758132,-1608.800546,-740.205942,10140.821405
2656.758461,-306.438199,-444.123565,9178.553681
2656.758790,1225.752797,-296.082377,8956.491898
2656.759119,1608.800546,-592.164754,9548.656652
2656.759448,2298.286494,148.041188,9400.615463
2656.759778,2987.772442,888.247130,8290.306550
2656.760107,3753.867940,1850.514855,7328.038826
2656.760436,3907.087040,1110.308913,8290.306550
2656.760765,2451.505594,1332.370696,8660.409521
2656.761094,1685.410096,1850.514855,8660.409521
2656.761423,919.314598,1332.370696,8142.265362
2656.761753,0.000000,-888.247130,8290.306550
2656.762082,-1302.362347,-2368.659014,9992.780217
2656.762411,-2451.505594,-3330.926739,10732.986159
2656.762740,-2604.724693,-2072.576638,9548.656652
2656.763069,-1455.581446,-1554.432478,9326.594869
2656.763398,-1455.581446,-1702.473667,9474.636058
2656.763728,-1762.019645,-740.205942,9992.780217
2656.764057,-995.924147,-0.000000,9474.636058
2656.764386,536.266849,296.082377,8290.306550
2656.764715,1532.190996,-296.082377,8438.347739
2656.765044,1149.143247,296.082377,8660.409521
2656.765373,1532.190996,148.041188,9400.615463
2656.765703,1991.848295,962.267725,8290.306550
2656.766032,1991.848295,1554.432478,8142.265362
2656.766361,1302.362347,592.164754,8808.450710
2656.766690,306.438199,1110.308913,9030.512492
2656.767019,-153.219100,962.267725,8364.327145
2656.767348,-536.266849,-0.000000,9030.512492
2656.767677,-229.828649,-1702.473667,8956.491898
2656.768007,-1532.190996,-2072.576638,9104.533087
2656.768336,-1991.848295,-962.267725,9400.615463
2656.768665,-1302.362347,-222.061783,8956.491898
2656.768994,-689.485948,-888.247130,8512.368333
2656.769323,-383.047749,-370.102971,9548.656652
2656.769652,-689.485948,-222.061783,10140.821405
2656.769982,-383.047749,296.082377,9252.574275
2656.770311,1838.629195,148.041188,8512.368333
2656.770640,1149.143247,-666.185348,9178.553681
2656.770969,995.924147,-518.144159,9696.697840
2656.771298,1532.190996,222.061783,9326.594869
2656.771627,2145.067394,1406.391290,8290.306550
2656.771957,2145.067394,518.144159,9030.512492
2656.772286,1532.190996,222.061783,9326.594869
2656.772615,612.876398,888.247130,8660.409521
2656.772944,1225.752797,1184.329507,8142.265362
2656.773273,1225.752797,-370.102971,8142.265362
2656.773602,612.876398,-1258.350101,9400.615463
2656.773932,76.609550,-1406.391290,9326.594869
2656.774261,0.000000,-518.144159,9474.636058
2656.774590,-383.047749,-888.247130,9030.512492
2656.774919,0.000000,-814.226536,10066.800811
2656.775248,-689.485948,-1406.391290,10584.944971
2656.775577,-842.705048,-296.082377,9992.780217
2656.775907,0.000000,-0.000000,9474.636058
2656.776236,1149.143247,-814.226536,9400.615463
2656.776565,1072.533697,-888.247130,10066.800811
2656.776894,842.705048,-592.164754,9770.718434
2656.777223,1838.629195,1036.288319,8660.409521
2656.777552,2298.286494,1258.350101,8216.285956
2656.777881,2374.896044,1258.350101,8142.265362
2656.778211,1225.752797,518.144159,8586.388927
2656.778540,689.485948,814.226536,8216.285956
2656.778869,842.705048,1110.308913,8438.347739
2656.779198,995.924147,-74.020594,7624.121203
2656.779527,-612.876398,-1998.556043,9844.739029
2656.779856,-1838.629195,-1406.391290,10732.986159
2656.780186,-1455.581446,-0.000000,9474.636058
2656.780515,-1455.581446,-888.247130,8734.430116
2656.780844,-2298.286494,-1924.535449,9474.636058
2656.781173,-1762.019645,-666.185348,10881.027347
2656.781502,-1685.410096,-370.102971,9992.780217
2656.781831,0.000000,74.020594,8438.347739
2656.782161,459.657299,-888.247130,8734.430116
2656.782490,536.266849,148.041188,9178.553681
2656.782819,1608.800546,370.102971,8512.368333
2656.783148,2528.115143,1258.350101,6735.874072
2656.783477,2911.162892,666.185348,7031.956449
2656.783806,2528.115143,740.205942,8216.285956
2656.784136,612.876398,296.082377,8364.327145
2656.784465,689.485948,518.144159,8142.265362
2656.784794,536.266849,-740.205942,8290.306550
2656.785123,0.000000,-2072.576638,9992.780217
2656.785452,-1455.581446,-2220.617826,10436.903782
2656.785781,-1762.019645,-1776.494261,10140.821405
2656.786110,-1225.752797,-888.247130,9474.636058
2656.786440,-1455.581446,-1110.308913,9770.718434
2656.786769,-1378.971896,-1036.288319,10510.924376
2656.787098,-1378.971896,-666.185348,10362.883188
2656.787427,0.000000,666.185348,8290.306550
2656.787756,1685.410096,370.102971,7994.224174
2656.788085,1302.362347,-814.226536,9104.533087
2656.788415,1378.971896,-222.061783,8586.388927
2656.788744,1762.019645,-0.000000,9178.553681
2656.789073,2221.676944,814.226536,6661.853478
2656.789402,1915.238745,814.226536,8734.430116
2656.789731,766.095498,-888.247130,9696.697840
2656.790060,0.000000,-74.020594,9400.615463
2656.790390,1455.581446,370.102971,9474.636058
2656.790719,1225.752797,-1036.288319,8512.368333
2656.791048,0.000000,-814.226536,9918.759623
2656.791377,-459.657299,-592.164754,10584.944971
2656.791706,-306.438199,1332.370696,8512.368333
2656.792035,459.657299,740.205942,8512.368333
2656.792365,153.219100,-0.000000,9474.636058
2656.792694,-459.657299,-0.000000,9622.677246
2656.793023,0.000000,-0.000000,9474.636058
2656.793352,383.047749,-0.000000,8068.244768
2656.793681,536.266849,-444.123565,8586.388927
2656.794010,76.609550,-1332.370696,10214.842000
2656.794339,383.047749,-740.205942,9696.697840
2656.794669,1149.143247,370.102971,8734.430116
2656.794998,2145.067394,-0.000000,8586.388927
2656.795327,1608.800546,518.144159,9178.553681
2656.795656,1072.533697,1184.329507,9400.615463
2656.795985,1302.362347,1702.473667,8882.471304
2656.796314,1685.410096,1480.411884,8290.306550
2656.796644,1455.581446,-148.041188,8882.471304
2656.796973,229.828649,-740.205942,9474.636058
2656.797302,-766.095498,-814.226536,9474.636058
2656.797631,-1302.362347,-0.000000,8956.491898
2656.797960,-383.047749,-888.247130,9474.636058
2656.798289,-1225.752797,-1924.535449,9992.780217
2656.798619,-2145.067394,-1258.350101,9770.718434
2656.798948,-1225.752797,-518.144159,9400.615463
2656.799277,-383.047749,-962.267725,8438.347739
2656.799606,536.266849,-1184.329507,8882.471304
2656.799935,1608.800546,-1628.453072,9474.636058
2656.800264,1685.410096,-0.000000,8290.306550
2656.800594,2528.115143,1406.391290,8290.306550
2656.800923,2987.772442,888.247130,7402.059420
2656.801252,2068.457845,1184.329507,7846.182985
2656.801581,1225.752797,1184.329507,9326.594869
2656.801910,1455.581446,1036.288319,7994.224174
2656.802239,1378.971896,-74.020594,8216.285956
2656.802569,-383.047749,-888.247130,9474.636058
2656.802898,-1302.362347,-2146.597232,9918.759623
2656.803227,-2298.286494,-1258.350101,9918.759623
2656.803556,-1149.143247,-592.164754,8734.430116
2656.803885,-842.705048,-1406.391290,9474.636058
2656.804214,-1685.410096,-2146.597232,9844.739029
2656.804543,-995.924147,-740.205942,9326.594869
2656.804873,536.266849,-148.041188,8734.430116
2656.805202,1225.752797,-0.000000,8068.244768
2656.805531,1378.971896,-888.247130,8882.471304
2656.805860,1685.410096,-148.041188,9474.636058
2656.806189,2068.457845,666.185348,7550.100608
2656.806518,3217.601092,1702.473667,8216.285956
2656.806848,2911.162892,1036.288319,8660.409521
2656.807177,1915.238745,444.123565,9474.636058
2656.807506,153.219100,1036.288319,9770.718434
2656.807835,383.047749,518.144159,8882.471304
2656.808164,-383.047749,-1332.370696,9104.533087
2656.808493,-1225.752797,-2220.617826,10288.862594
2656.808823,-1608.800546,-1628.453072,9992.780217
2656.809152,-1455.581446,-0.000000,9844.739029
2656.809481,-842.705048,-444.123565,9030.512492
2656.809810,-612.876398,-518.144159,9696.697840
2656.810139,-1302.362347,-0.000000,9992.780217
2656.810468,-153.219100,888.247130,9030.512492
2656.810798,995.924147,962.267725,7994.224174
2656.811127,1608.800546,-296.082377,8142.265362
2656.811456,1608.800546,-296.082377,9474.636058
2656.811785,1608.800546,-888.247130,8956.491898
2656.812114,1225.752797,1110.308913,8734.430116
2656.812443,1838.629195,888.247130,8142.265362
2656.812773,1072.533697,-296.082377,9548.656652
2656.813102,0.000000,148.041188,9622.677246
2656.813431,383.047749,962.267725,9104.533087
2656.813760,0.000000,-0.000000,7920.203579
2656.814089,0.000000,-814.226536,9326.594869
2656.814418,-536.266849,-1480.411884,9474.636058
2656.814747,-1149.143247,-370.102971,8882.471304
2656.815077,-383.047749,-0.000000,8512.368333
2656.815406,76.609550,-1036.288319,8364.327145
2656.815735,-995.924147,-740.205942,9992.780217
2656.816064,-842.705048,-962.267725,9104.533087
2656.816393,153.219100,222.061783,8586.388927
2656.816722,612.876398,-518.144159,8808.450710
2656.817052,1149.143247,-1554.432478,9548.656652
2656.817381,306.438199,-1480.411884,9400.615463
2656.817710,919.314598,-0.000000,9178.553681
2656.818039,2451.505594,814.226536,8142.265362
2656.818368,2374.896044,222.061783,8142.265362
2656.818697,1225.752797,666.185348,9622.677246
2656.819027,1302.362347,962.267725,8290.306550
2656.819356,919.314598,962.267725,8438.347739
2656.819685,842.705048,-814.226536,7994.224174
2656.820014,76.609550,-888.247130,8808.450710
2656.820343,-1685.410096,-2072.576638,10436.903782
2656.820672,-1608.800546,-1110.308913,9474.636058
2656.821002,-1225.752797,-1036.288319,8882.471304
2656.821331,-1302.362347,-1924.535449,9696.697840
2656.821660,-1685.410096,-1036.288319,9992.780217
2656.821989,-1225.752797,-666.185348,10288.862594
2656.822318,-689.485948,370.102971,9252.574275
2656.822647,1455.581446,222.061783,7846.182985
2656.822977,1685.410096,222.061783,10214.842000
2656.823306,1072.533697,814.226536,8956.491898
2656.823635,2451.505594,2220.617826,8216.285956
2656.823964,1838.629195,3034.844362,6883.915261
2656.824293,2298.286494,1332.370696,8216.285956
2656.824622,1072.533697,-0.000000,9918.759623
2656.824951,-383.047749,1110.308913,7846.182985
2656.825281,612.876398,-740.205942,9030.512492
2656.825610,0.000000,-1850.514855,8142.265362
2656.825939,-995.924147,-2294.638420,10214.842000
2656.826268,-1991.848295,-1406.391290,10658.965565
2656.826597,-1149.143247,-666.185348,9400.615463
2656.826926,-1149.143247,-0.000000,9474.636058
2656.827256,-153.219100,-0.000000,9696.697840
2656.827585,-229.828649,-74.020594,10510.924376
2656.827914,536.266849,592.164754,9400.615463
2656.828243,1762.019645,666.185348,8586.388927
2656.828572,2451.505594,-0.000000,9252.574275
2656.828901,1915.238745,370.102971,9474.636058
2656.829231,1838.629195,740.205942,9326.594869
2656.829560,2911.162892,666.185348,7994.224174
2656.829889,2834.553343,814.226536,8068.244768
2656.830218,1685.410096,-0.000000,8882.471304
2656.830547,612.876398,-370.102971,9474.636058
2656.830876,229.828649,-74.020594,9252.574275
2656.831206,459.657299,-592.164754,8586.388927
2656.831535,-306.438199,-2220.617826,9548.656652
2656.831864,-1378.971896,-2590.720797,10881.027347
2656.832193,-1762.019645,-666.185348,9992.780217
2656.832522,-612.876398,-0.000000,9474.636058
2656.832851,-229.828649,-518.144159,9474.636058
2656.833181,-459.657299,-444.123565,10732.986159
2656.833510,-383.047749,-222.061783,10732.986159
2656.833839,459.657299,814.226536,8512.368333
2656.834168,1532.190996,148.041188,8216.285956
2656.834497,1838.629195,-1184.329507,9030.512492
2656.834826,1608.800546,-740.205942,8586.388927
2656.835156,2374.896044,962.267725,7994.224174
2656.835485,2604.724693,1480.411884,6513.812290
2656.835814,1685.410096,666.185348,7698.141797
2656.836143,842.705048,370.102971,8882.471304
2656.836472,306.438199,296.082377,7846.182985
2656.836801,-153.219100,-0.000000,8068.244768
2656.837130,-229.828649,-1406.391290,8586.388927
2656.837460,-1455.581446,-2072.576638,10140.821405
2656.837789,-2911.162892,-1628.453072,10807.006753
2656.838118,-2068.457845,-296.082377,9548.656652
2656.838447,-1225.752797,-0.000000,9252.574275
2656.838776,-1302.362347,-518.144159,9474.636058
2656.839105,-1762.019645,-148.041188,9992.780217
2656.839435,-842.705048,-0.000000,9770.718434
2656.839764,229.828649,-0.000000,8068.244768
2656.840093,1149.143247,-962.267725,8290.306550
2656.840422,1532.190996,-1036.288319,8734.430116
2656.840751,1455.581446,-0.000000,8882.471304
2656.841080,1991.848295,666.185348,7772.162391
2656.841410,2528.115143,1184.329507,7328.038826
2656.841739,1838.629195,-0.000000,8512.368333
2656.842068,229.828649,296.082377,9326.594869
2656.842397,229.828649,-0.000000,9104.533087
2656.842726,0.000000,-148.041188,9030.512492
2656.843055,-612.876398,-1850.514855,9548.656652
2656.843385,-1991.848295,-2590.720797,10881.027347
2656.843714,-2528.115143,-1258.350101,10955.047942
2656.844043,-919.314598,-814.226536,9770.718434
2656.844372,-1225.752797,-518.144159,9030.512492
2656.844701,-1302.362347,-962.267725,10288.862594
2656.845030,-1378.971896,-666.185348,10214.842000
2656.845360,459.657299,370.102971,8512.368333
2656.845689,1838.629195,296.082377,8068.244768
2656.846018,2221.676944,-740.205942,8660.409521
2656.846347,2374.896044,-0.000000,9326.594869
2656.846676,2681.334243,296.082377,8956.491898
2656.847005,2987.772442,1554.432478,7476.080014
2656.847334,2987.772442,1110.308913,7550.100608
2656.847664,1838.629195,370.102971,9400.615463
2656.847993,842.705048,740.205942,9400.615463
2656.848322,995.924147,740.205942,8364.327145
2656.848651,536.266849,-444.123565,8882.471304
2656.848980,-919.314598,-1480.411884,10214.842000
2656.849309,-1378.971896,-1480.411884,11325.150913
2656.849639,-1915.238745,-962.267725,9474.636058
2656.849968,-1302.362347,-222.061783,9992.780217
2656.850297,-1225.752797,-1702.473667,9400.615463
2656.850626,-1915.238745,-888.247130,9474.636058
2656.850955,-689.485948,592.164754,10288.862594
2656.851284,1378.971896,740.205942,7994.224174
2656.851614,2145.067394,370.102971,7624.121203
2656.851943,2068.457845,-0.000000,7846.182985
2656.852272,3294.210641,814.226536,8216.285956
2656.852601,2681.334243,1480.411884,8290.306550
2656.852930,3830.477490,2368.659014,7698.141797
2656.853259,2987.772442,1036.288319,9474.636058
2656.853589,-383.047749,888.247130,8068.244768
2656.853918,612.876398,370.102971,8882.471304
2656.854247,383.047749,888.247130,9548.656652
2656.854576,-1225.752797,-2220.617826,9548.656652
2656.854905,-1225.752797,-1776.494261,10807.006753
2656.855234,-3447.429741,-2516.700203,10584.944971
2656.855564,-1608.800546,-0.000000,8882.471304
2656.855893,-766.095498,-296.082377,9030.512492
2656.856222,-2221.676944,-888.247130,9770.718434
2656.856551,-1072.533697,-1628.453072,9622.677246
2656.856880,1149.143247,1184.329507,8512.368333
2656.857209,1302.362347,-148.041188,7254.018232
2656.857538,2834.553343,370.102971,9104.533087
2656.857868,1915.238745,-1628.453072,9030.512492
2656.858197,1915.238745,740.205942,8438.347739
2656.858526,2604.724693,1776.494261,7624.121203
2656.858855,1608.800546,740.205942,7772.162391
2656.859184,995.924147,-0.000000,9326.594869
2656.859513,-229.828649,-74.020594,9770.718434
2656.859843,-459.657299,-0.000000,8734.430116
2656.860172,-612.876398,-1406.391290,8808.450710
2656.860501,-995.924147,-2442.679609,10066.800811
2656.860830,-2068.457845,-2294.638420,9844.739029
2656.861159,-1762.019645,-962.267725,9474.636058
2656.861488,-689.485948,148.041188,8956.491898
2656.861818,-1225.752797,-518.144159,8438.347739
2656.862147,-1225.752797,-888.247130,10658.965565
2656.862476,-536.266849,-888.247130,9474.636058
2656.862805,306.438199,296.082377,7994.224174
2656.863134,1072.533697,74.020594,8808.450710
2656.863463,1302.362347,-888.247130,8956.491898
2656.863793,1225.752797,-74.020594,9326.594869
2656.864122,1685.410096,1036.288319,9400.615463
2656.864451,2834.553343,1776.494261,7772.162391
2656.864780,2145.067394,814.226536,8290.306550
2656.865109,1072.533697,518.144159,9844.739029
2656.865438,-229.828649,1258.350101,9400.615463
2656.865768,153.219100,814.226536,8068.244768
2656.866097,306.438199,-740.205942,8512.368333
2656.866426,-612.876398,-1628.453072,10140.821405
2656.866755,-1532.190996,-1554.432478,10436.903782
2656.867084,-612.876398,-814.226536,9696.697840
2656.867413,-766.095498,-0.000000,8956.491898
2656.867742,-995.924147,-666.185348,9770.718434
2656.868072,-1378.971896,-0.000000,11177.109724
2656.868401,-766.095498,592.164754,9622.677246
2656.868730,459.657299,962.267725,8660.409521
2656.869059,1838.629195,296.082377,8142.265362
2656.869388,1532.190996,-518.144159,9178.553681
2656.869717,1149.143247,-222.061783,9400.615463
2656.870047,2145.067394,1258.350101,7920.203579
2656.870376,2374.896044,1480.411884,7624.121203
2656.870705,1762.019645,740.205942,8586.388927
2656.871034,995.924147,-0.000000,9326.594869
2656.871363,689.485948,296.082377,8142.265362
2656.871692,842.705048,-74.020594,7994.224174
2656.872022,0.000000,-2294.638420,9474.636058
2656.872351,-1532.190996,-3034.844362,10214.842000
2656.872680,-1378.971896,-1332.370696,10510.924376
2656.873009,-995.924147,-222.061783,8882.471304
2656.873338,-536.266849,-1036.288319,8882.471304
2656.873667,-1072.533697,-592.164754,9918.759623
2656.873997,-689.485948,-888.247130,10140.821405
2656.874326,153.219100,296.082377,8956.491898
2656.874655,1608.800546,222.061783,8216.285956
2656.874984,1149.143247,-1036.288319,9104.533087
2656.875313,1302.362347,-740.205942,9400.615463
2656.875642,2145.067394,148.041188,8660.409521
2656.875972,2681.334243,1184.329507,7179.997637
2656.876301,2528.115143,666.185348,7772.162391
2656.876630,1378.971896,148.041188,8808.450710
2656.876959,1072.533697,370.102971,8882.471304
2656.877288,1302.362347,74.020594,7698.141797
2656.877617,766.095498,-0.000000,8142.265362
2656.877946,0.000000,-1554.432478,10140.821405
2656.878276,-1685.410096,-2220.617826,10584.944971
2656.878605,-1838.629195,-518.144159,9622.677246
2656.878934,-1149.143247,-222.061783,8586.388927
2656.879263,-995.924147,-814.226536,9474.636058
2656.879592,-2298.286494,-666.185348,10510.924376
2656.879921,-536.266849,-0.000000,9844.739029
2656.880251,0.000000,592.164754,9030.512492
2656.880580,766.095498,-0.000000,8290.306550
2656.880909,1072.533697,-370.102971,8808.450710
2656.881238,1225.752797,-0.000000,8956.491898
2656.881567,2068.457845,1480.411884,7772.162391
2656.881896,2374.896044,1998.556043,7105.977043
2656.882226,1532.190996,1628.453072,8512.368333
2656.882555,689.485948,814.226536,8364.327145
2656.882884,76.609550,2146.597232,8216.285956
2656.883213,-919.314598,888.247130,8142.265362
2656.883542,-1532.190996,-592.164754,9326.594869
2656.883871,-3140.991542,-1924.535449,10584.944971
2656.884201,-4213.525239,-2072.576638,10807.006753
2656.884530,-3600.648841,-444.123565,10066.800811
2656.884859,-3447.429741,-518.144159,8734.430116
2656.885188,-4136.915689,-1110.308913,9326.594869
2656.885517,-4673.182538,-666.185348,10436.903782
2656.885846,-4596.572988,-592.164754,9548.656652
2656.886176,-3677.258390,-222.061783,9252.574275
2656.886505,-2834.553343,-1110.308913,9400.615463
2656.886834,-3753.867940,-1776.494261,9770.718434
2656.887163,-2987.772442,-1258.350101,9474.636058
2656.887492,-2987.772442,-222.061783,9474.636058
2656.887821,-1685.410096,-0.000000,9548.656652
2656.888150,-1302.362347,370.102971,8290.306550
2656.888480,-1072.533697,592.164754,9400.615463
2656.888809,-383.047749,666.185348,8068.244768
2656.889138,0.000000,1332.370696,7031.956449
2656.889467,0.000000,518.144159,7550.100608
2656.889796,-383.047749,-370.102971,7920.203579
2656.890125,-1685.410096,-740.205942,9252.574275
2656.890455,-2374.896044,-444.123565,8586.388927
2656.890784,-2451.505594,-1480.411884,8512.368333
2656.891113,-2374.896044,-1184.329507,9918.759623
2656.891442,-2528.115143,-2072.576638,9104.533087
2656.891771,-2757.943793,-1258.350101,9844.739029
2656.892100,-2757.943793,-518.144159,9400.615463
2656.892430,-2145.067394,148.041188,8956.491898
2656.892759,-1838.629195,444.123565,8808.450710
2656.893088,-1685.410096,666.185348,8512.368333
2656.893417,-1532.190996,-888.247130,9474.636058
2656.893746,-612.876398,-962.267725,9844.739029
2656.894075,-1149.143247,296.082377,7698.141797
2656.894405,-995.924147,1184.329507,7402.059420
2656.894734,-1302.362347,1480.411884,7179.997637
2656.895063,-1532.190996,592.164754,8512.368333
2656.895392,-2374.896044,-814.226536,8808.450710
2656.895721,-2604.724693,-222.061783,8364.327145
2656.896051,-2374.896044,-296.082377,8882.471304
2656.896380,-2451.505594,-0.000000,8068.244768
2656.896709,-2987.772442,-1110.308913,9178.553681
2656.897038,-3447.429741,-2664.741391,10807.006753
2656.897367,-3907.087040,-1850.514855,10584.944971
2656.897696,-3753.867940,-296.082377,10066.800811
2656.898026,-3677.258390,1554.432478,9178.553681
2656.898355,-3370.820191,740.205942,9178.553681
2656.898684,-3524.039291,-0.000000,10584.944971
2656.899013,-3370.820191,370.102971,10066.800811
2656.899342,-3524.039291,740.205942,9622.677246
2656.899671,-2911.162892,222.061783,9030.512492
2656.900001,-2451.505594,-148.041188,8956.491898
2656.900330,-2911.162892,-0.000000,9474.636058
2656.900659,-2145.067394,-592.164754,9400.615463
2656.900988,-2834.553343,-1036.288319,8734.430116
2656.901317,-2987.772442,-666.185348,8586.388927
2656.901647,-2298.286494,370.102971,8956.491898
2656.901976,-3064.381992,-0.000000,8364.327145
2656.902305,-2987.772442,370.102971,9252.574275
2656.902634,-3294.210641,-0.000000,9178.553681
2656.902963,-3600.648841,740.205942,9252.574275
2656.903292,-2987.772442,222.061783,9844.739029
2656.903622,-2681.334243,-0.000000,9326.594869
2656.903951,-2834.553343,-0.000000,9178.553681
2656.904280,-3447.429741,-518.144159,9252.574275
2656.904609,-3064.381992,-370.102971,9326.594869
2656.904938,-2451.505594,-518.144159,8882.471304
2656.905268,-1532.190996,-222.061783,8068.244768
2656.905597,-1532.190996,-962.267725,8068.244768
2656.905926,-2374.896044,-1998.556043,8734.430116
2656.906255,-2834.553343,-1480.411884,9104.533087
2656.906584,-2834.553343,-888.247130,9104.533087
2656.906913,-3140.991542,-592.164754,9252.574275
2656.907243,-2987.772442,-0.000000,9400.615463
2656.907572,-3064.381992,444.123565,9474.636058
2656.907901,-3677.258390,740.205942,9178.553681
2656.908230,-2834.553343,666.185348,8734.430116
2656.908559,-2911.162892,-444.123565,8956.491898
2656.908888,-2451.505594,-1258.350101,9474.636058
2656.909218,-2451.505594,-1110.308913,9400.615463
2656.909547,-1608.800546,-1110.308913,9252.574275
2656.909876,-1072.533697,-296.082377,8142.265362
2656.910205,-1455.581446,222.061783,8512.368333
2656.910534,-1378.971896,666.185348,8512.368333
2656.910864,-1378.971896,370.102971,8438.347739
2656.911193,-1532.190996,148.041188,8290.306550
2656.911522,-2221.676944,-222.061783,8586.388927
2656.911851,-2145.067394,-74.020594,9104.533087
2656.912180,-2221.676944,-814.226536,9400.615463
2656.912509,-2528.115143,-740.205942,9400.615463
2656.912839,-2528.115143,-888.247130,9696.697840
2656.913168,-2604.724693,-740.205942,9326.594869
2656.913497,-2757.943793,-0.000000,9326.594869
2656.913826,-2451.505594,370.102971,9326.594869
2656.914155,-2221.676944,518.144159,8882.471304
2656.914485,-1838.629195,518.144159,8956.491898
2656.914814,-1072.533697,-0.000000,8512.368333
2656.915143,-1149.143247,592.164754,8364.327145
2656.915472,-1532.190996,370.102971,8364.327145
2656.915801,-1455.581446,-296.082377,8882.471304
2656.916130,-1608.800546,-666.185348,8882.471304
2656.916460,-1455.581446,-740.205942,9252.574275
2656.916789,-1532.190996,-666.185348,8956.491898
2656.917118,-1608.800546,-518.144159,9400.615463
2656.917447,-1685.410096,-592.164754,9474.636058
2656.917776,-1762.019645,-666.185348,9474.636058
2656.918105,-1762.019645,-148.041188,9992.780217
2656.918435,-2298.286494,-0.000000,9474.636058
2656.918764,-2757.943793,-0.000000,9400.615463
2656.919093,-3294.210641,296.082377,9178.553681
2656.919422,-2911.162892,370.102971,8586.388927
2656.919751,-3064.381992,-222.061783,8438.347739
2656.920081,-2987.772442,-222.061783,8290.306550
2656.920410,-3370.820191,-1036.288319,8586.388927
2656.920739,-4290.134789,-1998.556043,9104.533087
2656.921068,-4749.792088,-2368.659014,9548.656652
2656.921397,-5132.839837,-2664.741391,9844.739029
2656.921726,-5132.839837,-2738.761985,10658.965565
2656.922056,-5056.230287,-1924.535449,10732.986159
2656.922385,-4826.401637,-1110.308913,10955.047942
2656.922714,-3983.696590,-148.041188,9918.759623
2656.923043,-2911.162892,1110.308913,9474.636058
2656.923372,-2145.067394,2072.576638,7994.224174
2656.923702,-1378.971896,2590.720797,7994.224174
2656.924031,-1072.533697,2590.720797,6809.894666
2656.924360,-1915.238745,2294.638420,7328.038826
2656.924689,-1225.752797,1850.514855,7550.100608
2656.925018,-1608.800546,1036.288319,7402.059420
2656.925347,-2068.457845,814.226536,7328.038826
2656.925677,-2604.724693,-0.000000,7254.018232
2656.926006,-2681.334243,-296.082377,8142.265362
2656.926335,-3064.381992,-0.000000,8586.388927
2656.926664,-3064.381992,888.247130,8882.471304
2656.926993,-2911.162892,1776.494261,9178.553681
2656.927322,-3600.648841,1702.473667,9918.759623
2656.927652,-3830.477490,1850.514855,10362.883188
2656.927981,-4519.963438,296.082377,11029.068536
2656.928310,-4213.525239,296.082377,11473.192101
2656.928639,-2528.115143,-444.123565,11547.212695
2656.928968,-1608.800546,518.144159,9770.718434
2656.929298,-536.266849,814.226536,9770.718434
2656.929627,-995.924147,2368.659014,8290.306550
2656.929956,0.000000,222.061783,11769.274478
2656.930285,2068.457845,2516.700203,8438.347739
2656.930614,3830.477490,3627.009116,6069.688724
2656.930943,4443.353888,3330.926739,7328.038826
2656.931273,2757.943793,4441.235652,6291.750507
2656.931602,4136.915689,4145.153275,9326.594869
2656.931931,1838.629195,4515.256246,6883.915261
2656.932260,3064.381992,3627.009116,8956.491898
2656.932589,459.657299,2146.597232,9918.759623
2656.932918,-766.095498,2442.679609,9844.739029
2656.933248,-1915.238745,1036.288319,12065.356855
2656.933577,-1991.848295,1554.432478,10510.924376
2656.933906,-995.924147,1184.329507,11547.212695
2656.934235,-919.314598,1258.350101,10288.862594
2656.934564,229.828649,3108.864956,9696.697840
2656.934894,689.485948,2664.741391,7920.203579
2656.935223,2374.896044,2590.720797,7920.203579
2656.935552,2911.162892,5033.400406,6291.750507
2656.935881,2911.162892,4145.153275,6365.771101
2656.936210,1838.629195,4219.173869,7254.018232
2656.936539,689.485948,4515.256246,7328.038826
2656.936869,-919.314598,2738.761985,9252.574275
2656.937198,-2681.334243,2220.617826,9400.615463
2656.937527,-3217.601092,666.185348,11103.089130
2656.937856,-3524.039291,666.185348,10436.903782
2656.938185,-2834.553343,2368.659014,9622.677246
2656.938515,-3370.820191,2220.617826,9992.780217
2656.938844,-3677.258390,1554.432478,10214.842000
2656.939173,-3140.991542,1924.535449,11177.109724
2656.939502,-2221.676944,2146.597232,9844.739029
2656.939831,-766.095498,2442.679609,8808.450710
2656.940160,-995.924147,3034.844362,7624.121203
2656.940490,-689.485948,3108.864956,9104.533087
2656.940819,-1225.752797,2072.576638,11473.192101
2656.941148,3064.381992,3330.926739,8068.244768
2656.941477,4366.744339,4515.256246,6661.853478
2656.941806,3907.087040,5477.523971,5477.523971
2656.942135,2451.505594,6217.729913,6735.874072
2656.942465,2911.162892,6957.935855,9252.574275
2656.942794,2528.115143,5921.647536,7179.997637
2656.943123,1915.238745,5551.544565,7550.100608
2656.943452,0.000000,5107.421000,9030.512492
2656.943781,-612.876398,3478.967927,9696.697840
2656.944111,-2451.505594,-222.061783,13619.789333
2656.944440,-2451.505594,-0.000000,10362.883188
2656.944769,-1455.581446,592.164754,11769.274478
2656.945098,-1608.800546,-518.144159,11843.295072
2656.945427,-1838.629195,2738.761985,9474.636058
2656.945756,766.095498,2220.617826,9696.697840
2656.946086,1149.143247,4367.215058,7550.100608
2656.946415,2911.162892,5181.441594,8364.327145
2656.946744,3983.696590,4737.318029,7105.977043
2656.947073,3753.867940,4959.379811,7254.018232
2656.947402,2911.162892,5255.462188,7698.141797
2656.947732,1685.410096,3775.050304,6883.915261
2656.948061,0.000000,2738.761985,9178.553681
2656.948390,-1149.143247,-0.000000,11103.089130
2656.948719,-2451.505594,444.123565,11621.233289
2656.949048,-2757.943793,666.185348,11547.212695
2656.949377,-2374.896044,-666.185348,10140.821405
2656.949707,-2221.676944,1850.514855,11251.130318
2656.950036,-1608.800546,1110.308913,9918.759623
2656.950365,-1378.971896,2664.741391,8438.347739
2656.950694,459.657299,-0.000000,11843.295072
2656.951023,2987.772442,1332.370696,8586.388927
2656.951352,4903.011187,2812.782580,7328.038826
2656.951682,3524.039291,4293.194464,5181.441594
2656.952011,3064.381992,3108.864956,6069.688724
2656.952340,3447.429741,5329.482782,9474.636058
2656.952669,2757.943793,4219.173869,6365.771101
2656.952998,1991.848295,5033.400406,6809.894666
2656.953328,536.266849,1776.494261,10732.986159
2656.953657,-3217.601092,-0.000000,11917.315666
2656.953986,-3524.039291,-4293.194464,14211.954086
2656.954315,-2987.772442,518.144159,11769.274478
2656.954644,-2834.553343,-1702.473667,11695.253884
2656.954973,-3907.087040,1850.514855,9030.512492
2656.955303,-1532.190996,2886.803174,9918.759623
2656.955632,0.000000,3627.009116,8882.471304
2656.955961,0.000000,3997.112087,8068.244768
2656.956290,4903.011187,3034.844362,10288.862594
2656.956619,2221.676944,5107.421000,3182.885551
2656.956949,4903.011187,4663.297435,9474.636058
2656.957278,2757.943793,6069.688724,4959.379811
2656.957607,5286.058936,3701.029710,6735.874072
2656.957936,2221.676944,5255.462188,5255.462188
2656.958265,3370.820191,4367.215058,6883.915261
2656.958594,842.705048,4663.297435,8068.244768
2656.958924,-383.047749,4367.215058,7254.018232
2656.959253,-5056.230287,-1184.329507,13915.871710
2656.959582,-5439.278036,-2738.761985,14359.995275
2656.959911,-3753.867940,2072.576638,8882.471304
2656.960240,-2681.334243,-5995.668130,13619.789333
2656.960569,-5209.449386,222.061783,9992.780217
2656.960899,-1532.190996,2516.700203,13027.624579
2656.961228,-1455.581446,1850.514855,8586.388927
2656.961557,-2145.067394,5921.647536,8290.306550
2656.961886,3524.039291,1554.432478,13915.871710
2656.962215,3677.258390,5551.544565,5033.400406
2656.962545,3753.867940,5107.421000,9474.636058
2656.962874,3217.601092,3627.009116,4441.235652
2656.963203,3907.087040,6513.812290,6365.771101
2656.963532,459.657299,3775.050304,9474.636058
2656.963861,-383.047749,7031.956449,6143.709319
2656.964190,842.705048,5551.544565,11547.212695
2656.964520,-995.924147,3627.009116,6957.935855
2656.964849,-2528.115143,2220.617826,9992.780217
2656.965178,-3830.477490,-1702.473667,12213.398043
2656.965507,-2145.067394,1628.453072,9918.759623
2656.965836,-2298.286494,-2220.617826,11251.130318
2656.966166,-2145.067394,-1110.308913,11177.109724
2656.966495,-1455.581446,2812.782580,11917.315666
2656.966824,842.705048,1554.432478,8290.306550
2656.967153,2221.676944,5329.482782,6809.894666
2656.967482,2987.772442,6661.853478,7624.121203
2656.967811,3600.648841,4737.318029,8364.327145
2656.968141,995.924147,5995.668130,8586.388927
2656.968470,919.314598,5477.523971,8956.491898
2656.968799,153.219100,3701.029710,7328.038826
2656.969128,995.924147,3552.988522,8512.368333
2656.969457,2068.457845,2220.617826,8956.491898
2656.969786,2221.676944,1480.411884,11695.253884
2656.970116,-459.657299,-0.000000,10658.965565
2656.970445,153.219100,296.082377,9178.553681
2656.970774,76.609550,2072.576638,9104.533087
2656.971103,-229.828649,2886.803174,9400.615463
2656.971432,-1072.533697,4219.173869,8290.306550
2656.971762,689.485948,2368.659014,9252.574275
2656.972091,1225.752797,1628.453072,7920.203579
2656.972420,1838.629195,2220.617826,8438.347739
2656.972749,1608.800546,-74.020594,9918.759623
2656.973078,612.876398,-592.164754,9474.636058
2656.973407,-306.438199,-0.000000,9252.574275
2656.973737,-919.314598,-0.000000,9696.697840
2656.974066,0.000000,1554.432478,11029.068536
2656.974395,229.828649,2220.617826,9770.718434
2656.974724,76.609550,2220.617826,9178.553681
2656.975053,-612.876398,1184.329507,9252.574275
2656.975382,1149.143247,-1110.308913,10066.800811
2656.975712,1532.190996,-296.082377,8956.491898
2656.976041,766.095498,-0.000000,8956.491898
2656.976370,536.266849,148.041188,8438.347739
2656.976699,2451.505594,-74.020594,8290.306550
2656.977028,2374.896044,222.061783,8882.471304
2656.977358,1072.533697,888.247130,7920.203579
2656.977687,-842.705048,666.185348,8142.265362
2656.978016,-459.657299,-1628.453072,9992.780217
2656.978345,0.000000,-1110.308913,10066.800811
2656.978674,383.047749,-1628.453072,9844.739029
2656.979003,-1991.848295,-2146.597232,10436.903782
2656.979333,-2834.553343,-2072.576638,10584.944971
2656.979662,-2145.067394,-1480.411884,10288.862594
2656.979991,-612.876398,-888.247130,9178.553681
2656.980320,0.000000,-0.000000,9030.512492
2656.980649,-383.047749,-0.000000,8660.409521
2656.980979,-153.219100,222.061783,7920.203579
2656.981308,1072.533697,814.226536,6957.935855
2656.981637,2451.505594,-0.000000,7254.018232
2656.981966,1378.971896,-0.000000,7031.956449
2656.982295,0.000000,-1258.350101,8956.491898
2656.982624,536.266849,-1998.556043,9252.574275
2656.982954,536.266849,-1480.411884,9178.553681
2656.983283,-153.219100,-1480.411884,9844.739029
2656.983612,-1378.971896,-1554.432478,9918.759623
2656.983941,-1225.752797,-1332.370696,10362.883188
2656.984270,689.485948,-296.082377,9178.553681
2656.984599,1149.143247,666.185348,7920.203579
2656.984929,0.000000,962.267725,8882.471304
2656.985258,-306.438199,222.061783,9696.697840
2656.985587,1149.143247,-740.205942,9844.739029
2656.985916,1991.848295,-740.205942,8142.265362
2656.986245,1532.190996,-814.226536,7772.162391
2656.986575,-306.438199,-222.061783,8586.388927
2656.986904,153.219100,-814.226536,9178.553681
2656.987233,2145.067394,-518.144159,8364.327145
2656.987562,1838.629195,-444.123565,7105.977043
2656.987891,842.705048,-666.185348,8882.471304
2656.988220,0.000000,-148.041188,10140.821405
2656.988550,919.314598,-518.144159,9918.759623
2656.988879,1685.410096,444.123565,8586.388927
2656.989208,689.485948,222.061783,9474.636058
2656.989537,0.000000,518.144159,10214.842000
2656.989866,919.314598,296.082377,9548.656652
2656.990196,1685.410096,592.164754,9252.574275
2656.990525,919.314598,370.102971,8216.285956
2656.990854,0.000000,666.185348,8364.327145
2656.991183,-306.438199,-370.102971,9400.615463
2656.991512,612.876398,-444.123565,9252.574275
2656.991841,612.876398,-370.102971,8216.285956
2656.992171,-1302.362347,-0.000000,8512.368333
2656.992500,-1455.581446,-592.164754,9474.636058
2656.992829,-153.219100,-1480.411884,9992.780217
2656.993158,1072.533697,-666.185348,9104.533087
2656.993487,536.266849,-222.061783,8734.430116
2656.993816,-536.266849,370.102971,9770.718434
2656.994146,0.000000,740.205942,10436.903782
2656.994475,2374.896044,1258.350101,9844.739029
2656.994804,2298.286494,1554.432478,8142.265362
2656.995133,0.000000,2220.617826,8734.430116
2656.995462,-153.219100,814.226536,9696.697840
2656.995791,766.095498,-0.000000,9696.697840
2656.996120,1762.019645,-296.082377,8216.285956
2656.996450,919.314598,-370.102971,7994.224174
2656.996779,-1072.533697,-962.267725,9474.636058
2656.997108,-536.266849,-1998.556043,10288.862594
2656.997437,459.657299,-814.226536,8660.409521
2656.997766,0.000000,-0.000000,8586.388927
2656.998095,-1072.533697,740.205942,8734.430116
2656.998424,-689.485948,666.185348,9770.718434
2656.998753,1225.752797,666.185348,9474.636058
2656.999082,1915.238745,370.102971,8290.306550
2656.999412,689.485948,518.144159,8586.388927
2656.999741,76.609550,296.082377,10362.883188
2657.000070,919.314598,-0.000000,9992.780217
2657.000399,1991.848295,592.164754,8660.409521
2657.000728,1072.533697,1184.329507,7772.162391
2657.001057,-229.828649,888.247130,8956.491898
2657.001386,-536.266849,-296.082377,9474.636058
2657.001715,1302.362347,-296.082377,8808.450710
2657.002044,1225.752797,-740.205942,7402.059420
2657.002373,-1225.752797,-1036.288319,8364.327145
2657.002703,-1608.800546,-1850.514855,9992.780217
2657.003032,-306.438199,-2220.617826,9992.780217
2657.003361,153.219100,-1406.391290,8808.450710
2657.003690,-689.485948,-592.164754,8660.409521
2657.004019,-689.485948,-74.020594,9474.636058
2657.004348,0.000000,222.061783,10214.842000
2657.004677,1762.019645,370.102971,8882.471304
2657.005006,1608.800546,370.102971,7846.182985
2657.005335,0.000000,-74.020594,8808.450710
2657.005664,229.828649,-666.185348,10362.883188
2657.005994,1762.019645,-1184.329507,9400.615463
2657.006323,1762.019645,-1184.329507,8438.347739
2657.006652,459.657299,-888.247130,7772.162391
2657.006981,-919.314598,-1850.514855,9326.594869
2657.007310,76.609550,-2072.576638,9474.636058
2657.007639,995.924147,-1702.473667,8216.285956
2657.007968,153.219100,-1110.308913,7772.162391
2657.008297,-1532.190996,-592.164754,8734.430116
2657.008626,-995.924147,-1406.391290,10288.862594
2657.008955,536.266849,-1776.494261,9622.677246
2657.009285,842.705048,-1480.411884,8956.491898
2657.009614,0.000000,-814.226536,8660.409521
2657.009943,0.000000,-740.205942,9326.594869
2657.010272,1608.800546,-296.082377,9104.533087
2657.010601,3064.381992,222.061783,7698.141797
2657.010930,1838.629195,296.082377,7328.038826
2657.011259,995.924147,148.041188,8586.388927
2657.011588,995.924147,518.144159,8586.388927
2657.011917,1991.848295,-0.000000,8512.368333
2657.012246,995.924147,370.102971,7402.059420
2657.012576,-766.095498,-666.185348,8216.285956
2657.012905,-919.314598,-1184.329507,9400.615463
2657.013234,306.438199,-1998.556043,10066.800811
2657.013563,0.000000,-962.267725,9030.512492
2657.013892,-1455.581446,-1036.288319,8734.430116
2657.014221,-1532.190996,-74.020594,9696.697840
2657.014550,0.000000,-444.123565,10214.842000
2657.014879,1225.752797,296.082377,9548.656652
2657.015208,995.924147,370.102971,7402.059420
2657.015537,0.000000,518.144159,9326.594869
2657.015867,612.876398,740.205942,9474.636058
2657.016196,2528.115143,370.102971,8586.388927
2657.016525,2528.115143,888.247130,7624.121203
2657.016854,766.095498,148.041188,7920.203579
2657.017183,0.000000,518.144159,9918.759623
2657.017512,459.657299,-148.041188,9696.697840
2657.017841,689.485948,296.082377,8512.368333
2657.018170,-766.095498,592.164754,8808.450710
2657.018499,-2068.457845,-0.000000,9844.739029
2657.018828,-1455.581446,-1110.308913,11177.109724
2657.019158,-306.438199,-1110.308913,9992.780217
2657.019487,-306.438199,-1110.308913,8956.491898
2657.019816,-1685.410096,-444.123565,10362.883188
2657.020145,-1455.581446,-666.185348,11177.109724
2657.020474,153.219100,-666.185348,10288.862594
2657.020803,1685.410096,666.185348,8734.430116
2657.021132,842.705048,1110.308913,8216.285956
2657.021461,766.095498,1258.350101,9548.656652
2657.021790,1991.848295,1554.432478,9104.533087
2657.022119,3524.039291,1406.391290,8586.388927
2657.022449,2374.896044,666.185348,7846.182985
2657.022778,383.047749,222.061783,8586.388927
2657.023107,0.000000,-148.041188,10140.821405
2657.023436,919.314598,370.102971,9326.594869
2657.023765,612.876398,222.061783,8142.265362
2657.024094,-1302.362347,444.123565,8364.327145
2657.024423,-1685.410096,-148.041188,9474.636058
2657.024752,-919.314598,-1184.329507,11177.109724
2657.025081,-153.219100,-1554.432478,9252.574275
2657.025410,-842.705048,-1332.370696,8586.388927
2657.025740,-1685.410096,-888.247130,9622.677246
2657.026069,-536.266849,-1184.329507,10510.924376
2657.026398,1302.362347,-962.267725,9622.677246
2657.026727,1378.971896,-222.061783,7920.203579
2657.027056,459.657299,888.247130,8290.306550
2657.027385,1149.143247,1184.329507,8660.409521
2657.027714,2834.553343,1850.514855,7624.121203
2657.028043,3064.381992,1850.514855,6957.935855
2657.028372,1608.800546,814.226536,7328.038826
2657.028701,153.219100,-74.020594,9030.512492
2657.029031,383.047749,-666.185348,10140.821405
2657.029360,766.095498,-814.226536,9030.512492
2657.029689,-842.705048,-592.164754,8734.430116
2657.030018,-2145.067394,-1110.308913,9474.636058
2657.030347,-2145.067394,-1480.411884,11251.130318
2657.030676,-689.485948,-1702.473667,10288.862594
2657.031005,0.000000,-1776.494261,8734.430116
2657.031334,-1149.143247,-1184.329507,9548.656652
2657.031663,-1302.362347,-962.267725,10362.883188
2657.031993,1225.752797,-1554.432478,10362.883188
2657.032322,1838.629195,-518.144159,8882.471304
2657.032651,1532.190996,-148.041188,8290.306550
2657.032980,1302.362347,888.247130,8586.388927
2657.033309,2068.457845,888.247130,8216.285956
2657.033638,3294.210641,518.144159,8586.388927
2657.033967,2374.896044,592.164754,7105.977043
2657.034296,459.657299,518.144159,7772.162391
2657.034625,-383.047749,-814.226536,9400.615463
2657.034954,0.000000,-1036.288319,9918.759623
2657.035284,153.219100,-1258.350101,9104.533087
2657.035613,-1302.362347,-1998.556043,8734.430116
2657.035942,-2757.943793,-1332.370696,9696.697840
2657.036271,-2145.067394,-2442.679609,10584.944971
2657.036600,0.000000,-1480.411884,9252.574275
2657.036929,-383.047749,-1776.494261,9104.533087
2657.037258,-1072.533697,-1110.308913,9326.594869
2657.037587,-153.219100,-814.226536,9474.636058
2657.037916,1072.533697,-444.123565,9400.615463
2657.038245,2528.115143,-0.000000,7328.038826
2657.038575,1072.533697,740.205942,8142.265362
2657.038904,229.828649,1258.350101,8956.491898
2657.039233,1838.629195,888.247130,8808.450710
2657.039562,2451.505594,1184.329507,7846.182985
2657.039891,1378.971896,444.123565,6883.915261
2657.040220,-153.219100,148.041188,9104.533087
2657.040549,0.000000,-888.247130,10362.883188
2657.040878,766.095498,-1776.494261,9030.512492
2657.041207,76.609550,-0.000000,7994.224174
2657.041536,-1225.752797,370.102971,8734.430116
2657.041866,-1608.800546,-148.041188,10066.800811
2657.042195,-229.828649,-148.041188,10214.842000
2657.042524,842.705048,-370.102971,9178.553681
2657.042853,0.000000,-222.061783,9030.512492
2657.043182,-1225.752797,740.205942,9918.759623
2657.043511,229.828649,-148.041188,10362.883188
2657.043840,1838.629195,666.185348,9548.656652
2657.044169,1378.971896,888.247130,8586.388927
2657.044498,-383.047749,888.247130,8290.306550
2657.044827,536.266849,1406.391290,9474.636058
2657.045157,2298.286494,1258.350101,9400.615463
2657.045486,2145.067394,1258.350101,7698.141797
2657.045815,536.266849,1110.308913,8290.306550
2657.046144,0.000000,-0.000000,9918.759623
2657.046473,689.485948,-666.185348,10732.986159
2657.046802,919.314598,-74.020594,9178.553681
2657.047131,306.438199,-0.000000,8068.244768
2657.047460,-1225.752797,296.082377,9548.656652
2657.047789,-766.095498,-74.020594,9918.759623
2657.048118,689.485948,-74.020594,9992.780217
2657.048448,229.828649,-222.061783,8512.368333
2657.048777,-995.924147,518.144159,8734.430116
2657.049106,-1072.533697,370.102971,10288.862594
2657.049435,0.000000,-1036.288319,9992.780217
2657.049764,1072.533697,-370.102971,9030.512492
2657.050093,0.000000,222.061783,8142.265362
2657.050422,-689.485948,-74.020594,9622.677246
2657.050751,459.657299,-0.000000,10288.862594
2657.051080,2298.286494,222.061783,8216.285956
2657.051409,1915.238745,740.205942,7920.203579
2657.051739,612.876398,518.144159,8808.450710
2657.052068,536.266849,-0.000000,9992.780217
2657.052397,1302.362347,-0.000000,9622.677246
2657.052726,1455.581446,296.082377,7994.224174
2657.053055,0.000000,-0.000000,8290.306550
2657.053384,-612.876398,-0.000000,9548.656652
2657.053713,0.000000,-740.205942,10066.800811
2657.054042,689.485948,-592.164754,8512.368333
2657.054371,-383.047749,-740.205942,8660.409521
2657.054700,-1532.190996,-740.205942,9474.636058
2657.055030,-1225.752797,-1110.308913,9992.780217
2657.055359,229.828649,-1406.391290,10510.924376
2657.055688,306.438199,-814.226536,7846.182985
2657.056017,-919.314598,-370.102971,9030.512492
2657.056346,-229.828649,-74.020594,9474.636058
2657.056675,2068.457845,-518.144159,9104.533087
2657.057004,2451.505594,592.164754,7994.224174
2657.057333,1608.800546,518.144159,7328.038826
2657.057662,995.924147,444.123565,9474.636058
2657.057991,1378.971896,222.061783,9474.636058
2657.058321,2834.553343,592.164754,8216.285956
2657.058650,1302.362347,740.205942,7846.182985
2657.058979,-306.438199,-222.061783,8586.388927
2657.059308,-612.876398,-740.205942,9548.656652
2657.059637,383.047749,-1628.453072,9400.615463
2657.059966,0.000000,-1258.350101,8660.409521
2657.060295,-1608.800546,-1332.370696,8586.388927
2657.060624,-2068.457845,-1850.514855,10140.821405
2657.060953,-842.705048,-2294.638420,10584.944971
2657.061283,229.828649,-1924.535449,9326.594869
2657.061612,0.000000,-888.247130,8216.285956
2657.061941,-612.876398,-666.185348,9104.533087
2657.062270,459.657299,-1110.308913,10584.944971
2657.062599,2528.115143,-740.205942,9400.615463
2657.062928,2681.334243,-74.020594,7772.162391
2657.063257,1762.019645,370.102971,8068.244768
2657.063586,1455.581446,962.267725,9178.553681
2657.063915,2221.676944,-148.041188,9548.656652
2657.064244,2528.115143,518.144159,8142.265362
2657.064574,1149.143247,888.247130,6883.915261
2657.064903,-383.047749,-0.000000,8808.450710
2657.065232,0.000000,-592.164754,10066.800811
2657.065561,0.000000,-1406.391290,9474.636058
2657.065890,-459.657299,-1776.494261,8290.306550
2657.066219,-2145.067394,-1110.308913,9252.574275
2657.066548,-2221.676944,-2072.576638,11029.068536
2657.066877,-689.485948,-1924.535449,10732.986159
2657.067206,153.219100,-592.164754,9104.533087
2657.067535,-689.485948,-74.020594,9104.533087
2657.067865,-612.876398,814.226536,9844.739029
2657.068194,1149.143247,814.226536,9992.780217
2657.068523,2834.553343,1628.453072,8068.244768
2657.068852,2834.553343,1184.329507,7402.059420
2657.069181,1762.019645,1258.350101,8586.388927
2657.069510,1378.971896,666.185348,9400.615463
2657.069839,1838.629195,1036.288319,9252.574275
2657.070168,1608.800546,1406.391290,7254.018232
2657.070497,-383.047749,1480.411884,7550.100608
2657.070826,-919.314598,148.041188,9622.677246
2657.071156,-383.047749,-370.102971,9770.718434
2657.071485,0.000000,-1184.329507,8734.430116
2657.071814,-1608.800546,-296.082377,8586.388927
2657.072143,-2528.115143,-888.247130,10288.862594
2657.072472,-1608.800546,-962.267725,11251.130318
2657.072801,-306.438199,-814.226536,9844.739029
2657.073130,229.828649,-0.000000,9104.533087
2657.073459,-229.828649,296.082377,9178.553681
2657.073788,383.047749,888.247130,9622.677246
2657.074117,2068.457845,962.267725,9400.615463
2657.074447,2604.724693,1776.494261,7550.100608
2657.074776,1991.848295,1332.370696,7920.203579
2657.075105,995.924147,1184.329507,9030.512492
2657.075434,1532.190996,296.082377,9474.636058
2657.075763,2451.505594,444.123565,8734.430116
2657.076092,1149.143247,222.061783,7254.018232
2657.076421,-1072.533697,370.102971,9030.512492
2657.076750,-1149.143247,-740.205942,10288.862594
2657.077079,76.609550,-1110.308913,9770.718434
2657.077408,0.000000,-666.185348,8586.388927
2657.077738,-1225.752797,-1332.370696,9030.512492
2657.078067,-1838.629195,-962.267725,10881.027347
2657.078396,-536.266849,-1406.391290,11251.130318
2657.078725,383.047749,-1110.308913,9400.615463
2657.079054,0.000000,-444.123565,8586.388927
2657.079383,-536.266849,888.247130,9030.512492
2657.079712,459.657299,370.102971,9918.759623
2657.080041,2374.896044,222.061783,8734.430116
2657.080370,2298.286494,740.205942,6661.853478
2657.080699,1302.362347,-0.000000,7624.121203
2657.081029,766.095498,-296.082377,9548.656652
2657.081358,1991.848295,-518.144159,9474.636058
2657.081687,1915.238745,-74.020594,7624.121203
2657.082016,76.609550,-0.000000,7254.018232
2657.082345,-842.705048,-518.144159,9326.594869
2657.082674,0.000000,-1850.514855,10288.862594
2657.083003,0.000000,-1406.391290,9030.512492
2657.083332,0.000000,-1480.411884,8216.285956
2657.083661,-1685.410096,-1406.391290,9400.615463
2657.083990,-1608.800546,-1776.494261,10955.047942
2657.084320,-306.438199,-1480.411884,10288.862594
2657.084649,229.828649,-1258.350101,8290.306550
2657.084978,-919.314598,-444.123565,8364.327145
2657.085307,-689.485948,-518.144159,9622.677246
2657.085636,1378.971896,-0.000000,9622.677246
2657.085965,2681.334243,148.041188,7920.203579
2657.086294,1762.019645,222.061783,6883.915261
2657.086623,1072.533697,740.205942,8734.430116
2657.086952,1455.581446,-592.164754,10066.800811
2657.087281,2374.896044,-296.082377,9104.533087
2657.087611,1685.410096,-666.185348,7920.203579
2657.087940,229.828649,-444.123565,8142.265362
2657.088269,-536.266849,-1110.308913,9548.656652
2657.088598,229.828649,-1480.411884,10066.800811
2657.088927,306.438199,-1258.350101,8290.306550
2657.089256,-919.314598,-888.247130,8660.409521
2657.089585,-2068.457845,-888.247130,9918.759623
2657.089914,-1225.752797,-1406.391290,10362.883188
2657.090243,-153.219100,-1110.308913,9622.677246
2657.090572,0.000000,-666.185348,7920.203579
2657.090902,-1455.581446,-296.082377,8734.430116
2657.091231,229.828649,-518.144159,9992.780217
2657.091560,1378.971896,-592.164754,9252.574275
2657.091889,2451.505594,592.164754,7624.121203
2657.092218,1302.362347,1480.411884,7105.977043
2657.092547,612.876398,518.144159,9400.615463
2657.092876,1762.019645,592.164754,9696.697840
2657.093205,2374.896044,370.102971,8364.327145
2657.093534,1072.533697,518.144159,7994.224174
2657.093864,-383.047749,740.205942,8512.368333
2657.094193,0.000000,-0.000000,10362.883188
2657.094522,766.095498,-222.061783,9918.759623
2657.094851,0.000000,-814.226536,8956.491898
2657.095180,-1302.362347,-518.144159,8808.450710
2657.095509,-2068.457845,-296.082377,10362.883188
2657.095838,-306.438199,-0.000000,9992.780217
2657.096167,76.609550,148.041188,8438.347739
2657.096496,-306.438199,592.164754,8142.265362
2657.096825,-766.095498,518.144159,9326.594869
2657.097155,536.266849,592.164754,9844.739029
2657.097484,2374.896044,222.061783,8734.430116
2657.097813,1838.629195,814.226536,8068.244768
2657.098142,612.876398,666.185348,8882.471304
2657.098471,689.485948,-74.020594,10362.883188
2657.098800,1762.019645,370.102971,9844.739029
2657.099129,2068.457845,740.205942,8364.327145
2657.099458,153.219100,1258.350101,7994.224174
2657.099787,-229.828649,-0.000000,9326.594869
2657.100116,0.000000,-74.020594,9918.759623
2657.100445,1149.143247,-0.000000,8438.347739
2657.100774,0.000000,370.102971,7698.141797
2657.101103,-1608.800546,-370.102971,9622.677246
2657.101432,-1225.752797,-888.247130,10955.047942
2657.101761,-153.219100,-1258.350101,9622.677246
2657.102090,-536.266849,-1184.329507,7920.203579
2657.102419,-1532.190996,-518.144159,8512.368333
2657.102748,-842.705048,-814.226536,10288.862594
2657.103077,306.438199,-148.041188,9474.636058
2657.103407,1915.238745,222.061783,8290.306550
2657.103736,1072.533697,592.164754,7920.203579
2657.104065,306.438199,814.226536,8734.430116
2657.104394,1149.143247,370.102971,9770.718434
2657.104723,2221.676944,-0.000000,9104.533087
2657.105052,1685.410096,-222.061783,8734.430116
2657.105381,536.266849,222.061783,7920.203579
2657.105710,76.609550,-296.082377,9622.677246
2657.106039,995.924147,-518.144159,9474.636058
2657.106368,766.095498,-888.247130,7920.203579
2657.106697,-383.047749,-592.164754,8068.244768
2657.107026,-1302.362347,-1110.308913,9622.677246
2657.107355,-306.438199,-1184.329507,10881.027347
2657.107684,0.000000,-1184.329507,9252.574275
2657.108013,-612.876398,-1110.308913,8438.347739
2657.108342,-1302.362347,-814.226536,9474.636058
2657.108671,-383.047749,-814.226536,10288.862594
2657.109000,2145.067394,-296.082377,10140.821405
2657.109329,1991.848295,-0.000000,7772.162391
2657.109658,1225.752797,-0.000000,8068.244768
2657.109988,0.000000,518.144159,9844.739029
2657.110317,1762.019645,-0.000000,9548.656652
2657.110646,2374.896044,962.267725,7846.182985
2657.110975,1072.533697,888.247130,7624.121203
2657.111304,0.000000,444.123565,8734.430116
2657.111633,229.828649,-74.020594,10288.862594
2657.111962,1149.143247,-1776.494261,8956.491898
2657.112291,0.000000,-1332.370696,7698.141797
2657.112620,-1608.800546,-1332.370696,8734.430116
2657.112949,-1762.019645,-2368.659014,10584.944971
2657.113278,-842.705048,-1702.473667,10214.842000
2657.113607,153.219100,-1184.329507,8808.450710
2657.113936,-919.314598,-296.082377,8068.244768
2657.114265,-995.924147,444.123565,9474.636058
2657.114594,689.485948,-296.082377,9696.697840
2657.114923,2068.457845,-148.041188,8512.368333
2657.115252,1302.362347,-74.020594,7846.182985
2657.115581,383.047749,-0.000000,9030.512492
2657.115910,1072.533697,-0.000000,9696.697840
2657.116240,1838.629195,-0.000000,9696.697840
2657.116569,2068.457845,814.226536,7402.059420
2657.116898,612.876398,1258.350101,7698.141797
2657.117227,-306.438199,962.267725,9104.533087
2657.117556,689.485948,-148.041188,9844.739029
2657.117885,995.924147,-444.123565,8216.285956
2657.118214,-689.485948,-740.205942,7846.182985
2657.118543,-1302.362347,-1036.288319,9696.697840
2657.118872,-229.828649,-1184.329507,10881.027347
2657.119201,536.266849,-1332.370696,10140.821405
2657.119530,459.657299,-296.082377,8512.368333
2657.119859,-383.047749,962.267725,9326.594869
2657.120188,0.000000,962.267725,9770.718434
2657.120517,1762.019645,1332.370696,9104.533087
2657.120846,2451.505594,814.226536,8512.368333
2657.121175,1302.362347,1110.308913,7698.141797
2657.121504,689.485948,1184.329507,10510.924376
2657.121833,1378.971896,296.082377,9992.780217
2657.122162,2298.286494,-0.000000,9030.512492
2657.122492,1225.752797,1036.288319,8364.327145
2657.122821,-612.876398,296.082377,8734.430116
2657.123150,536.266849,-0.000000,10288.862594
2657.123479,1072.533697,-0.000000,9400.615463
2657.123808,689.485948,-222.061783,7920.203579
2657.124137,-1225.752797,-0.000000,8438.347739
2657.124466,-1991.848295,-1406.391290,10288.862594
2657.124795,-383.047749,-1036.288319,10658.965565
2657.125124,612.876398,-1036.288319,8882.471304
2657.125453,-536.266849,-518.144159,8142.265362
2657.125782,-306.438199,222.061783,9696.697840
2657.126111,459.657299,-296.082377,10288.862594
2657.126440,2068.457845,222.061783,7994.224174
2657.126769,1838.629195,518.144159,7105.977043
2657.127098,383.047749,370.102971,7920.203579
2657.127427,383.047749,444.123565,9918.759623
2657.127756,1532.190996,-0.000000,9104.533087
2657.128085,1532.190996,-814.226536,8512.368333
2657.128414,-766.095498,-0.000000,8734.430116
2657.128744,-995.924147,-666.185348,9548.656652
2657.129073,-536.266849,-1628.453072,10584.944971
2657.129402,383.047749,-1998.556043,9622.677246
2657.129731,-383.047749,-1184.329507,7920.203579
2657.130060,-1225.752797,-814.226536,9400.615463
2657.130389,-995.924147,-296.082377,9992.780217
2657.130718,919.314598,-222.061783,10066.800811
2657.131047,1378.971896,-0.000000,8216.285956
2657.131376,229.828649,666.185348,7846.182985
2657.131705,76.609550,370.102971,9400.615463
2657.132034,1302.362347,370.102971,9474.636058
2657.132363,2298.286494,296.082377,8364.327145
2657.132692,1378.971896,-0.000000,8068.244768
2657.133021,153.219100,-0.000000,9400.615463
2657.133350,536.266849,-148.041188,10658.965565
2657.133679,1455.581446,444.123565,9474.636058
2657.134008,995.924147,740.205942,7772.162391
2657.134337,-536.266849,592.164754,8882.471304
2657.134666,-153.219100,296.082377,9622.677246
2657.134996,459.657299,-296.082377,9622.677246
2657.135325,1302.362347,-444.123565,8734.430116
2657.135654,0.000000,222.061783,7920.203579
2657.135983,-689.485948,-0.000000,9548.656652
2657.136312,0.000000,-1036.288319,10510.924376
2657.136641,1149.143247,-1702.473667,9326.594869
2657.136970,306.438199,-814.226536,7920.203579
2657.137299,-229.828649,148.041188,8808.450710
2657.137628,0.000000,148.041188,9474.636058
2657.137957,1302.362347,-0.000000,8586.388927
2657.138286,1072.533697,-222.061783,7920.203579
2657.138615,-229.828649,-814.226536,8808.450710
2657.138944,-842.705048,-1480.411884,9992.780217
2657.139273,229.828649,-1850.514855,10066.800811
2657.139602,995.924147,-1036.288319,9252.574275
2657.139931,0.000000,-814.226536,8882.471304
2657.140260,-1225.752797,-370.102971,9104.533087
2657.140589,0.000000,-518.144159,9918.759623
2657.140918,995.924147,-148.041188,9252.574275
2657.141247,229.828649,-518.144159,7624.121203
2657.141577,-842.705048,-148.041188,8660.409521
2657.141906,-842.705048,-888.247130,10955.047942
2657.142235,459.657299,-1110.308913,10510.924376
2657.142564,919.314598,-296.082377,7920.203579
2657.142893,-689.485948,-0.000000,7994.224174
2657.143222,-842.705048,592.164754,10140.821405
2657.143551,612.876398,148.041188,9104.533087
2657.143880,1915.238745,-222.061783,8290.306550
2657.144209,1455.581446,370.102971,8216.285956
2657.144538,306.438199,-74.020594,9252.574275
2657.144867,0.000000,-148.041188,10510.924376
2657.145196,1455.581446,-74.020594,9548.656652
2657.145525,1685.410096,370.102971,7994.224174
2657.145854,153.219100,592.164754,8142.265362
2657.146183,612.876398,74.020594,9326.594869
2657.146512,2145.067394,-74.020594,9622.677246
2657.146841,1532.190996,1184.329507,7772.162391
2657.147170,612.876398,888.247130,7624.121203
2657.147499,-842.705048,814.226536,8882.471304
2657.147829,-459.657299,-444.123565,10214.842000
2657.148158,995.924147,-148.041188,9400.615463
2657.148487,383.047749,-814.226536,7994.224174
2657.148816,-689.485948,-0.000000,9252.574275
2657.149145,-612.876398,-74.020594,10584.944971
2657.149474,766.095498,-592.164754,9622.677246
2657.149803,1608.800546,-0.000000,8068.244768
2657.150132,919.314598,-148.041188,8068.244768
2657.150461,153.219100,-0.000000,9326.594869
2657.150790,1378.971896,814.226536,9770.718434
2657.151119,1915.238745,666.185348,9992.780217
2657.151448,1225.752797,370.102971,7846.182985
2657.151777,-229.828649,-148.041188,8808.450710
2657.152106,-383.047749,-296.082377,10140.821405
2657.152435,76.609550,-1184.329507,9622.677246
2657.152764,-459.657299,-1480.411884,8438.347739
2657.153093,-1455.581446,-1406.391290,9178.553681
2657.153422,-2145.067394,-1776.494261,10732.986159
2657.153751,-919.314598,-1776.494261,10362.883188
2657.154081,153.219100,-1258.350101,9178.553681
2657.154410,-383.047749,-814.226536,7772.162391
2657.154739,-919.314598,-1184.329507,9622.677246
2657.155068,842.705048,-888.247130,10288.862594
2657.155397,2145.067394,-0.000000,8882.471304
2657.155726,1685.410096,-0.000000,7994.224174
2657.156055,229.828649,-592.164754,8216.285956
2657.156384,153.219100,592.164754,9252.574275
2657.156713,1302.362347,-0.000000,9918.759623
2657.157042,1838.629195,1184.329507,7772.162391
2657.157371,-306.438199,1036.288319,7179.997637
2657.157700,-1149.143247,1036.288319,9474.636058
2657.158029,-306.438199,-296.082377,9918.759623
2657.158358,689.485948,-592.164754,9326.594869
2657.158687,-306.438199,-444.123565,7550.100608
2657.159016,-1225.752797,-222.061783,9252.574275
2657.159345,-1072.533697,-666.185348,10584.944971
2657.159674,536.266849,-592.164754,9770.718434
2657.160003,1685.410096,-444.123565,8068.244768
2657.160333,459.657299,592.164754,8216.285956
2657.160662,229.828649,1332.370696,9622.677246
2657.160991,1991.848295,444.123565,9474.636058
2657.161320,3064.381992,1406.391290,8142.265362
2657.161649,2298.286494,1184.329507,7550.100608
2657.161978,1149.143247,222.061783,9178.553681
2657.162307,383.047749,-370.102971,10510.924376
2657.162636,1532.190996,-518.144159,9992.780217
2657.162965,1072.533697,-0.000000,8216.285956
2657.163294,-1072.533697,-518.144159,8512.368333
2657.163623,-1302.362347,-592.164754,9992.780217
2657.163952,-306.438199,-1036.288319,9992.780217
2657.164281,0.000000,-740.205942,8216.285956
2657.164610,-536.266849,-1110.308913,8290.306550
2657.164939,-1225.752797,-1332.370696,10436.903782
2657.165268,-919.314598,-1628.453072,10955.047942
2657.165597,766.095498,-666.185348,9178.553681
2657.165926,459.657299,-1036.288319,8808.450710
2657.166255,-306.438199,-222.061783,9770.718434
2657.166584,536.266849,-592.164754,9844.739029
2657.166914,2374.896044,-296.082377,9474.636058
2657.167243,2298.286494,296.082377,7624.121203
2657.167572,919.314598,444.123565,7920.203579
2657.167901,229.828649,148.041188,9326.594869
2657.168230,229.828649,-222.061783,9696.697840
2657.168559,1072.533697,-148.041188,8290.306550
2657.168888,0.000000,-0.000000,7254.018232
2657.169217,-1455.581446,-1184.329507,9104.533087
2657.169546,-1838.629195,-1998.556043,10066.800811
2657.169875,0.000000,-1332.370696,8956.491898
2657.170204,-383.047749,-814.226536,7846.182985
2657.170533,-1225.752797,-444.123565,8438.347739
2657.170862,-1378.971896,-962.267725,9770.718434
2657.171191,229.828649,-740.205942,9548.656652
2657.171520,1378.971896,-0.000000,7920.203579
2657.171849,919.314598,296.082377,7328.038826
2657.172178,612.876398,666.185348,8142.265362
2657.172507,1762.019645,444.123565,9252.574275
2657.172836,2757.943793,888.247130,8586.388927
2657.173166,2221.676944,518.144159,7328.038826
2657.173495,536.266849,-0.000000,8068.244768
2657.173824,689.485948,222.061783,10066.800811
2657.174153,1149.143247,518.144159,9474.636058
2657.174482,459.657299,-74.020594,8660.409521
2657.174811,-842.705048,518.144159,8586.388927
2657.175140,-1302.362347,-222.061783,10066.800811
2657.175469,-536.266849,-888.247130,10732.986159
2657.175798,153.219100,-1628.453072,9104.533087
2657.176127,-229.828649,-1776.494261,9178.553681
2657.176456,-1149.143247,-1110.308913,10584.944971
2657.176785,-306.438199,-814.226536,10881.027347
2657.177114,689.485948,-592.164754,9918.759623
2657.177443,1225.752797,444.123565,8808.450710
2657.177772,536.266849,370.102971,8660.409521
2657.178101,459.657299,666.185348,9326.594869
2657.178430,2145.067394,370.102971,9252.574275
2657.178759,2374.896044,370.102971,8068.244768
2657.179088,766.095498,-518.144159,8142.265362
2657.179418,-229.828649,-740.205942,9474.636058
2657.179747,153.219100,-962.267725,10066.800811
2657.180076,689.485948,-444.123565,9030.512492
2657.180405,0.000000,-222.061783,8142.265362
2657.180734,-1685.410096,-592.164754,9548.656652
2657.181063,-995.924147,-888.247130,10214.842000
2657.181392,-306.438199,-518.144159,9696.697840
2657.181721,-229.828649,-740.205942,8512.368333
2657.182050,-995.924147,-0.000000,8290.306550
2657.182379,-919.314598,-888.247130,9992.780217
2657.182708,306.438199,-518.144159,9918.759623
2657.183037,1838.629195,-444.123565,8438.347739
2657.183366,1072.533697,962.267725,8364.327145
2657.183695,153.219100,1776.494261,8734.430116
2657.184024,919.314598,666.185348,8512.368333
2657.184353,1915.238745,888.247130,8364.327145
2657.184682,2145.067394,1702.473667,7328.038826
2657.185011,612.876398,370.102971,7846.182985
2657.185340,306.438199,-74.020594,9992.780217
2657.185670,842.705048,-1110.308913,9696.697840
2657.185999,1608.800546,-814.226536,8882.471304
2657.186328,-459.657299,296.082377,8512.368333
2657.186657,-1378.971896,-148.041188,9400.615463
2657.186986,-995.924147,-0.000000,10066.800811
2657.187315,153.219100,370.102971,9548.656652
2657.187644,612.876398,-0.000000,8512.368333
2657.187973,-612.876398,-148.041188,8734.430116
2657.188302,-306.438199,-444.123565,9844.739029
2657.188631,153.219100,-814.226536,9992.780217
2657.188960,842.705048,-222.061783,8660.409521
2657.189289,229.828649,-444.123565,8216.285956
2657.189618,0.000000,-296.082377,9400.615463
2657.189947,1225.752797,-370.102971,9770.718434
2657.190276,2374.896044,-444.123565,8364.327145
2657.190605,689.485948,-0.000000,7698.141797
2657.190934,76.609550,-0.000000,8512.368333
2657.191263,383.047749,-814.226536,10214.842000
2657.191592,1149.143247,-592.164754,9696.697840
2657.191921,1149.143247,-148.041188,8364.327145
2657.192251,0.000000,-296.082377,8438.347739
2657.192580,-459.657299,-592.164754,9696.697840
2657.192909,383.047749,-1406.391290,9696.697840
2657.193238,919.314598,-0.000000,8512.368333
2657.193567,-153.219100,370.102971,8290.306550
2657.193896,-1072.533697,-518.144159,9400.615463
2657.194225,-536.266849,-814.226536,10140.821405
2657.194554,612.876398,-740.205942,9474.636058
2657.194883,-383.047749,-0.000000,8586.388927
2657.195212,-766.095498,-0.000000,9252.574275
2657.195541,0.000000,-0.000000,9474.636058
2657.195870,1762.019645,444.123565,9400.615463
2657.196199,2528.115143,592.164754,8290.306550
2657.196528,1455.581446,370.102971,8364.327145
2657.196857,1225.752797,-0.000000,9400.615463
2657.197186,1378.971896,888.247130,9622.677246
2657.197515,2604.724693,1406.391290,8586.388927
2657.197844,1225.752797,740.205942,8216.285956
2657.198173,-306.438199,814.226536,9030.512492
2657.198502,-306.438199,-370.102971,9548.656652
2657.198831,0.000000,-666.185348,9252.574275
2657.199160,0.000000,-814.226536,8808.450710
2657.199489,-1838.629195,-148.041188,9400.615463
2657.199818,-2834.553343,-1406.391290,10807.006753
2657.200147,-1608.800546,-2072.576638,10584.944971
2657.200476,-383.047749,-1184.329507,9104.533087
2657.200805,-1072.533697,-74.020594,8068.244768
2657.201134,-612.876398,-0.000000,9252.574275
2657.201463,919.314598,-370.102971,9030.512492
2657.201792,2298.286494,666.185348,8216.285956
2657.202121,2911.162892,148.041188,7402.059420
2657.202450,1455.581446,518.144159,8216.285956
2657.202779,1455.581446,-0.000000,9326.594869
2657.203108,2221.676944,-0.000000,8734.430116
2657.203437,2221.676944,296.082377,7994.224174
2657.203766,612.876398,148.041188,7994.224174
2657.204095,-536.266849,-888.247130,9400.615463
2657.204424,-766.095498,-1036.288319,9770.718434
2657.204753,76.609550,-518.144159,8438.347739
2657.205082,-766.095498,-962.267725,8290.306550
2657.205411,-2451.505594,-444.123565,9474.636058
2657.205740,-1608.800546,-1110.308913,10732.986159
2657.206069,-766.095498,-1332.370696,9770.718434
2657.206398,0.000000,-814.226536,9178.553681
2657.206727,-229.828649,-444.123565,8734.430116
2657.207056,0.000000,-222.061783,9770.718434
2657.207385,1685.410096,444.123565,9178.553681
2657.207714,3140.991542,370.102971,8586.388927
2657.208043,2374.896044,1702.473667,7402.059420
2657.208372,1685.410096,1258.350101,9326.594869
2657.208701,2068.457845,2294.638420,10140.821405
2657.209030,2528.115143,1332.370696,9104.533087
2657.209360,1838.629195,962.267725,8216.285956
2657.209689,0.000000,-148.041188,8808.450710
2657.210018,-612.876398,-518.144159,10288.862594
2657.210347,0.000000,-814.226536,9992.780217
2657.210676,-383.047749,-444.123565,8512.368333
2657.211005,-1225.752797,-888.247130,9326.594869
2657.211334,-2374.896044,-1036.288319,9622.677246
2657.211663,-1302.362347,-1184.329507,11103.089130
2657.211992,-383.047749,-296.082377,9770.718434
2657.212321,-459.657299,-592.164754,8438.347739
2657.212650,-689.485948,-222.061783,9548.656652
2657.212979,689.485948,-592.164754,10436.903782
2657.213308,2145.067394,-148.041188,8734.430116
2657.213637,2604.724693,-0.000000,7624.121203
2657.213966,1455.581446,740.205942,7920.203579
2657.214295,1149.143247,666.185348,9178.553681
2657.214624,1838.629195,888.247130,8882.471304
2657.214953,2221.676944,740.205942,7402.059420
2657.215282,612.876398,222.061783,7846.182985
2657.215611,-1149.143247,-222.061783,8364.327145
2657.215940,-612.876398,-1924.535449,9844.739029
2657.216269,-842.705048,-1554.432478,9548.656652
2657.216598,-919.314598,-2294.638420,8364.327145
2657.216927,-2451.505594,-1702.473667,9252.574275
2657.217256,-2451.505594,-2368.659014,11103.089130
2657.217585,-1149.143247,-1332.370696,10510.924376
2657.217914,383.047749,-592.164754,9252.574275
2657.218243,306.438199,-0.000000,8290.306550
2657.218572,0.000000,592.164754,9548.656652
2657.218901,1532.190996,1258.350101,9252.574275
2657.219230,2757.943793,666.185348,7846.182985
2657.219559,2681.334243,1036.288319,7920.203579
2657.219888,1685.410096,814.226536,8142.265362
2657.220217,1762.019645,666.185348,9474.636058
2657.220546,2068.457845,1332.370696,9030.512492
2657.220875,2298.286494,740.205942,8290.306550
2657.221204,995.924147,-0.000000,8216.285956
2657.221533,-766.095498,-592.164754,9474.636058
2657.221862,0.000000,-444.123565,10362.883188
2657.222191,0.000000,-1258.350101,9548.656652
2657.222520,-919.314598,-814.226536,8882.471304
2657.222849,-2374.896044,-1184.329507,10955.047942
2657.223178,-1225.752797,-1184.329507,10881.027347
2657.223507,229.828649,-370.102971,10362.883188
2657.223836,612.876398,-148.041188,8734.430116
2657.224165,-229.828649,1258.350101,8438.347739
2657.224494,536.266849,740.205942,9104.533087
2657.224823,2145.067394,814.226536,8512.368333
2657.225152,2681.334243,740.205942,7624.121203
2657.225481,1455.581446,444.123565,7402.059420
2657.225810,919.314598,518.144159,8512.368333
2657.226139,459.657299,-148.041188,9992.780217
2657.226468,1532.190996,-296.082377,8808.450710
2657.226797,842.705048,-1036.288319,7994.224174
2657.227126,-612.876398,-1332.370696,9178.553681
2657.227455,-536.266849,-1998.556043,9548.656652
2657.227784,306.438199,-1776.494261,9992.780217
2657.228113,-306.438199,-1406.391290,8586.388927
2657.228442,-1608.800546,-888.247130,8882.471304
2657.228771,-1838.629195,-814.226536,9696.697840
2657.229100,-766.095498,-1110.308913,10288.862594
2657.229429,229.828649,-888.247130,9400.615463
2657.229758,-306.438199,-666.185348,8290.306550
2657.230087,-383.047749,-370.102971,9474.636058
2657.230416,459.657299,-222.061783,9992.780217
2657.230745,1762.019645,-0.000000,9104.533087
2657.231074,1685.410096,518.144159,7624.121203
2657.231403,459.657299,740.205942,8068.244768
2657.231732,612.876398,444.123565,9770.718434
2657.232061,1378.971896,444.123565,9770.718434
2657.232390,1608.800546,148.041188,8808.450710
2657.232719,76.609550,370.102971,8734.430116
2657.233048,-459.657299,-0.000000,9548.656652
2657.233377,153.219100,-592.164754,10066.800811
2657.233706,766.095498,-296.082377,9548.656652
2657.234035,459.657299,-0.000000,8512.368333
2657.234364,-919.314598,-222.061783,8808.450710
2657.234693,-1302.362347,148.041188,10362.883188
2657.235022,229.828649,-148.041188,10658.965565
2657.235351,306.438199,444.123565,8808.450710
2657.235680,-306.438199,666.185348,7994.224174
2657.236009,-229.828649,-0.000000,9696.697840
2657.236338,536.266849,-74.020594,9474.636058
2657.236667,1685.410096,-74.020594,8216.285956
2657.236996,1455.581446,-74.020594,7920.203579
2657.237325,153.219100,-0.000000,8734.430116
2657.237654,383.047749,-370.102971,9992.780217
2657.237983,1455.581446,444.123565,9030.512492
2657.238312,1455.581446,370.102971,7698.141797
2657.238641,0.000000,592.164754,7994.224174
2657.238970,0.000000,-444.123565,9104.533087
2657.239299,1149.143247,-1036.288319,9918.759623
2657.239628,1225.752797,-148.041188,8290.306550
2657.239957,-306.438199,-1184.329507,8142.265362
2657.240286,-1378.971896,-444.123565,9252.574275
2657.240615,-919.314598,-888.247130,9696.697840
2657.240944,0.000000,-444.123565,9474.636058
2657.241273,-536.266849,-0.000000,8068.244768
2657.241602,-1225.752797,-740.205942,8142.265362
2657.241931,-1532.190996,-518.144159,10066.800811
2657.242260,383.047749,-666.185348,9918.759623
2657.242589,919.314598,-1406.391290,8216.285956
2657.242918,0.000000,-296.082377,8512.368333
2657.243247,153.219100,-222.061783,10140.821405
2657.243576,1072.533697,-296.082377,9474.636058
2657.243905,1991.848295,370.102971,8956.491898
2657.244235,2145.067394,1480.411884,7994.224174
2657.244564,459.657299,1332.370696,8734.430116
2657.244893,842.705048,1554.432478,9400.615463
2657.245222,1532.190996,444.123565,8882.471304
2657.245551,1072.533697,296.082377,8512.368333
2657.245880,-383.047749,-0.000000,8068.244768
2657.246209,-536.266849,-740.205942,9622.677246
2657.246538,-536.266849,-444.123565,10510.924376
2657.246867,76.609550,-666.185348,9770.718434
2657.247196,-919.314598,-0.000000,8512.368333
