#time,accel_x,accel_y,accel_z
2720.449351,76.609550,-0.000000,9252.574275
2720.449680,612.876398,-0.000000,9104.533087
2720.450009,383.047749,-296.082377,8956.491898
2720.450338,612.876398,-0.000000,9104.533087
2720.450667,536.266849,-0.000000,8882.471304
2720.450996,536.266849,-0.000000,9104.533087
2720.451325,229.828649,-0.000000,8808.450710
2720.451654,459.657299,-74.020594,8808.450710
2720.451983,536.266849,-148.041188,8808.450710
2720.452312,536.266849,-0.000000,9104.533087
2720.452641,153.219100,-222.061783,9030.512492
2720.452970,76.609550,-0.000000,8956.491898
2720.453299,76.609550,-0.000000,9104.533087
2720.453628,0.000000,-222.061783,9178.553681
2720.453957,76.609550,-148.041188,9030.512492
2720.454286,766.095498,-370.102971,9252.574275
2720.454615,76.609550,-296.082377,9104.533087
2720.454944,459.657299,-518.144159,9178.553681
2720.455273,536.266849,-148.041188,9104.533087
2720.455602,536.266849,-74.020594,9178.553681
2720.455931,383.047749,-0.000000,8956.491898
2720.456260,612.876398,-592.164754,9030.512492
2720.456589,536.266849,-296.082377,9252.574275
2720.456918,689.485948,-370.102971,9178.553681
2720.457247,153.219100,-148.041188,9252.574275
2720.457576,153.219100,-222.061783,9400.615463
2720.457905,153.219100,-148.041188,9252.574275
2720.458234,76.609550,-222.061783,9252.574275
2720.458563,229.828649,-296.082377,9474.636058
2720.458892,536.266849,-296.082377,9474.636058
2720.459221,766.095498,-148.041188,9400.615463
2720.459550,459.657299,-0.000000,9178.553681
2720.459879,536.266849,-0.000000,9030.512492
2720.460208,459.657299,148.041188,9030.512492
2720.460537,229.828649,222.061783,8956.491898
2720.460866,229.828649,-0.000000,8882.471304
2720.461195,459.657299,-148.041188,8882.471304
2720.461524,383.047749,-296.082377,9104.533087
2720.461853,459.657299,-148.041188,8882.471304
2720.462182,306.438199,-370.102971,8882.471304
2720.462511,0.000000,-0.000000,9104.533087
2720.462840,383.047749,-0.000000,8882.471304
2720.463169,306.438199,-74.020594,8882.471304
2720.463498,306.438199,-296.082377,9326.594869
2720.463827,459.657299,-148.041188,8882.471304
2720.464156,459.657299,-148.041188,8956.491898
2720.464485,459.657299,-0.000000,8882.471304
2720.464814,459.657299,-0.000000,8956.491898
2720.465143,383.047749,-74.020594,8956.491898
2720.465472,459.657299,-74.020594,9474.636058
2720.465801,383.047749,-518.144159,8956.491898
2720.466130,0.000000,-74.020594,9178.553681
2720.466459,306.438199,-370.102971,9326.594869
2720.466788,229.828649,-148.041188,9178.553681
2720.467117,153.219100,-74.020594,9252.574275
2720.467446,306.438199,-222.061783,9178.553681
2720.467775,229.828649,-296.082377,9326.594869
2720.468104,459.657299,-148.041188,9030.512492
2720.468433,766.095498,-0.000000,9474.636058
2720.468762,766.095498,-148.041188,9326.594869
2720.469091,459.657299,-0.000000,9252.574275
2720.469420,153.219100,-0.000000,9252.574275
2720.469749,306.438199,-222.061783,9104.533087
2720.470078,536.266849,-222.061783,9252.574275
2720.470407,0.000000,-518.144159,9178.553681
2720.470736,76.609550,-296.082377,9252.574275
2720.471065,76.609550,-296.082377,9104.533087
2720.471394,229.828649,-74.020594,9030.512492
2720.471723,76.609550,-0.000000,9104.533087
2720.472052,383.047749,-0.000000,8882.471304
2720.472381,766.095498,-0.000000,9104.533087
2720.472710,689.485948,-148.041188,8660.409521
2720.473039,459.657299,-74.020594,9104.533087
2720.473368,-229.828649,370.102971,8808.450710
2720.473697,229.828649,-0.000000,8882.471304
2720.474026,153.219100,-0.000000,8882.471304
2720.474355,153.219100,-74.020594,8956.491898
2720.474684,306.438199,-0.000000,8808.450710
2720.475013,229.828649,-370.102971,9104.533087
2720.475342,612.876398,-222.061783,9104.533087
2720.475671,459.657299,-370.102971,9104.533087
2720.476000,153.219100,-222.061783,9178.553681
2720.476329,229.828649,-148.041188,8956.491898
2720.476658,153.219100,-296.082377,9104.533087
2720.476987,612.876398,-222.061783,9252.574275
2720.477316,383.047749,-0.000000,9474.636058
2720.477645,383.047749,-74.020594,9326.594869
2720.477974,306.438199,-148.041188,9252.574275
2720.478303,76.609550,-0.000000,9548.656652
2720.478632,383.047749,-296.082377,9104.533087
2720.478961,229.828649,-222.061783,9548.656652
2720.479290,76.609550,-370.102971,9326.594869
2720.479619,383.047749,-370.102971,9178.553681
2720.479948,842.705048,-814.226536,9770.718434
2720.480277,1378.971896,-888.247130,9696.697840
2720.480606,1762.019645,-888.247130,9474.636058
2720.480935,2451.505594,-888.247130,9474.636058
2720.481264,2298.286494,148.041188,8882.471304
2720.481593,3140.991542,370.102971,8882.471304
2720.481922,3983.696590,-0.000000,8956.491898
2720.482251,4290.134789,148.041188,8438.347739
2720.482580,2987.772442,370.102971,8808.450710
2720.482909,3064.381992,518.144159,8438.347739
2720.483238,2987.772442,-370.102971,8956.491898
2720.483567,3370.820191,-74.020594,8808.450710
2720.483896,1685.410096,-370.102971,8882.471304
2720.484225,1762.019645,-1110.308913,9844.739029
2720.484554,2374.896044,-1924.535449,9400.615463
2720.484883,2757.943793,-444.123565,9474.636058
2720.485212,2374.896044,-444.123565,9474.636058
2720.485541,3140.991542,-1036.288319,9622.677246
2720.485870,3217.601092,222.061783,9400.615463
2720.486199,4749.792088,888.247130,8216.285956
2720.486528,5132.839837,888.247130,7698.141797
2720.486857,4290.134789,1406.391290,9104.533087
2720.487186,5209.449386,666.185348,8216.285956
2720.487515,4366.744339,1184.329507,7846.182985
2720.487844,4290.134789,-0.000000,8734.430116
2720.488173,3140.991542,370.102971,8512.368333
2720.488502,2528.115143,-0.000000,9622.677246
2720.488832,1072.533697,-1184.329507,9622.677246
2720.489161,1762.019645,-518.144159,9696.697840
2720.489490,1149.143247,-1406.391290,9696.697840
2720.489819,1455.581446,-1258.350101,10214.842000
2720.490148,1072.533697,-1184.329507,9696.697840
2720.490477,2757.943793,148.041188,9252.574275
2720.490806,2834.553343,-370.102971,8512.368333
2720.491135,3983.696590,1036.288319,9844.739029
2720.491464,4213.525239,666.185348,8216.285956
2720.491793,4903.011187,1036.288319,8438.347739
2720.492122,4213.525239,1702.473667,9252.574275
2720.492451,3753.867940,518.144159,8882.471304
2720.492780,3600.648841,-0.000000,9030.512492
2720.493109,3064.381992,-1110.308913,9474.636058
2720.493438,2451.505594,-888.247130,10140.821405
2720.493767,2145.067394,-1702.473667,9474.636058
2720.494096,2145.067394,-1776.494261,10066.800811
2720.494425,2528.115143,-1036.288319,10066.800811
2720.494754,2911.162892,-444.123565,9844.739029
2720.495083,3064.381992,-0.000000,8956.491898
2720.495412,3830.477490,1184.329507,8882.471304
2720.495741,4060.306139,1924.535449,7994.224174
2720.496070,4366.744339,2368.659014,7254.018232
2720.496399,4290.134789,2072.576638,7328.038826
2720.496728,3983.696590,1628.453072,8068.244768
2720.497057,4060.306139,1184.329507,7402.059420
2720.497386,3370.820191,-0.000000,8068.244768
2720.497715,2911.162892,-888.247130,9622.677246
2720.498044,2451.505594,-2072.576638,9548.656652
2720.498373,2068.457845,-2664.741391,10362.883188
2720.498702,2374.896044,-2960.823768,10955.047942
2720.499031,2681.334243,-2220.617826,11251.130318
2720.499360,3677.258390,-666.185348,10510.924376
2720.499689,4519.963438,222.061783,9770.718434
2720.500018,5362.668486,1406.391290,9030.512492
2720.500347,5898.935335,2590.720797,8068.244768
2720.500676,4903.011187,2960.823768,7550.100608
2720.501005,4903.011187,2886.803174,7179.997637
2720.501334,3907.087040,3108.864956,6883.915261
2720.501663,3370.820191,888.247130,7476.080014
2720.501992,1225.752797,-1776.494261,8956.491898
2720.502321,0.000000,-2812.782580,10288.862594
2720.502650,-995.924147,-4367.215058,11399.171507
2720.502979,-1225.752797,-4885.359217,11177.109724
2720.503308,-229.828649,-3034.844362,10881.027347
2720.503637,612.876398,-1776.494261,11103.089130
2720.503966,1225.752797,-370.102971,10066.800811
2720.504295,3524.039291,222.061783,10807.006753
2720.504624,5669.106685,1554.432478,8216.285956
2720.504953,7431.126331,1998.556043,8364.327145
2720.505282,6128.763984,1406.391290,7846.182985
2720.505611,6741.640382,1998.556043,7105.977043
2720.505940,5975.544884,2664.741391,6883.915261
2720.506269,5898.935335,1850.514855,6661.853478
2720.506598,4749.792088,3108.864956,5551.544565
2720.506927,4673.182538,2146.597232,6587.832884
2720.507256,4673.182538,1924.535449,5699.585753
2720.507585,4060.306139,-1258.350101,8512.368333
2720.507914,842.705048,-6809.894666,12361.439231
2720.508243,-536.266849,-5773.606348,11621.233289
2720.508572,-1838.629195,-4589.276840,13619.789333
2720.508901,-2068.457845,-7550.100608,13397.727550
2720.509230,-1149.143247,-222.061783,10584.944971
2720.509559,2911.162892,-444.123565,12287.418637
2720.509888,3677.258390,2146.597232,9030.512492
2720.510217,6894.859482,1406.391290,9326.594869
2720.510546,7431.126331,-0.000000,9844.739029
2720.510875,7354.516781,3849.070898,7105.977043
2720.511204,8044.002729,4367.215058,5995.668130
2720.511533,7814.174080,1406.391290,4885.359217
2720.511862,7277.907231,2664.741391,4737.318029
2720.512191,6971.469032,2220.617826,7105.977043
2720.512520,5209.449386,888.247130,6809.894666
2720.512849,4060.306139,2072.576638,5847.626942
2720.513178,4213.525239,-2220.617826,9918.759623
2720.513507,-612.876398,-5033.400406,13841.851115
2720.513836,-3217.601092,-4071.132681,11769.274478
2720.514165,-2221.676944,-2294.638420,14508.036463
2720.514494,-1455.581446,-5773.606348,12213.398043
2720.514823,-766.095498,2072.576638,11251.130318
2720.515152,1762.019645,-1406.391290,11399.171507
2720.515481,-612.876398,2664.741391,8882.471304
2720.515810,2451.505594,-1184.329507,14878.139434
2720.516139,7048.078582,148.041188,7920.203579
2720.516468,9576.193725,1554.432478,8882.471304
2720.516797,6588.421283,1480.411884,5921.647536
2720.517126,7354.516781,962.267725,4737.318029
2720.517455,6588.421283,518.144159,9178.553681
2720.517784,5439.278036,962.267725,5625.565159
2720.518113,5439.278036,3404.947333,6217.729913
2720.518442,3217.601092,2220.617826,8586.388927
2720.518771,3140.991542,1184.329507,7550.100608
2720.519100,3064.381992,-0.000000,9770.718434
2720.519429,1149.143247,-3034.844362,11251.130318
2720.519758,153.219100,-2072.576638,10436.903782
2720.520087,76.609550,-4145.153275,12879.583391
2720.520416,-689.485948,-3775.050304,11103.089130
2720.520745,-383.047749,-592.164754,9770.718434
2720.521074,1608.800546,444.123565,10214.842000
2720.521403,2681.334243,1702.473667,7920.203579
2720.521732,3983.696590,1924.535449,7550.100608
2720.522061,3907.087040,1702.473667,7772.162391
2720.522390,4979.620737,1628.453072,7550.100608
2720.522719,3753.867940,518.144159,7920.203579
2720.523048,3217.601092,-1554.432478,7550.100608
2720.523377,2834.553343,-2146.597232,8734.430116
2720.523706,1838.629195,-2516.700203,10807.006753
2720.524035,1225.752797,-2220.617826,11251.130318
2720.524364,229.828649,-1628.453072,11177.109724
2720.524693,2451.505594,-0.000000,10140.821405
2720.525022,3370.820191,1332.370696,9474.636058
2720.525351,3907.087040,444.123565,9252.574275
2720.525680,4366.744339,1110.308913,8586.388927
2720.526009,5745.716235,1406.391290,8216.285956
2720.526338,5822.325785,1332.370696,8068.244768
2720.526663,5669.106685,1850.514855,7328.038826
2720.526992,4213.525239,-0.000000,7994.224174
2720.527322,4060.306139,888.247130,6809.894666
2720.527651,4673.182538,1628.453072,7624.121203
2720.527980,2681.334243,-148.041188,8808.450710
2720.528309,1302.362347,-2072.576638,10584.944971
2720.528638,229.828649,-2516.700203,10658.965565
2720.528968,1225.752797,-3034.844362,11103.089130
2720.529297,689.485948,-1480.411884,9992.780217
2720.529626,76.609550,-1480.411884,11177.109724
2720.529955,1149.143247,-740.205942,11769.274478
2720.530284,2987.772442,1110.308913,9622.677246
2720.530614,6128.763984,1998.556043,8512.368333
2720.530943,7967.393179,1628.453072,7994.224174
2720.531272,5669.106685,740.205942,9326.594869
2720.531601,5056.230287,444.123565,7920.203579
2720.531931,5209.449386,1628.453072,6661.853478
2720.532260,6588.421283,148.041188,7846.182985
2720.532589,5515.887586,1702.473667,7402.059420
2720.532918,5515.887586,1554.432478,8216.285956
2720.533247,4290.134789,370.102971,7772.162391
2720.533577,5822.325785,-888.247130,8290.306550
2720.533906,3217.601092,-2368.659014,10362.883188
2720.534235,1685.410096,-2146.597232,11399.171507
2720.534564,229.828649,814.226536,10140.821405
2720.534894,766.095498,-2442.679609,11473.192101
2720.535223,1915.238745,-2664.741391,9622.677246
2720.535552,1838.629195,1332.370696,11843.295072
2720.535881,3370.820191,-1036.288319,10362.883188
2720.536210,3064.381992,1776.494261,6217.729913
2720.536540,4519.963438,2294.638420,8512.368333
2720.536869,4903.011187,962.267725,7772.162391
2720.537198,5132.839837,1184.329507,7254.018232
2720.537527,3217.601092,-1036.288319,7846.182985
2720.537856,2834.553343,-148.041188,7846.182985
2720.538186,2987.772442,-962.267725,9548.656652
2720.538515,2221.676944,-1628.453072,8734.430116
2720.538844,0.000000,-222.061783,8956.491898
2720.539173,153.219100,-1850.514855,11103.089130
2720.539503,0.000000,-2072.576638,8956.491898
2720.539832,1149.143247,222.061783,9326.594869
2720.540161,2451.505594,-1554.432478,10881.027347
2720.540490,2298.286494,-814.226536,9030.512492
2720.540819,3064.381992,296.082377,9030.512492
2720.541149,3447.429741,222.061783,8142.265362
2720.541478,3753.867940,1036.288319,7550.100608
2720.541807,4903.011187,1628.453072,7105.977043
2720.542136,4979.620737,1480.411884,6735.874072
2720.542466,4903.011187,1036.288319,8734.430116
2720.542795,4673.182538,-0.000000,8364.327145
2720.543124,2528.115143,-0.000000,7179.997637
2720.543453,229.828649,148.041188,9548.656652
2720.543782,-306.438199,-888.247130,9918.759623
2720.544112,-1225.752797,-1184.329507,9696.697840
2720.544441,-1762.019645,-2072.576638,10881.027347
2720.544770,-1838.629195,-1554.432478,10955.047942
2720.545099,-1072.533697,-0.000000,8956.491898
2720.545428,-1608.800546,-1332.370696,10214.842000
2720.545758,-1762.019645,-74.020594,10584.944971
2720.546087,-229.828649,-74.020594,9622.677246
2720.546416,-842.705048,-592.164754,8438.347739
2720.546745,-383.047749,-296.082377,9474.636058
2720.547075,842.705048,-666.185348,10362.883188
2720.547404,1072.533697,-222.061783,8290.306550
2720.547733,1149.143247,518.144159,8290.306550
2720.548062,1072.533697,1110.308913,8364.327145
2720.548391,842.705048,1184.329507,7994.224174
2720.548721,919.314598,-0.000000,8290.306550
2720.549050,842.705048,-296.082377,9622.677246
2720.549379,306.438199,-814.226536,10140.821405
2720.549708,-459.657299,-2220.617826,9696.697840
2720.550037,-1149.143247,-1702.473667,10140.821405
2720.550367,-1378.971896,-0.000000,10658.965565
2720.550696,-383.047749,-1110.308913,9400.615463
2720.551025,0.000000,-222.061783,7772.162391
2720.551354,766.095498,-296.082377,10362.883188
2720.551684,1915.238745,-296.082377,8882.471304
2720.552013,2451.505594,-296.082377,8142.265362
2720.552342,2298.286494,-0.000000,8364.327145
2720.552671,2681.334243,1184.329507,9326.594869
2720.553000,2911.162892,222.061783,7698.141797
2720.553330,2987.772442,222.061783,7254.018232
2720.553659,3830.477490,592.164754,9400.615463
2720.553988,3217.601092,1110.308913,7402.059420
2720.554317,2604.724693,148.041188,7772.162391
2720.554647,1225.752797,222.061783,9474.636058
2720.554976,919.314598,592.164754,9030.512492
2720.555305,0.000000,-148.041188,8660.409521
2720.555634,-919.314598,-1258.350101,10288.862594
2720.555963,-1072.533697,-888.247130,10732.986159
2720.556293,-1455.581446,-1480.411884,8290.306550
2720.556622,-1302.362347,-1184.329507,10658.965565
2720.556951,-1838.629195,-888.247130,10732.986159
2720.557280,-1455.581446,-518.144159,9474.636058
2720.557609,-1225.752797,-518.144159,9548.656652
2720.557939,-612.876398,-444.123565,10140.821405
2720.558268,-459.657299,296.082377,9030.512492
2720.558597,612.876398,-148.041188,9400.615463
2720.558926,842.705048,-518.144159,10658.965565
2720.559256,766.095498,666.185348,8512.368333
2720.559585,1915.238745,740.205942,7476.080014
2720.559914,1225.752797,888.247130,7920.203579
2720.560243,1762.019645,962.267725,8512.368333
2720.560572,1149.143247,1036.288319,7698.141797
2720.560902,0.000000,-0.000000,8068.244768
2720.561231,-919.314598,148.041188,8882.471304
2720.561560,-995.924147,-1258.350101,8438.347739
2720.561889,-1762.019645,-1406.391290,10066.800811
2720.562219,-1608.800546,-1258.350101,10510.924376
2720.562548,-995.924147,-296.082377,9474.636058
2720.562877,-1302.362347,-74.020594,9770.718434
2720.563206,0.000000,518.144159,9918.759623
2720.563535,-229.828649,-74.020594,10510.924376
2720.563865,0.000000,-74.020594,9030.512492
2720.564194,459.657299,-740.205942,9548.656652
2720.564523,1302.362347,-222.061783,10288.862594
2720.564852,1225.752797,444.123565,7105.977043
2720.565181,2374.896044,962.267725,7254.018232
2720.565511,2221.676944,1332.370696,7105.977043
2720.565840,2451.505594,1924.535449,5995.668130
2720.566169,1838.629195,-0.000000,7698.141797
2720.566498,612.876398,-518.144159,8808.450710
2720.566828,229.828649,-1258.350101,9104.533087
2720.567157,-1685.410096,-1406.391290,8438.347739
2720.567486,-2298.286494,-1406.391290,10140.821405
2720.567815,-1302.362347,-1702.473667,10362.883188
2720.568144,-1302.362347,-814.226536,8808.450710
2720.568474,-1225.752797,-1776.494261,11029.068536
2720.568803,229.828649,-518.144159,10362.883188
2720.569132,-306.438199,74.020594,9326.594869
2720.569461,-766.095498,888.247130,7994.224174
2720.569790,-919.314598,370.102971,9992.780217
2720.570120,-689.485948,-666.185348,10140.821405
2720.570449,-153.219100,-148.041188,7328.038826
2720.570778,689.485948,-518.144159,9548.656652
2720.571107,612.876398,-1258.350101,7402.059420
2720.571437,995.924147,370.102971,7476.080014
2720.571766,459.657299,-814.226536,8882.471304
2720.572095,1455.581446,-74.020594,7920.203579
2720.572424,842.705048,-888.247130,9030.512492
2720.572753,842.705048,518.144159,9030.512492
2720.573083,1608.800546,-74.020594,9696.697840
2720.573412,1072.533697,-296.082377,8882.471304
2720.573741,612.876398,-0.000000,8956.491898
2720.574070,1072.533697,148.041188,9474.636058
2720.574400,1455.581446,-74.020594,9178.553681
2720.574729,995.924147,-74.020594,8882.471304
2720.575058,995.924147,-962.267725,11843.295072
2720.575387,689.485948,-370.102971,8660.409521
2720.575716,842.705048,-74.020594,8142.265362
2720.576046,766.095498,-962.267725,9696.697840
2720.576375,766.095498,740.205942,8882.471304
2720.576704,1991.848295,-296.082377,9104.533087
2720.577033,1915.238745,-0.000000,8734.430116
2720.577362,2145.067394,370.102971,8956.491898
2720.577692,1991.848295,222.061783,8586.388927
2720.578021,1072.533697,370.102971,8142.265362
2720.578350,-536.266849,-0.000000,10288.862594
2720.578679,-306.438199,-518.144159,9918.759623
2720.579009,0.000000,-0.000000,9104.533087
2720.579338,-995.924147,-962.267725,10807.006753
2720.579667,-229.828649,-518.144159,9178.553681
2720.579996,-1302.362347,-1036.288319,9474.636058
2720.580325,-766.095498,-1036.288319,10436.903782
2720.580655,306.438199,592.164754,8586.388927
2720.580984,1149.143247,370.102971,8586.388927
2720.581313,306.438199,-740.205942,8882.471304
2720.581642,1608.800546,-74.020594,9030.512492
2720.581972,766.095498,962.267725,8068.244768
2720.582301,153.219100,666.185348,7920.203579
2720.582630,-306.438199,-0.000000,9548.656652
2720.582959,-842.705048,370.102971,8364.327145
2720.583288,-459.657299,-0.000000,8512.368333
2720.583618,0.000000,-1258.350101,10510.924376
2720.583947,-612.876398,-814.226536,9252.574275
2720.584276,-536.266849,-74.020594,9104.533087
2720.584605,-1149.143247,-888.247130,9474.636058
2720.584934,-383.047749,-0.000000,9474.636058
2720.585264,306.438199,-518.144159,8734.430116
2720.585593,612.876398,-814.226536,8882.471304
2720.585922,1225.752797,-74.020594,9178.553681
2720.586251,1378.971896,-0.000000,7105.977043
2720.586581,1455.581446,-0.000000,7105.977043
2720.586910,995.924147,148.041188,8068.244768
2720.587239,919.314598,222.061783,7550.100608
2720.587568,689.485948,-0.000000,8586.388927
2720.587897,459.657299,-74.020594,10436.903782
2720.588227,0.000000,-962.267725,9918.759623
2720.588556,-536.266849,-666.185348,9474.636058
2720.588885,-459.657299,-74.020594,9474.636058
2720.589214,-1149.143247,518.144159,10288.862594
2720.589543,-689.485948,-0.000000,9992.780217
2720.589873,-459.657299,222.061783,9400.615463
2720.590202,766.095498,-0.000000,11029.068536
2720.590531,0.000000,-592.164754,9104.533087
2720.590860,306.438199,148.041188,8290.306550
2720.591190,459.657299,-0.000000,9474.636058
2720.591519,995.924147,370.102971,8734.430116
2720.591848,536.266849,370.102971,8290.306550
2720.592177,306.438199,-222.061783,9030.512492
2720.592506,842.705048,-370.102971,9474.636058
2720.592836,306.438199,-1036.288319,8734.430116
2720.593165,0.000000,-592.164754,9252.574275
2720.593494,-383.047749,-296.082377,9770.718434
2720.593823,383.047749,-148.041188,9178.553681
2720.594153,0.000000,-740.205942,9474.636058
2720.594482,1225.752797,296.082377,10140.821405
2720.594811,1608.800546,148.041188,8142.265362
2720.595140,1072.533697,-74.020594,8512.368333
2720.595469,612.876398,-0.000000,8882.471304
2720.595799,612.876398,370.102971,9474.636058
2720.596128,229.828649,518.144159,7179.997637
2720.596457,1762.019645,-666.185348,8068.244768
2720.596786,229.828649,-740.205942,8216.285956
2720.597115,-383.047749,-962.267725,10288.862594
2720.597445,919.314598,-2442.679609,9770.718434
2720.597774,0.000000,-222.061783,7031.956449
2720.598103,1302.362347,-148.041188,7328.038826
2720.598432,1608.800546,370.102971,8586.388927
2720.598762,1838.629195,-0.000000,9696.697840
2720.599091,2374.896044,1184.329507,8068.244768
2720.599420,2374.896044,444.123565,7328.038826
2720.599749,0.000000,518.144159,8586.388927
2720.600078,919.314598,370.102971,8882.471304
2720.600408,-766.095498,-0.000000,8290.306550
2720.600737,-842.705048,-1480.411884,10066.800811
2720.601066,-1072.533697,-1406.391290,10807.006753
2720.601395,-1455.581446,-1332.370696,9326.594869
2720.601725,-2298.286494,-1406.391290,9844.739029
2720.602054,-2374.896044,-1036.288319,10436.903782
2720.602383,-1149.143247,-0.000000,8882.471304
2720.602712,-995.924147,-962.267725,9770.718434
2720.603041,-229.828649,-518.144159,10362.883188
2720.603371,-229.828649,888.247130,9104.533087
2720.603700,-536.266849,-814.226536,9622.677246
2720.604029,0.000000,1258.350101,8216.285956
2720.604358,689.485948,370.102971,8882.471304
2720.604687,995.924147,740.205942,7328.038826
2720.605017,1072.533697,1036.288319,9474.636058
2720.605346,766.095498,-0.000000,9400.615463
2720.605675,1072.533697,-0.000000,8068.244768
2720.606004,306.438199,-518.144159,9030.512492
2720.606334,-383.047749,-1036.288319,9548.656652
2720.606663,689.485948,-740.205942,9474.636058
2720.606992,459.657299,-1184.329507,9622.677246
2720.607321,919.314598,-74.020594,10066.800811
2720.607650,1378.971896,-0.000000,9400.615463
2720.607980,995.924147,222.061783,7698.141797
2720.608309,1302.362347,666.185348,9474.636058
2720.608638,766.095498,1406.391290,8660.409521
2720.608967,1455.581446,-0.000000,7846.182985
2720.609296,842.705048,888.247130,9104.533087
2720.609626,1225.752797,-296.082377,9104.533087
2720.609955,1072.533697,-814.226536,8512.368333
2720.610284,536.266849,-1332.370696,9622.677246
2720.610613,-306.438199,-0.000000,9252.574275
2720.610943,0.000000,-1554.432478,9844.739029
2720.611272,536.266849,-814.226536,8808.450710
2720.611601,842.705048,-148.041188,10510.924376
2720.611930,766.095498,222.061783,9474.636058
2720.612259,842.705048,296.082377,7698.141797
2720.612589,766.095498,370.102971,9178.553681
2720.612918,1072.533697,1924.535449,8216.285956
2720.613247,1762.019645,-370.102971,8068.244768
2720.613576,153.219100,-0.000000,9178.553681
2720.613906,842.705048,-1332.370696,10066.800811
2720.614235,0.000000,-740.205942,9030.512492
2720.614564,-153.219100,-592.164754,8586.388927
2720.614893,-536.266849,-592.164754,9770.718434
2720.615222,-536.266849,-666.185348,10066.800811
2720.615552,-459.657299,-888.247130,9326.594869
2720.615881,459.657299,-370.102971,9252.574275
2720.616210,689.485948,-444.123565,9178.553681
2720.616539,536.266849,444.123565,8364.327145
2720.616868,1072.533697,222.061783,8586.388927
2720.617198,1455.581446,888.247130,8586.388927
2720.617527,1149.143247,814.226536,6513.812290
2720.617856,1608.800546,-74.020594,9104.533087
2720.618185,995.924147,-444.123565,9326.594869
2720.618515,842.705048,-666.185348,7920.203579
2720.618844,995.924147,-1258.350101,7920.203579
2720.619173,0.000000,-888.247130,9548.656652
2720.619502,-229.828649,-1110.308913,9770.718434
2720.619831,153.219100,-814.226536,9178.553681
2720.620161,383.047749,-0.000000,9548.656652
2720.620490,1149.143247,-0.000000,10584.944971
2720.620819,766.095498,888.247130,7920.203579
2720.621148,0.000000,592.164754,9696.697840
2720.621478,689.485948,1850.514855,9474.636058
2720.621807,536.266849,888.247130,8068.244768
2720.622136,0.000000,-0.000000,9400.615463
2720.622465,689.485948,-444.123565,10214.842000
2720.622794,-229.828649,-592.164754,8808.450710
2720.623124,-1149.143247,-1998.556043,9400.615463
2720.623453,-1149.143247,-1036.288319,9400.615463
2720.623782,-459.657299,-1184.329507,9178.553681
2720.624111,-1532.190996,-1184.329507,8290.306550
2720.624440,-919.314598,-666.185348,9992.780217
2720.624770,-995.924147,-0.000000,9474.636058
2720.625099,229.828649,-74.020594,8882.471304
2720.625428,306.438199,-74.020594,8660.409521
2720.625757,-919.314598,1702.473667,9918.759623
2720.626086,536.266849,-740.205942,9326.594869
2720.626415,-1072.533697,740.205942,8068.244768
2720.626744,-229.828649,-296.082377,9474.636058
2720.627073,306.438199,-222.061783,9178.553681
2720.627402,-1378.971896,-1258.350101,8882.471304
2720.627731,-1225.752797,222.061783,9252.574275
2720.628061,229.828649,-518.144159,8364.327145
2720.628390,0.000000,-1110.308913,7846.182985
2720.628719,995.924147,-0.000000,8808.450710
2720.629048,1302.362347,444.123565,8808.450710
2720.629377,1378.971896,-0.000000,7920.203579
2720.629706,1302.362347,518.144159,9252.574275
2720.630035,766.095498,814.226536,8438.347739
2720.630364,76.609550,-0.000000,9252.574275
2720.630693,459.657299,-740.205942,8956.491898
2720.631022,306.438199,-0.000000,9992.780217
2720.631351,229.828649,-1110.308913,9474.636058
2720.631680,76.609550,-962.267725,7994.224174
2720.632009,76.609550,-592.164754,10066.800811
2720.632339,0.000000,-1332.370696,8882.471304
2720.632668,1149.143247,-222.061783,7846.182985
2720.632997,766.095498,-444.123565,9992.780217
2720.633326,1532.190996,666.185348,8956.491898
2720.633655,1378.971896,-148.041188,8808.450710
2720.633984,919.314598,1110.308913,7698.141797
2720.634313,1149.143247,518.144159,9770.718434
2720.634642,766.095498,-0.000000,9252.574275
2720.634971,-306.438199,370.102971,8660.409521
2720.635300,0.000000,-370.102971,11029.068536
2720.635629,76.609550,-740.205942,9548.656652
2720.635958,-612.876398,-814.226536,9474.636058
2720.636287,-536.266849,-1184.329507,9918.759623
2720.636616,-689.485948,-148.041188,9696.697840
2720.636946,153.219100,-1258.350101,9326.594869
2720.637275,0.000000,-592.164754,9326.594869
2720.637604,919.314598,370.102971,9622.677246
2720.637933,995.924147,592.164754,8290.306550
2720.638262,1072.533697,296.082377,8290.306550
2720.638591,995.924147,592.164754,8438.347739
2720.638920,1608.800546,740.205942,8142.265362
2720.639249,1149.143247,-296.082377,8364.327145
2720.639578,536.266849,-222.061783,9918.759623
2720.639907,919.314598,-0.000000,8734.430116
2720.640236,383.047749,-0.000000,8512.368333
2720.640565,76.609550,-888.247130,9918.759623
2720.640894,612.876398,296.082377,9474.636058
2720.641224,612.876398,-444.123565,8882.471304
2720.641553,229.828649,-740.205942,9474.636058
2720.641882,76.609550,-296.082377,9326.594869
2720.642211,536.266849,-0.000000,7476.080014
2720.642540,0.000000,-370.102971,8586.388927
2720.642869,766.095498,444.123565,8734.430116
2720.643198,383.047749,-0.000000,8290.306550
2720.643527,-689.485948,-444.123565,8586.388927
2720.643856,-306.438199,-666.185348,9474.636058
2720.644185,0.000000,-1184.329507,9178.553681
2720.644514,-842.705048,-740.205942,8512.368333
2720.644843,-1225.752797,-740.205942,10362.883188
2720.645172,-919.314598,-370.102971,10066.800811
2720.645501,0.000000,-1110.308913,8882.471304
2720.645831,229.828649,-74.020594,9622.677246
2720.646160,459.657299,148.041188,9696.697840
2720.646489,76.609550,222.061783,8660.409521
2720.646818,0.000000,-148.041188,9400.615463
2720.647147,229.828649,1184.329507,9326.594869
2720.647476,995.924147,222.061783,8882.471304
2720.647805,0.000000,-444.123565,8216.285956
2720.648134,0.000000,-444.123565,10288.862594
2720.648463,306.438199,-1406.391290,10214.842000
2720.648792,229.828649,-148.041188,8290.306550
2720.649121,0.000000,-666.185348,10584.944971
2720.649450,-459.657299,-0.000000,10732.986159
2720.649779,153.219100,-0.000000,8364.327145
2720.650109,612.876398,-666.185348,10288.862594
2720.650438,1149.143247,518.144159,10066.800811
2720.650767,1149.143247,444.123565,8512.368333
2720.651096,1455.581446,-0.000000,8512.368333
2720.651425,1225.752797,1258.350101,9178.553681
2720.651754,1302.362347,444.123565,8586.388927
2720.652083,995.924147,-370.102971,7254.018232
2720.652412,612.876398,-0.000000,9696.697840
2720.652741,842.705048,-888.247130,9252.574275
2720.653070,0.000000,-222.061783,7328.038826
2720.653399,-1149.143247,-1554.432478,9918.759623
2720.653728,536.266849,-0.000000,9622.677246
2720.654057,383.047749,-148.041188,8290.306550
2720.654386,383.047749,-370.102971,8438.347739
2720.654716,612.876398,296.082377,9696.697840
2720.655045,842.705048,222.061783,8734.430116
2720.655374,306.438199,148.041188,7402.059420
2720.655703,153.219100,-74.020594,9696.697840
2720.656032,-306.438199,-222.061783,8956.491898
2720.656361,-306.438199,-296.082377,9104.533087
2720.656690,0.000000,-740.205942,9918.759623
2720.657019,153.219100,-370.102971,9400.615463
2720.657348,229.828649,-888.247130,8734.430116
2720.657677,-153.219100,-74.020594,8734.430116
2720.658006,-153.219100,-444.123565,9918.759623
2720.658335,459.657299,-222.061783,8364.327145
2720.658664,612.876398,-0.000000,8734.430116
2720.658993,689.485948,-74.020594,10066.800811
2720.659323,612.876398,-0.000000,8808.450710
2720.659652,766.095498,-0.000000,8364.327145
2720.659981,459.657299,666.185348,9696.697840
2720.660310,383.047749,222.061783,9622.677246
2720.660639,1455.581446,-518.144159,8882.471304
2720.660968,766.095498,-444.123565,9178.553681
2720.661297,153.219100,-74.020594,10881.027347
2720.661626,1225.752797,-1480.411884,8290.306550
2720.661955,383.047749,148.041188,7328.038826
2720.662284,766.095498,-0.000000,9178.553681
2720.662613,1685.410096,-74.020594,9104.533087
2720.662942,1149.143247,-1110.308913,7476.080014
2720.663271,1608.800546,1332.370696,9622.677246
2720.663601,1225.752797,-518.144159,8956.491898
2720.663930,0.000000,-0.000000,7550.100608
2720.664259,612.876398,-370.102971,9992.780217
2720.664588,-229.828649,592.164754,8956.491898
2720.664917,-459.657299,-444.123565,8290.306550
2720.665246,-995.924147,-740.205942,9992.780217
2720.665575,0.000000,-518.144159,10658.965565
2720.665904,-383.047749,-1184.329507,8364.327145
2720.666233,-995.924147,-370.102971,8808.450710
2720.666562,306.438199,-814.226536,10807.006753
2720.666891,0.000000,222.061783,7698.141797
2720.667220,689.485948,296.082377,7994.224174
2720.667549,1149.143247,222.061783,9252.574275
2720.667878,1455.581446,-296.082377,7698.141797
2720.668208,459.657299,592.164754,7476.080014
2720.668537,153.219100,-0.000000,9400.615463
2720.668866,-919.314598,592.164754,8956.491898
2720.669195,-612.876398,-666.185348,8808.450710
2720.669524,-1072.533697,-666.185348,9844.739029
2720.669853,-1608.800546,-1036.288319,11177.109724
2720.670182,-1149.143247,-1036.288319,8956.491898
2720.670511,-1225.752797,-1184.329507,9400.615463
2720.670840,-612.876398,-370.102971,10510.924376
2720.671169,229.828649,-148.041188,8290.306550
2720.671498,842.705048,-444.123565,8512.368333
2720.671827,1302.362347,666.185348,9326.594869
2720.672156,919.314598,1332.370696,7772.162391
2720.672486,1838.629195,1258.350101,7402.059420
2720.672815,995.924147,962.267725,7994.224174
2720.673144,1072.533697,1554.432478,8882.471304
2720.673473,459.657299,-370.102971,7920.203579
2720.673802,0.000000,-1184.329507,9696.697840
2720.674131,76.609550,-592.164754,10881.027347
2720.674460,-153.219100,-740.205942,9030.512492
2720.674789,-842.705048,-1184.329507,10140.821405
2720.675118,-689.485948,-0.000000,11029.068536
2720.675447,229.828649,-0.000000,8216.285956
2720.675776,0.000000,222.061783,9474.636058
2720.676105,766.095498,444.123565,9326.594869
2720.676434,1225.752797,1110.308913,9104.533087
2720.676763,1378.971896,666.185348,8882.471304
2720.677093,1378.971896,-0.000000,8660.409521
2720.677422,-153.219100,518.144159,10140.821405
2720.677751,-995.924147,-370.102971,8882.471304
2720.678080,-1302.362347,-1258.350101,10066.800811
2720.678409,-995.924147,-1554.432478,10881.027347
2720.678738,-995.924147,-1628.453072,10140.821405
2720.679067,-1302.362347,-1480.411884,9918.759623
2720.679396,-612.876398,148.041188,11473.192101
2720.679725,689.485948,-962.267725,9474.636058
2720.680054,919.314598,444.123565,8142.265362
2720.680383,2374.896044,592.164754,9104.533087
2720.680712,2757.943793,962.267725,8216.285956
2720.681041,2528.115143,1480.411884,6883.915261
2720.681371,1378.971896,370.102971,8734.430116
2720.681700,1455.581446,814.226536,8882.471304
2720.682029,536.266849,-814.226536,8734.430116
2720.682358,306.438199,-1332.370696,8216.285956
2720.682687,153.219100,-2072.576638,9992.780217
2720.683016,0.000000,-2294.638420,9326.594869
2720.683345,536.266849,-1554.432478,8734.430116
2720.683674,766.095498,-1258.350101,9918.759623
2720.684003,306.438199,-74.020594,8438.347739
2720.684332,1838.629195,1036.288319,8216.285956
2720.684661,2681.334243,1406.391290,8882.471304
2720.684990,3064.381992,1924.535449,7846.182985
2720.685319,2374.896044,2146.597232,7105.977043
2720.685648,2451.505594,1110.308913,8142.265362
2720.685978,1225.752797,1110.308913,8734.430116
2720.686307,842.705048,370.102971,7846.182985
2720.686636,-306.438199,-888.247130,9696.697840
2720.686965,-612.876398,-2294.638420,11251.130318
2720.687294,-1378.971896,-1924.535449,8438.347739
2720.687623,-842.705048,-1110.308913,8808.450710
2720.687952,-1838.629195,-1850.514855,10881.027347
2720.688281,-766.095498,-444.123565,9844.739029
2720.688610,-306.438199,-1332.370696,8956.491898
2720.688939,842.705048,-370.102971,9326.594869
2720.689268,1608.800546,370.102971,8290.306550
2720.689597,2068.457845,1406.391290,7920.203579
2720.689926,1225.752797,296.082377,8142.265362
2720.690255,1302.362347,1480.411884,9474.636058
2720.690585,-229.828649,296.082377,8216.285956
2720.690914,0.000000,-222.061783,8956.491898
2720.691243,-536.266849,-1036.288319,10584.944971
2720.691572,-1302.362347,-1184.329507,10288.862594
2720.691901,-1762.019645,-1702.473667,9474.636058
2720.692230,-1302.362347,-1036.288319,10732.986159
2720.692559,-1532.190996,-444.123565,9474.636058
2720.692888,-459.657299,-1628.453072,10066.800811
2720.693217,0.000000,-0.000000,9326.594869
2720.693546,383.047749,148.041188,8734.430116
2720.693875,459.657299,296.082377,8364.327145
2720.694204,1225.752797,1036.288319,8956.491898
2720.694533,1302.362347,1850.514855,8956.491898
2720.694863,1149.143247,1332.370696,7328.038826
2720.695192,995.924147,-222.061783,8512.368333
2720.695521,153.219100,444.123565,9252.574275
2720.695850,689.485948,-1184.329507,9474.636058
2720.696179,0.000000,-0.000000,8364.327145
2720.696508,-919.314598,-1110.308913,9918.759623
2720.696837,-383.047749,-0.000000,9400.615463
2720.697166,-536.266849,-1110.308913,7624.121203
2720.697495,0.000000,-148.041188,9548.656652
2720.697824,153.219100,-0.000000,9622.677246
2720.698153,536.266849,444.123565,8216.285956
2720.698482,459.657299,296.082377,8734.430116
2720.698811,1149.143247,222.061783,9326.594869
2720.699140,-229.828649,370.102971,8586.388927
2720.699470,-76.609550,-222.061783,7994.224174
2720.699799,0.000000,-0.000000,10066.800811
2720.700128,-536.266849,-1184.329507,9400.615463
2720.700457,-766.095498,-888.247130,9104.533087
2720.700786,-229.828649,-2072.576638,10658.965565
2720.701115,0.000000,-888.247130,9252.574275
2720.701444,0.000000,-1406.391290,9400.615463
2720.701773,383.047749,-0.000000,8882.471304
2720.702102,1072.533697,296.082377,9696.697840
2720.702431,1685.410096,666.185348,8882.471304
2720.702760,1149.143247,370.102971,7846.182985
2720.703089,1378.971896,1850.514855,9622.677246
2720.703418,1302.362347,222.061783,7994.224174
2720.703748,383.047749,-0.000000,8586.388927
2720.704077,536.266849,-962.267725,10510.924376
2720.704406,766.095498,-74.020594,9696.697840
2720.704735,153.219100,-1628.453072,9030.512492
2720.705064,459.657299,-518.144159,9622.677246
2720.705393,1378.971896,518.144159,10066.800811
2720.705722,1685.410096,-0.000000,8216.285956
2720.706051,2145.067394,296.082377,9030.512492
2720.706380,2451.505594,1110.308913,8956.491898
2720.706709,2298.286494,1184.329507,7994.224174
2720.707038,1762.019645,1184.329507,7476.080014
2720.707367,995.924147,1406.391290,9474.636058
2720.707696,459.657299,148.041188,8438.347739
2720.708025,-153.219100,-814.226536,8956.491898
2720.708355,-1225.752797,-1554.432478,10658.965565
2720.708684,-919.314598,-592.164754,10140.821405
2720.709013,-995.924147,-1554.432478,8438.347739
2720.709342,-1455.581446,-592.164754,9622.677246
2720.709671,-1455.581446,-1036.288319,9548.656652
2720.710000,-536.266849,-1258.350101,8882.471304
2720.710329,919.314598,-1258.350101,9770.718434
2720.710658,612.876398,666.185348,8734.430116
2720.710987,995.924147,814.226536,7328.038826
2720.711316,383.047749,740.205942,7698.141797
2720.711645,536.266849,1702.473667,8808.450710
2720.711974,459.657299,740.205942,8882.471304
2720.712303,0.000000,-0.000000,8586.388927
2720.712633,-842.705048,-1110.308913,10955.047942
2720.712962,-842.705048,-1184.329507,10362.883188
2720.713291,-1532.190996,-1850.514855,9622.677246
2720.713620,-1685.410096,-1850.514855,10510.924376
2720.713949,-1149.143247,-518.144159,10214.842000
2720.714278,-536.266849,-740.205942,9178.553681
2720.714607,612.876398,-1702.473667,8882.471304
2720.714936,1991.848295,814.226536,8808.450710
2720.715265,2987.772442,740.205942,7328.038826
2720.715594,2221.676944,814.226536,5699.585753
2720.715923,2374.896044,1776.494261,7031.956449
2720.716252,2298.286494,2294.638420,7994.224174
2720.716581,1685.410096,740.205942,7772.162391
2720.716910,153.219100,-1036.288319,9400.615463
2720.717240,229.828649,-888.247130,10362.883188
2720.717569,-766.095498,-1184.329507,8882.471304
2720.717898,-1455.581446,-2368.659014,10214.842000
2720.718227,-842.705048,-592.164754,10066.800811
2720.718556,-1225.752797,-592.164754,9252.574275
2720.718885,76.609550,-2146.597232,10584.944971
2720.719214,1072.533697,-0.000000,9548.656652
2720.719543,1378.971896,296.082377,8364.327145
2720.719872,919.314598,-148.041188,7994.224174
2720.720201,2298.286494,1850.514855,9252.574275
2720.720530,1302.362347,962.267725,8216.285956
2720.720859,1762.019645,1850.514855,7698.141797
2720.721188,1302.362347,-444.123565,9548.656652
2720.721517,612.876398,-148.041188,9400.615463
2720.721847,306.438199,-1258.350101,9178.553681
2720.722176,-1302.362347,-1184.329507,9474.636058
2720.722505,-1302.362347,-1850.514855,9252.574275
2720.722834,-306.438199,-814.226536,10288.862594
2720.723163,-1072.533697,-1184.329507,9918.759623
2720.723492,153.219100,-0.000000,10436.903782
2720.723821,229.828649,-0.000000,9918.759623
2720.724150,766.095498,444.123565,8142.265362
2720.724479,1302.362347,1110.308913,8512.368333
2720.724808,1685.410096,1184.329507,8290.306550
2720.725137,1225.752797,814.226536,7402.059420
2720.725466,1149.143247,962.267725,9326.594869
2720.725795,1149.143247,-592.164754,9696.697840
2720.726125,459.657299,-444.123565,8438.347739
2720.726454,0.000000,-1184.329507,9844.739029
2720.726783,-306.438199,-1406.391290,10288.862594
2720.727112,-536.266849,-1110.308913,9030.512492
2720.727441,-306.438199,-666.185348,9400.615463
2720.727770,383.047749,-814.226536,10362.883188
2720.728099,1149.143247,444.123565,8364.327145
2720.728428,1915.238745,814.226536,7254.018232
2720.728758,1838.629195,444.123565,9696.697840
2720.729087,153.219100,1554.432478,7994.224174
2720.729416,459.657299,370.102971,8216.285956
2720.729745,229.828649,-74.020594,8438.347739
2720.730074,-383.047749,-740.205942,9918.759623
2720.730403,-689.485948,-370.102971,9326.594869
2720.730732,-1608.800546,-1258.350101,9178.553681
2720.731062,-1608.800546,-1702.473667,10140.821405
2720.731391,-766.095498,-814.226536,8512.368333
2720.731720,0.000000,-962.267725,9030.512492
2720.732049,-229.828649,-814.226536,10362.883188
2720.732378,536.266849,444.123565,8364.327145
2720.732707,306.438199,222.061783,7772.162391
2720.733037,919.314598,222.061783,9178.553681
2720.733366,306.438199,1258.350101,8068.244768
2720.733695,1225.752797,-444.123565,8364.327145
2720.734024,0.000000,-370.102971,9696.697840
2720.734353,-459.657299,-148.041188,10510.924376
2720.734682,0.000000,-1258.350101,9252.574275
2720.735011,-842.705048,-1480.411884,8956.491898
2720.735341,-842.705048,-740.205942,9918.759623
2720.735670,-536.266849,-962.267725,9696.697840
2720.735999,689.485948,-1110.308913,8808.450710
2720.736328,919.314598,296.082377,8734.430116
2720.736657,2068.457845,518.144159,8586.388927
2720.736986,1838.629195,814.226536,8438.347739
2720.737315,1838.629195,1998.556043,8438.347739
2720.737645,1838.629195,2220.617826,8512.368333
2720.737974,766.095498,888.247130,8956.491898
2720.738303,536.266849,-74.020594,9548.656652
2720.738632,1378.971896,-296.082377,10066.800811
2720.738961,919.314598,-1184.329507,9030.512492
2720.739290,-229.828649,-444.123565,8956.491898
2720.739620,-383.047749,-1036.288319,10288.862594
2720.739949,76.609550,296.082377,9918.759623
2720.740278,842.705048,-222.061783,8956.491898
2720.740607,995.924147,-1110.308913,9474.636058
2720.740936,612.876398,-222.061783,10066.800811
2720.741265,2604.724693,-148.041188,8364.327145
2720.741594,689.485948,888.247130,7328.038826
2720.741924,1225.752797,1332.370696,8882.471304
2720.742253,1225.752797,-0.000000,7920.203579
2720.742582,995.924147,518.144159,8364.327145
2720.742911,842.705048,-518.144159,10658.965565
2720.743240,0.000000,-1332.370696,8512.368333
2720.743569,-1225.752797,-1628.453072,9474.636058
2720.743899,-536.266849,-1480.411884,10436.903782
2720.744228,-1302.362347,-1036.288319,9622.677246
2720.744557,-766.095498,-1332.370696,9252.574275
2720.744886,153.219100,-1702.473667,10214.842000
2720.745215,229.828649,-370.102971,9178.553681
2720.745544,536.266849,-444.123565,8216.285956
2720.745873,689.485948,370.102971,8438.347739
2720.746203,766.095498,962.267725,8808.450710
2720.746532,1072.533697,666.185348,8586.388927
2720.746861,1072.533697,-0.000000,7772.162391
2720.747190,612.876398,-0.000000,8808.450710
2720.747519,1225.752797,-444.123565,9178.553681
2720.747848,689.485948,-222.061783,8142.265362
2720.748178,-153.219100,-1184.329507,9918.759623
2720.748507,306.438199,-0.000000,8882.471304
2720.748836,229.828649,-1036.288319,8734.430116
2720.749165,306.438199,592.164754,8956.491898
2720.749494,612.876398,-0.000000,9918.759623
2720.749823,0.000000,1332.370696,8808.450710
2720.750152,0.000000,296.082377,7920.203579
2720.750482,0.000000,370.102971,9252.574275
2720.750811,-919.314598,-0.000000,8290.306550
2720.751140,-612.876398,148.041188,9400.615463
2720.751469,-689.485948,-296.082377,9474.636058
2720.751798,-306.438199,-888.247130,9548.656652
2720.752127,-995.924147,-1184.329507,8438.347739
2720.752457,-1072.533697,-1110.308913,10584.944971
2720.752786,-1072.533697,-592.164754,10288.862594
2720.753115,-1149.143247,-1110.308913,8290.306550
2720.753444,0.000000,-740.205942,9918.759623
2720.753773,536.266849,-222.061783,9548.656652
2720.754102,1072.533697,-0.000000,7994.224174
2720.754431,459.657299,-0.000000,8956.491898
2720.754761,0.000000,518.144159,9400.615463
2720.755090,229.828649,296.082377,8882.471304
2720.755419,612.876398,222.061783,8660.409521
2720.755748,306.438199,-518.144159,9474.636058
2720.756077,153.219100,-444.123565,9474.636058
2720.756406,-229.828649,-814.226536,8882.471304
2720.756736,0.000000,-814.226536,9696.697840
2720.757065,459.657299,-666.185348,9178.553681
2720.757394,1149.143247,-296.082377,9622.677246
2720.757723,1072.533697,-814.226536,10214.842000
2720.758052,1685.410096,1036.288319,9400.615463
2720.758381,1991.848295,518.144159,7920.203579
2720.758710,2451.505594,592.164754,8512.368333
2720.759040,2451.505594,888.247130,8956.491898
2720.759369,2068.457845,814.226536,8586.388927
2720.759698,2145.067394,-222.061783,9252.574275
2720.760027,1762.019645,296.082377,9400.615463
2720.760356,1838.629195,-0.000000,9474.636058
2720.760685,612.876398,-592.164754,9030.512492
2720.761015,153.219100,-518.144159,9474.636058
2720.761344,842.705048,-296.082377,9918.759623
2720.761673,0.000000,-0.000000,7476.080014
2720.762002,842.705048,-888.247130,9548.656652
2720.762331,459.657299,666.185348,9548.656652
2720.762660,306.438199,-0.000000,8290.306550
2720.762989,229.828649,-444.123565,8882.471304
2720.763319,-689.485948,-0.000000,8142.265362
2720.763648,-536.266849,-148.041188,9252.574275
2720.763977,-1225.752797,-1036.288319,9030.512492
2720.764306,-995.924147,-1332.370696,11325.150913
2720.764635,-383.047749,-1554.432478,10362.883188
2720.764964,-766.095498,-74.020594,7105.977043
2720.765294,0.000000,-148.041188,8882.471304
2720.765623,306.438199,1258.350101,9104.533087
2720.765952,536.266849,1184.329507,6883.915261
2720.766281,306.438199,444.123565,9326.594869
2720.766610,1455.581446,740.205942,9548.656652
2720.766939,0.000000,-0.000000,8808.450710
2720.767268,-689.485948,-0.000000,7846.182985
2720.767598,-766.095498,-888.247130,9474.636058
2720.767927,-1838.629195,-1406.391290,9992.780217
2720.768256,-1608.800546,-1850.514855,10140.821405
2720.768585,-689.485948,-1184.329507,10510.924376
2720.768914,-1149.143247,-1184.329507,10584.944971
2720.769243,-229.828649,-0.000000,9030.512492
2720.769573,459.657299,-1480.411884,9474.636058
2720.769902,383.047749,296.082377,9030.512492
2720.770231,1608.800546,-0.000000,7624.121203
2720.770560,1915.238745,222.061783,7846.182985
2720.770889,2068.457845,1554.432478,8882.471304
2720.771218,2604.724693,962.267725,7846.182985
2720.771547,1302.362347,-0.000000,7846.182985
2720.771877,766.095498,740.205942,8956.491898
2720.772206,383.047749,592.164754,8660.409521
2720.772535,-612.876398,370.102971,8586.388927
2720.772864,-153.219100,-2294.638420,10807.006753
2720.773193,-153.219100,-1702.473667,10658.965565
2720.773522,-2221.676944,-888.247130,9622.677246
2720.773852,-1225.752797,-2812.782580,10140.821405
2720.774181,-536.266849,-592.164754,9770.718434
2720.774510,-383.047749,296.082377,8512.368333
2720.774839,1225.752797,-0.000000,9622.677246
2720.775168,1378.971896,-592.164754,8882.471304
2720.775497,1762.019645,666.185348,8216.285956
2720.775826,2145.067394,370.102971,7550.100608
2720.776156,766.095498,1924.535449,8882.471304
2720.776485,306.438199,222.061783,9104.533087
2720.776814,459.657299,-74.020594,8882.471304
2720.777143,689.485948,-444.123565,9696.697840
2720.777472,-153.219100,-1110.308913,9918.759623
2720.777801,-229.828649,-1110.308913,9474.636058
2720.778131,-229.828649,-814.226536,10214.842000
2720.778460,0.000000,-0.000000,9178.553681
2720.778789,612.876398,-222.061783,9252.574275
2720.779118,842.705048,-296.082377,9252.574275
2720.779447,1991.848295,370.102971,9622.677246
2720.779776,2451.505594,666.185348,8734.430116
2720.780105,2298.286494,740.205942,7402.059420
2720.780435,1762.019645,1702.473667,8734.430116
2720.780764,1225.752797,666.185348,9992.780217
2720.781093,1762.019645,222.061783,8586.388927
2720.781422,612.876398,-0.000000,9252.574275
2720.781751,1225.752797,370.102971,9548.656652
2720.782080,612.876398,-296.082377,8660.409521
2720.782410,153.219100,-0.000000,9400.615463
2720.782739,0.000000,-740.205942,10140.821405
2720.783068,-306.438199,-370.102971,9030.512492
2720.783397,76.609550,-814.226536,9178.553681
2720.783726,612.876398,-0.000000,9400.615463
2720.784055,919.314598,370.102971,7772.162391
2720.784384,0.000000,-74.020594,8512.368333
2720.784714,-306.438199,592.164754,8660.409521
2720.785043,-536.266849,-222.061783,9474.636058
2720.785372,-919.314598,-740.205942,8734.430116
2720.785701,-842.705048,-1110.308913,9770.718434
2720.786030,-1378.971896,-1850.514855,10584.944971
2720.786359,-1762.019645,-1332.370696,8216.285956
2720.786688,-612.876398,-1258.350101,9252.574275
2720.787018,-995.924147,-1184.329507,9548.656652
2720.787347,-766.095498,-1110.308913,8808.450710
2720.787676,459.657299,-1184.329507,8216.285956
2720.788005,995.924147,-222.061783,9104.533087
2720.788334,689.485948,-0.000000,7846.182985
2720.788663,1302.362347,-0.000000,7846.182985
2720.788993,306.438199,-74.020594,8068.244768
2720.789322,0.000000,518.144159,8438.347739
2720.789651,306.438199,-740.205942,7772.162391
2720.789980,-383.047749,-1110.308913,9326.594869
2720.790309,-612.876398,-1110.308913,10066.800811
2720.790638,-229.828649,-1184.329507,8882.471304
2720.790967,-383.047749,-444.123565,8512.368333
2720.791297,0.000000,-666.185348,10066.800811
2720.791626,459.657299,666.185348,8882.471304
2720.791955,536.266849,-444.123565,9178.553681
2720.792284,1685.410096,740.205942,8882.471304
2720.792613,2145.067394,888.247130,8142.265362
2720.792942,1608.800546,1258.350101,8068.244768
2720.793272,689.485948,370.102971,10066.800811
2720.793601,0.000000,1332.370696,9030.512492
2720.793930,919.314598,296.082377,8290.306550
2720.794259,76.609550,-962.267725,10288.862594
2720.794588,-306.438199,-0.000000,10584.944971
2720.794917,0.000000,-1628.453072,11177.109724
2720.795246,-306.438199,-518.144159,8956.491898
2720.795576,306.438199,-0.000000,9770.718434
2720.795905,1149.143247,-0.000000,9992.780217
2720.796234,536.266849,148.041188,7698.141797
2720.796563,1378.971896,296.082377,10732.986159
2720.796892,2068.457845,740.205942,8808.450710
2720.797221,1302.362347,370.102971,7105.977043
2720.797551,842.705048,370.102971,10140.821405
2720.797880,306.438199,814.226536,8364.327145
2720.798209,536.266849,-0.000000,8290.306550
2720.798538,76.609550,-444.123565,8956.491898
2720.798867,229.828649,-592.164754,9918.759623
2720.799196,-766.095498,-2220.617826,10362.883188
2720.799525,-1149.143247,-1406.391290,8512.368333
2720.799855,-612.876398,-518.144159,9844.739029
2720.800184,153.219100,-0.000000,8290.306550
2720.800513,229.828649,-962.267725,8068.244768
2720.800842,536.266849,592.164754,10584.944971
2720.801171,1838.629195,444.123565,8438.347739
2720.801500,1762.019645,740.205942,7179.997637
2720.801830,459.657299,1184.329507,9178.553681
2720.802159,612.876398,1184.329507,8808.450710
2720.802488,0.000000,740.205942,7846.182985
2720.802817,-306.438199,444.123565,8438.347739
2720.803146,-842.705048,-740.205942,10066.800811
2720.803475,-1991.848295,-666.185348,9400.615463
2720.803804,-2757.943793,-1258.350101,7920.203579
2720.804134,-3217.601092,-814.226536,10510.924376
2720.804463,-3217.601092,-888.247130,8142.265362
2720.804792,-2834.553343,-1258.350101,8734.430116
2720.805121,-2911.162892,-444.123565,9696.697840
2720.805450,-2528.115143,-222.061783,9400.615463
2720.805779,-3217.601092,-518.144159,8882.471304
2720.806109,-3524.039291,-222.061783,9844.739029
2720.806438,-3370.820191,-0.000000,9030.512492
2720.806767,-3753.867940,-0.000000,8364.327145
2720.807096,-3524.039291,-666.185348,8808.450710
2720.807425,-3064.381992,-740.205942,10066.800811
2720.807754,-2987.772442,-814.226536,8364.327145
2720.808083,-3064.381992,-888.247130,8216.285956
2720.808413,-3983.696590,-1406.391290,9622.677246
2720.808742,-3830.477490,-0.000000,9252.574275
2720.809071,-2987.772442,-2146.597232,8068.244768
2720.809400,-3524.039291,-0.000000,8956.491898
2720.809729,-2987.772442,-1258.350101,9474.636058
2720.810058,-2221.676944,-0.000000,8734.430116
2720.810388,-2451.505594,-1184.329507,8290.306550
2720.810717,-2451.505594,-296.082377,10066.800811
2720.811046,-2374.896044,-518.144159,9474.636058
2720.811375,-1838.629195,370.102971,8512.368333
2720.811704,-1762.019645,518.144159,8512.368333
2720.812033,-1225.752797,-0.000000,9474.636058
2720.812362,-842.705048,-518.144159,9178.553681
2720.812692,-459.657299,-296.082377,8956.491898
2720.813021,-1149.143247,148.041188,8882.471304
2720.813350,-1915.238745,296.082377,8808.450710
2720.813679,-689.485948,888.247130,8290.306550
2720.814008,-536.266849,592.164754,8512.368333
2720.814337,-995.924147,370.102971,9326.594869
2720.814667,-1378.971896,-148.041188,8734.430116
2720.814996,-1838.629195,148.041188,8808.450710
2720.815325,-3370.820191,-0.000000,9474.636058
2720.815654,-3370.820191,-74.020594,9992.780217
2720.815983,-3370.820191,-666.185348,9474.636058
2720.816312,-3370.820191,222.061783,9326.594869
2720.816641,-3600.648841,-444.123565,9178.553681
2720.816971,-3753.867940,-1406.391290,9992.780217
2720.817300,-3830.477490,-1628.453072,9548.656652
2720.817629,-3294.210641,-296.082377,10214.842000
2720.817958,-3140.991542,-370.102971,9992.780217
2720.818287,-3600.648841,-296.082377,9030.512492
2720.818616,-2451.505594,-0.000000,9474.636058
2720.818946,-1149.143247,1184.329507,8512.368333
2720.819275,-1072.533697,518.144159,7328.038826
2720.819604,-1991.848295,-148.041188,8956.491898
2720.819933,-2834.553343,222.061783,9548.656652
2720.820262,-2757.943793,814.226536,9104.533087
2720.820591,-1685.410096,148.041188,6661.853478
2720.820920,-2298.286494,-666.185348,8290.306550
2720.821250,-3064.381992,-148.041188,9326.594869
2720.821579,-2757.943793,-0.000000,8808.450710
2720.821908,-2374.896044,-518.144159,8364.327145
2720.822237,-2604.724693,-888.247130,8068.244768
2720.822566,-4519.963438,-1554.432478,10288.862594
2720.822895,-4290.134789,-2368.659014,10584.944971
2720.823225,-4060.306139,-222.061783,9622.677246
2720.823554,-2604.724693,-666.185348,9696.697840
2720.823883,-2911.162892,-0.000000,8956.491898
2720.824212,-2987.772442,296.082377,10732.986159
2720.824541,-2298.286494,740.205942,9326.594869
2720.824870,-1532.190996,740.205942,8364.327145
2720.825199,-1378.971896,-148.041188,8216.285956
2720.825529,-1991.848295,-0.000000,8142.265362
2720.825858,-2757.943793,-1110.308913,9400.615463
2720.826187,-2911.162892,-222.061783,8586.388927
2720.826516,-2298.286494,-444.123565,8438.347739
2720.826845,-2145.067394,-296.082377,8734.430116
2720.827174,-2681.334243,-666.185348,8808.450710
2720.827503,-2757.943793,-888.247130,9474.636058
2720.827832,-2757.943793,-740.205942,9474.636058
2720.828161,-2298.286494,-74.020594,9178.553681
2720.828490,-2604.724693,-296.082377,9400.615463
2720.828819,-2374.896044,-1036.288319,10140.821405
2720.829148,-2681.334243,-1184.329507,10362.883188
2720.829477,-1991.848295,-296.082377,9104.533087
2720.829806,-1532.190996,296.082377,8512.368333
2720.830135,-1149.143247,740.205942,8364.327145
2720.830464,-1608.800546,-0.000000,8586.388927
2720.830793,-1762.019645,-666.185348,8512.368333
2720.831122,-1608.800546,-1258.350101,8586.388927
2720.831451,-1762.019645,222.061783,7846.182985
2720.831780,-1685.410096,444.123565,7994.224174
2720.832109,-1838.629195,370.102971,8216.285956
2720.832438,-2528.115143,-1258.350101,9252.574275
2720.832767,-2604.724693,-1628.453072,9474.636058
2720.833096,-2987.772442,-222.061783,9178.553681
2720.833425,-3447.429741,666.185348,8290.306550
2720.833754,-3370.820191,1110.308913,9178.553681
2720.834083,-3677.258390,222.061783,9178.553681
2720.834412,-4060.306139,-518.144159,9696.697840
2720.834741,-4519.963438,-148.041188,10066.800811
2720.835070,-4826.401637,-370.102971,9844.739029
2720.835399,-4136.915689,-1110.308913,9548.656652
2720.835728,-3983.696590,-1554.432478,9474.636058
2720.836057,-3600.648841,-1924.535449,9918.759623
2720.836386,-2987.772442,-1702.473667,9326.594869
2720.836715,-2451.505594,-296.082377,8808.450710
2720.837044,-1762.019645,370.102971,8364.327145
2720.837373,-1455.581446,1480.411884,8290.306550
2720.837702,-1838.629195,-0.000000,9252.574275
2720.838031,-1838.629195,888.247130,8808.450710
2720.838360,-1915.238745,444.123565,8956.491898
2720.838689,-2757.943793,296.082377,9474.636058
2720.839018,-1455.581446,-0.000000,9474.636058
2720.839347,-1608.800546,296.082377,9178.553681
2720.839676,-2068.457845,-0.000000,8808.450710
2720.840005,-1991.848295,296.082377,8882.471304
2720.840334,-1685.410096,-0.000000,9104.533087
2720.840663,-1608.800546,222.061783,8216.285956
2720.840992,-1378.971896,-592.164754,7846.182985
2720.841321,-2068.457845,-888.247130,9178.553681
2720.841650,-2681.334243,-1036.288319,8956.491898
2720.841979,-3294.210641,-888.247130,9104.533087
2720.842308,-3677.258390,-444.123565,9104.533087
2720.842637,-3983.696590,-370.102971,9178.553681
2720.842966,-4366.744339,-666.185348,9918.759623
2720.843295,-4903.011187,-518.144159,10214.842000
2720.843624,-5209.449386,-1110.308913,10362.883188
2720.843954,-4519.963438,-1628.453072,10214.842000
2720.844283,-3294.210641,-1702.473667,9844.739029
2720.844612,-2221.676944,-1628.453072,9474.636058
2720.844941,-536.266849,-1036.288319,8290.306550
2720.845270,-1225.752797,296.082377,7402.059420
2720.845599,-383.047749,-740.205942,9992.780217
2720.845928,1072.533697,1258.350101,5995.668130
2720.846257,2528.115143,2960.823768,5625.565159
2720.846586,1225.752797,2146.597232,5847.626942
2720.846915,-536.266849,1924.535449,6957.935855
2720.847244,-1762.019645,-444.123565,9918.759623
2720.847573,-4366.744339,-370.102971,8956.491898
2720.847902,-3753.867940,-2368.659014,11251.130318
2720.848231,-6665.030833,-1554.432478,9474.636058
2720.848560,-6665.030833,-2294.638420,10955.047942
2720.848889,-8273.831378,-3256.906145,12583.501014
2720.849218,-6894.859482,-1628.453072,11843.295072
2720.849547,-5362.668486,-1850.514855,11399.171507
2720.849876,-3140.991542,-444.123565,9474.636058
2720.850205,-1302.362347,2072.576638,8512.368333
2720.850534,-383.047749,1776.494261,5551.544565
2720.850863,536.266849,-74.020594,10214.842000
2720.851192,2451.505594,1554.432478,7254.018232
2720.851521,5439.278036,3330.926739,5255.462188
2720.851850,4826.401637,2442.679609,4737.318029
2720.852179,1378.971896,2516.700203,5625.565159
2720.852508,995.924147,444.123565,10955.047942
2720.852837,-2987.772442,-444.123565,8882.471304
2720.853166,-2068.457845,-1998.556043,10881.027347
2720.853495,-3600.648841,-2220.617826,11769.274478
2720.853824,-6052.154434,-222.061783,7624.121203
2720.854153,-7277.907231,-3701.029710,13175.665768
2720.854482,-7584.345430,-1480.411884,10584.944971
2720.854811,-4903.011187,-2590.720797,11843.295072
2720.855140,-4826.401637,-2368.659014,9548.656652
2720.855469,-3064.381992,444.123565,8364.327145
2720.855798,-2451.505594,-1258.350101,8512.368333
2720.856127,-2451.505594,-666.185348,6957.935855
2720.856456,-2451.505594,962.267725,8882.471304
2720.856785,-1532.190996,-1998.556043,10214.842000
2720.857114,-1378.971896,-74.020594,8512.368333
2720.857443,-1915.238745,296.082377,9474.636058
2720.857772,-2834.553343,370.102971,9030.512492
2720.858101,-3064.381992,-0.000000,9030.512492
2720.858430,-2528.115143,222.061783,9548.656652
2720.858759,-1991.848295,2146.597232,9178.553681
2720.859088,-2451.505594,1258.350101,9030.512492
2720.859417,-1915.238745,1406.391290,7994.224174
2720.859746,-2757.943793,962.267725,7550.100608
2720.860075,-2987.772442,1480.411884,8734.430116
2720.860404,-2221.676944,-0.000000,7179.997637
2720.860733,-1838.629195,296.082377,7624.121203
2720.861062,-2298.286494,-222.061783,8586.388927
2720.861391,-3294.210641,666.185348,7846.182985
2720.861720,-2834.553343,-0.000000,9400.615463
2720.862049,-3294.210641,-0.000000,8808.450710
2720.862378,-3217.601092,1998.556043,9252.574275
2720.862707,-3217.601092,1554.432478,9770.718434
2720.863036,-3294.210641,1406.391290,10214.842000
2720.863365,-3524.039291,1406.391290,10288.862594
2720.863694,-3677.258390,518.144159,10881.027347
2720.864023,-2374.896044,148.041188,10658.965565
2720.864352,-689.485948,222.061783,9844.739029
2720.864681,-689.485948,222.061783,9400.615463
2720.865010,-1072.533697,1702.473667,8364.327145
2720.865339,-842.705048,-370.102971,11473.192101
2720.865668,919.314598,1628.453072,8734.430116
2720.865997,3217.601092,3478.967927,6513.812290
2720.866326,3983.696590,3478.967927,6439.791695
2720.866655,3447.429741,4367.215058,5699.585753
2720.866984,3064.381992,4441.235652,8956.491898
2720.867314,2145.067394,4219.173869,7402.059420
2720.867643,1915.238745,4145.153275,9104.533087
2720.867972,306.438199,2146.597232,9918.759623
2720.868301,-1302.362347,2590.720797,10362.883188
2720.868630,-2757.943793,444.123565,12435.459826
2720.868959,-2298.286494,1628.453072,10658.965565
2720.869288,-1608.800546,888.247130,10881.027347
2720.869617,-995.924147,1332.370696,10658.965565
2720.869946,1225.752797,2886.803174,9474.636058
2720.870275,1378.971896,2590.720797,7624.121203
2720.870604,2145.067394,2664.741391,7476.080014
2720.870933,3753.867940,5329.482782,6439.791695
2720.871262,3064.381992,4515.256246,6217.729913
2720.871591,2298.286494,5329.482782,7328.038826
2720.871920,1149.143247,4589.276840,7698.141797
2720.872249,-995.924147,2590.720797,9474.636058
2720.872578,-2987.772442,2146.597232,9548.656652
2720.872907,-4136.915689,296.082377,11769.274478
2720.873236,-3983.696590,888.247130,11843.295072
2720.873565,-3447.429741,3478.967927,9770.718434
2720.873894,-3447.429741,1554.432478,10732.986159
2720.874223,-3677.258390,1998.556043,10288.862594
2720.874552,-2374.896044,2664.741391,10881.027347
2720.874881,-1302.362347,2368.659014,9474.636058
2720.875210,-995.924147,3627.009116,7402.059420
2720.875539,-383.047749,2664.741391,8882.471304
2720.875868,-536.266849,2368.659014,10658.965565
2720.876197,1608.800546,2146.597232,8586.388927
2720.876526,3447.429741,4515.256246,6143.709319
2720.876855,4366.744339,4515.256246,5921.647536
2720.877184,2834.553343,5329.482782,6735.874072
2720.877513,3370.820191,6217.729913,9474.636058
2720.877842,1838.629195,7254.018232,7031.956449
2720.878171,1532.190996,4811.338623,7846.182985
2720.878500,153.219100,5033.400406,8882.471304
2720.878829,-459.657299,6069.688724,7105.977043
2720.879158,-1685.410096,1776.494261,10881.027347
2720.879487,-2834.553343,444.123565,11103.089130
2720.879816,-2068.457845,888.247130,10732.986159
2720.880145,-2757.943793,-1258.350101,11399.171507
2720.880474,-1838.629195,1850.514855,9770.718434
2720.880803,-689.485948,2738.761985,11621.233289
2720.881132,1608.800546,3034.844362,8808.450710
2720.881461,2451.505594,6217.729913,7846.182985
2720.881790,3370.820191,4071.132681,8068.244768
2720.882119,3753.867940,5181.441594,8438.347739
2720.882448,3294.210641,6217.729913,6661.853478
2720.882777,3370.820191,4515.256246,7254.018232
2720.883106,306.438199,3552.988522,7105.977043
2720.883435,919.314598,2442.679609,11103.089130
2720.883764,-2221.676944,-0.000000,12287.418637
2720.884093,-3370.820191,-296.082377,11547.212695
2720.884422,-3294.210641,740.205942,11917.315666
2720.884751,-2987.772442,-1184.329507,11251.130318
2720.885080,-2374.896044,2368.659014,9252.574275
2720.885409,-1532.190996,1258.350101,9548.656652
2720.885738,-1225.752797,3108.864956,8364.327145
2720.886067,1685.410096,666.185348,13545.768739
2720.886396,2834.553343,2146.597232,6513.812290
2720.886725,5362.668486,2590.720797,8364.327145
2720.887054,3753.867940,3034.844362,5477.523971
2720.887383,4366.744339,4145.153275,4737.318029
2720.887712,3217.601092,4219.173869,8882.471304
2720.888041,2604.724693,4663.297435,6513.812290
2720.888370,3064.381992,4737.318029,8438.347739
2720.888699,766.095498,3701.029710,6957.935855
2720.889028,-2681.334243,296.082377,8586.388927
2720.889357,-3600.648841,-4811.338623,14285.974681
2720.889686,-3524.039291,296.082377,11029.068536
2720.890015,-3830.477490,-2442.679609,11103.089130
2720.890344,-3447.429741,-0.000000,9622.677246
2720.890673,-2298.286494,3182.885551,10807.006753
2720.891003,229.828649,2590.720797,8512.368333
2720.891332,-153.219100,3923.091493,8068.244768
2720.891661,4136.915689,2368.659014,10288.862594
2720.891990,2757.943793,3478.967927,4441.235652
2720.892319,4596.572988,4219.173869,9622.677246
2720.892648,3064.381992,7179.997637,4441.235652
2720.892977,4903.011187,2516.700203,6587.832884
2720.893306,2298.286494,4737.318029,6291.750507
2720.893635,3140.991542,4367.215058,6365.771101
2720.893964,1685.410096,4219.173869,7920.203579
2720.894293,-995.924147,6291.750507,5847.626942
2720.894622,-3983.696590,-148.041188,10288.862594
2720.894951,-6205.373534,-3108.864956,14211.954086
2720.895280,-3753.867940,3256.906145,9548.656652
2720.895609,-3064.381992,-3330.926739,10214.842000
2720.895938,-3677.258390,-1184.329507,10955.047942
2720.896267,-1838.629195,4515.256246,13027.624579
2720.896596,-842.705048,2146.597232,7920.203579
2720.896925,-2757.943793,6069.688724,8142.265362
2720.897254,2374.896044,518.144159,14211.954086
2720.897583,3370.820191,4219.173869,6957.935855
2720.897912,4136.915689,5995.668130,8142.265362
2720.898241,3140.991542,3775.050304,4811.338623
2720.898570,3140.991542,5847.626942,6957.935855
2720.898899,842.705048,4663.297435,9844.739029
2720.899228,-383.047749,5921.647536,7105.977043
2720.899557,919.314598,6735.874072,12065.356855
2720.899886,-995.924147,4219.173869,7476.080014
2720.900215,-306.438199,3701.029710,8512.368333
2720.900544,-3370.820191,1628.453072,12139.377449
2720.900873,-2145.067394,-814.226536,12509.480420
2720.901202,-2451.505594,814.226536,10732.986159
2720.901531,-536.266849,-2960.823768,11029.068536
2720.901860,-2221.676944,3404.947333,7550.100608
2720.902189,536.266849,1702.473667,11843.295072
2720.902518,1762.019645,4367.215058,7846.182985
2720.902847,3217.601092,6883.915261,8290.306550
2720.903176,3370.820191,4885.359217,7402.059420
2720.903505,1762.019645,4293.194464,10584.944971
2720.903834,0.000000,5477.523971,9918.759623
2720.904163,689.485948,4293.194464,7031.956449
2720.904492,919.314598,3108.864956,8142.265362
2720.904821,1915.238745,1258.350101,10584.944971
2720.905150,0.000000,592.164754,11769.274478
2720.905479,-689.485948,1258.350101,10066.800811
2720.905808,-612.876398,1258.350101,9104.533087
2720.906137,612.876398,1702.473667,9844.739029
2720.906466,0.000000,5551.544565,7105.977043
2720.906795,-229.828649,4663.297435,8586.388927
2720.907124,-229.828649,3701.029710,8068.244768
2720.907453,1762.019645,3108.864956,7772.162391
2720.907782,3524.039291,4367.215058,7772.162391
2720.908111,2681.334243,4219.173869,7328.038826
2720.908440,536.266849,2442.679609,9178.553681
2720.908769,1149.143247,2590.720797,7550.100608
2720.909098,766.095498,2590.720797,8438.347739
2720.909427,0.000000,2220.617826,10881.027347
2720.909756,-766.095498,3108.864956,9474.636058
2720.910085,-2145.067394,3108.864956,10140.821405
2720.910414,-1762.019645,814.226536,10732.986159
2720.910743,-383.047749,1332.370696,10140.821405
2720.911072,-383.047749,-0.000000,10436.903782
2720.911401,-919.314598,2516.700203,9474.636058
2720.911730,995.924147,1554.432478,9400.615463
2720.912059,3064.381992,1332.370696,7550.100608
2720.912388,3064.381992,4145.153275,6883.915261
2720.912717,1072.533697,3997.112087,8142.265362
2720.913046,-842.705048,2442.679609,9104.533087
2720.913375,1685.410096,3478.967927,8512.368333
2720.913704,1532.190996,2072.576638,8364.327145
2720.914033,-306.438199,1924.535449,10140.821405
2720.914362,-1302.362347,1258.350101,10881.027347
2720.914692,-1149.143247,-1924.535449,12731.542202
2720.915021,-2604.724693,1480.411884,9474.636058
2720.915350,-2374.896044,1850.514855,10807.006753
2720.915679,-2451.505594,2294.638420,10584.944971
2720.916008,-919.314598,2738.761985,9400.615463
2720.916337,459.657299,2960.823768,7179.997637
2720.916666,689.485948,3775.050304,6883.915261
2720.916995,1225.752797,2368.659014,8290.306550
2720.917324,536.266849,2516.700203,7476.080014
2720.917653,689.485948,3182.885551,6883.915261
2720.917982,-229.828649,1628.453072,7772.162391
2720.918311,-459.657299,-0.000000,9696.697840
2720.918640,-689.485948,740.205942,10214.842000
2720.918969,-1072.533697,962.267725,10140.821405
2720.919298,-1072.533697,1924.535449,10881.027347
2720.919627,-229.828649,1776.494261,10807.006753
2720.919956,-689.485948,3034.844362,9548.656652
2720.920285,-766.095498,3923.091493,9474.636058
2720.920614,459.657299,2220.617826,9400.615463
2720.920943,2451.505594,1998.556043,8808.450710
2720.921272,2451.505594,4515.256246,7920.203579
2720.921601,2451.505594,1480.411884,8438.347739
2720.921930,1455.581446,962.267725,8364.327145
2720.922259,1838.629195,2220.617826,8216.285956
2720.922588,1302.362347,3923.091493,7105.977043
2720.922917,919.314598,2516.700203,7772.162391
2720.923246,1991.848295,2368.659014,9030.512492
2720.923575,2757.943793,1924.535449,9030.512492
2720.923904,842.705048,740.205942,11177.109724
2720.924233,1225.752797,-740.205942,10584.944971
2720.924562,306.438199,962.267725,10584.944971
2720.924891,-306.438199,2072.576638,11103.089130
2720.925220,-766.095498,1702.473667,9844.739029
2720.925549,919.314598,666.185348,10066.800811
2720.925878,153.219100,1850.514855,9104.533087
2720.926207,995.924147,1480.411884,8956.491898
2720.926536,459.657299,1554.432478,7402.059420
2720.926865,153.219100,1258.350101,8438.347739
2720.927194,-383.047749,740.205942,7105.977043
2720.927523,-842.705048,-370.102971,7846.182985
2720.927852,-1072.533697,-2368.659014,10288.862594
2720.928181,-1302.362347,-1776.494261,8734.430116
2720.928510,-689.485948,-666.185348,9696.697840
2720.928839,-842.705048,-1184.329507,9178.553681
2720.929169,-1762.019645,962.267725,9918.759623
2720.929498,-1455.581446,2072.576638,10288.862594
2720.929827,-153.219100,518.144159,8734.430116
2720.930156,536.266849,1332.370696,9030.512492
2720.930485,1072.533697,370.102971,8438.347739
2720.930814,2145.067394,-888.247130,8882.471304
2720.931143,919.314598,-74.020594,9400.615463
2720.931473,1225.752797,296.082377,7105.977043
2720.931802,919.314598,-296.082377,8142.265362
2720.932131,842.705048,444.123565,7698.141797
2720.932460,1685.410096,-0.000000,8142.265362
2720.932789,1378.971896,962.267725,8068.244768
2720.933118,1532.190996,-518.144159,8290.306550
2720.933447,536.266849,-370.102971,9178.553681
2720.933776,-1455.581446,-0.000000,9178.553681
2720.934106,0.000000,-814.226536,10732.986159
2720.934435,459.657299,-1554.432478,10436.903782
2720.934764,536.266849,-296.082377,9474.636058
2720.935093,1225.752797,370.102971,9252.574275
2720.935422,1762.019645,-0.000000,10066.800811
2720.935751,1608.800546,1776.494261,9104.533087
2720.936080,1302.362347,1554.432478,7698.141797
2720.936410,1378.971896,1036.288319,7994.224174
2720.936739,1149.143247,814.226536,9252.574275
2720.937068,1685.410096,-0.000000,8142.265362
2720.937397,1072.533697,-1776.494261,7920.203579
2720.937726,-459.657299,-1998.556043,9770.718434
2720.938055,-1149.143247,-2590.720797,9770.718434
2720.938384,-2068.457845,-2294.638420,9474.636058
2720.938714,-1991.848295,-1850.514855,9992.780217
2720.939043,-1685.410096,-1036.288319,9696.697840
2720.939372,-1532.190996,-962.267725,9696.697840
2720.939701,-766.095498,-518.144159,9918.759623
2720.940030,229.828649,-0.000000,10066.800811
2720.940359,153.219100,-74.020594,8512.368333
2720.940688,383.047749,-666.185348,8290.306550
2720.941017,766.095498,296.082377,9104.533087
2720.941347,919.314598,-0.000000,8734.430116
2720.941676,995.924147,-1406.391290,8660.409521
2720.942005,153.219100,-888.247130,9030.512492
2720.942334,153.219100,-1258.350101,9696.697840
2720.942663,0.000000,-666.185348,7846.182985
2720.942992,76.609550,-2368.659014,8808.450710
2720.943321,-383.047749,-962.267725,9696.697840
2720.943651,0.000000,-888.247130,9252.574275
2720.943980,-229.828649,-518.144159,9992.780217
2720.944309,153.219100,-296.082377,9326.594869
2720.944638,689.485948,1184.329507,8068.244768
2720.944967,1455.581446,444.123565,8882.471304
2720.945296,1149.143247,740.205942,9474.636058
2720.945625,1455.581446,-0.000000,8586.388927
2720.945954,1532.190996,296.082377,8216.285956
2720.946284,919.314598,148.041188,8216.285956
2720.946613,383.047749,-592.164754,9104.533087
2720.946942,306.438199,-0.000000,8364.327145
2720.947271,459.657299,-1702.473667,8216.285956
2720.947600,383.047749,-888.247130,9474.636058
2720.947929,229.828649,-814.226536,8956.491898
2720.948258,459.657299,-962.267725,9326.594869
2720.948588,612.876398,-0.000000,9326.594869
2720.948917,919.314598,962.267725,7698.141797
2720.949246,689.485948,-592.164754,8068.244768
2720.949575,1302.362347,-0.000000,9030.512492
2720.949904,1072.533697,592.164754,10140.821405
2720.950233,919.314598,592.164754,7846.182985
2720.950562,0.000000,-444.123565,9252.574275
2720.950891,-1149.143247,592.164754,9474.636058
2720.951221,-689.485948,-1406.391290,8734.430116
2720.951550,-995.924147,-1258.350101,9770.718434
2720.951879,-459.657299,-1924.535449,10214.842000
2720.952208,-536.266849,-1480.411884,8882.471304
2720.952537,0.000000,-814.226536,8660.409521
2720.952866,1072.533697,-74.020594,8660.409521
2720.953195,76.609550,518.144159,7698.141797
2720.953525,536.266849,148.041188,8216.285956
2720.953854,1072.533697,-0.000000,8142.265362
2720.954183,1532.190996,814.226536,9326.594869
2720.954512,383.047749,814.226536,8660.409521
2720.954841,153.219100,-1776.494261,9252.574275
2720.955170,-995.924147,-814.226536,10510.924376
2720.955499,-536.266849,-740.205942,9178.553681
2720.955828,0.000000,-962.267725,9696.697840
2720.956158,-536.266849,-592.164754,10066.800811
2720.956487,-153.219100,-296.082377,9622.677246
2720.956816,1455.581446,-444.123565,9992.780217
2720.957145,1225.752797,962.267725,8290.306550
2720.957474,1838.629195,1406.391290,7994.224174
2720.957803,1685.410096,1332.370696,8216.285956
2720.958132,1838.629195,740.205942,9326.594869
2720.958462,2757.943793,1332.370696,8882.471304
2720.958791,1685.410096,-444.123565,8882.471304
2720.959120,536.266849,-222.061783,9400.615463
2720.959449,0.000000,-0.000000,9844.739029
2720.959778,-919.314598,296.082377,9474.636058
2720.960107,-842.705048,-148.041188,9992.780217
2720.960436,-459.657299,-962.267725,10732.986159
2720.960766,-1149.143247,-222.061783,9770.718434
2720.961095,-383.047749,-1406.391290,10288.862594
2720.961424,536.266849,-74.020594,8734.430116
2720.961753,153.219100,296.082377,7994.224174
2720.962082,842.705048,-0.000000,8586.388927
2720.962411,1378.971896,-0.000000,8364.327145
2720.962740,1455.581446,518.144159,8438.347739
2720.963069,1455.581446,-0.000000,7846.182985
2720.963399,1149.143247,-518.144159,7624.121203
2720.963728,-153.219100,222.061783,8512.368333
2720.964057,-229.828649,-1110.308913,8586.388927
2720.964386,-536.266849,-888.247130,9400.615463
2720.964715,-766.095498,-1110.308913,9696.697840
2720.965044,-229.828649,-1702.473667,9400.615463
2720.965373,-612.876398,-1332.370696,9030.512492
2720.965703,153.219100,-1554.432478,9696.697840
2720.966032,689.485948,-0.000000,8364.327145
2720.966361,306.438199,-0.000000,7698.141797
2720.966690,1072.533697,222.061783,8290.306550
2720.967019,1378.971896,888.247130,7920.203579
2720.967348,1302.362347,444.123565,8216.285956
2720.967677,1302.362347,-888.247130,7772.162391
2720.968006,459.657299,-592.164754,8808.450710
2720.968336,-306.438199,-296.082377,8734.430116
2720.968665,-842.705048,-592.164754,9474.636058
2720.968994,-1225.752797,-1332.370696,10807.006753
2720.969323,-766.095498,-444.123565,9844.739029
2720.969652,0.000000,-0.000000,9474.636058
2720.969981,689.485948,-740.205942,10140.821405
2720.970310,689.485948,592.164754,9252.574275
2720.970640,383.047749,740.205942,9252.574275
2720.970969,1455.581446,296.082377,8882.471304
2720.971298,1685.410096,740.205942,8808.450710
2720.971627,1455.581446,1406.391290,7624.121203
2720.971956,919.314598,-0.000000,8808.450710
2720.972285,0.000000,444.123565,9474.636058
2720.972614,-383.047749,444.123565,8808.450710
2720.972943,-536.266849,-222.061783,9178.553681
2720.973273,-1302.362347,-1480.411884,10362.883188
2720.973602,-612.876398,-1480.411884,10955.047942
2720.973931,-383.047749,-2368.659014,9548.656652
2720.974260,0.000000,-1184.329507,9770.718434
2720.974589,842.705048,814.226536,8660.409521
2720.974918,1225.752797,592.164754,8882.471304
2720.975247,1378.971896,1554.432478,8734.430116
2720.975577,3064.381992,2368.659014,8216.285956
2720.975906,2911.162892,2368.659014,7402.059420
2720.976235,2374.896044,1036.288319,7846.182985
2720.976564,1455.581446,148.041188,8808.450710
2720.976893,76.609550,-814.226536,9104.533087
2720.977222,-995.924147,-2072.576638,9918.759623
2720.977551,-1149.143247,-2146.597232,10140.821405
2720.977880,-1685.410096,-2516.700203,10732.986159
2720.978210,-1762.019645,-1406.391290,9992.780217
2720.978539,-1149.143247,-1702.473667,10140.821405
2720.978868,-995.924147,444.123565,8956.491898
2720.979197,-536.266849,-296.082377,9326.594869
2720.979526,1225.752797,444.123565,8808.450710
2720.979855,1455.581446,1554.432478,8216.285956
2720.980184,2221.676944,1184.329507,8364.327145
2720.980514,1991.848295,-148.041188,7994.224174
2720.980843,1149.143247,666.185348,8438.347739
2720.981172,536.266849,296.082377,8364.327145
2720.981501,229.828649,370.102971,8216.285956
2720.981830,-229.828649,-1406.391290,9992.780217
2720.982159,-766.095498,-2072.576638,10066.800811
2720.982488,-1608.800546,-1480.411884,10066.800811
2720.982818,-1302.362347,-1258.350101,9474.636058
2720.983147,-1378.971896,-0.000000,8734.430116
2720.983476,-919.314598,-0.000000,9400.615463
2720.983805,153.219100,296.082377,9178.553681
2720.984134,1685.410096,-74.020594,8364.327145
2720.984463,1149.143247,1110.308913,7698.141797
2720.984792,1685.410096,296.082377,7105.977043
2720.985121,1455.581446,814.226536,8808.450710
2720.985451,1225.752797,1110.308913,8438.347739
2720.985780,689.485948,-148.041188,8290.306550
2720.986109,0.000000,-0.000000,9622.677246
2720.986438,1072.533697,-666.185348,9770.718434
2720.986767,459.657299,-1258.350101,9178.553681
2720.987096,153.219100,-888.247130,10584.944971
2720.987425,306.438199,-1036.288319,9400.615463
2720.987755,-229.828649,444.123565,8438.347739
2720.988084,1149.143247,-0.000000,9770.718434
2720.988413,1915.238745,-0.000000,8512.368333
2720.988742,1455.581446,444.123565,8734.430116
2720.989071,1762.019645,-148.041188,8586.388927
2720.989400,1225.752797,-592.164754,8216.285956
2720.989729,0.000000,1110.308913,8438.347739
2720.990058,0.000000,-148.041188,9622.677246
2720.990388,-689.485948,-1332.370696,9918.759623
2720.990717,-1302.362347,-1036.288319,10881.027347
2720.991046,0.000000,-888.247130,9770.718434
2720.991375,-306.438199,-1776.494261,10436.903782
2720.991704,-536.266849,222.061783,9992.780217
2720.992033,229.828649,518.144159,8808.450710
2720.992362,842.705048,-296.082377,9696.697840
2720.992692,1532.190996,1110.308913,8882.471304
2720.993021,2451.505594,740.205942,7476.080014
2720.993350,1532.190996,1036.288319,8586.388927
2720.993679,1455.581446,888.247130,8512.368333
2720.994008,842.705048,592.164754,7920.203579
2720.994337,-612.876398,-0.000000,8364.327145
2720.994666,-1072.533697,-1110.308913,9992.780217
2720.994995,-1072.533697,-1110.308913,10436.903782
2720.995325,-1762.019645,-1332.370696,10584.944971
2720.995654,-1302.362347,-2220.617826,10066.800811
2720.995983,-1455.581446,-1628.453072,9548.656652
2720.996312,-689.485948,-666.185348,9104.533087
2720.996641,766.095498,-296.082377,9918.759623
2720.996970,1762.019645,814.226536,8438.347739
2720.997299,2374.896044,1036.288319,7698.141797
2720.997629,2528.115143,1258.350101,7772.162391
2720.997958,2374.896044,1258.350101,8364.327145
2720.998287,1915.238745,1850.514855,6439.791695
2720.998616,919.314598,962.267725,7402.059420
2720.998945,383.047749,-0.000000,9474.636058
2720.999274,-459.657299,-1480.411884,9252.574275
2720.999603,-689.485948,-2146.597232,9918.759623
2720.999932,-1149.143247,-2442.679609,10362.883188
2721.000262,-1302.362347,-3404.947333,9844.739029
2721.000591,-1991.848295,-370.102971,9622.677246
2721.000920,-229.828649,-1776.494261,10140.821405
2721.001249,153.219100,666.185348,8586.388927
2721.001578,1608.800546,1776.494261,8586.388927
2721.001907,2068.457845,888.247130,7105.977043
2721.002236,1532.190996,222.061783,8808.450710
2721.002566,2221.676944,1628.453072,8438.347739
2721.002895,2145.067394,444.123565,6069.688724
2721.003224,76.609550,-0.000000,9178.553681
2721.003553,-536.266849,666.185348,9326.594869
2721.003882,0.000000,-2664.741391,10732.986159
2721.004211,-1455.581446,-518.144159,9474.636058
2721.004540,-1455.581446,-1702.473667,9474.636058
2721.004870,-1225.752797,-1036.288319,9548.656652
2721.005199,-1072.533697,-74.020594,9696.697840
2721.005528,229.828649,-0.000000,10732.986159
2721.005857,689.485948,222.061783,8512.368333
2721.006186,1225.752797,1702.473667,8734.430116
2721.006515,1838.629195,592.164754,8216.285956
2721.006844,1378.971896,1776.494261,7994.224174
2721.007173,2451.505594,1480.411884,8956.491898
2721.007503,1608.800546,-1036.288319,8734.430116
2721.007832,153.219100,370.102971,10288.862594
2721.008161,0.000000,-296.082377,9104.533087
2721.008490,-153.219100,-1628.453072,9844.739029
2721.008819,-1149.143247,-740.205942,10436.903782
2721.009148,-459.657299,-962.267725,9696.697840
2721.009477,0.000000,-444.123565,9400.615463
2721.009807,383.047749,-0.000000,9918.759623
2721.010136,1149.143247,1184.329507,9252.574275
2721.010465,1455.581446,666.185348,8142.265362
2721.010794,1455.581446,814.226536,8290.306550
2721.011123,1685.410096,962.267725,7846.182985
2721.011452,1149.143247,1036.288319,7920.203579
2721.011781,689.485948,-1036.288319,9770.718434
2721.012110,0.000000,-518.144159,9252.574275
2721.012440,-536.266849,-1702.473667,9548.656652
2721.012769,-612.876398,-1702.473667,10066.800811
2721.013098,-1302.362347,-1332.370696,9918.759623
2721.013427,-1072.533697,-814.226536,9104.533087
2721.013756,-766.095498,-444.123565,8734.430116
2721.014085,612.876398,-518.144159,9548.656652
2721.014414,919.314598,444.123565,9030.512492
2721.014744,1762.019645,-0.000000,7550.100608
2721.015073,1532.190996,-0.000000,8808.450710
2721.015402,842.705048,1110.308913,7772.162391
2721.015731,842.705048,1258.350101,7920.203579
2721.016060,306.438199,-1036.288319,8586.388927
2721.016389,919.314598,-0.000000,9696.697840
2721.016718,76.609550,-0.000000,9030.512492
2721.017047,0.000000,-2368.659014,10066.800811
2721.017377,-842.705048,-962.267725,9622.677246
2721.017706,-306.438199,-1184.329507,8882.471304
2721.018035,-536.266849,-1110.308913,9178.553681
2721.018364,689.485948,-222.061783,9622.677246
2721.018693,1532.190996,-0.000000,8808.450710
2721.019022,1378.971896,962.267725,7994.224174
2721.019351,2528.115143,370.102971,8882.471304
2721.019681,2221.676944,962.267725,8216.285956
2721.020010,995.924147,1628.453072,7105.977043
2721.020339,1455.581446,740.205942,8808.450710
2721.020668,919.314598,-74.020594,9326.594869
2721.020997,459.657299,-666.185348,9548.656652
2721.021326,229.828649,-1628.453072,9770.718434
2721.021655,-536.266849,-666.185348,9252.574275
2721.021985,-1149.143247,-296.082377,9474.636058
2721.022314,-689.485948,-962.267725,9992.780217
2721.022643,-536.266849,-666.185348,10140.821405
2721.022972,0.000000,-518.144159,9770.718434
2721.023301,459.657299,370.102971,8660.409521
2721.023630,612.876398,-148.041188,9326.594869
2721.023959,459.657299,-0.000000,8734.430116
2721.024288,919.314598,666.185348,7846.182985
2721.024618,766.095498,-592.164754,9622.677246
2721.024947,153.219100,-592.164754,9474.636058
2721.025276,0.000000,-296.082377,9252.574275
2721.025605,76.609550,-1258.350101,9400.615463
2721.025934,-689.485948,-518.144159,9770.718434
2721.026263,-536.266849,-0.000000,9326.594869
2721.026592,-536.266849,-814.226536,8956.491898
2721.026922,-306.438199,-0.000000,9178.553681
2721.027251,459.657299,-0.000000,9548.656652
2721.027580,842.705048,-296.082377,8586.388927
2721.027909,919.314598,-1110.308913,8882.471304
2721.028238,1072.533697,148.041188,7994.224174
2721.028567,842.705048,1702.473667,7624.121203
2721.028896,612.876398,592.164754,8734.430116
2721.029225,842.705048,296.082377,9474.636058
2721.029555,1149.143247,1036.288319,8216.285956
2721.029884,766.095498,-1036.288319,8882.471304
2721.030213,306.438199,-0.000000,8882.471304
2721.030542,-306.438199,444.123565,9178.553681
2721.030871,153.219100,-740.205942,9622.677246
2721.031200,76.609550,-1110.308913,9474.636058
2721.031529,383.047749,-444.123565,9474.636058
2721.031858,383.047749,-222.061783,9030.512492
2721.032188,1302.362347,-0.000000,8438.347739
2721.032517,995.924147,-0.000000,8882.471304
2721.032846,0.000000,1184.329507,8290.306550
2721.033175,536.266849,740.205942,8808.450710
2721.033504,536.266849,148.041188,9030.512492
2721.033833,229.828649,-222.061783,9252.574275
2721.034162,0.000000,-888.247130,9474.636058
2721.034491,-459.657299,-1110.308913,9770.718434
2721.034820,-383.047749,-1110.308913,8808.450710
2721.035150,-995.924147,-1554.432478,9622.677246
2721.035479,-229.828649,-1184.329507,9918.759623
2721.035808,306.438199,148.041188,9178.553681
2721.036137,383.047749,148.041188,8660.409521
2721.036466,306.438199,1258.350101,8142.265362
2721.036795,689.485948,518.144159,9104.533087
2721.037124,306.438199,1258.350101,8512.368333
2721.037453,0.000000,-518.144159,9178.553681
2721.037782,153.219100,-962.267725,9918.759623
2721.038112,0.000000,-1110.308913,9178.553681
2721.038441,-459.657299,-1998.556043,9548.656652
2721.038770,-612.876398,-2368.659014,9474.636058
2721.039099,-689.485948,-74.020594,8586.388927
2721.039428,0.000000,-370.102971,9030.512492
2721.039757,459.657299,-148.041188,9326.594869
2721.040086,383.047749,-74.020594,8956.491898
2721.040415,1072.533697,518.144159,8068.244768
2721.040744,1072.533697,-666.185348,8956.491898
2721.041074,1072.533697,-0.000000,8882.471304
2721.041403,766.095498,740.205942,8290.306550
2721.041732,766.095498,-0.000000,8882.471304
2721.042061,842.705048,370.102971,9696.697840
2721.042390,766.095498,-74.020594,9178.553681
2721.042719,536.266849,-0.000000,9252.574275
2721.043048,459.657299,-444.123565,9400.615463
2721.043377,76.609550,296.082377,8882.471304
2721.043706,153.219100,592.164754,8438.347739
2721.044036,383.047749,-666.185348,9400.615463
2721.044365,0.000000,-518.144159,9918.759623
2721.044694,459.657299,-518.144159,9474.636058
2721.045023,536.266849,-0.000000,8734.430116
2721.045352,153.219100,-74.020594,9400.615463
2721.045681,0.000000,814.226536,8882.471304
2721.046010,229.828649,-74.020594,9400.615463
2721.046339,383.047749,592.164754,9474.636058
2721.046668,995.924147,888.247130,9104.533087
2721.046998,0.000000,-592.164754,9696.697840
2721.047327,383.047749,-592.164754,8956.491898
2721.047656,459.657299,-222.061783,9104.533087
2721.047985,153.219100,-74.020594,8882.471304
2721.048314,229.828649,-370.102971,9030.512492
2721.048643,0.000000,148.041188,9400.615463
2721.048972,0.000000,222.061783,8734.430116
2721.049301,229.828649,-0.000000,8882.471304
2721.049631,0.000000,-222.061783,9030.512492
2721.049960,-306.438199,-74.020594,9178.553681
2721.050289,-459.657299,-666.185348,8956.491898
2721.050618,0.000000,-1036.288319,9104.533087
2721.050947,306.438199,-740.205942,9770.718434
2721.051276,0.000000,-740.205942,9030.512492
2721.051605,1302.362347,-814.226536,8808.450710
2721.051934,1378.971896,592.164754,8068.244768
2721.052263,1685.410096,1110.308913,7698.141797
2721.052593,1149.143247,370.102971,8586.388927
2721.052922,995.924147,-0.000000,8956.491898
2721.053251,612.876398,1184.329507,8142.265362
2721.053580,612.876398,-888.247130,9104.533087
2721.053909,0.000000,-1628.453072,9992.780217
2721.054238,-536.266849,-666.185348,8586.388927
2721.054567,-1378.971896,-1036.288319,9992.780217
2721.054896,-229.828649,-518.144159,10510.924376
2721.055225,-153.219100,-370.102971,9548.656652
2721.055555,306.438199,-0.000000,9104.533087
2721.055884,383.047749,-0.000000,9178.553681
2721.056213,689.485948,518.144159,9474.636058
2721.056542,1225.752797,-0.000000,7994.224174
2721.056871,995.924147,-0.000000,9104.533087
2721.057200,1225.752797,814.226536,9104.533087
2721.057529,919.314598,74.020594,8586.388927
2721.057858,229.828649,-0.000000,9474.636058
2721.058187,0.000000,-666.185348,9548.656652
2721.058517,-306.438199,1036.288319,8438.347739
2721.058846,-1685.410096,-444.123565,10066.800811
2721.059175,0.000000,-444.123565,10288.862594
2721.059504,-153.219100,-1332.370696,9918.759623
2721.059833,0.000000,-296.082377,9622.677246
2721.060162,76.609550,-444.123565,8956.491898
2721.060491,536.266849,-0.000000,9326.594869
2721.060820,76.609550,740.205942,7550.100608
2721.061149,1455.581446,-0.000000,8734.430116
2721.061479,1608.800546,1184.329507,9400.615463
2721.061808,1378.971896,1110.308913,8068.244768
2721.062137,995.924147,370.102971,7772.162391
2721.062466,459.657299,-518.144159,9326.594869
2721.062795,-229.828649,-0.000000,9548.656652
2721.063124,0.000000,-1036.288319,8660.409521
2721.063453,76.609550,-592.164754,9770.718434
2721.063782,0.000000,-592.164754,9844.739029
2721.064111,0.000000,-1110.308913,9474.636058
2721.064441,383.047749,-814.226536,9104.533087
2721.064770,995.924147,-0.000000,8660.409521
2721.065099,383.047749,962.267725,7402.059420
2721.065428,919.314598,-0.000000,8956.491898
2721.065757,1532.190996,-222.061783,9548.656652
2721.066086,1149.143247,296.082377,8068.244768
2721.066415,842.705048,-0.000000,8290.306550
2721.066744,0.000000,-888.247130,9252.574275
2721.067073,-689.485948,-222.061783,9696.697840
2721.067403,-1225.752797,-518.144159,9252.574275
2721.067732,-689.485948,-2072.576638,9548.656652
2721.068061,-919.314598,-962.267725,10362.883188
2721.068390,-306.438199,296.082377,9548.656652
2721.068719,383.047749,-444.123565,9030.512492
2721.069048,153.219100,740.205942,8808.450710
2721.069377,1072.533697,1776.494261,8142.265362
2721.069706,1149.143247,814.226536,8586.388927
2721.070036,1149.143247,148.041188,9326.594869
2721.070365,1608.800546,444.123565,8586.388927
2721.070694,1072.533697,-0.000000,8882.471304
2721.071023,689.485948,-0.000000,9178.553681
2721.071352,0.000000,-0.000000,8956.491898
2721.071681,-919.314598,-0.000000,9252.574275
2721.072010,-459.657299,-0.000000,9992.780217
2721.072339,-153.219100,-962.267725,10362.883188
2721.072668,-153.219100,-888.247130,9696.697840
2721.072998,536.266849,-1406.391290,9474.636058
2721.073327,612.876398,-592.164754,8882.471304
2721.073656,689.485948,1036.288319,8512.368333
2721.073985,1302.362347,-0.000000,8586.388927
2721.074314,2221.676944,296.082377,8808.450710
2721.074643,2145.067394,1480.411884,8068.244768
2721.074972,995.924147,518.144159,7920.203579
2721.075301,842.705048,962.267725,8290.306550
2721.075630,689.485948,1332.370696,8068.244768
2721.075960,-689.485948,-222.061783,9696.697840
2721.076289,-1225.752797,-962.267725,10066.800811
2721.076618,-1225.752797,-2516.700203,10807.006753
2721.076947,-766.095498,-1776.494261,9844.739029
2721.077276,0.000000,-1850.514855,10436.903782
2721.077605,-536.266849,-1554.432478,9992.780217
2721.077934,-306.438199,666.185348,8734.430116
2721.078263,919.314598,-0.000000,9326.594869
2721.078592,1225.752797,-74.020594,9474.636058
2721.078922,1991.848295,1258.350101,7698.141797
2721.079251,2451.505594,1554.432478,7476.080014
2721.079580,1608.800546,518.144159,8734.430116
2721.079909,-153.219100,666.185348,9548.656652
2721.080238,0.000000,-444.123565,9326.594869
2721.080567,-612.876398,-888.247130,9844.739029
2721.080896,-536.266849,-1554.432478,10066.800811
2721.081225,-306.438199,-1702.473667,10066.800811
2721.081554,0.000000,-1998.556043,10288.862594
2721.081884,306.438199,-444.123565,9770.718434
2721.082213,766.095498,666.185348,8216.285956
2721.082542,842.705048,962.267725,8290.306550
2721.082871,1532.190996,1258.350101,9178.553681
2721.083200,1991.848295,1554.432478,6513.812290
2721.083529,2145.067394,666.185348,7476.080014
2721.083858,1225.752797,-444.123565,8660.409521
2721.084187,842.705048,-666.185348,8956.491898
2721.084516,-229.828649,-1110.308913,8512.368333
2721.084846,-842.705048,-1480.411884,9400.615463
2721.085175,-612.876398,-1480.411884,9844.739029
2721.085504,-536.266849,-1258.350101,9178.553681
2721.085833,-229.828649,-1110.308913,9770.718434
2721.086162,0.000000,-888.247130,9326.594869
2721.086491,153.219100,222.061783,7698.141797
2721.086820,995.924147,370.102971,9030.512492
2721.087149,1838.629195,444.123565,9030.512492
2721.087478,1762.019645,370.102971,7476.080014
2721.087808,1532.190996,1110.308913,7179.997637
2721.088137,1378.971896,592.164754,8364.327145
2721.088466,459.657299,-296.082377,9030.512492
2721.088795,-459.657299,814.226536,8364.327145
2721.089124,-1302.362347,-1554.432478,9992.780217
2721.089453,-1915.238745,-1924.535449,10510.924376
2721.089782,-1762.019645,-2516.700203,10436.903782
2721.090111,-1455.581446,-2664.741391,10436.903782
2721.090441,-1302.362347,-1406.391290,10288.862594
2721.090770,-153.219100,296.082377,9400.615463
2721.091099,919.314598,-296.082377,9104.533087
2721.091428,995.924147,1998.556043,9252.574275
2721.091757,2298.286494,962.267725,8438.347739
2721.092086,2298.286494,2146.597232,7254.018232
2721.092415,1991.848295,1924.535449,8364.327145
2721.092744,1762.019645,1628.453072,8882.471304
2721.093073,1302.362347,296.082377,8586.388927
2721.093403,0.000000,-1184.329507,9474.636058
2721.093732,-766.095498,-1554.432478,10140.821405
2721.094061,-995.924147,-1406.391290,10140.821405
2721.094390,-1302.362347,-2516.700203,10807.006753
2721.094719,-1302.362347,-1332.370696,10362.883188
2721.095048,-766.095498,-0.000000,9252.574275
2721.095377,-536.266849,-0.000000,8586.388927
2721.095706,919.314598,592.164754,9400.615463
2721.096035,2145.067394,-0.000000,8808.450710
2721.096365,2221.676944,666.185348,7328.038826
2721.096694,2604.724693,1036.288319,7550.100608
2721.097023,1991.848295,1110.308913,8290.306550
2721.097352,995.924147,2072.576638,7772.162391
2721.097681,919.314598,444.123565,8290.306550
2721.098010,0.000000,-1628.453072,9622.677246
2721.098339,-612.876398,-1110.308913,9696.697840
2721.098668,-1225.752797,-2220.617826,10362.883188
2721.098997,-1685.410096,-2590.720797,9548.656652
2721.099327,-1915.238745,-1998.556043,9104.533087
2721.099656,-842.705048,-1554.432478,9770.718434
2721.099985,-229.828649,-1406.391290,9696.697840
2721.100314,995.924147,-148.041188,9178.553681
2721.100643,1762.019645,370.102971,7254.018232
2721.100972,1378.971896,222.061783,8586.388927
2721.101301,1762.019645,1554.432478,8290.306550
2721.101630,1302.362347,444.123565,7476.080014
2721.101959,459.657299,666.185348,8216.285956
2721.102289,459.657299,-592.164754,9400.615463
2721.102618,-153.219100,-296.082377,9326.594869
2721.102947,-689.485948,-1850.514855,10362.883188
2721.103276,-995.924147,-1554.432478,9400.615463
2721.103605,-1072.533697,-1110.308913,9474.636058
2721.103934,-612.876398,-0.000000,9696.697840
2721.104263,-383.047749,-1036.288319,9622.677246
2721.104592,842.705048,-148.041188,9400.615463
2721.104921,2298.286494,518.144159,8290.306550
2721.105251,2068.457845,-0.000000,8364.327145
2721.105580,1915.238745,1554.432478,8512.368333
2721.105909,1532.190996,1480.411884,7698.141797
2721.106238,919.314598,1184.329507,8290.306550
2721.106567,459.657299,740.205942,9400.615463
2721.106896,612.876398,-666.185348,9252.574275
2721.107225,-766.095498,-1480.411884,9474.636058
2721.107554,-1378.971896,-1332.370696,10214.842000
2721.107884,-1991.848295,-1998.556043,10140.821405
2721.108213,-1149.143247,-1036.288319,9770.718434
2721.108542,-536.266849,-740.205942,9992.780217
2721.108871,0.000000,-222.061783,9696.697840
2721.109200,1072.533697,814.226536,8364.327145
2721.109529,1762.019645,1258.350101,7994.224174
2721.109858,306.438199,1628.453072,8290.306550
2721.110187,1149.143247,2294.638420,8216.285956
2721.110516,919.314598,666.185348,8364.327145
2721.110846,612.876398,-0.000000,8882.471304
2721.111175,153.219100,-0.000000,9030.512492
2721.111504,-229.828649,-2294.638420,10584.944971
2721.111833,-536.266849,-962.267725,10288.862594
2721.112162,-919.314598,-1702.473667,10214.842000
2721.112491,-689.485948,-74.020594,9030.512492
2721.112820,-689.485948,-0.000000,9696.697840
2721.113149,306.438199,296.082377,9918.759623
2721.113478,766.095498,518.144159,8290.306550
2721.113808,1608.800546,666.185348,8660.409521
2721.114137,2374.896044,370.102971,8438.347739
2721.114466,1149.143247,814.226536,7994.224174
2721.114795,1455.581446,-0.000000,9104.533087
2721.115124,1532.190996,-740.205942,8808.450710
2721.115453,766.095498,444.123565,8660.409521
2721.115782,229.828649,-296.082377,9548.656652
2721.116111,-229.828649,-814.226536,9844.739029
2721.116440,-306.438199,-518.144159,9770.718434
2721.116770,76.609550,-888.247130,9548.656652
2721.117099,153.219100,-444.123565,9030.512492
2721.117428,536.266849,-0.000000,9696.697840
2721.117757,1225.752797,-518.144159,8512.368333
2721.118086,1991.848295,-370.102971,9030.512492
2721.118415,1991.848295,-74.020594,8216.285956
2721.118744,1608.800546,444.123565,7105.977043
2721.119073,995.924147,1480.411884,7920.203579
2721.119402,1225.752797,-1036.288319,9474.636058
2721.119732,459.657299,-222.061783,8290.306550
2721.120061,-306.438199,-1036.288319,9104.533087
2721.120390,-995.924147,-1554.432478,10140.821405
2721.120719,-995.924147,-962.267725,9178.553681
2721.121048,-1608.800546,-1110.308913,9548.656652
2721.121377,-842.705048,-2072.576638,10214.842000
2721.121706,153.219100,-1406.391290,9918.759623
2721.122035,459.657299,-962.267725,8882.471304
2721.122364,1149.143247,-222.061783,8142.265362
2721.122694,1149.143247,592.164754,8808.450710
2721.123023,1225.752797,296.082377,7920.203579
2721.123352,919.314598,888.247130,7994.224174
2721.123681,1225.752797,-0.000000,9030.512492
2721.124010,1149.143247,-222.061783,8734.430116
2721.124339,0.000000,-1628.453072,9252.574275
2721.124668,0.000000,-2220.617826,10362.883188
2721.124997,-766.095498,-1480.411884,9918.759623
2721.125326,-995.924147,-814.226536,9474.636058
2721.125656,-842.705048,-1998.556043,10066.800811
2721.125985,-383.047749,-888.247130,10066.800811
2721.126314,766.095498,-74.020594,8956.491898
2721.126643,1455.581446,-0.000000,8290.306550
2721.126972,1149.143247,592.164754,8438.347739
2721.127301,1072.533697,1332.370696,7846.182985
2721.127630,1302.362347,740.205942,8586.388927
2721.127959,689.485948,962.267725,9030.512492
2721.128289,919.314598,-222.061783,9030.512492
2721.128618,153.219100,222.061783,8142.265362
2721.128947,-536.266849,-666.185348,9622.677246
2721.129276,-383.047749,-888.247130,10140.821405
2721.129605,-1225.752797,-740.205942,8734.430116
2721.129934,-1072.533697,-814.226536,9770.718434
2721.130263,-689.485948,-0.000000,9252.574275
2721.130592,-459.657299,148.041188,8882.471304
2721.130922,0.000000,518.144159,8734.430116
2721.131251,766.095498,-518.144159,8660.409521
2721.131580,383.047749,148.041188,8734.430116
2721.131909,153.219100,1184.329507,7846.182985
2721.132238,536.266849,-74.020594,9400.615463
2721.132567,229.828649,518.144159,8882.471304
2721.132896,76.609550,296.082377,8586.388927
2721.133226,229.828649,-740.205942,9918.759623
2721.133555,-306.438199,222.061783,9104.533087
2721.133884,-153.219100,518.144159,9178.553681
2721.134213,-229.828649,-518.144159,9844.739029
2721.134542,-229.828649,-740.205942,9696.697840
2721.134871,0.000000,-0.000000,9622.677246
2721.135201,536.266849,-666.185348,9400.615463
2721.135530,919.314598,296.082377,9844.739029
2721.135859,919.314598,518.144159,8364.327145
2721.136188,1225.752797,296.082377,8364.327145
2721.136517,919.314598,962.267725,9178.553681
2721.136846,1608.800546,444.123565,9622.677246
2721.137175,1072.533697,-0.000000,8734.430116
2721.137505,612.876398,296.082377,8438.347739
2721.137834,1149.143247,-0.000000,9400.615463
2721.138163,1455.581446,-296.082377,9326.594869
2721.138492,995.924147,-222.061783,9474.636058
2721.138821,459.657299,-1110.308913,9918.759623
2721.139150,536.266849,-0.000000,8364.327145
2721.139479,842.705048,-0.000000,9178.553681
2721.139809,919.314598,296.082377,9474.636058
2721.140138,76.609550,148.041188,7994.224174
2721.140467,995.924147,370.102971,9548.656652
2721.140796,995.924147,296.082377,8734.430116
2721.141125,842.705048,-296.082377,9252.574275
2721.141454,612.876398,370.102971,8512.368333
2721.141783,229.828649,-1554.432478,9326.594869
2721.142113,0.000000,-666.185348,10140.821405
2721.142442,689.485948,-0.000000,8216.285956
2721.142771,0.000000,-0.000000,8808.450710
2721.143100,-153.219100,-740.205942,9326.594869
2721.143429,306.438199,222.061783,8734.430116
2721.143758,383.047749,-1184.329507,9326.594869
2721.144087,153.219100,-592.164754,8808.450710
2721.144417,0.000000,-296.082377,8586.388927
2721.144746,-229.828649,-222.061783,8956.491898
2721.145075,-1302.362347,296.082377,9992.780217
2721.145404,383.047749,-1110.308913,9992.780217
2721.145733,229.828649,-296.082377,8586.388927
2721.146062,0.000000,-296.082377,9104.533087
2721.146391,229.828649,-1110.308913,9474.636058
2721.146721,0.000000,666.185348,7920.203579
2721.147050,-229.828649,-592.164754,9548.656652
2721.147379,459.657299,-1110.308913,9770.718434
2721.147708,536.266849,-0.000000,8586.388927
2721.148037,536.266849,-0.000000,8290.306550
2721.148366,536.266849,-370.102971,9104.533087
2721.148695,383.047749,148.041188,9474.636058
2721.149025,229.828649,-592.164754,8290.306550
2721.149354,153.219100,-444.123565,9474.636058
2721.149683,842.705048,-0.000000,9622.677246
2721.150012,459.657299,-592.164754,8734.430116
2721.150341,306.438199,-0.000000,9770.718434
2721.150670,306.438199,-370.102971,9104.533087
2721.150999,229.828649,-370.102971,8142.265362
2721.151329,383.047749,666.185348,8956.491898
2721.151658,612.876398,-222.061783,9400.615463
2721.151987,689.485948,148.041188,9326.594869
2721.152316,306.438199,-0.000000,8364.327145
2721.152645,536.266849,-962.267725,9326.594869
2721.152974,0.000000,-0.000000,9104.533087
2721.153303,76.609550,148.041188,7994.224174
2721.153633,229.828649,-592.164754,9252.574275
2721.153962,-306.438199,222.061783,9844.739029
2721.154291,1532.190996,-592.164754,9178.553681
2721.154620,689.485948,-1554.432478,9252.574275
2721.154949,306.438199,296.082377,9252.574275
2721.155278,842.705048,-148.041188,8438.347739
2721.155607,76.609550,296.082377,8512.368333
2721.155937,689.485948,-222.061783,9696.697840
2721.156266,1532.190996,444.123565,8586.388927
2721.156595,689.485948,518.144159,8586.388927
2721.156924,919.314598,-444.123565,9474.636058
2721.157253,383.047749,-444.123565,8956.491898
2721.157582,-306.438199,-0.000000,8956.491898
2721.157911,153.219100,-1332.370696,9918.759623
2721.158241,306.438199,-1628.453072,9770.718434
2721.158570,0.000000,-222.061783,9326.594869
2721.158899,612.876398,-592.164754,9474.636058
2721.159228,919.314598,-0.000000,9400.615463
2721.159557,1225.752797,962.267725,8290.306550
2721.159886,1149.143247,888.247130,8068.244768
2721.160215,1302.362347,592.164754,9474.636058
2721.160545,1685.410096,222.061783,8956.491898
2721.160874,1149.143247,-444.123565,7994.224174
2721.161203,612.876398,-0.000000,9030.512492
2721.161532,536.266849,-1406.391290,9548.656652
2721.161861,-612.876398,-0.000000,9178.553681
2721.162190,-153.219100,-148.041188,9400.615463
2721.162519,0.000000,-148.041188,8882.471304
2721.162849,-689.485948,740.205942,9178.553681
2721.163178,0.000000,-888.247130,11177.109724
2721.163507,76.609550,-148.041188,8660.409521
2721.163836,76.609550,-0.000000,7994.224174
2721.164165,383.047749,444.123565,8438.347739
2721.164494,459.657299,-888.247130,9548.656652
2721.164824,766.095498,444.123565,9326.594869
2721.165153,1072.533697,-518.144159,7994.224174
2721.165482,842.705048,-888.247130,8882.471304
2721.165811,0.000000,444.123565,9326.594869
2721.166140,-612.876398,-0.000000,8956.491898
2721.166469,-1302.362347,-148.041188,9326.594869
2721.166798,-459.657299,-888.247130,9918.759623
2721.167128,-536.266849,-1258.350101,9474.636058
2721.167457,0.000000,-1258.350101,10214.842000
2721.167786,306.438199,-296.082377,8808.450710
2721.168115,306.438199,-222.061783,8512.368333
2721.168444,229.828649,444.123565,9178.553681
2721.168773,383.047749,-74.020594,8956.491898
2721.169102,459.657299,444.123565,9400.615463
2721.169432,1072.533697,370.102971,8216.285956
2721.169761,766.095498,-740.205942,8882.471304
2721.170090,383.047749,-296.082377,8808.450710
2721.170419,383.047749,-0.000000,9104.533087
2721.170748,-383.047749,-1110.308913,9770.718434
2721.171077,153.219100,-740.205942,9622.677246
2721.171406,76.609550,-296.082377,8660.409521
2721.171736,842.705048,-444.123565,9474.636058
2721.172065,919.314598,296.082377,8734.430116
2721.172394,842.705048,74.020594,8216.285956
2721.172723,229.828649,814.226536,7698.141797
2721.173052,612.876398,296.082377,8882.471304
2721.173381,1149.143247,-148.041188,9178.553681
2721.173710,383.047749,-592.164754,8142.265362
2721.174040,536.266849,-444.123565,8512.368333
2721.174369,-459.657299,-296.082377,8882.471304
2721.174698,-459.657299,-370.102971,9474.636058
2721.175027,-689.485948,-296.082377,9696.697840
2721.175356,-383.047749,-962.267725,9548.656652
2721.175685,-153.219100,-0.000000,9474.636058
2721.176014,0.000000,-518.144159,9326.594869
2721.176344,76.609550,-1184.329507,9696.697840
2721.176673,919.314598,-74.020594,8364.327145
2721.177002,1149.143247,888.247130,7846.182985
2721.177331,1455.581446,666.185348,9844.739029
2721.177660,1378.971896,1480.411884,8586.388927
2721.177989,1225.752797,888.247130,7772.162391
2721.178318,919.314598,444.123565,9104.533087
2721.178648,306.438199,-518.144159,9400.615463
2721.178977,0.000000,-666.185348,9622.677246
2721.179306,-612.876398,-888.247130,9474.636058
2721.179635,-536.266849,-1850.514855,10584.944971
2721.179964,-689.485948,-518.144159,9770.718434
2721.180293,-229.828649,-740.205942,9918.759623
2721.180622,229.828649,-814.226536,9844.739029
2721.180952,842.705048,148.041188,8734.430116
2721.181281,995.924147,444.123565,8216.285956
2721.181610,1378.971896,-0.000000,9696.697840
2721.181939,1991.848295,-74.020594,8808.450710
2721.182268,1532.190996,-888.247130,8068.244768
2721.182597,1302.362347,-1110.308913,8882.471304
2721.182926,766.095498,-888.247130,9622.677246
2721.183256,76.609550,-1702.473667,9400.615463
2721.183585,-766.095498,-814.226536,8808.450710
2721.183914,-153.219100,-2738.761985,10584.944971
2721.184243,-536.266849,-1184.329507,9548.656652
2721.184572,-995.924147,-2442.679609,9474.636058
2721.184901,0.000000,-2220.617826,10658.965565
2721.185230,536.266849,-2368.659014,8882.471304
2721.185560,76.609550,-1406.391290,8290.306550
2721.185889,689.485948,-2146.597232,8882.471304
2721.186218,1378.971896,-2072.576638,8438.347739
2721.186547,1455.581446,-666.185348,7624.121203
2721.186876,1149.143247,-740.205942,7402.059420
2721.187205,689.485948,-2812.782580,9252.574275
2721.187534,0.000000,-1480.411884,8364.327145
2721.187864,-1915.238745,-2812.782580,8808.450710
2721.188193,-1072.533697,-4441.235652,9918.759623
2721.188522,-1072.533697,-3997.112087,10288.862594
2721.188851,-919.314598,-4515.256246,9696.697840
2721.189180,-1149.143247,-3552.988522,10362.883188
2721.189509,306.438199,-3701.029710,9696.697840
2721.189838,383.047749,-1258.350101,7698.141797
2721.190168,536.266849,-740.205942,8586.388927
2721.190497,2451.505594,-1258.350101,8734.430116
2721.190826,2681.334243,-2368.659014,7772.162391
2721.191155,2834.553343,-592.164754,7105.977043
2721.191484,2145.067394,-2516.700203,7550.100608
2721.191813,1685.410096,-4071.132681,9178.553681
2721.192143,153.219100,-3256.906145,8438.347739
2721.192472,-766.095498,-4145.153275,9474.636058
2721.192801,-1225.752797,-4959.379811,10140.821405
2721.193130,-689.485948,-5329.482782,10584.944971
2721.193459,-919.314598,-4737.318029,9992.780217
2721.193788,-1225.752797,-4367.215058,9918.759623
2721.194117,-459.657299,-5181.441594,10510.924376
2721.194447,1072.533697,-4515.256246,9104.533087
2721.194776,1225.752797,-2072.576638,8586.388927
2721.195105,1762.019645,-2442.679609,8586.388927
2721.195434,2757.943793,-1776.494261,7550.100608
2721.195763,3447.429741,-1480.411884,7328.038826
2721.196092,2528.115143,-1110.308913,7624.121203
2721.196421,1455.581446,-2368.659014,7402.059420
2721.196751,229.828649,-3627.009116,9326.594869
2721.197080,-459.657299,-4367.215058,9548.656652
2721.197409,-1608.800546,-4885.359217,9326.594869
2721.197738,-2604.724693,-5773.606348,10510.924376
2721.198067,-2451.505594,-6587.832884,10955.047942
2721.198396,-1685.410096,-4663.297435,11103.089130
2721.198725,-1455.581446,-4663.297435,9918.759623
2721.199055,-1225.752797,-3182.885551,9548.656652
2721.199384,689.485948,-1998.556043,10214.842000
2721.199713,1991.848295,-1332.370696,8142.265362
2721.200042,2604.724693,-222.061783,7254.018232
2721.200371,2604.724693,-444.123565,7698.141797
2721.200700,2681.334243,-962.267725,7328.038826
2721.201029,3217.601092,-1184.329507,7624.121203
2721.201359,2451.505594,-2886.803174,7846.182985
2721.201688,-459.657299,-3552.988522,8956.491898
2721.202017,-995.924147,-4219.173869,10362.883188
2721.202346,-1225.752797,-5329.482782,9918.759623
2721.202675,-1608.800546,-4663.297435,9474.636058
2721.203004,-2068.457845,-4219.173869,10955.047942
2721.203333,-2451.505594,-3923.091493,11251.130318
2721.203663,-1378.971896,-4071.132681,10288.862594
2721.203992,76.609550,-4663.297435,9400.615463
2721.204321,1455.581446,-2886.803174,9326.594869
2721.204650,1455.581446,-2442.679609,9696.697840
2721.204979,1915.238745,-1998.556043,8364.327145
2721.205308,2681.334243,-1184.329507,7550.100608
2721.205637,3600.648841,-74.020594,7402.059420
2721.205967,3140.991542,-0.000000,7105.977043
2721.206296,1685.410096,-1628.453072,7920.203579
2721.206625,1762.019645,-2146.597232,8216.285956
2721.206954,1608.800546,-2368.659014,7920.203579
2721.207283,153.219100,-3997.112087,8956.491898
2721.207612,-1685.410096,-4959.379811,9696.697840
2721.207941,-2451.505594,-5033.400406,10955.047942
2721.208271,-2068.457845,-4145.153275,10362.883188
2721.208600,-1225.752797,-2590.720797,9474.636058
2721.208929,-612.876398,-2886.803174,9992.780217
2721.209258,-842.705048,-1702.473667,10214.842000
2721.209587,76.609550,-1258.350101,9622.677246
2721.209916,1225.752797,-1406.391290,8512.368333
2721.210245,2374.896044,-1702.473667,7698.141797
2721.210575,2757.943793,-1776.494261,8364.327145
2721.210904,2451.505594,-3256.906145,9474.636058
2721.211233,1838.629195,-3404.947333,8956.491898
2721.211562,1762.019645,-3478.967927,8364.327145
2721.211891,1685.410096,-2516.700203,8364.327145
2721.212220,689.485948,-2146.597232,9326.594869
2721.212549,-229.828649,-2738.761985,9918.759623
2721.212879,-459.657299,-3108.864956,9696.697840
2721.213208,-1149.143247,-2886.803174,9326.594869
2721.213537,-995.924147,-3552.988522,9326.594869
2721.213866,-612.876398,-4441.235652,10362.883188
2721.214195,-612.876398,-5403.503377,10658.965565
2721.214524,-306.438199,-5255.462188,10214.842000
2721.214853,-229.828649,-5033.400406,9104.533087
2721.215183,0.000000,-3627.009116,8512.368333
2721.215512,153.219100,-1850.514855,8438.347739
2721.215841,459.657299,-666.185348,8290.306550
2721.216170,153.219100,-1332.370696,7994.224174
2721.216499,1072.533697,-2368.659014,8364.327145
2721.216828,1302.362347,-2886.803174,8290.306550
2721.217157,919.314598,-3775.050304,8512.368333
2721.217487,612.876398,-4219.173869,8290.306550
2721.217816,536.266849,-4589.276840,8734.430116
2721.218145,-306.438199,-4071.132681,8956.491898
2721.218474,612.876398,-3627.009116,8882.471304
2721.218803,689.485948,-3034.844362,8586.388927
2721.219132,229.828649,-2664.741391,7846.182985
2721.219461,76.609550,-2146.597232,8068.244768
2721.219791,-383.047749,-3182.885551,9400.615463
2721.220120,-612.876398,-4219.173869,9326.594869
2721.220449,-842.705048,-4219.173869,9696.697840
2721.220778,153.219100,-4737.318029,9770.718434
2721.221107,842.705048,-4589.276840,9474.636058
2721.221436,1302.362347,-4071.132681,9548.656652
2721.221766,1762.019645,-2664.741391,8586.388927
2721.222095,2681.334243,-1480.411884,7550.100608
2721.222424,2374.896044,-148.041188,7624.121203
2721.222753,3753.867940,-74.020594,6957.935855
2721.223082,3600.648841,-1110.308913,7179.997637
2721.223411,2451.505594,-2664.741391,8364.327145
2721.223740,689.485948,-3923.091493,9474.636058
2721.224070,-1149.143247,-5033.400406,10584.944971
2721.224399,-2604.724693,-4959.379811,11029.068536
2721.224728,-3370.820191,-4737.318029,11473.192101
2721.225057,-3753.867940,-4145.153275,11325.150913
2721.225386,-2834.553343,-3182.885551,11029.068536
2721.225715,-1991.848295,-2590.720797,9992.780217
2721.226044,-612.876398,-2368.659014,9400.615463
2721.226374,1378.971896,-2516.700203,9178.553681
2721.226703,3064.381992,-3182.885551,8290.306550
2721.227032,3753.867940,-2960.823768,7698.141797
2721.227361,4366.744339,-2590.720797,7254.018232
2721.227690,4596.572988,-1554.432478,7402.059420
2721.228019,4443.353888,-740.205942,7179.997637
2721.228348,3677.258390,-74.020594,7105.977043
2721.228678,2374.896044,-1480.411884,8068.244768
2721.229007,-306.438199,-3256.906145,9548.656652
2721.229336,-2528.115143,-4367.215058,10510.924376
2721.229665,-4366.744339,-5773.606348,11547.212695
2721.229994,-5286.058936,-7328.038826,12583.501014
2721.230323,-5132.839837,-6365.771101,11991.336260
2721.230652,-4366.744339,-5773.606348,10288.862594
2721.230982,-3294.210641,-4663.297435,9918.759623
2721.231311,-2145.067394,-3256.906145,8882.471304
2721.231640,-306.438199,-3849.070898,9992.780217
2721.231969,2528.115143,-2368.659014,8438.347739
2721.232298,4979.620737,-814.226536,5625.565159
2721.232627,4979.620737,-1258.350101,5329.482782
2721.232956,3983.696590,-1110.308913,5995.668130
2721.233285,5132.839837,-0.000000,7328.038826
2721.233615,4519.963438,-888.247130,7105.977043
2721.233944,4596.572988,-296.082377,6513.812290
2721.234273,3140.991542,518.144159,7624.121203
2721.234602,1915.238745,-222.061783,7179.997637
2721.234931,-1915.238745,-3923.091493,10881.027347
2721.235260,-3140.991542,-6217.729913,12879.583391
2721.235589,-3140.991542,-4885.359217,11769.274478
2721.235918,-3753.867940,-9178.553681,12435.459826
2721.236248,-4060.306139,-6365.771101,9474.636058
2721.236577,-2221.676944,-6809.894666,13545.768739
2721.236906,536.266849,-5847.626942,9844.739029
2721.237235,2911.162892,-1628.453072,7105.977043
2721.237564,5669.106685,-814.226536,5551.544565
2721.237893,5745.716235,1036.288319,5921.647536
2721.238222,3677.258390,888.247130,7254.018232
2721.238551,2987.772442,444.123565,5699.585753
2721.238881,2451.505594,-740.205942,6291.750507
2721.239210,383.047749,-3775.050304,8586.388927
2721.239539,-2834.553343,-6217.729913,11177.109724
2721.239868,-4443.353888,-5107.421000,12361.439231
2721.240197,-5515.887586,-8438.347739,12879.583391
2721.240526,-4673.182538,-6809.894666,11325.150913
2721.240855,-3447.429741,-3404.947333,10658.965565
2721.241184,-2221.676944,-3849.070898,9474.636058
2721.241514,-3064.381992,-1776.494261,8734.430116
2721.241843,-842.705048,-4145.153275,9104.533087
2721.242172,3294.210641,-3404.947333,9918.759623
2721.242501,4136.915689,-296.082377,2590.720797
2721.242830,5132.839837,-2220.617826,7920.203579
2721.243159,1455.581446,-888.247130,5403.503377
2721.243488,5209.449386,666.185348,8438.347739
2721.243817,1915.238745,2220.617826,5847.626942
2721.244146,2298.286494,3108.864956,6069.688724
2721.244476,919.314598,-296.082377,9178.553681
2721.244805,-3447.429741,-1480.411884,10658.965565
2721.245134,-5592.497135,-6587.832884,12879.583391
2721.245463,-7048.078582,-4959.379811,14285.974681
2721.245792,-5515.887586,-6587.832884,12065.356855
2721.246121,-6052.154434,-4737.318029,10066.800811
2721.246450,-4136.915689,-3256.906145,11103.089130
2721.246779,-3753.867940,-888.247130,9030.512492
2721.247109,-3294.210641,-1702.473667,8364.327145
2721.247438,-1915.238745,2146.597232,7105.977043
2721.247767,-1915.238745,518.144159,8512.368333
2721.248096,-1149.143247,962.267725,10807.006753
2721.248425,-1455.581446,518.144159,4441.235652
2721.248754,153.219100,-1406.391290,8956.491898
2721.249083,-689.485948,-592.164754,6661.853478
2721.249412,919.314598,-1110.308913,9030.512492
2721.249742,-1915.238745,-0.000000,8808.450710
2721.250071,-2528.115143,-444.123565,9548.656652
2721.250400,-2987.772442,-370.102971,9918.759623
2721.250729,-4213.525239,-74.020594,9474.636058
2721.251058,-4749.792088,370.102971,9770.718434
2721.251387,-3524.039291,-592.164754,9178.553681
2721.251716,-2757.943793,-1554.432478,8364.327145
2721.252045,-3524.039291,-2886.803174,9696.697840
2721.252375,-2221.676944,-3552.988522,11029.068536
2721.252704,-2834.553343,-2220.617826,7698.141797
2721.253033,-1378.971896,-2590.720797,8660.409521
2721.253362,-1225.752797,1628.453072,7031.956449
2721.253691,-612.876398,1998.556043,7105.977043
2721.254020,-842.705048,296.082377,9622.677246
2721.254349,-919.314598,-296.082377,8512.368333
2721.254678,-1915.238745,-1110.308913,9400.615463
2721.255008,-3600.648841,-1702.473667,9474.636058
2721.255337,-4136.915689,-1332.370696,11325.150913
2721.255666,-4826.401637,-1702.473667,11917.315666
2721.255995,-3447.429741,666.185348,10584.944971
2721.256324,-2757.943793,444.123565,8956.491898
2721.256653,-2451.505594,518.144159,8290.306550
2721.256982,-1762.019645,1036.288319,7624.121203
2721.257311,-1991.848295,666.185348,7476.080014
2721.257641,-2298.286494,962.267725,7698.141797
2721.257970,-3140.991542,592.164754,8216.285956
2721.258299,-2298.286494,-592.164754,8438.347739
2721.258628,-3140.991542,-814.226536,8808.450710
2721.258957,-3294.210641,-1110.308913,9030.512492
2721.259286,-3140.991542,-1998.556043,9474.636058
2721.259615,-3600.648841,-1628.453072,10140.821405
2721.259944,-3907.087040,-1628.453072,10362.883188
2721.260274,-4366.744339,-1110.308913,10881.027347
2721.260603,-4519.963438,-0.000000,10510.924376
2721.260932,-3983.696590,-0.000000,9992.780217
2721.261261,-3294.210641,666.185348,8882.471304
2721.261590,-2834.553343,1110.308913,8364.327145
2721.261919,-2298.286494,370.102971,8142.265362
2721.262248,-2528.115143,148.041188,8068.244768
2721.262577,-2451.505594,-962.267725,7846.182985
2721.262907,-1838.629195,-1406.391290,7994.224174
2721.263236,-1991.848295,-1184.329507,7772.162391
2721.263565,-995.924147,-1554.432478,7698.141797
2721.263894,-766.095498,-1554.432478,7920.203579
2721.264223,-919.314598,-1554.432478,9104.533087
2721.264552,-689.485948,-888.247130,9178.553681
2721.264881,-1608.800546,148.041188,9326.594869
2721.265210,-1608.800546,888.247130,9770.718434
2721.265540,-1225.752797,1480.411884,9104.533087
2721.265869,-1685.410096,1850.514855,9400.615463
2721.266198,-1762.019645,1554.432478,8808.450710
2721.266527,-2221.676944,1332.370696,8216.285956
2721.266856,-2451.505594,1110.308913,7476.080014
2721.267185,-3294.210641,740.205942,7624.121203
2721.267514,-3524.039291,-296.082377,8216.285956
2721.267843,-4443.353888,-1628.453072,9178.553681
2721.268173,-4136.915689,-1776.494261,9252.574275
2721.268502,-3983.696590,-1998.556043,9696.697840
2721.268831,-4136.915689,-2072.576638,10214.842000
2721.269160,-3524.039291,-2072.576638,10807.006753
2721.269489,-2987.772442,-1998.556043,11917.315666
2721.269818,-3064.381992,-1258.350101,12361.439231
2721.270147,-2604.724693,-666.185348,11769.274478
2721.270476,-2911.162892,962.267725,11251.130318
2721.270806,-2604.724693,1850.514855,11325.150913
2721.271135,-1072.533697,2812.782580,9770.718434
2721.271464,0.000000,4367.215058,7179.997637
2721.271793,0.000000,3923.091493,5995.668130
2721.272122,0.000000,3997.112087,5403.503377
2721.272451,-459.657299,3256.906145,5033.400406
2721.272780,-1762.019645,666.185348,6217.729913
2721.273109,-3064.381992,-1406.391290,7698.141797
2721.273439,-3983.696590,-3256.906145,9622.677246
2721.273768,-4290.134789,-3701.029710,8586.388927
2721.274097,-4903.011187,-3256.906145,10362.883188
2721.274426,-5669.106685,-4219.173869,12139.377449
2721.274755,-5515.887586,-4589.276840,13915.871710
2721.275084,-5132.839837,-2960.823768,14656.077652
2721.275413,-3907.087040,-740.205942,12065.356855
2721.275742,-2451.505594,888.247130,9474.636058
2721.276072,-2068.457845,3627.009116,7624.121203
2721.276401,-2451.505594,3997.112087,8882.471304
2721.276730,0.000000,2368.659014,9178.553681
2721.277059,689.485948,4145.153275,3256.906145
2721.277388,2298.286494,3108.864956,4885.359217
2721.277717,536.266849,2146.597232,2220.617826
