#time,accel_x,accel_y,accel_z
2662.124037,306.438199,296.082377,9104.533087
2662.124366,842.705048,-222.061783,8734.430116
2662.124695,153.219100,-0.000000,8438.347739
2662.125024,229.828649,-0.000000,8586.388927
2662.125353,153.219100,-148.041188,8882.471304
2662.125682,229.828649,-74.020594,8734.430116
2662.126011,459.657299,-74.020594,9030.512492
2662.126341,383.047749,-370.102971,9104.533087
2662.126670,153.219100,-296.082377,9178.553681
2662.126999,306.438199,-444.123565,8512.368333
2662.127328,229.828649,-222.061783,9030.512492
2662.127657,76.609550,-74.020594,8956.491898
2662.127986,229.828649,-222.061783,8956.491898
2662.128315,383.047749,-444.123565,8808.450710
2662.128644,229.828649,-296.082377,9104.533087
2662.128973,1072.533697,-444.123565,9400.615463
2662.129303,536.266849,-518.144159,8956.491898
2662.129632,459.657299,-222.061783,9030.512492
2662.129961,229.828649,-148.041188,9104.533087
2662.130290,306.438199,-444.123565,9178.553681
2662.130619,153.219100,-296.082377,9326.594869
2662.130948,-229.828649,-370.102971,9326.594869
2662.131277,536.266849,-370.102971,9326.594869
2662.131606,612.876398,-296.082377,9252.574275
2662.131935,229.828649,-0.000000,9326.594869
2662.132265,306.438199,-148.041188,9178.553681
2662.132594,612.876398,-74.020594,9104.533087
2662.132923,766.095498,-74.020594,9104.533087
2662.133252,689.485948,-222.061783,8808.450710
2662.133581,536.266849,444.123565,9400.615463
2662.133910,383.047749,-518.144159,9178.553681
2662.134239,229.828649,-222.061783,9252.574275
2662.134568,153.219100,-0.000000,9104.533087
2662.134897,229.828649,-0.000000,9104.533087
2662.135227,153.219100,-0.000000,9030.512492
2662.135556,689.485948,-296.082377,9030.512492
2662.135885,306.438199,-222.061783,9030.512492
2662.136214,459.657299,-370.102971,9030.512492
2662.136543,153.219100,-0.000000,8882.471304
2662.136872,229.828649,-0.000000,8882.471304
2662.137201,459.657299,-0.000000,8808.450710
2662.137530,383.047749,-0.000000,8808.450710
2662.137860,76.609550,-0.000000,9104.533087
2662.138189,-229.828649,-0.000000,8808.450710
2662.138518,76.609550,-148.041188,9178.553681
2662.138847,229.828649,-296.082377,8956.491898
2662.139176,0.000000,-74.020594,8956.491898
2662.139505,229.828649,-370.102971,9030.512492
2662.139834,153.219100,-0.000000,9326.594869
2662.140163,459.657299,148.041188,9400.615463
2662.140492,0.000000,-222.061783,9252.574275
2662.140822,536.266849,-370.102971,9474.636058
2662.141151,306.438199,-0.000000,9252.574275
2662.141480,229.828649,-74.020594,8956.491898
2662.141809,383.047749,-148.041188,9104.533087
2662.142138,536.266849,-0.000000,9326.594869
2662.142467,612.876398,-444.123565,9104.533087
2662.142796,612.876398,-0.000000,9548.656652
2662.143125,383.047749,-74.020594,9326.594869
2662.143454,76.609550,-222.061783,9178.553681
2662.143784,229.828649,-74.020594,9178.553681
2662.144113,229.828649,-148.041188,9252.574275
2662.144442,459.657299,-74.020594,9104.533087
2662.144771,153.219100,-0.000000,9474.636058
2662.145100,612.876398,-148.041188,9030.512492
2662.145429,76.609550,-0.000000,9104.533087
2662.145758,229.828649,-74.020594,9104.533087
2662.146087,229.828649,-0.000000,8956.491898
2662.146416,229.828649,-0.000000,9030.512492
2662.146746,306.438199,-0.000000,9030.512492
2662.147075,383.047749,-0.000000,9104.533087
2662.147404,229.828649,-666.185348,8956.491898
2662.147733,0.000000,-296.082377,8956.491898
2662.148062,-153.219100,-74.020594,8956.491898
2662.148391,306.438199,-222.061783,8882.471304
2662.148720,76.609550,-74.020594,8956.491898
2662.149049,229.828649,-0.000000,9030.512492
2662.149378,459.657299,-296.082377,9030.512492
2662.149708,306.438199,-296.082377,8956.491898
2662.150037,229.828649,-148.041188,9400.615463
2662.150366,153.219100,-222.061783,8882.471304
2662.150695,0.000000,-222.061783,9178.553681
2662.151024,229.828649,-222.061783,9474.636058
2662.151353,153.219100,-296.082377,9178.553681
2662.151682,306.438199,-370.102971,9178.553681
2662.152011,459.657299,-370.102971,9178.553681
2662.152340,459.657299,-0.000000,9548.656652
2662.152670,229.828649,-222.061783,9030.512492
2662.152999,-612.876398,-222.061783,9474.636058
2662.153328,536.266849,-370.102971,9178.553681
2662.153657,383.047749,-0.000000,9104.533087
2662.153986,459.657299,-148.041188,9030.512492
2662.154315,229.828649,-296.082377,9104.533087
2662.154644,536.266849,-370.102971,9178.553681
2662.154973,229.828649,-222.061783,9326.594869
2662.155302,612.876398,-518.144159,9474.636058
2662.155632,306.438199,-592.164754,9326.594869
2662.155961,383.047749,-148.041188,8956.491898
2662.156290,459.657299,-148.041188,9030.512492
2662.156619,689.485948,-592.164754,9474.636058
2662.156948,1762.019645,-888.247130,9474.636058
2662.157277,1532.190996,-888.247130,9474.636058
2662.157606,1838.629195,-666.185348,9326.594869
2662.157935,2221.676944,-370.102971,8512.368333
2662.158264,2681.334243,370.102971,8586.388927
2662.158594,3370.820191,-0.000000,8882.471304
2662.158923,4060.306139,-0.000000,8512.368333
2662.159252,3447.429741,-0.000000,8512.368333
2662.159581,3294.210641,-0.000000,8216.285956
2662.159910,2834.553343,-222.061783,8216.285956
2662.160239,3370.820191,-296.082377,9030.512492
2662.160568,2145.067394,-814.226536,8660.409521
2662.160897,1378.971896,-1036.288319,9918.759623
2662.161226,2374.896044,-2072.576638,9474.636058
2662.161556,2834.553343,-740.205942,9030.512492
2662.161885,2374.896044,-592.164754,9770.718434
2662.162214,3217.601092,-1702.473667,9696.697840
2662.162543,2834.553343,-0.000000,9104.533087
2662.162872,4903.011187,962.267725,8956.491898
2662.163201,4903.011187,962.267725,7105.977043
2662.163530,4213.525239,1406.391290,8956.491898
2662.163859,4903.011187,740.205942,8734.430116
2662.164188,3907.087040,296.082377,7550.100608
2662.164518,3907.087040,370.102971,9400.615463
2662.164847,2681.334243,-148.041188,9030.512492
2662.165176,2145.067394,-0.000000,9548.656652
2662.165505,995.924147,-1184.329507,9992.780217
2662.165834,1608.800546,-888.247130,9622.677246
2662.166163,1302.362347,-1036.288319,9770.718434
2662.166492,1225.752797,-814.226536,9326.594869
2662.166821,1915.238745,-0.000000,9918.759623
2662.167150,2528.115143,-0.000000,9770.718434
2662.167480,2757.943793,592.164754,7402.059420
2662.167809,4136.915689,888.247130,9844.739029
2662.168138,4366.744339,1406.391290,7994.224174
2662.168467,4290.134789,814.226536,7994.224174
2662.168796,4443.353888,370.102971,8808.450710
2662.169125,3907.087040,-222.061783,8956.491898
2662.169454,2757.943793,-592.164754,9326.594869
2662.169783,2451.505594,-1628.453072,9622.677246
2662.170113,2298.286494,-1332.370696,9770.718434
2662.170442,2145.067394,-1924.535449,10214.842000
2662.170771,2681.334243,-1628.453072,9844.739029
2662.171100,2528.115143,-1258.350101,9844.739029
2662.171429,3140.991542,-222.061783,9844.739029
2662.171758,3524.039291,296.082377,9178.553681
2662.172087,3907.087040,1184.329507,8290.306550
2662.172416,4290.134789,1850.514855,8216.285956
2662.172745,4673.182538,2368.659014,7476.080014
2662.173075,4366.744339,2294.638420,7031.956449
2662.173404,3907.087040,1554.432478,8290.306550
2662.173733,3600.648841,1110.308913,8364.327145
2662.174062,2911.162892,-148.041188,8586.388927
2662.174391,2451.505594,-1406.391290,9474.636058
2662.174720,2221.676944,-2442.679609,10066.800811
2662.175049,1838.629195,-3034.844362,10362.883188
2662.175378,2145.067394,-3108.864956,10732.986159
2662.175707,3140.991542,-2368.659014,10510.924376
2662.176037,3753.867940,-666.185348,10955.047942
2662.176366,4443.353888,-0.000000,9622.677246
2662.176695,5515.887586,1110.308913,9252.574275
2662.177024,5592.497135,2146.597232,8512.368333
2662.177353,5132.839837,2516.700203,8068.244768
2662.177682,4979.620737,3627.009116,7328.038826
2662.178011,4596.572988,3478.967927,7031.956449
2662.178340,3907.087040,2072.576638,7031.956449
2662.178669,3524.039291,518.144159,7772.162391
2662.178999,842.705048,-2368.659014,9918.759623
2662.179328,-459.657299,-4293.194464,10510.924376
2662.179657,-995.924147,-4219.173869,11325.150913
2662.179986,-536.266849,-5403.503377,11695.253884
2662.180315,-842.705048,-2368.659014,10510.924376
2662.180644,766.095498,-1480.411884,11177.109724
2662.180973,1455.581446,370.102971,10288.862594
2662.181302,4749.792088,1480.411884,10066.800811
2662.181631,6818.249932,1480.411884,8290.306550
2662.181961,6741.640382,1406.391290,7772.162391
2662.182290,5822.325785,888.247130,7698.141797
2662.182619,5745.716235,2368.659014,5921.647536
2662.182948,5669.106685,1998.556043,7179.997637
2662.183277,5286.058936,2516.700203,6143.709319
2662.183606,5286.058936,2738.761985,6809.894666
2662.183935,4596.572988,2146.597232,6365.771101
2662.184264,4519.963438,1036.288319,5921.647536
2662.184593,2834.553343,-3108.864956,9104.533087
2662.184923,0.000000,-7550.100608,12287.418637
2662.185252,-1149.143247,-3997.112087,11547.212695
2662.185581,-1302.362347,-5921.647536,14508.036463
2662.185910,-1762.019645,-5329.482782,12583.501014
2662.186239,0.000000,666.185348,11103.089130
2662.186568,3294.210641,-592.164754,11547.212695
2662.186897,3677.258390,2294.638420,8808.450710
2662.187226,7201.297681,1480.411884,9696.697840
2662.187555,7660.954980,1850.514855,8808.450710
2662.187885,7737.564530,3997.112087,6513.812290
2662.188214,7737.564530,3775.050304,6217.729913
2662.188543,7354.516781,962.267725,5403.503377
2662.188872,7048.078582,1850.514855,5403.503377
2662.189201,6511.811733,1332.370696,6735.874072
2662.189530,4290.134789,1702.473667,6291.750507
2662.189859,3907.087040,1480.411884,6587.832884
2662.190188,2911.162892,-2590.720797,10066.800811
2662.190517,-1302.362347,-5181.441594,11991.336260
2662.190847,-2834.553343,-2146.597232,11695.253884
2662.191176,-1532.190996,-4293.194464,13841.851115
2662.191505,-1302.362347,-3701.029710,11029.068536
2662.191834,306.438199,1628.453072,12065.356855
2662.192163,2145.067394,-296.082377,10955.047942
2662.192492,-383.047749,2516.700203,10510.924376
2662.192821,6052.154434,-888.247130,11621.233289
2662.193150,8503.660028,2146.597232,4441.235652
2662.193479,7431.126331,1258.350101,8216.285956
2662.193809,5898.935335,1110.308913,6291.750507
2662.194138,6511.811733,1924.535449,4589.276840
2662.194467,6511.811733,-0.000000,8512.368333
2662.194796,5669.106685,2368.659014,4219.173869
2662.195125,4596.572988,2146.597232,9030.512492
2662.195454,2528.115143,962.267725,6735.874072
2662.195783,3677.258390,1332.370696,7920.203579
2662.196112,1915.238745,-74.020594,9474.636058
2662.196441,1532.190996,-3849.070898,11769.274478
2662.196771,-766.095498,-1036.288319,10807.006753
2662.197100,0.000000,-5551.544565,13619.789333
2662.197429,-1762.019645,-1998.556043,10510.924376
2662.197758,919.314598,-296.082377,11621.233289
2662.198087,2374.896044,370.102971,9178.553681
2662.198416,2681.334243,1776.494261,9326.594869
2662.198745,3830.477490,-518.144159,8216.285956
2662.199074,3217.601092,888.247130,7920.203579
2662.199403,4290.134789,2442.679609,7624.121203
2662.199733,4213.525239,-148.041188,7846.182985
2662.200062,4136.915689,-1776.494261,7846.182985
2662.200391,2911.162892,-2442.679609,8956.491898
2662.200720,2298.286494,-1628.453072,10881.027347
2662.201049,1991.848295,-1036.288319,11029.068536
2662.201378,2068.457845,-814.226536,10214.842000
2662.201707,3294.210641,1628.453072,10658.965565
2662.202036,2834.553343,1480.411884,8956.491898
2662.202366,3140.991542,814.226536,9548.656652
2662.202694,4826.401637,1850.514855,7179.997637
2662.203023,5362.668486,1924.535449,8438.347739
2662.203352,5286.058936,1258.350101,7994.224174
2662.203681,4136.915689,222.061783,8068.244768
2662.204010,3447.429741,-1110.308913,7994.224174
2662.204339,1991.848295,370.102971,7698.141797
2662.204668,919.314598,-0.000000,8882.471304
2662.204997,-919.314598,-1554.432478,9918.759623
2662.205326,-1685.410096,-1850.514855,10584.944971
2662.205655,-1532.190996,-2442.679609,10732.986159
2662.205984,-306.438199,-1924.535449,9770.718434
2662.206313,-153.219100,-1776.494261,10214.842000
2662.206642,-1225.752797,-666.185348,10658.965565
2662.206971,-383.047749,-444.123565,11103.089130
2662.207300,2068.457845,1258.350101,8882.471304
2662.207629,4136.915689,2368.659014,7846.182985
2662.207958,3294.210641,2442.679609,7624.121203
2662.208287,3524.039291,1776.494261,8068.244768
2662.208616,2681.334243,1110.308913,7105.977043
2662.208945,3140.991542,1110.308913,7254.018232
2662.209274,2681.334243,-222.061783,8512.368333
2662.209603,229.828649,-1184.329507,8882.471304
2662.209932,-1685.410096,-2072.576638,9696.697840
2662.210261,-1991.848295,-2220.617826,10288.862594
2662.210590,-1378.971896,-2072.576638,10510.924376
2662.210919,-1762.019645,-1332.370696,10362.883188
2662.211248,-1532.190996,-74.020594,10510.924376
2662.211577,-1608.800546,370.102971,9696.697840
2662.211906,306.438199,370.102971,9326.594869
2662.212235,689.485948,-1036.288319,9474.636058
2662.212564,-536.266849,296.082377,9252.574275
2662.212893,2834.553343,-0.000000,8734.430116
2662.213222,3064.381992,962.267725,6883.915261
2662.213551,2145.067394,2368.659014,8734.430116
2662.213880,4443.353888,518.144159,8438.347739
2662.214209,1991.848295,2146.597232,6143.709319
2662.214538,1455.581446,1554.432478,5773.606348
2662.214867,2451.505594,1184.329507,7994.224174
2662.215196,-995.924147,-1628.453072,8216.285956
2662.215525,-2451.505594,-1184.329507,10807.006753
2662.215854,-2374.896044,-1998.556043,10584.944971
2662.216183,-2911.162892,-740.205942,8956.491898
2662.216512,-1685.410096,-1332.370696,9400.615463
2662.216841,-1762.019645,-370.102971,10066.800811
2662.217170,-1685.410096,222.061783,9474.636058
2662.217499,-689.485948,-222.061783,9696.697840
2662.217828,-919.314598,-1184.329507,9918.759623
2662.218157,-1149.143247,-2294.638420,10140.821405
2662.218486,-1302.362347,-1332.370696,9918.759623
2662.218815,-536.266849,-1036.288319,9696.697840
2662.219144,-383.047749,-1406.391290,9400.615463
2662.219473,536.266849,-740.205942,10214.842000
2662.219802,2451.505594,370.102971,8438.347739
2662.220131,3294.210641,2146.597232,6587.832884
2662.220460,3524.039291,2442.679609,6069.688724
2662.220789,2604.724693,1702.473667,7254.018232
2662.221118,1685.410096,444.123565,9474.636058
2662.221447,766.095498,1554.432478,8586.388927
2662.221776,383.047749,370.102971,7772.162391
2662.222105,-1762.019645,-1480.411884,10066.800811
2662.222434,-1532.190996,-1628.453072,11843.295072
2662.222763,-1685.410096,-1036.288319,10288.862594
2662.223092,-383.047749,-74.020594,8956.491898
2662.223421,0.000000,-74.020594,9030.512492
2662.223750,-153.219100,-1406.391290,11399.171507
2662.224079,-1455.581446,-740.205942,11029.068536
2662.224408,0.000000,-444.123565,10214.842000
2662.224737,536.266849,-1184.329507,8660.409521
2662.225066,459.657299,370.102971,9030.512492
2662.225395,1378.971896,444.123565,9770.718434
2662.225724,2068.457845,1924.535449,7105.977043
2662.226053,3677.258390,1924.535449,7179.997637
2662.226382,3140.991542,1332.370696,7179.997637
2662.226710,2068.457845,666.185348,8216.285956
2662.227039,612.876398,814.226536,8956.491898
2662.227368,153.219100,666.185348,7994.224174
2662.227697,-1072.533697,-1036.288319,9474.636058
2662.228026,-1532.190996,-1776.494261,10288.862594
2662.228355,-1302.362347,-962.267725,9696.697840
2662.228684,-306.438199,-962.267725,9696.697840
2662.229013,-229.828649,-1998.556043,9474.636058
2662.229342,-536.266849,-2664.741391,10732.986159
2662.229671,-383.047749,-1406.391290,10362.883188
2662.230000,-383.047749,-592.164754,10066.800811
2662.230329,536.266849,-370.102971,9474.636058
2662.230658,76.609550,444.123565,9178.553681
2662.230987,612.876398,222.061783,9918.759623
2662.231316,1685.410096,1258.350101,8290.306550
2662.231645,1915.238745,1332.370696,7328.038826
2662.231974,1225.752797,-0.000000,8512.368333
2662.232303,1532.190996,-0.000000,9178.553681
2662.232632,842.705048,-222.061783,8068.244768
2662.232961,-306.438199,-888.247130,8586.388927
2662.233290,-766.095498,-1406.391290,9622.677246
2662.233619,-1149.143247,-1924.535449,9992.780217
2662.233948,-1991.848295,-1332.370696,10066.800811
2662.234277,-766.095498,-1036.288319,9696.697840
2662.234606,306.438199,-740.205942,8438.347739
2662.234935,459.657299,-148.041188,9252.574275
2662.235264,1072.533697,-444.123565,10288.862594
2662.235593,1685.410096,740.205942,8808.450710
2662.235922,2528.115143,1554.432478,8142.265362
2662.236251,2221.676944,2220.617826,7846.182985
2662.236580,1532.190996,1406.391290,8512.368333
2662.236909,1838.629195,1258.350101,8216.285956
2662.237238,1302.362347,740.205942,7624.121203
2662.237567,306.438199,-888.247130,8660.409521
2662.237896,-689.485948,-1702.473667,9548.656652
2662.238225,-1915.238745,-1924.535449,9474.636058
2662.238554,-1302.362347,-2072.576638,10288.862594
2662.238883,-536.266849,-1332.370696,8290.306550
2662.239212,-536.266849,-1776.494261,9770.718434
2662.239541,-766.095498,-370.102971,9918.759623
2662.239870,0.000000,740.205942,8956.491898
2662.240199,459.657299,148.041188,8808.450710
2662.240528,306.438199,-370.102971,9844.739029
2662.240857,842.705048,-74.020594,10140.821405
2662.241186,1455.581446,962.267725,9178.553681
2662.241515,1762.019645,1184.329507,8142.265362
2662.241844,1762.019645,962.267725,8364.327145
2662.242173,1608.800546,740.205942,8882.471304
2662.242502,919.314598,962.267725,8438.347739
2662.242831,919.314598,370.102971,7772.162391
2662.243160,-689.485948,-962.267725,9326.594869
2662.243489,-1608.800546,-1480.411884,10288.862594
2662.243818,-1915.238745,-1776.494261,11177.109724
2662.244147,-1762.019645,-1036.288319,9918.759623
2662.244476,-612.876398,-370.102971,9474.636058
2662.244805,-536.266849,-592.164754,9844.739029
2662.245134,-919.314598,592.164754,9548.656652
2662.245463,-612.876398,296.082377,9770.718434
2662.245792,0.000000,-0.000000,8660.409521
2662.246121,383.047749,-0.000000,9326.594869
2662.246450,383.047749,-1110.308913,9696.697840
2662.246779,689.485948,-0.000000,9030.512492
2662.247108,2221.676944,592.164754,7846.182985
2662.247437,1762.019645,148.041188,7698.141797
2662.247766,1991.848295,962.267725,8512.368333
2662.248095,2451.505594,1406.391290,7920.203579
2662.248424,2374.896044,1110.308913,7254.018232
2662.248753,1225.752797,-0.000000,8734.430116
2662.249082,0.000000,-888.247130,9622.677246
2662.249411,-536.266849,-1554.432478,10362.883188
2662.249740,-842.705048,-296.082377,9400.615463
2662.250069,-536.266849,-1628.453072,9844.739029
2662.250398,-383.047749,-962.267725,9326.594869
2662.250727,-536.266849,-222.061783,9474.636058
2662.251055,0.000000,814.226536,9178.553681
2662.251384,536.266849,592.164754,8142.265362
2662.251713,536.266849,-444.123565,8364.327145
2662.252042,842.705048,-888.247130,9844.739029
2662.252371,919.314598,-1036.288319,9104.533087
2662.252700,1149.143247,-296.082377,7994.224174
2662.253029,1762.019645,-0.000000,8068.244768
2662.253358,1762.019645,370.102971,8956.491898
2662.253687,1455.581446,1036.288319,8364.327145
2662.254016,1302.362347,740.205942,8068.244768
2662.254345,919.314598,370.102971,8438.347739
2662.254674,-536.266849,-592.164754,9326.594869
2662.255003,-1302.362347,-1332.370696,9770.718434
2662.255332,-1302.362347,-592.164754,9474.636058
2662.255661,-766.095498,-1036.288319,9474.636058
2662.255990,-1225.752797,-1036.288319,9474.636058
2662.256319,-1225.752797,-888.247130,9844.739029
2662.256648,-1378.971896,-0.000000,8882.471304
2662.256977,-459.657299,-0.000000,9030.512492
2662.257306,0.000000,-1036.288319,9548.656652
2662.257635,-612.876398,-888.247130,9474.636058
2662.257964,-306.438199,-1036.288319,10362.883188
2662.258293,229.828649,-1998.556043,9844.739029
2662.258622,229.828649,-148.041188,8586.388927
2662.258951,919.314598,-814.226536,9844.739029
2662.259280,1915.238745,-296.082377,8216.285956
2662.259609,3370.820191,1850.514855,7105.977043
2662.259938,2604.724693,740.205942,7105.977043
2662.260267,2604.724693,2146.597232,7846.182985
2662.260596,1991.848295,-0.000000,9252.574275
2662.260925,1455.581446,962.267725,7402.059420
2662.261254,612.876398,-296.082377,7846.182985
2662.261583,-842.705048,-1776.494261,10214.842000
2662.261912,-1608.800546,-1850.514855,9992.780217
2662.262241,-689.485948,-814.226536,10436.903782
2662.262570,0.000000,-888.247130,8216.285956
2662.262899,459.657299,-222.061783,9104.533087
2662.263228,76.609550,-2072.576638,10881.027347
2662.263557,-459.657299,-666.185348,10436.903782
2662.263886,919.314598,-222.061783,9992.780217
2662.264215,2451.505594,-0.000000,8364.327145
2662.264544,2221.676944,962.267725,8956.491898
2662.264873,2451.505594,2072.576638,8882.471304
2662.265202,2834.553343,2072.576638,7254.018232
2662.265531,2834.553343,1924.535449,7328.038826
2662.265860,1838.629195,1036.288319,8586.388927
2662.266189,459.657299,-888.247130,9326.594869
2662.266518,-1378.971896,-888.247130,9326.594869
2662.266847,-995.924147,-1554.432478,9622.677246
2662.267176,-1225.752797,-2146.597232,9622.677246
2662.267505,-1685.410096,-1776.494261,9622.677246
2662.267834,-1608.800546,-1036.288319,10066.800811
2662.268163,-1072.533697,-0.000000,8808.450710
2662.268492,153.219100,-518.144159,9696.697840
2662.268821,-842.705048,-1406.391290,9474.636058
2662.269150,-842.705048,-1184.329507,10288.862594
2662.269479,-842.705048,-222.061783,10288.862594
2662.269808,0.000000,1258.350101,8956.491898
2662.270137,1225.752797,296.082377,9326.594869
2662.270466,1072.533697,1332.370696,6809.894666
2662.270795,3370.820191,2072.576638,7328.038826
2662.271124,2528.115143,814.226536,6513.812290
2662.271453,2145.067394,1850.514855,6439.791695
2662.271782,1072.533697,-222.061783,8290.306550
2662.272111,0.000000,-148.041188,7994.224174
2662.272440,-1225.752797,-592.164754,8734.430116
2662.272769,-1991.848295,-2072.576638,9770.718434
2662.273098,-2451.505594,-2812.782580,10584.944971
2662.273427,-1532.190996,-592.164754,9770.718434
2662.273756,-612.876398,-1776.494261,9918.759623
2662.274085,-842.705048,-444.123565,9474.636058
2662.274414,-306.438199,-1406.391290,10510.924376
2662.274743,-1225.752797,-148.041188,10214.842000
2662.275071,0.000000,-518.144159,10510.924376
2662.275400,1608.800546,592.164754,8142.265362
2662.275729,2834.553343,518.144159,7698.141797
2662.276058,2604.724693,1184.329507,7550.100608
2662.276387,3370.820191,1628.453072,7105.977043
2662.276716,2834.553343,1036.288319,6661.853478
2662.277045,1685.410096,-444.123565,7624.121203
2662.277374,689.485948,-740.205942,9030.512492
2662.277703,-1225.752797,-518.144159,9474.636058
2662.278032,-1455.581446,-2368.659014,9918.759623
2662.278361,-2068.457845,-1406.391290,10807.006753
2662.278690,-1378.971896,-2294.638420,10362.883188
2662.279019,-995.924147,-1184.329507,10510.924376
2662.279348,-842.705048,-0.000000,9400.615463
2662.279677,229.828649,222.061783,9400.615463
2662.280006,-459.657299,-370.102971,9104.533087
2662.280335,842.705048,-592.164754,11251.130318
2662.280664,1608.800546,962.267725,7772.162391
2662.280993,3447.429741,1184.329507,7920.203579
2662.281322,3140.991542,1110.308913,7550.100608
2662.281651,2681.334243,1554.432478,8290.306550
2662.281980,1991.848295,1850.514855,8216.285956
2662.282309,1915.238745,1110.308913,6809.894666
2662.282638,1149.143247,-0.000000,8364.327145
2662.282967,-1072.533697,-1036.288319,10288.862594
2662.283296,-2145.067394,-1850.514855,10584.944971
2662.283625,-1685.410096,-1850.514855,11325.150913
2662.283954,-2068.457845,-888.247130,9474.636058
2662.284283,-1378.971896,-1332.370696,9474.636058
2662.284612,-1532.190996,-666.185348,10658.965565
2662.284941,-995.924147,592.164754,9474.636058
2662.285270,-383.047749,222.061783,8216.285956
2662.285599,-612.876398,-444.123565,8808.450710
2662.285928,-536.266849,-1258.350101,10955.047942
2662.286257,766.095498,-962.267725,10510.924376
2662.286586,1149.143247,-0.000000,7698.141797
2662.286915,2374.896044,-0.000000,8142.265362
2662.287244,2298.286494,888.247130,8290.306550
2662.287573,2604.724693,2072.576638,8660.409521
2662.287902,2221.676944,1036.288319,6957.935855
2662.288231,2068.457845,1554.432478,8216.285956
2662.288560,153.219100,-1776.494261,9622.677246
2662.288889,-919.314598,-370.102971,9474.636058
2662.289218,-1225.752797,-740.205942,9400.615463
2662.289547,-1455.581446,-1628.453072,9474.636058
2662.289876,-1225.752797,-1702.473667,9696.697840
2662.290205,-995.924147,-1480.411884,10362.883188
2662.290534,-612.876398,-370.102971,8956.491898
2662.290863,-306.438199,-518.144159,8364.327145
2662.291192,0.000000,-888.247130,9548.656652
2662.291521,-536.266849,-592.164754,9326.594869
2662.291850,306.438199,-666.185348,9474.636058
2662.292179,1532.190996,-148.041188,7624.121203
2662.292508,2068.457845,592.164754,7846.182985
2662.292837,2528.115143,814.226536,8808.450710
2662.293166,3064.381992,1776.494261,7550.100608
2662.293495,3217.601092,1998.556043,7402.059420
2662.293824,2451.505594,1554.432478,7328.038826
2662.294153,919.314598,666.185348,8438.347739
2662.294482,0.000000,-0.000000,9400.615463
2662.294811,-766.095498,-888.247130,8734.430116
2662.295140,-2374.896044,-1258.350101,10066.800811
2662.295469,-1225.752797,-2738.761985,10732.986159
2662.295798,-1762.019645,-1480.411884,9696.697840
2662.296127,-1608.800546,-666.185348,9696.697840
2662.296456,-919.314598,-444.123565,8956.491898
2662.296785,-842.705048,-740.205942,9400.615463
2662.297114,-842.705048,-888.247130,10288.862594
2662.297443,0.000000,222.061783,9770.718434
2662.297772,689.485948,-296.082377,10140.821405
2662.298101,842.705048,814.226536,8290.306550
2662.298430,1532.190996,1258.350101,9474.636058
2662.298759,2068.457845,1554.432478,8882.471304
2662.299088,2451.505594,2072.576638,6957.935855
2662.299416,2451.505594,740.205942,7846.182985
2662.299745,1762.019645,-0.000000,8216.285956
2662.300074,842.705048,-0.000000,9326.594869
2662.300403,-766.095498,-74.020594,8512.368333
2662.300732,-1378.971896,-1258.350101,9252.574275
2662.301061,-2068.457845,-1480.411884,11103.089130
2662.301390,-2451.505594,-1850.514855,10066.800811
2662.301720,-1608.800546,-444.123565,10214.842000
2662.302049,-383.047749,-1110.308913,9326.594869
2662.302378,-536.266849,-0.000000,9696.697840
2662.302707,-766.095498,-1628.453072,11029.068536
2662.303036,-995.924147,-222.061783,9918.759623
2662.303365,229.828649,222.061783,9548.656652
2662.303694,1532.190996,-0.000000,9030.512492
2662.304023,1685.410096,222.061783,8586.388927
2662.304352,3600.648841,1998.556043,8142.265362
2662.304681,4443.353888,1332.370696,6587.832884
2662.305010,4826.401637,1998.556043,6069.688724
2662.305339,3983.696590,1036.288319,6957.935855
2662.305668,2451.505594,1036.288319,8216.285956
2662.305997,1149.143247,-0.000000,7920.203579
2662.306326,0.000000,-1036.288319,8734.430116
2662.306655,-2374.896044,-2738.761985,11029.068536
2662.306984,-2681.334243,-3108.864956,11769.274478
2662.307314,-2145.067394,-1776.494261,10510.924376
2662.307643,-1149.143247,-1258.350101,9696.697840
2662.307972,-1072.533697,-1036.288319,9474.636058
2662.308301,-689.485948,-1406.391290,10288.862594
2662.308630,-612.876398,-518.144159,10584.944971
2662.308959,229.828649,-222.061783,9992.780217
2662.309288,2451.505594,-444.123565,8216.285956
2662.309617,2374.896044,962.267725,7254.018232
2662.309946,3217.601092,1406.391290,8290.306550
2662.310275,3217.601092,2368.659014,5847.626942
2662.310604,3830.477490,1702.473667,6883.915261
2662.310933,2681.334243,1036.288319,7328.038826
2662.311262,536.266849,222.061783,8882.471304
2662.311591,-383.047749,-370.102971,9252.574275
2662.311920,-1608.800546,-1110.308913,9178.553681
2662.312249,-2451.505594,-1998.556043,11029.068536
2662.312578,-3064.381992,-1628.453072,9992.780217
2662.312907,-1915.238745,-1258.350101,10436.903782
2662.313237,-1915.238745,-444.123565,9326.594869
2662.313566,-766.095498,-740.205942,9400.615463
2662.313895,-842.705048,-1702.473667,10362.883188
2662.314224,-1302.362347,-1110.308913,10140.821405
2662.314553,0.000000,-0.000000,9844.739029
2662.314882,229.828649,-518.144159,9178.553681
2662.315211,459.657299,-148.041188,9400.615463
2662.315540,1762.019645,370.102971,8808.450710
2662.315869,3600.648841,1850.514855,6883.915261
2662.316198,4213.525239,1110.308913,5255.462188
2662.316527,3524.039291,740.205942,6957.935855
2662.316856,2604.724693,592.164754,8290.306550
2662.317185,1072.533697,1036.288319,7624.121203
2662.317514,0.000000,-148.041188,7994.224174
2662.317843,-1762.019645,-1184.329507,10362.883188
2662.318172,-1915.238745,-2220.617826,11695.253884
2662.318501,-2145.067394,-1554.432478,10214.842000
2662.318830,-689.485948,-1702.473667,9770.718434
2662.319160,-383.047749,-1258.350101,9474.636058
2662.319489,-612.876398,-962.267725,10214.842000
2662.319818,-1149.143247,-222.061783,10955.047942
2662.320147,-153.219100,-592.164754,11103.089130
2662.320476,306.438199,-0.000000,9548.656652
2662.320805,2374.896044,740.205942,9178.553681
2662.321134,2834.553343,888.247130,8882.471304
2662.321463,3370.820191,2368.659014,7254.018232
2662.321792,4290.134789,1924.535449,6735.874072
2662.322121,3907.087040,1850.514855,7550.100608
2662.322450,1915.238745,888.247130,8882.471304
2662.322779,1225.752797,962.267725,7920.203579
2662.323108,0.000000,-0.000000,8660.409521
2662.323437,-1762.019645,-1036.288319,10214.842000
2662.323766,-1532.190996,-1924.535449,11177.109724
2662.324095,-2221.676944,-1406.391290,9696.697840
2662.324424,-1225.752797,-1480.411884,10214.842000
2662.324754,-536.266849,-1110.308913,8956.491898
2662.325083,-995.924147,-1036.288319,10436.903782
2662.325412,-1225.752797,-1406.391290,10955.047942
2662.325741,-306.438199,74.020594,9474.636058
2662.326070,0.000000,-0.000000,9104.533087
2662.326399,0.000000,592.164754,9104.533087
2662.326728,689.485948,592.164754,9696.697840
2662.327057,1455.581446,1554.432478,7328.038826
2662.327386,2987.772442,1480.411884,6809.894666
2662.327715,2451.505594,962.267725,6735.874072
2662.328044,2145.067394,518.144159,8512.368333
2662.328373,995.924147,370.102971,8364.327145
2662.328702,229.828649,-148.041188,7550.100608
2662.329031,-383.047749,-74.020594,8438.347739
2662.329360,-1302.362347,-1406.391290,9696.697840
2662.329689,-1991.848295,-1702.473667,10140.821405
2662.330018,-1225.752797,-1628.453072,9474.636058
2662.330347,0.000000,-1702.473667,8808.450710
2662.330677,-919.314598,-2072.576638,10066.800811
2662.331006,-1149.143247,-1702.473667,11029.068536
2662.331335,-1149.143247,-148.041188,9992.780217
2662.331664,306.438199,-74.020594,9696.697840
2662.331993,612.876398,740.205942,8956.491898
2662.332322,1762.019645,518.144159,9474.636058
2662.332651,2145.067394,1258.350101,8586.388927
2662.332980,2681.334243,1480.411884,7254.018232
2662.333309,3294.210641,814.226536,8660.409521
2662.333638,2298.286494,592.164754,7994.224174
2662.333967,1532.190996,518.144159,8290.306550
2662.334296,612.876398,740.205942,8142.265362
2662.334625,-229.828649,-444.123565,8734.430116
2662.334954,-995.924147,-1480.411884,10510.924376
2662.335283,-1225.752797,-1184.329507,10881.027347
2662.335612,-1378.971896,-1628.453072,9474.636058
2662.335941,-995.924147,-888.247130,9474.636058
2662.336271,-1532.190996,-2220.617826,10362.883188
2662.336600,-1838.629195,-1776.494261,10658.965565
2662.336929,-1072.533697,222.061783,10584.944971
2662.337258,0.000000,-0.000000,9696.697840
2662.337587,306.438199,1480.411884,6735.874072
2662.337916,1532.190996,-0.000000,10288.862594
2662.338245,2451.505594,2442.679609,7179.997637
2662.338574,3294.210641,2220.617826,6143.709319
2662.338903,2911.162892,592.164754,6735.874072
2662.339232,2451.505594,1036.288319,8290.306550
2662.339561,1455.581446,296.082377,9844.739029
2662.339890,-229.828649,148.041188,7624.121203
2662.340219,-842.705048,-1258.350101,8586.388927
2662.340548,-1608.800546,-1924.535449,10732.986159
2662.340877,-2451.505594,-1258.350101,10066.800811
2662.341206,-2068.457845,-1554.432478,10140.821405
2662.341535,-1378.971896,-1406.391290,9104.533087
2662.341864,-1378.971896,-1110.308913,9474.636058
2662.342194,-1378.971896,-1850.514855,10881.027347
2662.342523,-1378.971896,-1184.329507,9770.718434
2662.342852,766.095498,-370.102971,9474.636058
2662.343181,1838.629195,444.123565,7846.182985
2662.343510,2145.067394,518.144159,8660.409521
2662.343839,2221.676944,1332.370696,7328.038826
2662.344168,3907.087040,1554.432478,7105.977043
2662.344497,3447.429741,888.247130,6735.874072
2662.344826,2834.553343,518.144159,7846.182985
2662.345155,1991.848295,222.061783,8660.409521
2662.345484,459.657299,888.247130,7772.162391
2662.345813,0.000000,-148.041188,9252.574275
2662.346142,-2221.676944,-1036.288319,9400.615463
2662.346471,-1608.800546,-1406.391290,11029.068536
2662.346800,-1378.971896,-1036.288319,10288.862594
2662.347129,-842.705048,-518.144159,8734.430116
2662.347458,-1225.752797,-2146.597232,10140.821405
2662.347788,-1149.143247,-2072.576638,10140.821405
2662.348117,0.000000,-296.082377,10214.842000
2662.348446,995.924147,370.102971,8660.409521
2662.348775,2451.505594,-296.082377,8512.368333
2662.349104,2451.505594,962.267725,8734.430116
2662.349433,3830.477490,1702.473667,7846.182985
2662.349762,3064.381992,1776.494261,7105.977043
2662.350091,2757.943793,666.185348,7254.018232
2662.350420,2068.457845,888.247130,8512.368333
2662.350749,1072.533697,-0.000000,9770.718434
2662.351078,0.000000,-74.020594,8586.388927
2662.351407,-919.314598,-518.144159,8956.491898
2662.351736,-1302.362347,-1110.308913,10658.965565
2662.352065,-1915.238745,-888.247130,9992.780217
2662.352394,-1762.019645,-814.226536,10066.800811
2662.352723,-1225.752797,-888.247130,8734.430116
2662.353052,-1302.362347,-740.205942,9474.636058
2662.353381,-1838.629195,-1406.391290,10658.965565
2662.353711,-919.314598,-888.247130,10658.965565
2662.354040,76.609550,-222.061783,9992.780217
2662.354369,76.609550,370.102971,9400.615463
2662.354698,229.828649,296.082377,9474.636058
2662.355027,536.266849,888.247130,9252.574275
2662.355356,2068.457845,1850.514855,8142.265362
2662.355685,2451.505594,1184.329507,7476.080014
2662.356014,1302.362347,1554.432478,8808.450710
2662.356343,1302.362347,592.164754,8956.491898
2662.356672,-306.438199,666.185348,9030.512492
2662.357001,-689.485948,-222.061783,9326.594869
2662.357330,-1225.752797,-592.164754,9400.615463
2662.357659,-1608.800546,-1036.288319,9918.759623
2662.357988,-536.266849,-666.185348,9400.615463
2662.358317,-689.485948,-888.247130,9252.574275
2662.358646,-612.876398,-1924.535449,9030.512492
2662.358975,-459.657299,-1628.453072,9770.718434
2662.359304,153.219100,-1406.391290,10955.047942
2662.359634,842.705048,-0.000000,8660.409521
2662.359963,2221.676944,-0.000000,8364.327145
2662.360292,2068.457845,370.102971,8290.306550
2662.360621,2604.724693,1110.308913,7920.203579
2662.360950,3294.210641,1406.391290,6883.915261
2662.361279,3370.820191,740.205942,6957.935855
2662.361608,2298.286494,222.061783,8142.265362
2662.361937,1149.143247,-740.205942,8956.491898
2662.362266,0.000000,-296.082377,8882.471304
2662.362595,-229.828649,-666.185348,9326.594869
2662.362924,-919.314598,-1924.535449,9474.636058
2662.363253,-919.314598,-1332.370696,10584.944971
2662.363582,-1608.800546,-814.226536,9918.759623
2662.363911,-842.705048,-222.061783,9178.553681
2662.364240,-306.438199,-1332.370696,9178.553681
2662.364569,-306.438199,-1110.308913,10066.800811
2662.364898,766.095498,-444.123565,9770.718434
2662.365228,1915.238745,222.061783,8512.368333
2662.365557,2068.457845,-0.000000,8364.327145
2662.365886,1685.410096,1332.370696,8364.327145
2662.366215,1915.238745,740.205942,8586.388927
2662.366544,1149.143247,1036.288319,7920.203579
2662.366873,2221.676944,740.205942,7328.038826
2662.367202,459.657299,-518.144159,8734.430116
2662.367531,-766.095498,-296.082377,9844.739029
2662.367860,-1225.752797,-1554.432478,9770.718434
2662.368189,-1838.629195,-0.000000,9326.594869
2662.368518,-1072.533697,-740.205942,10436.903782
2662.368847,-1685.410096,-1258.350101,10140.821405
2662.369176,-1532.190996,-0.000000,9918.759623
2662.369505,-842.705048,222.061783,9030.512492
2662.369834,-612.876398,-814.226536,9252.574275
2662.370163,-1072.533697,-1406.391290,10658.965565
2662.370492,-689.485948,-1110.308913,10955.047942
2662.370821,1072.533697,740.205942,9178.553681
2662.371151,1838.629195,1258.350101,8142.265362
2662.371480,1149.143247,888.247130,8142.265362
2662.371809,1915.238745,1480.411884,9474.636058
2662.372138,2374.896044,2072.576638,7772.162391
2662.372467,2451.505594,1480.411884,6661.853478
2662.372796,1072.533697,-148.041188,8216.285956
2662.373125,0.000000,-1258.350101,9474.636058
2662.373454,-1532.190996,-666.185348,9030.512492
2662.373783,-1608.800546,-1406.391290,9326.594869
2662.374112,-459.657299,-1480.411884,8290.306550
2662.374441,-1455.581446,-1110.308913,9844.739029
2662.374770,-1378.971896,-740.205942,11399.171507
2662.375099,-459.657299,-962.267725,10214.842000
2662.375428,0.000000,-1776.494261,9104.533087
2662.375757,689.485948,-1258.350101,9474.636058
2662.376086,2145.067394,-518.144159,10436.903782
2662.376415,2221.676944,148.041188,8216.285956
2662.376745,3677.258390,1184.329507,7624.121203
2662.377074,2911.162892,370.102971,8142.265362
2662.377403,2374.896044,592.164754,8364.327145
2662.377732,2451.505594,592.164754,8586.388927
2662.378061,2374.896044,962.267725,7105.977043
2662.378390,229.828649,-0.000000,8364.327145
2662.378719,-766.095498,-1554.432478,10732.986159
2662.379048,-1608.800546,-1554.432478,9548.656652
2662.379377,-1149.143247,-962.267725,9104.533087
2662.379706,-1225.752797,-1850.514855,9104.533087
2662.380035,-1915.238745,-1480.411884,9844.739029
2662.380364,-1225.752797,-518.144159,9992.780217
2662.380693,-153.219100,518.144159,8364.327145
2662.381022,919.314598,-0.000000,7846.182985
2662.381351,1225.752797,-296.082377,9030.512492
2662.381680,1455.581446,148.041188,9030.512492
2662.382009,1838.629195,592.164754,8512.368333
2662.382338,2374.896044,1406.391290,7105.977043
2662.382668,1378.971896,1184.329507,9104.533087
2662.382997,1532.190996,148.041188,9326.594869
2662.383326,919.314598,1036.288319,7846.182985
2662.383655,-229.828649,666.185348,8438.347739
2662.383984,0.000000,-962.267725,9400.615463
2662.384313,-1225.752797,-1480.411884,9696.697840
2662.384642,-2221.676944,-1480.411884,10214.842000
2662.384971,-1225.752797,-814.226536,9400.615463
2662.385300,-1302.362347,-1406.391290,9326.594869
2662.385629,-1149.143247,-148.041188,9474.636058
2662.385958,-842.705048,-518.144159,9474.636058
2662.386287,-919.314598,-0.000000,9992.780217
2662.386616,689.485948,-0.000000,8734.430116
2662.386945,1915.238745,296.082377,9178.553681
2662.387274,1762.019645,-592.164754,9918.759623
2662.387603,1838.629195,1258.350101,8956.491898
2662.387932,2374.896044,1110.308913,8438.347739
2662.388261,2145.067394,962.267725,8364.327145
2662.388591,1455.581446,518.144159,8956.491898
2662.388920,1072.533697,592.164754,9030.512492
2662.389249,612.876398,518.144159,8512.368333
2662.389578,-459.657299,-814.226536,7994.224174
2662.389907,-1532.190996,-1628.453072,9992.780217
2662.390236,-2298.286494,-2072.576638,10732.986159
2662.390565,-1532.190996,-814.226536,9474.636058
2662.390894,-1378.971896,-888.247130,8956.491898
2662.391223,-1225.752797,-1036.288319,9474.636058
2662.391552,-306.438199,148.041188,10362.883188
2662.391881,-229.828649,-74.020594,9696.697840
2662.392210,612.876398,-0.000000,8290.306550
2662.392539,1378.971896,-148.041188,9326.594869
2662.392868,2145.067394,-370.102971,9104.533087
2662.393197,2298.286494,740.205942,8734.430116
2662.393526,3370.820191,666.185348,7698.141797
2662.393855,2911.162892,1332.370696,7328.038826
2662.394185,2374.896044,1332.370696,8808.450710
2662.394514,1838.629195,1480.411884,8808.450710
2662.394843,995.924147,1258.350101,7254.018232
2662.395172,0.000000,-222.061783,8142.265362
2662.395501,-1608.800546,-1480.411884,9770.718434
2662.395830,-2528.115143,-2664.741391,10140.821405
2662.396159,-2757.943793,-1776.494261,9992.780217
2662.396488,-1378.971896,-1702.473667,9696.697840
2662.396817,-1915.238745,-1110.308913,9252.574275
2662.397146,-1762.019645,-740.205942,10288.862594
2662.397475,-1378.971896,-74.020594,9770.718434
2662.397804,0.000000,-74.020594,8882.471304
2662.398133,612.876398,-1036.288319,9770.718434
2662.398462,1762.019645,-1480.411884,9918.759623
2662.398791,2451.505594,-222.061783,8956.491898
2662.399120,3217.601092,962.267725,7772.162391
2662.399449,3370.820191,1184.329507,6217.729913
2662.399778,3370.820191,1776.494261,8808.450710
2662.400108,2451.505594,1702.473667,8068.244768
2662.400437,2681.334243,1776.494261,6587.832884
2662.400766,1685.410096,-370.102971,7105.977043
2662.401095,-306.438199,-1628.453072,9252.574275
2662.401424,-1685.410096,-2146.597232,10584.944971
2662.401753,-1991.848295,-2072.576638,9622.677246
2662.402082,-1378.971896,-2072.576638,10066.800811
2662.402411,-1838.629195,-1702.473667,9770.718434
2662.402740,-1149.143247,-962.267725,10140.821405
2662.403069,-1072.533697,-148.041188,9918.759623
2662.403399,0.000000,-0.000000,9918.759623
2662.403728,1685.410096,-296.082377,9696.697840
2662.404057,1762.019645,-518.144159,9474.636058
2662.404386,3140.991542,962.267725,8216.285956
2662.404715,4979.620737,1998.556043,7031.956449
2662.405044,4673.182538,1702.473667,6883.915261
2662.405374,3677.258390,1036.288319,7698.141797
2662.405703,3140.991542,1776.494261,8586.388927
2662.406032,2451.505594,2146.597232,6883.915261
2662.406361,1378.971896,666.185348,7994.224174
2662.406690,-995.924147,-666.185348,10140.821405
2662.407020,-2068.457845,-2146.597232,11029.068536
2662.407349,-2451.505594,-2516.700203,11473.192101
2662.407678,-1532.190996,-1924.535449,11103.089130
2662.408007,-2298.286494,-2368.659014,10288.862594
2662.408336,-2451.505594,-2072.576638,10584.944971
2662.408666,-2145.067394,592.164754,9770.718434
2662.408995,-842.705048,296.082377,9252.574275
2662.409324,-229.828649,-444.123565,9178.553681
2662.409653,-536.266849,-888.247130,10584.944971
2662.409982,-306.438199,-1554.432478,10584.944971
2662.410311,995.924147,1110.308913,8586.388927
2662.410641,2528.115143,-148.041188,7698.141797
2662.410970,2298.286494,1702.473667,7476.080014
2662.411299,3294.210641,1776.494261,7920.203579
2662.411628,2221.676944,3256.906145,6809.894666
2662.411957,1838.629195,2368.659014,5847.626942
2662.412287,612.876398,-0.000000,8734.430116
2662.412616,-1302.362347,-1480.411884,9622.677246
2662.412945,-2145.067394,-1036.288319,10140.821405
2662.413274,-2834.553343,-1776.494261,10140.821405
2662.413603,-2757.943793,-2812.782580,10362.883188
2662.413932,-2757.943793,-1702.473667,10362.883188
2662.414262,-2068.457845,-666.185348,10584.944971
2662.414591,-1225.752797,-74.020594,8882.471304
2662.414920,-536.266849,-1406.391290,8438.347739
2662.415249,76.609550,-1998.556043,9770.718434
2662.415578,1072.533697,-666.185348,9548.656652
2662.415908,3294.210641,888.247130,7550.100608
2662.416237,3753.867940,1036.288319,6513.812290
2662.416566,3447.429741,2220.617826,6883.915261
2662.416895,4213.525239,2368.659014,8142.265362
2662.417224,3217.601092,2590.720797,6661.853478
2662.417553,1838.629195,1850.514855,7105.977043
2662.417883,1455.581446,-740.205942,9252.574275
2662.418212,-1762.019645,-592.164754,9474.636058
2662.418541,-2911.162892,-2960.823768,11991.336260
2662.418870,-2987.772442,-3256.906145,11251.130318
2662.419199,-2374.896044,-3404.947333,10288.862594
2662.419529,-2374.896044,-2368.659014,11103.089130
2662.419858,-1225.752797,-888.247130,10955.047942
2662.420187,-689.485948,-222.061783,9770.718434
2662.420516,1532.190996,-148.041188,9178.553681
2662.420845,2451.505594,518.144159,8808.450710
2662.421174,2834.553343,888.247130,8364.327145
2662.421504,3830.477490,1998.556043,7328.038826
2662.421833,4749.792088,2442.679609,7179.997637
2662.422162,3294.210641,1258.350101,8068.244768
2662.422491,3064.381992,1332.370696,8586.388927
2662.422820,1915.238745,666.185348,8512.368333
2662.423150,459.657299,740.205942,7846.182985
2662.423479,-995.924147,-1258.350101,9474.636058
2662.423808,-3370.820191,-2220.617826,11029.068536
2662.424137,-2528.115143,-3330.926739,11769.274478
2662.424466,-2451.505594,-1110.308913,10214.842000
2662.424795,-2604.724693,-1776.494261,9252.574275
2662.425125,-1991.848295,-1110.308913,9844.739029
2662.425454,-1991.848295,-222.061783,9548.656652
2662.425783,-842.705048,888.247130,8882.471304
2662.426112,-76.609550,-518.144159,9252.574275
2662.426441,459.657299,-962.267725,10140.821405
2662.426771,1225.752797,-296.082377,9030.512492
2662.427100,2451.505594,962.267725,7550.100608
2662.427429,2681.334243,740.205942,6809.894666
2662.427758,3140.991542,1998.556043,7624.121203
2662.428087,2681.334243,1554.432478,8068.244768
2662.428416,2757.943793,1776.494261,7179.997637
2662.428746,1838.629195,1924.535449,7550.100608
2662.429075,229.828649,-740.205942,8216.285956
2662.429404,-1532.190996,-1998.556043,10066.800811
2662.429733,-2068.457845,-1628.453072,9844.739029
2662.430062,-1685.410096,-1480.411884,9400.615463
2662.430392,-1762.019645,-1998.556043,9992.780217
2662.430721,-1915.238745,-2368.659014,10584.944971
2662.431050,-2145.067394,-370.102971,9918.759623
2662.431379,-995.924147,-370.102971,9622.677246
2662.431708,-306.438199,-148.041188,9104.533087
2662.432037,383.047749,-0.000000,9918.759623
2662.432367,1225.752797,-0.000000,9548.656652
2662.432696,2145.067394,814.226536,8586.388927
2662.433025,3217.601092,1480.411884,7624.121203
2662.433354,3753.867940,1554.432478,7476.080014
2662.433683,3064.381992,1554.432478,8882.471304
2662.434013,2911.162892,1998.556043,8808.450710
2662.434342,2757.943793,2146.597232,7328.038826
2662.434671,919.314598,-0.000000,7328.038826
2662.435000,-153.219100,-222.061783,10362.883188
2662.435329,-1378.971896,-1702.473667,10584.944971
2662.435659,-2451.505594,-1406.391290,9918.759623
2662.435988,-1608.800546,-1480.411884,10066.800811
2662.436317,-2604.724693,-2886.803174,11029.068536
2662.436646,-2834.553343,-370.102971,10584.944971
2662.436975,-1915.238745,-370.102971,9844.739029
2662.437304,-995.924147,-0.000000,8586.388927
2662.437634,0.000000,-666.185348,9474.636058
2662.437963,-612.876398,-1406.391290,11103.089130
2662.438292,689.485948,-740.205942,9548.656652
2662.438621,2451.505594,1036.288319,7994.224174
2662.438950,2681.334243,592.164754,7105.977043
2662.439280,2681.334243,1702.473667,7328.038826
2662.439609,3447.429741,2220.617826,8512.368333
2662.439938,3064.381992,2072.576638,6809.894666
2662.440267,2681.334243,1258.350101,6143.709319
2662.440596,1149.143247,518.144159,8512.368333
2662.440925,-229.828649,-740.205942,9030.512492
2662.441255,-2068.457845,-1406.391290,9400.615463
2662.441584,-2528.115143,-2294.638420,9918.759623
2662.441913,-2604.724693,-3627.009116,10658.965565
2662.442242,-3677.258390,-2072.576638,10288.862594
2662.442571,-1685.410096,-1332.370696,10436.903782
2662.442901,-1302.362347,-962.267725,9326.594869
2662.443230,-689.485948,-1628.453072,9918.759623
2662.443559,-1225.752797,-1628.453072,10510.924376
2662.443888,-306.438199,-1406.391290,11547.212695
2662.444217,1915.238745,296.082377,8882.471304
2662.444546,3753.867940,1332.370696,7550.100608
2662.444876,4136.915689,2590.720797,7476.080014
2662.445205,4519.963438,2664.741391,6883.915261
2662.445534,4903.011187,3182.885551,6291.750507
2662.445863,4290.134789,2516.700203,5773.606348
2662.446192,3217.601092,740.205942,7402.059420
2662.446522,1072.533697,-0.000000,8142.265362
2662.446851,-1149.143247,-1258.350101,8808.450710
2662.447180,-2528.115143,-2220.617826,10140.821405
2662.447509,-3600.648841,-3478.967927,11325.150913
2662.447838,-3064.381992,-2590.720797,11325.150913
2662.448167,-2834.553343,-1554.432478,10881.027347
2662.448497,-1762.019645,-222.061783,9178.553681
2662.448826,-1532.190996,-1184.329507,9326.594869
2662.449155,-1225.752797,-1628.453072,11029.068536
2662.449484,0.000000,-148.041188,11103.089130
2662.449813,2298.286494,518.144159,9326.594869
2662.450143,3294.210641,1554.432478,7328.038826
2662.450472,4136.915689,2368.659014,7920.203579
2662.450801,3753.867940,2294.638420,7105.977043
2662.451130,4519.963438,3330.926739,6661.853478
2662.451459,3064.381992,1850.514855,7328.038826
2662.451788,2451.505594,222.061783,8512.368333
2662.452118,-383.047749,-444.123565,9474.636058
2662.452447,-2528.115143,-1332.370696,9326.594869
2662.452776,-3140.991542,-3034.844362,11473.192101
2662.453105,-3830.477490,-2146.597232,10214.842000
2662.453434,-2528.115143,-2294.638420,10362.883188
2662.453764,-2374.896044,-148.041188,10658.965565
2662.454093,-1455.581446,-0.000000,9992.780217
2662.454422,-766.095498,-518.144159,10140.821405
2662.454751,-842.705048,-962.267725,9770.718434
2662.455080,0.000000,-1110.308913,12139.377449
2662.455409,612.876398,-444.123565,9104.533087
2662.455739,3217.601092,1924.535449,7994.224174
2662.456068,3294.210641,814.226536,8364.327145
2662.456397,3983.696590,2368.659014,6957.935855
2662.456726,4903.011187,2220.617826,7624.121203
2662.457055,3600.648841,2294.638420,6439.791695
2662.457385,2757.943793,1036.288319,6957.935855
2662.457714,0.000000,-1554.432478,9844.739029
2662.458043,-1608.800546,-962.267725,8734.430116
2662.458372,-1991.848295,-962.267725,10362.883188
2662.458701,-2298.286494,-2886.803174,10584.944971
2662.459030,-2451.505594,-2220.617826,9918.759623
2662.459360,-1991.848295,-1998.556043,10807.006753
2662.459689,-919.314598,-296.082377,9178.553681
2662.460018,-919.314598,-1406.391290,9696.697840
2662.460347,-995.924147,-1184.329507,9918.759623
2662.460676,536.266849,-74.020594,11103.089130
2662.461006,1838.629195,666.185348,7254.018232
2662.461335,3370.820191,1184.329507,6957.935855
2662.461664,3294.210641,592.164754,7105.977043
2662.461993,2987.772442,1628.453072,8216.285956
2662.462322,3677.258390,1628.453072,7254.018232
2662.462652,3064.381992,1480.411884,5847.626942
2662.462981,1532.190996,-222.061783,8734.430116
2662.463310,-306.438199,-296.082377,9178.553681
2662.463639,-1532.190996,-1628.453072,9104.533087
2662.463968,-2757.943793,-2368.659014,10510.924376
2662.464297,-1838.629195,-1998.556043,10214.842000
2662.464627,-2145.067394,-2072.576638,9844.739029
2662.464956,-2068.457845,-962.267725,9992.780217
2662.465285,-1455.581446,-148.041188,9844.739029
2662.465614,-1455.581446,-1110.308913,9326.594869
2662.465943,-1378.971896,-1480.411884,10288.862594
2662.466273,-459.657299,-1406.391290,11473.192101
2662.466602,1072.533697,370.102971,8734.430116
2662.466931,1378.971896,814.226536,8438.347739
2662.467260,1915.238745,962.267725,8068.244768
2662.467589,1838.629195,1480.411884,8660.409521
2662.467918,2528.115143,1776.494261,8290.306550
2662.468248,2757.943793,2146.597232,6883.915261
2662.468577,1608.800546,666.185348,8808.450710
2662.468906,0.000000,-814.226536,9474.636058
2662.469235,-919.314598,-518.144159,8882.471304
2662.469564,-1302.362347,-222.061783,8660.409521
2662.469894,-1225.752797,-1184.329507,9696.697840
2662.470223,-1608.800546,-1554.432478,10584.944971
2662.470552,-2374.896044,-1702.473667,10288.862594
2662.470881,-1072.533697,-888.247130,9474.636058
2662.471210,-1225.752797,-1480.411884,9696.697840
2662.471539,-612.876398,-1998.556043,10732.986159
2662.471869,306.438199,-370.102971,9770.718434
2662.472198,1991.848295,370.102971,8956.491898
2662.472527,2681.334243,740.205942,8512.368333
2662.472856,2834.553343,962.267725,7772.162391
2662.473185,3370.820191,1184.329507,9104.533087
2662.473515,3600.648841,1628.453072,7624.121203
2662.473844,3907.087040,1480.411884,6809.894666
2662.474173,2911.162892,1036.288319,7476.080014
2662.474502,1378.971896,740.205942,9104.533087
2662.474831,612.876398,-518.144159,9474.636058
2662.475160,76.609550,-148.041188,9030.512492
2662.475490,153.219100,-1258.350101,9178.553681
2662.475819,-1532.190996,-1850.514855,10436.903782
2662.476148,-2451.505594,-1702.473667,10362.883188
2662.476477,-2068.457845,-1036.288319,10288.862594
2662.476806,-1915.238745,-1924.535449,9844.739029
2662.477136,-1762.019645,-1850.514855,10584.944971
2662.477465,-153.219100,-740.205942,10658.965565
2662.477794,459.657299,518.144159,9622.677246
2662.478123,995.924147,1924.535449,8142.265362
2662.478452,2681.334243,1850.514855,8438.347739
2662.478781,2757.943793,1258.350101,8660.409521
2662.479111,2911.162892,2294.638420,7772.162391
2662.479440,3600.648841,2664.741391,6735.874072
2662.479769,2681.334243,370.102971,5625.565159
2662.480098,1225.752797,666.185348,8216.285956
2662.480427,306.438199,-592.164754,9696.697840
2662.480757,-1302.362347,-666.185348,8364.327145
2662.481086,-1685.410096,-888.247130,9474.636058
2662.481415,-2528.115143,-2294.638420,10510.924376
2662.481744,-2757.943793,-1406.391290,10214.842000
2662.482073,-2681.334243,-1850.514855,10140.821405
2662.482402,-2068.457845,-1258.350101,9474.636058
2662.482732,-1685.410096,-2294.638420,9622.677246
2662.483061,-1072.533697,-1850.514855,10510.924376
2662.483390,306.438199,-592.164754,9104.533087
2662.483719,1455.581446,592.164754,8142.265362
2662.484048,1838.629195,222.061783,7920.203579
2662.484378,2451.505594,666.185348,8734.430116
2662.484707,2604.724693,1184.329507,7846.182985
2662.485036,3140.991542,1850.514855,6957.935855
2662.485365,2681.334243,592.164754,7105.977043
2662.485694,1455.581446,-222.061783,8734.430116
2662.486023,612.876398,-518.144159,9104.533087
2662.486353,0.000000,-222.061783,8734.430116
2662.486682,-766.095498,-1406.391290,9400.615463
2662.487011,-2145.067394,-1998.556043,10510.924376
2662.487340,-3294.210641,-1110.308913,10510.924376
2662.487669,-2374.896044,-1332.370696,10140.821405
2662.487999,-1608.800546,-1628.453072,9548.656652
2662.488328,-1838.629195,-1184.329507,9474.636058
2662.488657,-919.314598,-2590.720797,11399.171507
2662.488986,459.657299,-666.185348,10510.924376
2662.489315,1532.190996,888.247130,8290.306550
2662.489645,3217.601092,1258.350101,8660.409521
2662.489974,2911.162892,2146.597232,9104.533087
2662.490303,3524.039291,2072.576638,8882.471304
2662.490632,3677.258390,2960.823768,6735.874072
2662.490961,3830.477490,2812.782580,6809.894666
2662.491290,2451.505594,518.144159,8660.409521
2662.491620,1378.971896,962.267725,8882.471304
2662.491949,0.000000,-0.000000,9326.594869
2662.492278,-1378.971896,370.102971,8956.491898
2662.492607,-1991.848295,-1702.473667,10140.821405
2662.492936,-2834.553343,-1702.473667,11177.109724
2662.493266,-2834.553343,-1110.308913,9918.759623
2662.493595,-1991.848295,-666.185348,9474.636058
2662.493924,-1225.752797,-2220.617826,9918.759623
2662.494253,-1915.238745,-1406.391290,10658.965565
2662.494582,-842.705048,-888.247130,11325.150913
2662.494911,536.266849,-370.102971,9474.636058
2662.495241,2528.115143,814.226536,8438.347739
2662.495570,2757.943793,1702.473667,8438.347739
2662.495899,2604.724693,1850.514855,7846.182985
2662.496228,3753.867940,2072.576638,7994.224174
2662.496557,3294.210641,1406.391290,6513.812290
2662.496887,2911.162892,666.185348,7179.997637
2662.497216,919.314598,-222.061783,9252.574275
2662.497545,0.000000,-962.267725,8734.430116
2662.497874,-1378.971896,-518.144159,9030.512492
2662.498203,-2221.676944,-2516.700203,10362.883188
2662.498532,-2757.943793,-2960.823768,10584.944971
2662.498862,-2911.162892,-2072.576638,10066.800811
2662.499191,-1838.629195,-1184.329507,9474.636058
2662.499520,-229.828649,-1850.514855,9178.553681
2662.499849,-1455.581446,-1702.473667,10362.883188
2662.500178,0.000000,-1480.411884,11473.192101
2662.500508,1685.410096,518.144159,8142.265362
2662.500837,3370.820191,1258.350101,8216.285956
2662.501166,3370.820191,1628.453072,7105.977043
2662.501495,3753.867940,2368.659014,7624.121203
2662.501824,3907.087040,2442.679609,7550.100608
2662.502153,3677.258390,1480.411884,5699.585753
2662.502482,3217.601092,222.061783,7994.224174
2662.502811,459.657299,370.102971,8364.327145
2662.503140,76.609550,-74.020594,8808.450710
2662.503469,-1838.629195,-814.226536,9400.615463
2662.503798,-2298.286494,-1258.350101,9992.780217
2662.504127,-2221.676944,-1776.494261,11251.130318
2662.504456,-2681.334243,-1332.370696,10955.047942
2662.504785,-2068.457845,-296.082377,9844.739029
2662.505114,-919.314598,-1702.473667,9622.677246
2662.505443,-1072.533697,-888.247130,10214.842000
2662.505772,0.000000,-962.267725,11029.068536
2662.506101,1685.410096,222.061783,8882.471304
2662.506430,2834.553343,1258.350101,7846.182985
2662.506760,3600.648841,1702.473667,8216.285956
2662.507089,2911.162892,888.247130,8512.368333
2662.507418,2911.162892,2294.638420,7550.100608
2662.507747,2681.334243,1850.514855,6809.894666
2662.508076,1608.800546,-0.000000,9178.553681
2662.508405,0.000000,-740.205942,10066.800811
2662.508734,-1455.581446,-1258.350101,9622.677246
2662.509063,-2068.457845,-1332.370696,9770.718434
2662.509392,-2374.896044,-1776.494261,10066.800811
2662.509721,-2681.334243,-1406.391290,10362.883188
2662.510050,-2298.286494,-888.247130,10140.821405
2662.510379,-1838.629195,-666.185348,9992.780217
2662.510708,-1455.581446,-2072.576638,10140.821405
2662.511037,-306.438199,-1406.391290,10510.924376
2662.511366,-153.219100,-814.226536,9252.574275
2662.511695,1455.581446,370.102971,8882.471304
2662.512024,2374.896044,1480.411884,7624.121203
2662.512353,2298.286494,1406.391290,8068.244768
2662.512682,2298.286494,1110.308913,8586.388927
2662.513011,2911.162892,1702.473667,6883.915261
2662.513340,2374.896044,666.185348,6587.832884
2662.513669,919.314598,-0.000000,8438.347739
2662.513998,0.000000,-1258.350101,9326.594869
2662.514327,-1608.800546,-1702.473667,9400.615463
2662.514656,-1608.800546,-592.164754,8438.347739
2662.514985,-1532.190996,-1258.350101,8734.430116
2662.515314,-1149.143247,-1998.556043,10066.800811
2662.515643,-1149.143247,-592.164754,9474.636058
2662.515972,-536.266849,-1110.308913,9326.594869
2662.516301,459.657299,-888.247130,8290.306550
2662.516630,1149.143247,-1332.370696,9178.553681
2662.516959,1302.362347,-740.205942,9400.615463
2662.517288,2298.286494,740.205942,7772.162391
2662.517617,3370.820191,1332.370696,7624.121203
2662.517946,2145.067394,814.226536,8068.244768
2662.518275,2757.943793,1554.432478,9400.615463
2662.518604,2528.115143,740.205942,8364.327145
2662.518933,1149.143247,814.226536,7920.203579
2662.519262,459.657299,-888.247130,9178.553681
2662.519591,-1225.752797,-1628.453072,9770.718434
2662.519920,-1762.019645,-1554.432478,10066.800811
2662.520249,-1915.238745,-888.247130,9474.636058
2662.520578,-1685.410096,-518.144159,9474.636058
2662.520907,-1072.533697,-888.247130,9622.677246
2662.521236,-1838.629195,-370.102971,10066.800811
2662.521565,-995.924147,296.082377,8956.491898
2662.521894,-229.828649,-296.082377,9178.553681
2662.522223,1149.143247,-1406.391290,9548.656652
2662.522552,612.876398,-1110.308913,9622.677246
2662.522881,995.924147,-666.185348,9770.718434
2662.523210,1915.238745,962.267725,8216.285956
2662.523539,1838.629195,1406.391290,8734.430116
2662.523868,689.485948,888.247130,9992.780217
2662.524197,1072.533697,1184.329507,9622.677246
2662.524526,1225.752797,-0.000000,8364.327145
2662.524855,1378.971896,666.185348,7328.038826
2662.525184,229.828649,-518.144159,10584.944971
2662.525513,-689.485948,-518.144159,9178.553681
2662.525842,0.000000,444.123565,8660.409521
2662.526171,-229.828649,370.102971,8364.327145
2662.526500,-842.705048,-518.144159,9400.615463
2662.526829,-766.095498,-962.267725,10362.883188
2662.527159,-536.266849,-518.144159,9474.636058
2662.527488,383.047749,-1332.370696,9400.615463
2662.527817,766.095498,-1850.514855,9474.636058
2662.528146,842.705048,-1406.391290,9770.718434
2662.528475,995.924147,-0.000000,10214.842000
2662.528804,2374.896044,1258.350101,8068.244768
2662.529133,2528.115143,1480.411884,7920.203579
2662.529462,3064.381992,518.144159,8882.471304
2662.529791,2987.772442,1998.556043,8364.327145
2662.530120,2604.724693,1258.350101,7402.059420
2662.530449,1991.848295,-74.020594,7846.182985
2662.530778,536.266849,-666.185348,9252.574275
2662.531107,-383.047749,-888.247130,9474.636058
2662.531436,-766.095498,-740.205942,8660.409521
2662.531765,-1685.410096,-1332.370696,9474.636058
2662.532094,-1455.581446,-2220.617826,10807.006753
2662.532423,-2145.067394,-1480.411884,10436.903782
2662.532752,-1991.848295,-740.205942,10066.800811
2662.533081,-306.438199,-1110.308913,8882.471304
2662.533410,-306.438199,-1110.308913,9474.636058
2662.533739,536.266849,-1480.411884,11251.130318
2662.534068,1608.800546,370.102971,8586.388927
2662.534397,2528.115143,2590.720797,7476.080014
2662.534726,2757.943793,1776.494261,7550.100608
2662.535055,2681.334243,1776.494261,7994.224174
2662.535384,1991.848295,1554.432478,8142.265362
2662.535713,1915.238745,1332.370696,6365.771101
2662.536042,919.314598,-148.041188,7624.121203
2662.536371,-1378.971896,-1850.514855,9474.636058
2662.536700,-1685.410096,-1406.391290,9474.636058
2662.537029,-2757.943793,-2072.576638,10436.903782
2662.537358,-2298.286494,-1924.535449,9030.512492
2662.537687,-1838.629195,-1332.370696,9474.636058
2662.538016,-1991.848295,-518.144159,10140.821405
2662.538345,-1915.238745,-370.102971,9770.718434
2662.538674,-842.705048,-0.000000,9326.594869
2662.539003,-689.485948,-1332.370696,9326.594869
2662.539332,0.000000,-1406.391290,11547.212695
2662.539661,76.609550,-592.164754,10140.821405
2662.539990,1991.848295,444.123565,7994.224174
2662.540319,2451.505594,888.247130,7254.018232
2662.540648,2987.772442,1036.288319,8586.388927
2662.540977,2757.943793,1258.350101,8808.450710
2662.541306,2604.724693,1036.288319,6883.915261
2662.541635,2834.553343,444.123565,7328.038826
2662.541964,1225.752797,-1332.370696,9326.594869
2662.542293,-1072.533697,-1850.514855,9992.780217
2662.542622,-1225.752797,-2294.638420,10066.800811
2662.542951,-1608.800546,-962.267725,9400.615463
2662.543280,-1685.410096,-2146.597232,10140.821405
2662.543609,-2145.067394,-1258.350101,11251.130318
2662.543938,-1762.019645,-74.020594,10288.862594
2662.544267,0.000000,-1110.308913,9548.656652
2662.544596,536.266849,-1110.308913,9474.636058
2662.544925,1302.362347,-518.144159,10436.903782
2662.545254,1838.629195,1480.411884,8660.409521
2662.545583,2834.553343,1924.535449,7624.121203
2662.545912,3753.867940,1776.494261,7994.224174
2662.546241,3677.258390,1554.432478,7698.141797
2662.546570,3140.991542,2220.617826,8438.347739
2662.546899,2987.772442,1850.514855,7550.100608
2662.547228,1685.410096,1480.411884,7402.059420
2662.547557,-689.485948,-888.247130,9918.759623
2662.547887,-1762.019645,-1184.329507,10807.006753
2662.548216,-2451.505594,-2072.576638,10510.924376
2662.548545,-2298.286494,-1480.411884,9844.739029
2662.548874,-1532.190996,-1850.514855,9918.759623
2662.549203,-2374.896044,-666.185348,9622.677246
2662.549532,-1991.848295,-0.000000,9548.656652
2662.549861,-383.047749,148.041188,9548.656652
2662.550190,842.705048,-148.041188,7846.182985
2662.550519,1991.848295,370.102971,9326.594869
2662.550848,2528.115143,-74.020594,8808.450710
2662.551177,2528.115143,888.247130,7105.977043
2662.551506,3217.601092,1998.556043,7624.121203
2662.551835,2604.724693,1184.329507,8290.306550
2662.552164,1608.800546,1406.391290,8438.347739
2662.552493,2145.067394,888.247130,7920.203579
2662.552822,995.924147,296.082377,7698.141797
2662.553151,-842.705048,-1184.329507,9844.739029
2662.553480,-1149.143247,-2664.741391,10436.903782
2662.553809,-2221.676944,-1998.556043,10510.924376
2662.554138,-2068.457845,-1110.308913,10288.862594
2662.554467,-1838.629195,-1332.370696,9770.718434
2662.554796,-2757.943793,-1850.514855,9622.677246
2662.555125,-1149.143247,-0.000000,9548.656652
2662.555454,919.314598,296.082377,8512.368333
2662.555783,1455.581446,-814.226536,7920.203579
2662.556112,2681.334243,-1332.370696,9622.677246
2662.556441,2145.067394,370.102971,7698.141797
2662.556770,2221.676944,1258.350101,7994.224174
2662.557099,3983.696590,1776.494261,7476.080014
2662.557428,2757.943793,296.082377,7179.997637
2662.557757,1838.629195,1628.453072,9918.759623
2662.558086,2145.067394,-0.000000,8734.430116
2662.558415,383.047749,444.123565,7846.182985
2662.558744,-383.047749,-370.102971,9696.697840
2662.559073,-1455.581446,-1628.453072,10510.924376
2662.559402,-2298.286494,-1776.494261,10362.883188
2662.559731,-1302.362347,-222.061783,9400.615463
2662.560060,-1072.533697,-592.164754,8660.409521
2662.560389,-2068.457845,-1480.411884,10881.027347
2662.560718,-1685.410096,-518.144159,10955.047942
2662.561047,-229.828649,962.267725,8956.491898
2662.561376,1149.143247,-222.061783,8660.409521
2662.561705,1455.581446,-444.123565,8216.285956
2662.562034,2145.067394,-74.020594,9178.553681
2662.562363,2681.334243,592.164754,8438.347739
2662.562692,2834.553343,2146.597232,7328.038826
2662.563021,2374.896044,1332.370696,8586.388927
2662.563350,2068.457845,740.205942,10214.842000
2662.563679,1149.143247,2220.617826,9030.512492
2662.564008,306.438199,592.164754,8290.306550
2662.564337,-536.266849,-740.205942,8956.491898
2662.564666,-1532.190996,-2072.576638,10732.986159
2662.564995,-2451.505594,-1184.329507,10881.027347
2662.565324,-2987.772442,-1406.391290,9548.656652
2662.565653,-2221.676944,-1924.535449,9992.780217
2662.565982,-2757.943793,-1184.329507,10362.883188
2662.566311,-2298.286494,-592.164754,10436.903782
2662.566640,-1225.752797,-888.247130,9548.656652
2662.566969,766.095498,-222.061783,8660.409521
2662.567298,1455.581446,-1184.329507,9252.574275
2662.567627,1608.800546,-666.185348,9474.636058
2662.567956,3064.381992,296.082377,7179.997637
2662.568286,3677.258390,1924.535449,7550.100608
2662.568615,2987.772442,2368.659014,7105.977043
2662.568944,2757.943793,962.267725,8882.471304
2662.569273,1991.848295,1184.329507,7624.121203
2662.569602,1915.238745,518.144159,7179.997637
2662.569931,1455.581446,-814.226536,8586.388927
2662.570260,-612.876398,-2368.659014,9548.656652
2662.570589,-1149.143247,-1628.453072,9770.718434
2662.570918,-1762.019645,-1628.453072,9548.656652
2662.571247,-1225.752797,-1258.350101,9252.574275
2662.571576,-1915.238745,-1924.535449,9918.759623
2662.571905,-612.876398,-592.164754,10362.883188
2662.572234,306.438199,-0.000000,9030.512492
2662.572563,1378.971896,-74.020594,8512.368333
2662.572892,1915.238745,-74.020594,8734.430116
2662.573221,2451.505594,-0.000000,8734.430116
2662.573550,3524.039291,666.185348,8438.347739
2662.573879,3370.820191,1850.514855,7179.997637
2662.574208,3677.258390,1628.453072,8142.265362
2662.574537,2451.505594,1406.391290,9030.512492
2662.574866,1378.971896,962.267725,9030.512492
2662.575195,1072.533697,962.267725,8290.306550
2662.575524,0.000000,-888.247130,8882.471304
2662.575853,-1532.190996,-1776.494261,10140.821405
2662.576182,-1378.971896,-1998.556043,10658.965565
2662.576511,-1915.238745,-1406.391290,10510.924376
2662.576840,-2068.457845,-1924.535449,9918.759623
2662.577169,-1762.019645,-1998.556043,10214.842000
2662.577498,-2374.896044,-666.185348,10658.965565
2662.577827,-1455.581446,-148.041188,10214.842000
2662.578156,-229.828649,-0.000000,8808.450710
2662.578485,229.828649,-370.102971,8586.388927
2662.578814,1685.410096,-0.000000,9474.636058
2662.579143,1838.629195,1406.391290,8734.430116
2662.579472,2451.505594,2590.720797,7105.977043
2662.579801,1455.581446,2960.823768,7698.141797
2662.580130,1149.143247,2368.659014,8512.368333
2662.580459,-229.828649,1332.370696,8290.306550
2662.580788,-1685.410096,888.247130,7698.141797
2662.581117,-2911.162892,-1110.308913,8586.388927
2662.581446,-4519.963438,-2738.761985,10510.924376
2662.581775,-6435.202183,-2368.659014,10362.883188
2662.582104,-5132.839837,-2442.679609,9474.636058
2662.582433,-5669.106685,-518.144159,9104.533087
2662.582762,-5975.544884,-2442.679609,10658.965565
2662.583091,-6128.763984,-2516.700203,11103.089130
2662.583420,-5286.058936,-1332.370696,10140.821405
2662.583749,-3983.696590,-592.164754,9474.636058
2662.584078,-2451.505594,-1258.350101,9400.615463
2662.584407,-2528.115143,-1554.432478,9400.615463
2662.584736,-3524.039291,444.123565,9474.636058
2662.585065,-1072.533697,-370.102971,10362.883188
2662.585394,-383.047749,1850.514855,6661.853478
2662.585723,1302.362347,2220.617826,6957.935855
2662.586052,1072.533697,1776.494261,7846.182985
2662.586381,383.047749,1702.473667,6735.874072
2662.586710,536.266849,1628.453072,8216.285956
2662.587039,-306.438199,370.102971,7105.977043
2662.587368,-1302.362347,-1258.350101,9104.533087
2662.587697,-2757.943793,-2368.659014,9992.780217
2662.588026,-3830.477490,-2220.617826,9400.615463
2662.588355,-3524.039291,-2516.700203,11103.089130
2662.588684,-2834.553343,-296.082377,8808.450710
2662.589014,-2604.724693,-518.144159,10140.821405
2662.589343,-3064.381992,-148.041188,10510.924376
2662.589672,-2068.457845,1702.473667,8956.491898
2662.590001,-2298.286494,1036.288319,9030.512492
2662.590330,-2145.067394,296.082377,8586.388927
2662.590659,-1915.238745,444.123565,8808.450710
2662.590988,-2528.115143,-962.267725,9474.636058
2662.591317,-2911.162892,-1554.432478,9696.697840
2662.591646,-2451.505594,-74.020594,9178.553681
2662.591975,-2221.676944,-0.000000,8142.265362
2662.592304,-2221.676944,148.041188,7698.141797
2662.592633,-2298.286494,-296.082377,8660.409521
2662.592962,-2374.896044,-592.164754,9474.636058
2662.593291,-2221.676944,-666.185348,8734.430116
2662.593620,-2757.943793,962.267725,8364.327145
2662.593949,-1915.238745,296.082377,9030.512492
2662.594278,-2528.115143,-814.226536,9696.697840
2662.594607,-2834.553343,-1184.329507,10658.965565
2662.594936,-2911.162892,-1036.288319,9548.656652
2662.595265,-2604.724693,-0.000000,9104.533087
2662.595594,-2451.505594,1702.473667,8068.244768
2662.595923,-2451.505594,1036.288319,8956.491898
2662.596252,-2451.505594,-74.020594,8660.409521
2662.596581,-2374.896044,-888.247130,9474.636058
2662.596910,-2834.553343,-518.144159,9178.553681
2662.597239,-3140.991542,-370.102971,8882.471304
2662.597568,-2528.115143,-592.164754,9474.636058
2662.597897,-2757.943793,-296.082377,9030.512492
2662.598226,-1685.410096,-888.247130,9326.594869
2662.598555,-2528.115143,-1184.329507,9474.636058
2662.598884,-2911.162892,-148.041188,9104.533087
2662.599213,-2451.505594,-74.020594,9326.594869
2662.599542,-2757.943793,666.185348,8512.368333
2662.599871,-3064.381992,888.247130,8660.409521
2662.600200,-3064.381992,296.082377,8956.491898
2662.600529,-3064.381992,-0.000000,9104.533087
2662.600858,-2911.162892,-222.061783,9104.533087
2662.601187,-2681.334243,-740.205942,9474.636058
2662.601516,-2987.772442,-518.144159,8808.450710
2662.601845,-3370.820191,-592.164754,9400.615463
2662.602174,-3064.381992,-444.123565,9326.594869
2662.602503,-2681.334243,-0.000000,8956.491898
2662.602832,-1838.629195,-74.020594,7920.203579
2662.603161,-1302.362347,-148.041188,8586.388927
2662.603490,-2298.286494,-444.123565,8882.471304
2662.603819,-2681.334243,-740.205942,9326.594869
2662.604148,-2834.553343,-148.041188,9178.553681
2662.604477,-3600.648841,-0.000000,8956.491898
2662.604806,-3447.429741,814.226536,8364.327145
2662.605135,-3217.601092,1184.329507,8734.430116
2662.605465,-3830.477490,518.144159,9030.512492
2662.605794,-4366.744339,-148.041188,8512.368333
2662.606123,-4749.792088,-1776.494261,9400.615463
2662.606452,-4213.525239,-2590.720797,9844.739029
2662.606781,-3524.039291,-2368.659014,9844.739029
2662.607110,-3217.601092,-2294.638420,9844.739029
2662.607439,-2221.676944,-814.226536,9326.594869
2662.607768,-1149.143247,666.185348,8290.306550
2662.608097,-995.924147,1332.370696,8586.388927
2662.608426,-842.705048,444.123565,9918.759623
2662.608755,-383.047749,518.144159,8586.388927
2662.609084,76.609550,1258.350101,8216.285956
2662.609413,-689.485948,814.226536,7476.080014
2662.609742,-1532.190996,370.102971,8512.368333
2662.610071,-2451.505594,-592.164754,9918.759623
2662.610400,-3600.648841,-1554.432478,9770.718434
2662.610729,-2451.505594,-1332.370696,9770.718434
2662.611058,-2834.553343,-222.061783,8290.306550
2662.611388,-3064.381992,-444.123565,9104.533087
2662.611717,-3064.381992,-296.082377,9696.697840
2662.612046,-2221.676944,-0.000000,9770.718434
2662.612375,-1991.848295,-444.123565,9622.677246
2662.612704,-1149.143247,-0.000000,9252.574275
2662.613033,-919.314598,814.226536,8586.388927
2662.613362,-1455.581446,-0.000000,8068.244768
2662.613691,-1378.971896,-1036.288319,9770.718434
2662.614020,-1225.752797,-518.144159,9548.656652
2662.614349,0.000000,-518.144159,8290.306550
2662.614678,-766.095498,888.247130,8882.471304
2662.615007,-689.485948,444.123565,8068.244768
2662.615336,-1225.752797,1184.329507,7994.224174
2662.615665,-1302.362347,518.144159,8290.306550
2662.615994,-1762.019645,592.164754,8586.388927
2662.616323,-3140.991542,370.102971,8660.409521
2662.616652,-3370.820191,444.123565,8364.327145
2662.616981,-3524.039291,814.226536,7402.059420
2662.617311,-3983.696590,-296.082377,8660.409521
2662.617640,-4826.401637,-1036.288319,8808.450710
2662.617969,-4979.620737,-2368.659014,9992.780217
2662.618298,-5592.497135,-2442.679609,10584.944971
2662.618627,-5745.716235,-3552.988522,10584.944971
2662.618956,-5898.935335,-3478.967927,11029.068536
2662.619285,-5439.278036,-2294.638420,10807.006753
2662.619614,-4366.744339,-1110.308913,10584.944971
2662.619943,-3370.820191,-74.020594,9696.697840
2662.620272,-2451.505594,1702.473667,9178.553681
2662.620601,-1532.190996,2220.617826,8438.347739
2662.620930,-1302.362347,2812.782580,7402.059420
2662.621259,-1378.971896,2294.638420,8142.265362
2662.621588,-1762.019645,740.205942,7772.162391
2662.621917,-2221.676944,962.267725,7698.141797
2662.622246,-2068.457845,370.102971,7846.182985
2662.622575,-1991.848295,148.041188,7624.121203
2662.622904,-2451.505594,-0.000000,8290.306550
2662.623234,-2681.334243,-0.000000,7550.100608
2662.623563,-2681.334243,-518.144159,9030.512492
2662.623892,-2604.724693,370.102971,8808.450710
2662.624221,-3447.429741,1406.391290,9474.636058
2662.624550,-3983.696590,1924.535449,9474.636058
2662.624879,-4060.306139,1258.350101,10510.924376
2662.625208,-3677.258390,1480.411884,10066.800811
2662.625537,-3907.087040,-444.123565,9992.780217
2662.625866,-3447.429741,148.041188,10955.047942
2662.626195,-2681.334243,296.082377,10214.842000
2662.626524,-1149.143247,740.205942,9622.677246
2662.626853,-459.657299,1480.411884,8808.450710
2662.627182,-536.266849,2220.617826,8216.285956
2662.627511,0.000000,-0.000000,11325.150913
2662.627840,1915.238745,2368.659014,7624.121203
2662.628169,3753.867940,3404.947333,7105.977043
2662.628498,3830.477490,3849.070898,5995.668130
2662.628827,3140.991542,4737.318029,6365.771101
2662.629157,3524.039291,4071.132681,9548.656652
2662.629486,2528.115143,4441.235652,7550.100608
2662.629815,2298.286494,3108.864956,9622.677246
2662.630144,-383.047749,2220.617826,10140.821405
2662.630473,-1378.971896,3108.864956,10288.862594
2662.630802,-1838.629195,1110.308913,11843.295072
2662.631131,-1838.629195,1850.514855,10584.944971
2662.631460,-459.657299,1258.350101,11473.192101
2662.631789,-459.657299,962.267725,10436.903782
2662.632118,153.219100,3330.926739,8882.471304
2662.632447,995.924147,2368.659014,8290.306550
2662.632776,2451.505594,3627.009116,7772.162391
2662.633105,2451.505594,5551.544565,6069.688724
2662.633434,2757.943793,5181.441594,8290.306550
2662.633763,459.657299,4663.297435,8290.306550
2662.634092,459.657299,4293.194464,8512.368333
2662.634421,-1225.752797,3478.967927,9400.615463
2662.634750,-2528.115143,2146.597232,9992.780217
2662.635080,-3294.210641,518.144159,11621.233289
2662.635409,-3447.429741,1184.329507,10658.965565
2662.635738,-2911.162892,2294.638420,9844.739029
2662.636067,-2911.162892,2146.597232,10362.883188
2662.636396,-2911.162892,2294.638420,10066.800811
2662.636725,-2298.286494,2146.597232,10955.047942
2662.637054,-1532.190996,2294.638420,9400.615463
2662.637383,-995.924147,2294.638420,8660.409521
2662.637712,-995.924147,2220.617826,8586.388927
2662.638041,-689.485948,2516.700203,9474.636058
2662.638370,1532.190996,1776.494261,11769.274478
2662.638699,2911.162892,3997.112087,6217.729913
2662.639028,4979.620737,4219.173869,7624.121203
2662.639357,3600.648841,5255.462188,5625.565159
2662.639686,3600.648841,6661.853478,6587.832884
2662.640015,2068.457845,7031.956449,7328.038826
2662.640344,2298.286494,5847.626942,7328.038826
2662.640674,1302.362347,5033.400406,7994.224174
2662.641003,-229.828649,5847.626942,7179.997637
2662.641332,-1225.752797,2220.617826,10510.924376
2662.641661,-3064.381992,-814.226536,12583.501014
2662.641990,-1838.629195,-296.082377,10288.862594
2662.642319,-1378.971896,888.247130,11473.192101
2662.642648,-1225.752797,-1184.329507,11769.274478
2662.642977,-2221.676944,2886.803174,9992.780217
2662.643306,0.000000,1406.391290,10140.821405
2662.643635,842.705048,4663.297435,8142.265362
2662.643964,2911.162892,5551.544565,7994.224174
2662.644293,4213.525239,4737.318029,6957.935855
2662.644622,2757.943793,5403.503377,7105.977043
2662.644951,2604.724693,5403.503377,8068.244768
2662.645280,995.924147,3849.070898,6883.915261
2662.645609,-459.657299,2294.638420,9992.780217
2662.645938,-1455.581446,370.102971,11547.212695
2662.646267,-2451.505594,1406.391290,10881.027347
2662.646597,-2528.115143,-0.000000,10732.986159
2662.646926,-2604.724693,592.164754,8808.450710
2662.647255,-1455.581446,1332.370696,11103.089130
2662.647584,-1072.533697,1332.370696,9474.636058
2662.647913,-689.485948,2442.679609,9030.512492
2662.648242,-306.438199,740.205942,10584.944971
2662.648571,2604.724693,814.226536,10214.842000
2662.648900,3064.381992,4737.318029,5255.462188
2662.649229,3677.258390,2886.803174,8216.285956
2662.649558,1685.410096,2960.823768,6809.894666
2662.649887,4136.915689,5033.400406,8438.347739
2662.650216,2757.943793,4885.359217,6513.812290
2662.650545,1762.019645,3997.112087,6587.832884
2662.650874,995.924147,2368.659014,10066.800811
2662.651203,-2145.067394,962.267725,11103.089130
2662.651532,-3140.991542,-3627.009116,12583.501014
2662.651861,-3907.087040,-0.000000,12213.398043
2662.652190,-1838.629195,-2664.741391,11917.315666
2662.652520,-3524.039291,1258.350101,9474.636058
2662.652849,-766.095498,1850.514855,11103.089130
2662.653178,-229.828649,3182.885551,8216.285956
2662.653507,689.485948,814.226536,11843.295072
2662.653836,3677.258390,2960.823768,8216.285956
2662.654165,4749.792088,4293.194464,6217.729913
2662.654494,4290.134789,5107.421000,5107.421000
2662.654823,3753.867940,5477.523971,5107.421000
2662.655152,4519.963438,3404.947333,8808.450710
2662.655481,1685.410096,5329.482782,5551.544565
2662.655810,3294.210641,3182.885551,7624.121203
2662.656139,536.266849,5773.606348,7179.997637
2662.656468,-1149.143247,2516.700203,10510.924376
2662.656797,-4673.182538,-1850.514855,15692.365970
2662.657126,-4519.963438,296.082377,11177.109724
2662.657455,-3600.648841,1850.514855,12953.603985
2662.657784,-2528.115143,-2886.803174,12287.418637
2662.658113,-3447.429741,2590.720797,10584.944971
2662.658443,-919.314598,1480.411884,9400.615463
2662.658772,-2221.676944,3034.844362,7031.956449
2662.659101,-1072.533697,3034.844362,10807.006753
2662.659430,3524.039291,1850.514855,9178.553681
2662.659759,3447.429741,5847.626942,5033.400406
2662.660088,2911.162892,4811.338623,8512.368333
2662.660417,2068.457845,4367.215058,4885.359217
2662.660746,3370.820191,6217.729913,9474.636058
2662.661075,0.000000,5255.462188,7105.977043
2662.661404,153.219100,7179.997637,6883.915261
2662.661733,-842.705048,5403.503377,9400.615463
2662.662062,-536.266849,1850.514855,10214.842000
2662.662391,-3677.258390,370.102971,14285.974681
2662.662720,-4060.306139,-370.102971,10955.047942
2662.663049,-2068.457845,-740.205942,11991.336260
2662.663378,-1838.629195,-3552.988522,12731.542202
2662.663707,-2068.457845,1258.350101,9400.615463
2662.664036,-612.876398,2146.597232,10510.924376
2662.664366,153.219100,3997.112087,8734.430116
2662.664695,2987.772442,6069.688724,7402.059420
2662.665024,3907.087040,6143.709319,7624.121203
2662.665353,2604.724693,4663.297435,8290.306550
2662.665682,919.314598,5329.482782,9548.656652
2662.666011,1149.143247,4293.194464,7698.141797
2662.666340,919.314598,3108.864956,7624.121203
2662.666669,1608.800546,3627.009116,8512.368333
2662.666998,2451.505594,1776.494261,10510.924376
2662.667327,-612.876398,666.185348,10362.883188
2662.667656,-689.485948,-518.144159,10881.027347
2662.667985,-153.219100,2072.576638,9474.636058
2662.668314,0.000000,-0.000000,10288.862594
2662.668643,-383.047749,3923.091493,7031.956449
2662.668972,153.219100,3108.864956,9622.677246
2662.669301,919.314598,2516.700203,8142.265362
2662.669630,2451.505594,2368.659014,8068.244768
2662.669959,2987.772442,2886.803174,8364.327145
2662.670289,2451.505594,1702.473667,9326.594869
2662.670618,536.266849,1184.329507,9400.615463
2662.670947,0.000000,1406.391290,8068.244768
2662.671276,-229.828649,1110.308913,11029.068536
2662.671605,0.000000,2368.659014,9548.656652
2662.671934,-229.828649,2146.597232,9548.656652
2662.672263,-1455.581446,814.226536,10140.821405
2662.672592,-766.095498,-1110.308913,10140.821405
2662.672921,766.095498,-74.020594,9548.656652
2662.673250,229.828649,-888.247130,8882.471304
2662.673579,383.047749,1554.432478,8512.368333
2662.673908,1072.533697,740.205942,8364.327145
2662.674237,2451.505594,814.226536,7476.080014
2662.674566,2604.724693,1258.350101,7254.018232
2662.674895,459.657299,1554.432478,7550.100608
2662.675224,-919.314598,148.041188,8882.471304
2662.675553,76.609550,-962.267725,10288.862594
2662.675883,76.609550,-1110.308913,9178.553681
2662.676212,-919.314598,-1480.411884,10214.842000
2662.676541,-2451.505594,-1702.473667,11029.068536
2662.676870,-2681.334243,-1406.391290,10732.986159
2662.677199,-1378.971896,-592.164754,9992.780217
2662.677528,-153.219100,-592.164754,8808.450710
2662.677857,-766.095498,-0.000000,9104.533087
2662.678186,0.000000,-518.144159,9326.594869
2662.678515,1378.971896,-0.000000,7772.162391
2662.678844,2451.505594,296.082377,6143.709319
2662.679173,2374.896044,-0.000000,6809.894666
2662.679502,919.314598,-148.041188,8364.327145
2662.679831,612.876398,-1480.411884,9178.553681
2662.680160,1072.533697,-1850.514855,7994.224174
2662.680489,306.438199,-1850.514855,8290.306550
2662.680818,-1149.143247,-592.164754,10510.924376
2662.681147,-1532.190996,-1036.288319,10658.965565
2662.681476,-153.219100,-1258.350101,10362.883188
2662.681806,229.828649,-370.102971,8808.450710
2662.682135,-536.266849,-222.061783,9326.594869
2662.682464,-1532.190996,-370.102971,9770.718434
2662.682793,383.047749,-666.185348,9178.553681
2662.683122,1991.848295,-444.123565,8660.409521
2662.683451,1532.190996,-0.000000,7624.121203
2662.683780,306.438199,370.102971,7179.997637
2662.684109,766.095498,148.041188,8216.285956
2662.684438,1838.629195,592.164754,7698.141797
2662.684767,1685.410096,518.144159,7105.977043
2662.685096,-153.219100,-1184.329507,9474.636058
2662.685425,-229.828649,-1850.514855,11177.109724
2662.685754,766.095498,-1998.556043,10658.965565
2662.686083,995.924147,-0.000000,9030.512492
2662.686412,-229.828649,1110.308913,9252.574275
2662.686741,-919.314598,1258.350101,10584.944971
2662.687070,689.485948,888.247130,9474.636058
2662.687399,1991.848295,1554.432478,8956.491898
2662.687729,306.438199,1406.391290,7846.182985
2662.688058,-459.657299,1110.308913,9326.594869
2662.688387,459.657299,-370.102971,9770.718434
2662.688716,1302.362347,-222.061783,8956.491898
2662.689045,766.095498,-0.000000,7772.162391
2662.689374,-536.266849,222.061783,8586.388927
2662.689703,-383.047749,-888.247130,9918.759623
2662.690032,842.705048,-1406.391290,9622.677246
2662.690361,1455.581446,296.082377,8216.285956
2662.690690,-383.047749,-74.020594,8734.430116
2662.691019,-842.705048,-0.000000,10807.006753
2662.691348,306.438199,-0.000000,10584.944971
2662.691677,1608.800546,888.247130,9178.553681
2662.692006,612.876398,962.267725,8734.430116
2662.692335,229.828649,888.247130,9548.656652
2662.692664,1072.533697,222.061783,8956.491898
2662.692993,1838.629195,740.205942,8882.471304
2662.693322,842.705048,-0.000000,8216.285956
2662.693652,-1149.143247,-518.144159,7994.224174
2662.693981,-689.485948,-1184.329507,9548.656652
2662.694310,459.657299,-1184.329507,8956.491898
2662.694639,-229.828649,-1406.391290,8216.285956
2662.694968,-1455.581446,-1036.288319,8882.471304
2662.695297,-1302.362347,-1554.432478,9474.636058
2662.695626,689.485948,-962.267725,9992.780217
2662.695955,1455.581446,222.061783,8216.285956
2662.696284,689.485948,-0.000000,8882.471304
2662.696613,229.828649,1184.329507,9622.677246
2662.696942,1225.752797,-0.000000,9696.697840
2662.697271,2451.505594,1184.329507,8216.285956
2662.697600,1149.143247,888.247130,8290.306550
2662.697929,76.609550,-0.000000,9030.512492
2662.698258,306.438199,-518.144159,8956.491898
2662.698587,1225.752797,-148.041188,9030.512492
2662.698916,689.485948,-740.205942,8438.347739
2662.699245,-1072.533697,-592.164754,8956.491898
2662.699575,-1302.362347,-1332.370696,9844.739029
2662.699904,76.609550,-666.185348,9844.739029
2662.700233,229.828649,-0.000000,8660.409521
2662.700562,-1225.752797,-0.000000,8142.265362
2662.700891,-919.314598,-666.185348,10288.862594
2662.701220,306.438199,-666.185348,9770.718434
2662.701549,1762.019645,-740.205942,8512.368333
2662.701878,919.314598,592.164754,8512.368333
2662.702207,0.000000,222.061783,9474.636058
2662.702536,689.485948,592.164754,9474.636058
2662.702865,1838.629195,1184.329507,8142.265362
2662.703194,1072.533697,1332.370696,8512.368333
2662.703523,0.000000,-0.000000,8808.450710
2662.703852,-842.705048,-1258.350101,9178.553681
2662.704181,612.876398,-1628.453072,9474.636058
2662.704510,459.657299,-2368.659014,8438.347739
2662.704839,-1302.362347,-3108.864956,9474.636058
2662.705168,-1685.410096,-2516.700203,9770.718434
2662.705498,0.000000,-1850.514855,9622.677246
2662.705827,766.095498,-74.020594,8882.471304
2662.706156,0.000000,518.144159,8216.285956
2662.706485,-459.657299,-0.000000,9400.615463
2662.706814,1378.971896,-592.164754,9400.615463
2662.707143,2451.505594,-222.061783,8290.306550
2662.707472,1225.752797,-1332.370696,8882.471304
2662.707801,0.000000,-518.144159,9326.594869
2662.708130,536.266849,-1554.432478,9474.636058
2662.708459,1608.800546,-518.144159,9104.533087
2662.708788,1225.752797,-0.000000,8142.265362
2662.709117,-536.266849,-518.144159,8808.450710
2662.709446,-536.266849,-740.205942,8586.388927
2662.709775,1072.533697,-148.041188,9178.553681
2662.710104,612.876398,-592.164754,8290.306550
2662.710433,-1225.752797,-740.205942,8734.430116
2662.710763,-1378.971896,-1628.453072,10140.821405
2662.711092,76.609550,-1332.370696,9992.780217
2662.711421,1532.190996,-0.000000,7624.121203
2662.711750,536.266849,814.226536,8660.409521
2662.712079,76.609550,1110.308913,9400.615463
2662.712408,1378.971896,1184.329507,9252.574275
2662.712737,2604.724693,1480.411884,8142.265362
2662.713066,1608.800546,1924.535449,7476.080014
2662.713395,153.219100,1258.350101,9178.553681
2662.713724,383.047749,-148.041188,8956.491898
2662.714053,1149.143247,814.226536,8438.347739
2662.714382,842.705048,-222.061783,9030.512492
2662.714711,-919.314598,-0.000000,8808.450710
2662.715040,-1225.752797,-814.226536,9400.615463
2662.715369,0.000000,-1036.288319,9474.636058
2662.715698,0.000000,-0.000000,8290.306550
2662.716028,-995.924147,-0.000000,9104.533087
2662.716357,-1762.019645,-814.226536,9696.697840
2662.716686,0.000000,-666.185348,10510.924376
2662.717015,919.314598,-74.020594,9252.574275
2662.717344,229.828649,370.102971,8512.368333
2662.717673,-306.438199,222.061783,9548.656652
2662.718002,459.657299,-1554.432478,9696.697840
2662.718331,2298.286494,592.164754,9030.512492
2662.718660,2068.457845,-222.061783,8438.347739
2662.718989,76.609550,518.144159,8216.285956
2662.719318,459.657299,518.144159,8956.491898
2662.719647,1302.362347,370.102971,9104.533087
2662.719976,766.095498,296.082377,8142.265362
2662.720305,-919.314598,-1110.308913,9696.697840
2662.720634,-1378.971896,-1850.514855,10807.006753
2662.720963,0.000000,-2590.720797,10288.862594
2662.721293,153.219100,-1258.350101,9548.656652
2662.721622,-995.924147,-1036.288319,9104.533087
2662.721951,-1915.238745,-888.247130,10362.883188
2662.722280,0.000000,-518.144159,10732.986159
2662.722609,1149.143247,888.247130,8882.471304
2662.722938,612.876398,740.205942,8808.450710
2662.723267,153.219100,1258.350101,8956.491898
2662.723596,1455.581446,444.123565,9548.656652
2662.723925,2451.505594,-0.000000,8734.430116
2662.724254,2451.505594,-0.000000,7698.141797
2662.724583,919.314598,-0.000000,8660.409521
2662.724912,842.705048,518.144159,8364.327145
2662.725241,1915.238745,1036.288319,7994.224174
2662.725570,1378.971896,1184.329507,8068.244768
2662.725899,-229.828649,1406.391290,7994.224174
2662.726228,-995.924147,518.144159,8734.430116
2662.726558,-383.047749,-888.247130,9548.656652
2662.726887,536.266849,-222.061783,9178.553681
2662.727216,-689.485948,-888.247130,8512.368333
2662.727545,-1685.410096,-1702.473667,10584.944971
2662.727874,-919.314598,-1924.535449,10881.027347
2662.728203,612.876398,-888.247130,9696.697840
2662.728532,536.266849,1110.308913,8142.265362
2662.728861,-153.219100,1184.329507,8808.450710
2662.729190,766.095498,518.144159,9104.533087
2662.729519,1991.848295,518.144159,7920.203579
2662.729848,2834.553343,370.102971,7846.182985
2662.730177,766.095498,222.061783,8438.347739
2662.730506,0.000000,-592.164754,9104.533087
2662.730835,995.924147,-370.102971,9474.636058
2662.731164,536.266849,-74.020594,9030.512492
2662.731493,-919.314598,-0.000000,8882.471304
2662.731823,-1532.190996,-740.205942,9326.594869
2662.732152,-689.485948,-814.226536,11103.089130
2662.732481,0.000000,-1110.308913,10288.862594
2662.732810,-766.095498,-1702.473667,9770.718434
2662.733139,-1838.629195,-1998.556043,9622.677246
2662.733468,-1149.143247,-1998.556043,10436.903782
2662.733797,689.485948,-814.226536,10066.800811
2662.734126,919.314598,-0.000000,8438.347739
2662.734455,-459.657299,-0.000000,9104.533087
2662.734784,919.314598,-148.041188,8660.409521
2662.735113,2145.067394,370.102971,8364.327145
2662.735442,2221.676944,1258.350101,7698.141797
2662.735771,919.314598,370.102971,8290.306550
2662.736100,229.828649,-296.082377,9178.553681
2662.736429,919.314598,-1554.432478,9474.636058
2662.736758,1455.581446,-296.082377,8290.306550
2662.737088,0.000000,-592.164754,8882.471304
2662.737417,-1149.143247,-0.000000,9104.533087
2662.737746,-306.438199,-1036.288319,9474.636058
2662.738075,689.485948,-0.000000,8882.471304
2662.738404,0.000000,-0.000000,8956.491898
2662.738733,-689.485948,-74.020594,9104.533087
2662.739062,-689.485948,-1110.308913,9696.697840
2662.739391,1532.190996,148.041188,9400.615463
2662.739720,919.314598,-74.020594,8882.471304
2662.740049,-383.047749,518.144159,8734.430116
2662.740378,0.000000,-0.000000,8882.471304
2662.740707,1915.238745,222.061783,8808.450710
2662.741036,2451.505594,1406.391290,8068.244768
2662.741365,1149.143247,888.247130,8142.265362
2662.741694,459.657299,1184.329507,8808.450710
2662.742023,1532.190996,1110.308913,9030.512492
2662.742352,1838.629195,962.267725,8660.409521
2662.742682,306.438199,1332.370696,8808.450710
2662.743011,-919.314598,-148.041188,9622.677246
2662.743340,-766.095498,-1184.329507,10436.903782
2662.743669,0.000000,-370.102971,9548.656652
2662.743998,-459.657299,-592.164754,8660.409521
2662.744327,-2221.676944,-370.102971,10066.800811
2662.744656,-2145.067394,-1110.308913,10584.944971
2662.744985,-459.657299,-962.267725,10807.006753
2662.745314,0.000000,-0.000000,8660.409521
2662.745643,-766.095498,666.185348,9178.553681
2662.745972,-306.438199,-0.000000,10288.862594
2662.746301,1685.410096,-444.123565,9178.553681
2662.746630,2681.334243,296.082377,8290.306550
2662.746959,1762.019645,592.164754,7920.203579
2662.747288,766.095498,370.102971,8734.430116
2662.747617,1302.362347,592.164754,9104.533087
2662.747947,2528.115143,666.185348,8734.430116
2662.748276,459.657299,962.267725,8068.244768
2662.748605,-689.485948,-296.082377,9770.718434
2662.748934,-1225.752797,-518.144159,9474.636058
2662.749263,-612.876398,-814.226536,9474.636058
2662.749592,-842.705048,-222.061783,9030.512492
2662.749921,-2757.943793,-1924.535449,9622.677246
2662.750250,-3600.648841,-2294.638420,11029.068536
2662.750579,-766.095498,-2442.679609,10436.903782
2662.750908,229.828649,-962.267725,8808.450710
2662.751237,-766.095498,222.061783,8660.409521
2662.751566,153.219100,-0.000000,8586.388927
2662.751895,1838.629195,222.061783,9030.512492
2662.752224,3600.648841,888.247130,7920.203579
2662.752553,3524.039291,962.267725,7624.121203
2662.752882,2145.067394,1406.391290,8586.388927
2662.753212,2834.553343,1110.308913,8660.409521
2662.753541,3217.601092,1702.473667,8660.409521
2662.753870,2068.457845,1332.370696,8290.306550
2662.754199,0.000000,1258.350101,8142.265362
2662.754528,-459.657299,-296.082377,9474.636058
2662.754857,-995.924147,-222.061783,9770.718434
2662.755186,0.000000,-1110.308913,9030.512492
2662.755515,-2298.286494,-1998.556043,9326.594869
2662.755844,-2757.943793,-2516.700203,10140.821405
2662.756173,-1149.143247,-2368.659014,11177.109724
2662.756502,0.000000,-1998.556043,9252.574275
2662.756831,-766.095498,-222.061783,8142.265362
2662.757160,0.000000,-148.041188,8956.491898
2662.757489,1455.581446,518.144159,8882.471304
2662.757818,3370.820191,1776.494261,8290.306550
2662.758147,3217.601092,666.185348,7698.141797
2662.758477,2298.286494,1036.288319,8438.347739
2662.758806,2374.896044,666.185348,8660.409521
2662.759135,3064.381992,-0.000000,8808.450710
2662.759464,1915.238745,518.144159,8364.327145
2662.759793,0.000000,-74.020594,8290.306550
2662.760122,-919.314598,-1036.288319,9400.615463
2662.760451,-536.266849,-888.247130,9622.677246
2662.760780,-383.047749,-1628.453072,8512.368333
2662.761109,-2221.676944,-1776.494261,9474.636058
2662.761438,-3294.210641,-2368.659014,9918.759623
2662.761767,-2068.457845,-3552.988522,11399.171507
2662.762096,-383.047749,-2146.597232,9326.594869
2662.762425,-766.095498,-2368.659014,9548.656652
2662.762754,-995.924147,-962.267725,10436.903782
2662.763083,919.314598,-888.247130,9104.533087
2662.763412,2834.553343,962.267725,8956.491898
2662.763742,3447.429741,1850.514855,7698.141797
2662.764071,2145.067394,2294.638420,7994.224174
2662.764400,1762.019645,1406.391290,8660.409521
2662.764729,3217.601092,1850.514855,8216.285956
2662.765058,1608.800546,1110.308913,7994.224174
2662.765387,0.000000,518.144159,8364.327145
2662.765716,-995.924147,-592.164754,9178.553681
2662.766045,-612.876398,-1998.556043,10214.842000
2662.766374,-919.314598,-1480.411884,8956.491898
2662.766703,-1991.848295,-1628.453072,9474.636058
2662.767032,-2528.115143,-1258.350101,10436.903782
2662.767361,-1149.143247,-1850.514855,10510.924376
2662.767690,153.219100,-148.041188,9104.533087
2662.768019,76.609550,518.144159,9252.574275
2662.768348,0.000000,1480.411884,9400.615463
2662.768677,1532.190996,740.205942,9178.553681
2662.769007,3370.820191,1480.411884,8586.388927
2662.769336,3370.820191,1554.432478,7179.997637
2662.769665,1838.629195,1850.514855,8290.306550
2662.769994,1532.190996,1184.329507,8660.409521
2662.770323,2451.505594,1554.432478,8290.306550
2662.770652,1915.238745,1998.556043,7772.162391
2662.770981,0.000000,888.247130,7846.182985
2662.771310,-689.485948,-592.164754,9104.533087
2662.771639,-459.657299,-2072.576638,9992.780217
2662.771968,153.219100,-1406.391290,9696.697840
2662.772297,-1608.800546,-1850.514855,9104.533087
2662.772626,-2757.943793,-1184.329507,10214.842000
2662.772955,-1608.800546,-1554.432478,10584.944971
2662.773284,306.438199,-370.102971,9622.677246
2662.773613,0.000000,222.061783,8438.347739
2662.773942,-842.705048,592.164754,8882.471304
2662.774272,306.438199,-148.041188,9104.533087
2662.774601,1685.410096,222.061783,9178.553681
2662.774930,2528.115143,-222.061783,8586.388927
2662.775259,536.266849,-0.000000,8290.306550
2662.775588,153.219100,-1258.350101,9474.636058
2662.775917,1149.143247,-962.267725,9326.594869
2662.776246,1302.362347,370.102971,8660.409521
2662.776575,-383.047749,-148.041188,8438.347739
2662.776904,-1225.752797,-1036.288319,8734.430116
2662.777233,-1302.362347,-1036.288319,9696.697840
2662.777562,306.438199,-1258.350101,9474.636058
2662.777891,-612.876398,-1406.391290,8512.368333
2662.778220,-1608.800546,-1406.391290,9178.553681
2662.778549,-306.438199,-1332.370696,9992.780217
2662.778878,383.047749,-222.061783,9696.697840
2662.779207,-383.047749,-222.061783,8438.347739
2662.779536,-766.095498,518.144159,8956.491898
2662.779866,306.438199,370.102971,8512.368333
2662.780195,1838.629195,888.247130,8660.409521
2662.780524,2298.286494,814.226536,7698.141797
2662.780853,1838.629195,444.123565,8882.471304
2662.781182,1378.971896,296.082377,8882.471304
2662.781511,1762.019645,296.082377,8882.471304
2662.781840,2298.286494,740.205942,8882.471304
2662.782169,842.705048,814.226536,7994.224174
2662.782498,229.828649,-0.000000,9030.512492
2662.782827,919.314598,296.082377,8734.430116
2662.783156,1302.362347,370.102971,8216.285956
2662.783485,153.219100,-0.000000,9474.636058
2662.783814,-766.095498,-518.144159,10362.883188
2662.784143,-1149.143247,-1628.453072,10362.883188
2662.784472,-306.438199,-1628.453072,9548.656652
2662.784801,-612.876398,-814.226536,9104.533087
2662.785131,-1838.629195,-1184.329507,9696.697840
2662.785460,-995.924147,-1406.391290,10584.944971
2662.785789,1149.143247,-1924.535449,9326.594869
2662.786118,2068.457845,-592.164754,8734.430116
2662.786447,919.314598,-0.000000,8290.306550
2662.786776,689.485948,-444.123565,8586.388927
2662.787105,1608.800546,592.164754,9030.512492
2662.787434,2604.724693,1036.288319,7994.224174
2662.787763,1685.410096,296.082377,8438.347739
2662.788092,306.438199,148.041188,9030.512492
2662.788421,383.047749,-1332.370696,9918.759623
2662.788750,306.438199,-518.144159,9400.615463
2662.789079,-383.047749,-1184.329507,8438.347739
2662.789408,-2068.457845,-2072.576638,10140.821405
2662.789737,-2145.067394,-2220.617826,10584.944971
2662.790066,-612.876398,-1258.350101,9474.636058
2662.790396,-306.438199,-962.267725,8290.306550
2662.790725,-2451.505594,-148.041188,8882.471304
2662.791054,-1685.410096,-1036.288319,10066.800811
2662.791383,689.485948,-888.247130,9400.615463
2662.791712,1532.190996,370.102971,7624.121203
2662.792041,689.485948,148.041188,8216.285956
2662.792370,689.485948,-0.000000,9400.615463
2662.792699,1915.238745,-370.102971,9474.636058
2662.793028,2834.553343,592.164754,8734.430116
2662.793357,1762.019645,1702.473667,7105.977043
2662.793686,536.266849,1628.453072,8290.306550
2662.794015,842.705048,1332.370696,9178.553681
2662.794344,1762.019645,1036.288319,8734.430116
2662.794673,842.705048,592.164754,8068.244768
2662.795002,-1072.533697,592.164754,9030.512492
2662.795331,-1302.362347,-518.144159,9622.677246
2662.795661,0.000000,-0.000000,9918.759623
2662.795990,-383.047749,-0.000000,8882.471304
2662.796319,-1225.752797,-0.000000,8956.491898
2662.796648,-1378.971896,-0.000000,9474.636058
2662.796977,229.828649,-888.247130,9918.759623
2662.797306,1608.800546,-0.000000,8586.388927
2662.797635,919.314598,-74.020594,9030.512492
2662.797964,612.876398,-0.000000,9992.780217
2662.798293,1225.752797,-296.082377,9548.656652
2662.798622,2834.553343,1184.329507,8956.491898
2662.798951,2221.676944,1480.411884,8660.409521
2662.799280,536.266849,1702.473667,8512.368333
2662.799609,383.047749,-0.000000,9030.512492
2662.799938,1302.362347,-222.061783,9474.636058
2662.800267,766.095498,518.144159,9178.553681
2662.800596,-1762.019645,-888.247130,9400.615463
2662.800926,-2068.457845,-1776.494261,9474.636058
2662.801255,-1225.752797,-1924.535449,10510.924376
2662.801584,-766.095498,-1258.350101,9474.636058
2662.801913,-1762.019645,-1628.453072,9400.615463
2662.802242,-2221.676944,-1036.288319,9178.553681
2662.802571,-689.485948,-2294.638420,10214.842000
2662.802900,1149.143247,-148.041188,8586.388927
2662.803229,1149.143247,-592.164754,9030.512492
2662.803558,459.657299,666.185348,8512.368333
2662.803887,1072.533697,-0.000000,8660.409521
2662.804216,2451.505594,1554.432478,8882.471304
2662.804545,2451.505594,1110.308913,7402.059420
2662.804874,995.924147,666.185348,8068.244768
2662.805203,689.485948,-0.000000,8734.430116
2662.805532,1378.971896,740.205942,8808.450710
2662.805861,536.266849,-0.000000,8586.388927
2662.806190,-842.705048,-444.123565,8364.327145
2662.806519,-1378.971896,-2072.576638,9474.636058
2662.806848,-919.314598,-1258.350101,9622.677246
2662.807177,0.000000,-1110.308913,9104.533087
2662.807506,-995.924147,-1184.329507,8586.388927
2662.807835,-1838.629195,-296.082377,9474.636058
2662.808164,-229.828649,-444.123565,10214.842000
2662.808493,1072.533697,-148.041188,8808.450710
2662.808822,995.924147,-0.000000,8808.450710
2662.809151,612.876398,666.185348,9400.615463
2662.809480,1149.143247,-444.123565,9178.553681
2662.809809,3294.210641,1184.329507,8512.368333
2662.810138,2221.676944,2072.576638,8438.347739
2662.810467,1302.362347,1628.453072,8734.430116
2662.810796,1149.143247,666.185348,9178.553681
2662.811126,2068.457845,518.144159,8364.327145
2662.811455,1991.848295,370.102971,8216.285956
2662.811784,0.000000,222.061783,8734.430116
2662.812113,-1149.143247,-1776.494261,9770.718434
2662.812442,-689.485948,-1554.432478,10510.924376
2662.812771,229.828649,-814.226536,9400.615463
2662.813100,-1072.533697,-1184.329507,9326.594869
2662.813429,-2221.676944,-888.247130,10362.883188
2662.813758,-612.876398,-1554.432478,9844.739029
2662.814087,689.485948,-0.000000,9326.594869
2662.814416,1302.362347,-0.000000,9030.512492
2662.814745,0.000000,-518.144159,9696.697840
2662.815074,766.095498,-962.267725,9474.636058
2662.815403,2374.896044,296.082377,8512.368333
2662.815732,2528.115143,962.267725,7624.121203
2662.816061,842.705048,962.267725,8216.285956
2662.816390,919.314598,-74.020594,9252.574275
2662.816719,1915.238745,-296.082377,9474.636058
2662.817048,1302.362347,296.082377,8142.265362
2662.817377,153.219100,-74.020594,8142.265362
2662.817706,-1685.410096,-1184.329507,9474.636058
2662.818035,-1149.143247,-2072.576638,10881.027347
2662.818364,-383.047749,-1036.288319,9474.636058
2662.818693,-919.314598,-1628.453072,8956.491898
2662.819022,-1455.581446,-888.247130,9696.697840
2662.819351,-1378.971896,-1332.370696,9696.697840
2662.819680,1225.752797,740.205942,9400.615463
2662.820009,1072.533697,-148.041188,7920.203579
2662.820338,153.219100,1258.350101,8660.409521
2662.820667,383.047749,296.082377,9326.594869
2662.820996,1838.629195,814.226536,8808.450710
2662.821325,2145.067394,2294.638420,7772.162391
2662.821654,536.266849,1406.391290,8290.306550
2662.821983,-306.438199,666.185348,9178.553681
2662.822312,1149.143247,-148.041188,9474.636058
2662.822641,1915.238745,-0.000000,8734.430116
2662.822970,76.609550,592.164754,8586.388927
2662.823299,-1225.752797,148.041188,9622.677246
2662.823628,-612.876398,-1184.329507,10584.944971
2662.823957,383.047749,370.102971,9178.553681
2662.824286,306.438199,666.185348,8882.471304
2662.824615,-995.924147,1184.329507,9178.553681
2662.824944,-383.047749,-74.020594,9918.759623
2662.825273,1072.533697,-592.164754,9474.636058
2662.825602,1378.971896,-666.185348,8438.347739
2662.825931,229.828649,296.082377,9030.512492
2662.826260,76.609550,-296.082377,9992.780217
2662.826589,919.314598,148.041188,10066.800811
2662.826918,1685.410096,1628.453072,8216.285956
2662.827247,919.314598,666.185348,8734.430116
2662.827576,0.000000,370.102971,8660.409521
2662.827905,766.095498,-592.164754,10288.862594
2662.828234,689.485948,-0.000000,9548.656652
2662.828563,229.828649,-592.164754,8438.347739
2662.828892,-1608.800546,-518.144159,10510.924376
2662.829221,-689.485948,-1258.350101,10436.903782
2662.829550,153.219100,-518.144159,9622.677246
2662.829879,0.000000,-222.061783,8512.368333
2662.830208,-842.705048,740.205942,8882.471304
2662.830537,-766.095498,-1036.288319,10584.944971
2662.830866,229.828649,-518.144159,9844.739029
2662.831195,919.314598,-814.226536,7994.224174
2662.831524,-383.047749,-592.164754,8734.430116
2662.831853,-612.876398,-222.061783,9400.615463
2662.832182,842.705048,-1110.308913,10214.842000
2662.832511,2068.457845,-148.041188,9030.512492
2662.832840,1225.752797,222.061783,8290.306550
2662.833169,0.000000,-0.000000,8808.450710
2662.833499,842.705048,-444.123565,9622.677246
2662.833828,1378.971896,592.164754,8290.306550
2662.834157,842.705048,-296.082377,8290.306550
2662.834486,-842.705048,444.123565,8956.491898
2662.834815,-383.047749,-1480.411884,9474.636058
2662.835144,536.266849,-148.041188,9474.636058
2662.835473,0.000000,-814.226536,8586.388927
2662.835802,-1455.581446,592.164754,8882.471304
2662.836131,-1149.143247,-444.123565,8734.430116
2662.836460,383.047749,-370.102971,8956.491898
2662.836789,1378.971896,-0.000000,8438.347739
2662.837118,306.438199,-148.041188,8290.306550
2662.837447,76.609550,-888.247130,9326.594869
2662.837776,1455.581446,-814.226536,8882.471304
2662.838105,2528.115143,814.226536,8438.347739
2662.838434,1685.410096,888.247130,7846.182985
2662.838763,76.609550,666.185348,8586.388927
2662.839092,919.314598,-74.020594,9178.553681
2662.839421,1762.019645,-74.020594,8438.347739
2662.839750,1072.533697,222.061783,8142.265362
2662.840079,-1149.143247,-370.102971,9400.615463
2662.840408,-1532.190996,-1184.329507,9696.697840
2662.840737,-153.219100,-1554.432478,10510.924376
2662.841066,383.047749,-2368.659014,10066.800811
2662.841395,-1149.143247,-814.226536,9104.533087
2662.841724,-995.924147,-1110.308913,9474.636058
2662.842053,153.219100,-962.267725,9696.697840
2662.842382,1762.019645,-0.000000,8882.471304
2662.842711,919.314598,-370.102971,9030.512492
2662.843040,459.657299,-0.000000,9474.636058
2662.843369,1532.190996,148.041188,9548.656652
2662.843698,2145.067394,740.205942,8586.388927
2662.844027,1302.362347,740.205942,8956.491898
2662.844356,0.000000,-148.041188,9474.636058
2662.844685,0.000000,-1036.288319,9770.718434
2662.845014,536.266849,-370.102971,9474.636058
2662.845343,459.657299,-518.144159,9252.574275
2662.845672,-995.924147,-74.020594,8882.471304
2662.846001,-1455.581446,-1110.308913,10066.800811
2662.846330,-612.876398,-444.123565,9622.677246
2662.846659,153.219100,222.061783,8734.430116
2662.846988,-766.095498,370.102971,8512.368333
2662.847317,-1378.971896,222.061783,9548.656652
2662.847646,1838.629195,-0.000000,9104.533087
2662.847975,2681.334243,-222.061783,8216.285956
2662.848304,1302.362347,-0.000000,7994.224174
2662.848633,612.876398,-0.000000,9326.594869
2662.848962,1302.362347,370.102971,8882.471304
2662.849291,2145.067394,1332.370696,8438.347739
2662.849620,1378.971896,1924.535449,7402.059420
2662.849949,-306.438199,1332.370696,8438.347739
2662.850278,-229.828649,-0.000000,9030.512492
2662.850607,306.438199,-444.123565,8956.491898
2662.850936,229.828649,-444.123565,8808.450710
2662.851265,-1225.752797,-962.267725,8808.450710
2662.851594,-2145.067394,-1406.391290,9474.636058
2662.851923,-536.266849,-1184.329507,10362.883188
2662.852252,612.876398,-0.000000,8512.368333
2662.852581,0.000000,-148.041188,8438.347739
2662.852910,-229.828649,888.247130,8734.430116
2662.853239,1455.581446,-0.000000,8734.430116
2662.853568,2451.505594,888.247130,8734.430116
2662.853897,2451.505594,296.082377,8290.306550
2662.854226,1302.362347,-0.000000,9252.574275
2662.854555,995.924147,-0.000000,8882.471304
2662.854884,1915.238745,-0.000000,9178.553681
2662.855213,919.314598,518.144159,9326.594869
2662.855543,-612.876398,148.041188,9030.512492
2662.855872,-612.876398,-888.247130,9474.636058
2662.856201,-383.047749,-1036.288319,9474.636058
2662.856530,-153.219100,-370.102971,8956.491898
2662.856859,-1455.581446,-888.247130,9622.677246
2662.857188,-2221.676944,-1924.535449,10066.800811
2662.857517,-919.314598,-2294.638420,10066.800811
2662.857846,459.657299,-962.267725,9474.636058
2662.858175,0.000000,-296.082377,8734.430116
2662.858504,0.000000,-74.020594,8808.450710
2662.858833,1455.581446,-148.041188,8956.491898
2662.859162,2681.334243,1184.329507,9326.594869
2662.859491,2298.286494,1036.288319,8438.347739
2662.859820,766.095498,1258.350101,8512.368333
2662.860149,919.314598,-444.123565,9252.574275
2662.860478,1302.362347,296.082377,8882.471304
2662.860807,1149.143247,-74.020594,9252.574275
2662.861136,-459.657299,-962.267725,8734.430116
2662.861465,-1149.143247,-2146.597232,9770.718434
2662.861794,-383.047749,-1258.350101,9696.697840
2662.862123,0.000000,-1258.350101,8364.327145
2662.862452,-1149.143247,-518.144159,8438.347739
2662.862781,-1762.019645,-1258.350101,9400.615463
2662.863110,-612.876398,-1036.288319,9548.656652
2662.863439,1149.143247,-592.164754,10066.800811
2662.863768,306.438199,-592.164754,8068.244768
2662.864097,383.047749,-888.247130,8734.430116
2662.864426,1225.752797,-370.102971,9030.512492
2662.864755,2604.724693,-74.020594,8142.265362
2662.865084,2757.943793,-222.061783,7846.182985
2662.865413,1149.143247,740.205942,8512.368333
2662.865742,1302.362347,370.102971,8956.491898
2662.866071,919.314598,740.205942,8660.409521
2662.866400,1532.190996,814.226536,7772.162391
2662.866729,-536.266849,-0.000000,9030.512492
2662.867058,-1072.533697,-1406.391290,9770.718434
2662.867387,-536.266849,-2220.617826,9622.677246
2662.867716,0.000000,-1554.432478,8808.450710
2662.868045,-1225.752797,-1110.308913,8956.491898
2662.868374,-2757.943793,-1406.391290,10288.862594
2662.868703,-842.705048,-1998.556043,10214.842000
2662.869032,919.314598,-518.144159,8956.491898
2662.869361,842.705048,1110.308913,7994.224174
2662.869690,306.438199,1184.329507,8882.471304
2662.870019,995.924147,444.123565,9030.512492
2662.870348,2451.505594,1110.308913,7772.162391
2662.870677,2834.553343,1036.288319,7698.141797
2662.871006,919.314598,814.226536,8512.368333
2662.871335,153.219100,-0.000000,9252.574275
2662.871664,1149.143247,296.082377,9474.636058
2662.871993,766.095498,1184.329507,8216.285956
2662.872322,-766.095498,370.102971,8956.491898
2662.872651,-1532.190996,-888.247130,9326.594869
2662.872980,-1225.752797,-1184.329507,9696.697840
2662.873309,-689.485948,-666.185348,10510.924376
2662.873638,-1378.971896,-962.267725,9030.512492
2662.873967,-2298.286494,-1406.391290,9844.739029
2662.874296,-1378.971896,-1406.391290,10881.027347
2662.874625,459.657299,-222.061783,9844.739029
2662.874954,919.314598,1036.288319,8660.409521
2662.875283,919.314598,1924.535449,8882.471304
2662.875612,919.314598,666.185348,9326.594869
2662.875941,2451.505594,2072.576638,8956.491898
2662.876270,2987.772442,1480.411884,7550.100608
2662.876599,1455.581446,1110.308913,8142.265362
2662.876928,689.485948,814.226536,8882.471304
2662.877257,1378.971896,222.061783,9030.512492
2662.877586,1838.629195,666.185348,8882.471304
2662.877916,-229.828649,-444.123565,8586.388927
2662.878245,-1608.800546,-1036.288319,9326.594869
2662.878574,-1225.752797,-1554.432478,9770.718434
2662.878903,-383.047749,-888.247130,9622.677246
2662.879232,-1378.971896,-1110.308913,9474.636058
2662.879561,-1991.848295,-962.267725,9770.718434
2662.879890,-1302.362347,-1036.288319,10436.903782
2662.880219,766.095498,-1776.494261,10510.924376
2662.880548,1378.971896,-0.000000,8512.368333
2662.880877,919.314598,-0.000000,8364.327145
2662.881206,1302.362347,222.061783,8512.368333
2662.881535,2451.505594,814.226536,8290.306550
2662.881864,3370.820191,1110.308913,7624.121203
2662.882193,2221.676944,1628.453072,6957.935855
2662.882522,1302.362347,740.205942,8438.347739
2662.882851,1455.581446,296.082377,8290.306550
2662.883180,1838.629195,-0.000000,8438.347739
2662.883509,919.314598,-888.247130,8586.388927
2662.883838,-995.924147,-1110.308913,8586.388927
2662.884167,-1149.143247,-1998.556043,10436.903782
2662.884496,-766.095498,-2072.576638,9918.759623
2662.884825,-766.095498,-1850.514855,9252.574275
2662.885154,-1991.848295,-1628.453072,9548.656652
2662.885483,-1762.019645,-1628.453072,10362.883188
2662.885812,0.000000,-666.185348,10140.821405
2662.886141,766.095498,-518.144159,9104.533087
2662.886470,306.438199,-0.000000,7994.224174
2662.886799,612.876398,-0.000000,8734.430116
2662.887128,2068.457845,1332.370696,8734.430116
2662.887457,2604.724693,888.247130,8068.244768
2662.887786,1838.629195,740.205942,8290.306550
2662.888115,1149.143247,-74.020594,9104.533087
2662.888444,1378.971896,-444.123565,9474.636058
2662.888773,1532.190996,740.205942,8660.409521
2662.889102,383.047749,-74.020594,9030.512492
2662.889431,-1149.143247,-962.267725,9252.574275
2662.889760,-995.924147,-1776.494261,10658.965565
2662.890089,0.000000,-1628.453072,9992.780217
2662.890418,-1149.143247,-814.226536,8956.491898
2662.890747,-1991.848295,-296.082377,9326.594869
2662.891076,-1915.238745,-1036.288319,9844.739029
2662.891405,-689.485948,-518.144159,10140.821405
2662.891734,919.314598,-222.061783,8882.471304
2662.892063,0.000000,148.041188,8364.327145
2662.892392,76.609550,-74.020594,9474.636058
2662.892721,1762.019645,-444.123565,9400.615463
2662.893050,2604.724693,962.267725,7698.141797
2662.893379,1915.238745,1036.288319,7994.224174
2662.893708,766.095498,1036.288319,8808.450710
2662.894037,1225.752797,592.164754,9400.615463
2662.894366,1915.238745,814.226536,9104.533087
2662.894695,1149.143247,1184.329507,7698.141797
2662.895024,-383.047749,222.061783,9104.533087
2662.895353,-536.266849,-444.123565,9844.739029
2662.895682,0.000000,-666.185348,9696.697840
2662.896011,-153.219100,-444.123565,9178.553681
2662.896340,-1225.752797,-740.205942,9104.533087
2662.896669,-1532.190996,-1258.350101,10066.800811
2662.896998,-689.485948,-1480.411884,10658.965565
2662.897327,229.828649,-222.061783,8734.430116
2662.897656,-306.438199,666.185348,8734.430116
2662.897985,0.000000,888.247130,9326.594869
2662.898314,1455.581446,148.041188,8734.430116
2662.898643,2451.505594,666.185348,9178.553681
2662.898972,2374.896044,1036.288319,8438.347739
2662.899301,1532.190996,592.164754,8956.491898
2662.899630,1532.190996,-0.000000,9474.636058
2662.899959,2298.286494,740.205942,9178.553681
2662.900289,1685.410096,1036.288319,8882.471304
2662.900618,0.000000,962.267725,8660.409521
2662.900947,-306.438199,-222.061783,9178.553681
2662.901276,229.828649,-666.185348,9844.739029
2662.901605,0.000000,-444.123565,9104.533087
2662.901934,-1608.800546,-592.164754,9030.512492
2662.902263,-2451.505594,-1184.329507,9770.718434
2662.902592,-1302.362347,-1406.391290,10362.883188
2662.902921,229.828649,-962.267725,9696.697840
2662.903250,-995.924147,-444.123565,8734.430116
2662.903579,-536.266849,-592.164754,9400.615463
2662.903908,1455.581446,-740.205942,9474.636058
2662.904237,2681.334243,296.082377,8364.327145
2662.904566,2374.896044,518.144159,8216.285956
2662.904895,1302.362347,740.205942,8290.306550
2662.905224,1378.971896,370.102971,8364.327145
2662.905553,2221.676944,962.267725,8734.430116
2662.905882,2145.067394,962.267725,8512.368333
2662.906211,0.000000,-0.000000,8512.368333
2662.906540,-995.924147,-1036.288319,9252.574275
2662.906869,-612.876398,-1702.473667,9696.697840
2662.907198,-383.047749,-1406.391290,9178.553681
2662.907527,-1608.800546,-1924.535449,9104.533087
2662.907856,-2298.286494,-2590.720797,9844.739029
2662.908185,-1685.410096,-2072.576638,10732.986159
2662.908514,459.657299,-888.247130,9104.533087
2662.908843,-306.438199,-592.164754,8364.327145
2662.909172,0.000000,-0.000000,9474.636058
2662.909501,1149.143247,-222.061783,9104.533087
2662.909830,2528.115143,814.226536,8808.450710
2662.910159,2757.943793,740.205942,7994.224174
2662.910488,2528.115143,518.144159,8660.409521
2662.910818,1991.848295,222.061783,9548.656652
2662.911147,2757.943793,962.267725,8882.471304
2662.911476,2068.457845,1184.329507,8438.347739
2662.911805,0.000000,740.205942,8438.347739
2662.912134,0.000000,-0.000000,8660.409521
2662.912463,0.000000,-1776.494261,10140.821405
2662.912792,-153.219100,-888.247130,9696.697840
2662.913121,-153.219100,-1924.535449,9400.615463
2662.913450,-1608.800546,-1554.432478,9178.553681
2662.913779,-1762.019645,-1332.370696,10732.986159
2662.914108,0.000000,-74.020594,9696.697840
2662.914437,-536.266849,-74.020594,7994.224174
2662.914766,-612.876398,148.041188,9326.594869
2662.915095,383.047749,-0.000000,9326.594869
2662.915424,1302.362347,-0.000000,9474.636058
2662.915753,2145.067394,666.185348,7550.100608
2662.916082,766.095498,222.061783,8734.430116
2662.916412,306.438199,-666.185348,9770.718434
2662.916741,1378.971896,-296.082377,9030.512492
2662.917070,2145.067394,-0.000000,8882.471304
2662.917399,1072.533697,-74.020594,7402.059420
2662.917728,383.047749,518.144159,9178.553681
2662.918057,995.924147,-1554.432478,9400.615463
2662.918386,766.095498,222.061783,7624.121203
2662.918715,-459.657299,-296.082377,8586.388927
2662.919044,-1455.581446,-888.247130,8882.471304
2662.919373,-1608.800546,-1332.370696,10214.842000
2662.919702,0.000000,-1332.370696,10584.944971
2662.920031,0.000000,-814.226536,8660.409521
2662.920360,-536.266849,-74.020594,9548.656652
2662.920689,-919.314598,-222.061783,9474.636058
2662.921018,995.924147,148.041188,9400.615463
2662.921347,1302.362347,962.267725,8882.471304
2662.921676,995.924147,592.164754,8438.347739
2662.922005,1838.629195,1110.308913,8586.388927
2662.922335,2145.067394,814.226536,9474.636058
2662.922664,2834.553343,1998.556043,8438.347739
2662.922993,1225.752797,1776.494261,8734.430116
2662.923322,383.047749,1184.329507,9030.512492
2662.923651,995.924147,-0.000000,9400.615463
2662.923980,1225.752797,1554.432478,8734.430116
2662.924309,-229.828649,-518.144159,8956.491898
2662.924638,-612.876398,-0.000000,9178.553681
2662.924967,-1455.581446,-740.205942,10066.800811
2662.925296,-612.876398,-518.144159,10140.821405
2662.925625,-1072.533697,444.123565,8734.430116
2662.925954,-1838.629195,-0.000000,9178.553681
2662.926283,-1608.800546,-666.185348,9992.780217
2662.926612,459.657299,-518.144159,9622.677246
2662.926941,1378.971896,-0.000000,9104.533087
2662.927270,919.314598,-592.164754,8512.368333
2662.927599,383.047749,666.185348,9178.553681
2662.927929,1225.752797,-0.000000,9400.615463
2662.928258,2298.286494,1924.535449,8216.285956
2662.928587,1455.581446,1406.391290,8290.306550
2662.928916,689.485948,888.247130,8512.368333
2662.929245,766.095498,-444.123565,9252.574275
2662.929574,1455.581446,-222.061783,9178.553681
2662.929903,229.828649,-1258.350101,8808.450710
2662.930232,-1378.971896,-1110.308913,9326.594869
2662.930561,-1991.848295,-1850.514855,10288.862594
2662.930890,-995.924147,-1332.370696,9844.739029
2662.931219,-536.266849,-1036.288319,8882.471304
2662.931548,-1149.143247,-1110.308913,9252.574275
2662.931877,-1685.410096,-962.267725,9104.533087
2662.932206,0.000000,-518.144159,9030.512492
2662.932535,1149.143247,-296.082377,8512.368333
2662.932864,383.047749,-0.000000,8808.450710
2662.933193,689.485948,-666.185348,9696.697840
2662.933522,1378.971896,-1332.370696,9178.553681
2662.933852,2451.505594,370.102971,9030.512492
2662.934181,2681.334243,592.164754,7994.224174
2662.934510,1149.143247,222.061783,7994.224174
2662.934839,1072.533697,222.061783,8956.491898
2662.935168,1915.238745,-0.000000,8808.450710
2662.935497,1302.362347,370.102971,8290.306550
2662.935826,-689.485948,222.061783,8438.347739
2662.936155,-1685.410096,-1258.350101,9400.615463
2662.936484,-536.266849,-1850.514855,9992.780217
2662.936813,0.000000,-1184.329507,9474.636058
2662.937142,-1455.581446,-1258.350101,9178.553681
2662.937471,-1838.629195,-1776.494261,9474.636058
2662.937800,0.000000,-1332.370696,9696.697840
2662.938129,995.924147,-1036.288319,8364.327145
2662.938458,1378.971896,444.123565,7846.182985
2662.938787,1149.143247,296.082377,9030.512492
2662.939116,2298.286494,444.123565,8808.450710
2662.939445,2987.772442,2072.576638,8512.368333
2662.939775,2681.334243,1332.370696,7550.100608
2662.940104,1302.362347,666.185348,8142.265362
2662.940433,1762.019645,962.267725,8660.409521
2662.940762,1915.238745,-222.061783,8660.409521
2662.941091,1455.581446,-444.123565,8956.491898
2662.941420,-229.828649,-1110.308913,8364.327145
2662.941749,-1378.971896,-2146.597232,9918.759623
2662.942078,-1608.800546,-1998.556043,10510.924376
2662.942407,-1225.752797,-888.247130,9474.636058
2662.942736,-1608.800546,-444.123565,8586.388927
2662.943065,-2757.943793,-962.267725,9918.759623
2662.943394,-1302.362347,-2220.617826,10658.965565
2662.943723,842.705048,-888.247130,10214.842000
2662.944052,1149.143247,-0.000000,8586.388927
2662.944381,842.705048,592.164754,8956.491898
2662.944710,1455.581446,444.123565,9474.636058
2662.945039,2451.505594,1258.350101,9326.594869
2662.945369,3064.381992,2442.679609,8512.368333
2662.945698,842.705048,2072.576638,7994.224174
2662.946027,612.876398,1258.350101,8586.388927
2662.946356,1762.019645,666.185348,9326.594869
2662.946685,842.705048,518.144159,8364.327145
