#time,accel_x,accel_y,accel_z
2460.580022,383.047749,-148.041188,9178.553681
2460.580351,-153.219100,-148.041188,9104.533087
2460.580680,536.266849,-0.000000,9104.533087
2460.581009,536.266849,-0.000000,8882.471304
2460.581338,459.657299,-0.000000,9104.533087
2460.581667,459.657299,-0.000000,8882.471304
2460.581996,383.047749,-222.061783,9030.512492
2460.582325,459.657299,-518.144159,9400.615463
2460.582654,689.485948,-370.102971,9326.594869
2460.582983,306.438199,-148.041188,9252.574275
2460.583312,306.438199,-148.041188,9104.533087
2460.583641,153.219100,-222.061783,9326.594869
2460.583970,76.609550,-296.082377,9030.512492
2460.584298,383.047749,-370.102971,9400.615463
2460.584627,-153.219100,-222.061783,9326.594869
2460.584956,995.924147,-296.082377,9104.533087
2460.585285,689.485948,-296.082377,9178.553681
2460.585614,306.438199,-222.061783,9326.594869
2460.585943,383.047749,-0.000000,9252.574275
2460.586272,306.438199,-222.061783,9178.553681
2460.586601,0.000000,-74.020594,9400.615463
2460.586930,689.485948,-222.061783,9178.553681
2460.587259,383.047749,-296.082377,8808.450710
2460.587588,306.438199,-518.144159,8512.368333
2460.587917,153.219100,-0.000000,9252.574275
2460.588246,229.828649,-0.000000,9104.533087
2460.588575,306.438199,-74.020594,9104.533087
2460.588904,153.219100,-222.061783,9400.615463
2460.589233,383.047749,-148.041188,8956.491898
2460.589562,459.657299,-74.020594,8734.430116
2460.589891,229.828649,-74.020594,8808.450710
2460.590220,306.438199,-0.000000,8734.430116
2460.590549,306.438199,-0.000000,8808.450710
2460.590878,536.266849,-0.000000,9030.512492
2460.591207,383.047749,-0.000000,8956.491898
2460.591535,-306.438199,-0.000000,9178.553681
2460.591864,842.705048,-74.020594,8882.471304
2460.592193,536.266849,-296.082377,8882.471304
2460.592522,459.657299,-0.000000,8882.471304
2460.592851,536.266849,-0.000000,9178.553681
2460.593180,153.219100,-0.000000,9104.533087
2460.593509,0.000000,-148.041188,9030.512492
2460.593838,306.438199,-296.082377,9252.574275
2460.594167,536.266849,222.061783,9030.512492
2460.594496,306.438199,-814.226536,8660.409521
2460.594825,383.047749,-370.102971,8956.491898
2460.595154,383.047749,-148.041188,9178.553681
2460.595483,383.047749,-74.020594,9178.553681
2460.595812,76.609550,-370.102971,9252.574275
2460.596141,612.876398,-148.041188,9474.636058
2460.596470,536.266849,-518.144159,9030.512492
2460.596799,76.609550,-370.102971,9030.512492
2460.597128,306.438199,-222.061783,9178.553681
2460.597457,229.828649,-222.061783,9178.553681
2460.597786,229.828649,-296.082377,9178.553681
2460.598115,383.047749,-0.000000,9400.615463
2460.598444,-306.438199,-222.061783,9326.594869
2460.598772,766.095498,-444.123565,9104.533087
2460.599101,383.047749,-370.102971,9178.553681
2460.599430,229.828649,-0.000000,9104.533087
2460.599759,153.219100,-74.020594,8956.491898
2460.600088,306.438199,-0.000000,9104.533087
2460.600417,0.000000,148.041188,9030.512492
2460.600746,459.657299,-74.020594,9030.512492
2460.601075,306.438199,-74.020594,9030.512492
2460.601404,306.438199,518.144159,9474.636058
2460.601733,459.657299,-0.000000,8956.491898
2460.602062,153.219100,-0.000000,8808.450710
2460.602391,229.828649,-0.000000,8882.471304
2460.602720,1072.533697,-370.102971,9178.553681
2460.603049,536.266849,-148.041188,8956.491898
2460.603378,536.266849,-814.226536,8808.450710
2460.603707,689.485948,-148.041188,9252.574275
2460.604036,306.438199,-222.061783,8956.491898
2460.604365,459.657299,-296.082377,8956.491898
2460.604694,536.266849,-74.020594,9178.553681
2460.605023,612.876398,-444.123565,9252.574275
2460.605352,536.266849,-666.185348,8882.471304
2460.605680,383.047749,-370.102971,9326.594869
2460.606009,229.828649,-74.020594,9326.594869
2460.606338,842.705048,-518.144159,9104.533087
2460.606667,306.438199,-222.061783,9326.594869
2460.606996,153.219100,-74.020594,9474.636058
2460.607325,306.438199,-222.061783,9326.594869
2460.607654,229.828649,-296.082377,9104.533087
2460.607983,306.438199,-148.041188,9400.615463
2460.608312,766.095498,-0.000000,9400.615463
2460.608641,689.485948,-444.123565,9104.533087
2460.608970,306.438199,-296.082377,9178.553681
2460.609299,459.657299,-370.102971,9696.697840
2460.609628,1302.362347,-1110.308913,9474.636058
2460.609957,1378.971896,-740.205942,9400.615463
2460.610286,1838.629195,-370.102971,9326.594869
2460.610615,2451.505594,-222.061783,9252.574275
2460.610944,2987.772442,444.123565,8734.430116
2460.611273,3064.381992,296.082377,9622.677246
2460.611602,4060.306139,-0.000000,8364.327145
2460.611931,3294.210641,518.144159,8142.265362
2460.612260,2834.553343,814.226536,8512.368333
2460.612589,2757.943793,370.102971,8216.285956
2460.612917,2911.162892,-444.123565,9474.636058
2460.613246,2757.943793,-148.041188,8882.471304
2460.613575,1838.629195,-888.247130,9844.739029
2460.613904,2145.067394,-2072.576638,9770.718434
2460.614233,2834.553343,-1258.350101,9178.553681
2460.614562,2834.553343,-0.000000,9400.615463
2460.614891,3217.601092,-1184.329507,9770.718434
2460.615220,3524.039291,-0.000000,8734.430116
2460.615549,4596.572988,1258.350101,9252.574275
2460.615878,5745.716235,740.205942,7105.977043
2460.616207,4749.792088,1480.411884,8438.347739
2460.616536,4826.401637,962.267725,9178.553681
2460.616865,4673.182538,962.267725,7105.977043
2460.617194,3677.258390,444.123565,9104.533087
2460.617523,2221.676944,-370.102971,9252.574275
2460.617852,1838.629195,-0.000000,9548.656652
2460.618181,1378.971896,-1184.329507,9918.759623
2460.618510,1072.533697,-1406.391290,9548.656652
2460.618839,1608.800546,-1110.308913,10288.862594
2460.619168,612.876398,-1554.432478,10066.800811
2460.619497,2068.457845,-370.102971,9548.656652
2460.619826,2604.724693,-148.041188,10510.924376
2460.620154,3524.039291,1850.514855,8068.244768
2460.620483,4290.134789,518.144159,9548.656652
2460.620812,4673.182538,1480.411884,8438.347739
2460.621141,4673.182538,962.267725,7920.203579
2460.621470,4366.744339,1110.308913,8142.265362
2460.621799,3830.477490,592.164754,9030.512492
2460.622128,2911.162892,-0.000000,8808.450710
2460.622457,2068.457845,-1258.350101,9474.636058
2460.622786,1455.581446,-1702.473667,9400.615463
2460.623115,1149.143247,-1702.473667,9992.780217
2460.623444,612.876398,-1776.494261,9548.656652
2460.623773,919.314598,-1776.494261,9696.697840
2460.624102,1072.533697,-444.123565,9400.615463
2460.624431,1455.581446,222.061783,9178.553681
2460.624760,1838.629195,666.185348,8290.306550
2460.625089,2451.505594,1628.453072,8512.368333
2460.625418,2528.115143,2664.741391,7698.141797
2460.625747,2068.457845,2368.659014,7328.038826
2460.626076,1302.362347,1850.514855,7846.182985
2460.626405,1072.533697,1184.329507,8068.244768
2460.626734,229.828649,-0.000000,8290.306550
2460.627063,0.000000,-1628.453072,8882.471304
2460.627391,-612.876398,-2368.659014,9992.780217
2460.627720,-842.705048,-2220.617826,9992.780217
2460.628049,-995.924147,-2294.638420,9474.636058
2460.628378,-612.876398,-2220.617826,9918.759623
2460.628707,-536.266849,-1998.556043,10140.821405
2460.629036,0.000000,-1184.329507,10214.842000
2460.629365,842.705048,-1850.514855,10732.986159
2460.629694,1838.629195,-148.041188,9696.697840
2460.630023,3370.820191,1554.432478,9030.512492
2460.630352,3907.087040,2368.659014,8290.306550
2460.630681,3907.087040,3330.926739,7550.100608
2460.631010,3753.867940,3478.967927,7254.018232
2460.631339,3140.991542,3034.844362,6735.874072
2460.631668,1838.629195,2146.597232,7550.100608
2460.631997,0.000000,222.061783,8512.368333
2460.632326,-1685.410096,-1480.411884,9474.636058
2460.632655,-1991.848295,-3182.885551,10658.965565
2460.632984,-2374.896044,-3404.947333,9252.574275
2460.633313,-2221.676944,-3552.988522,10584.944971
2460.633642,-2757.943793,-3256.906145,10881.027347
2460.633971,-2681.334243,-2960.823768,11325.150913
2460.634300,-2145.067394,-2886.803174,11177.109724
2460.634628,-1225.752797,-1258.350101,10362.883188
2460.634957,-306.438199,-0.000000,9844.739029
2460.635286,-536.266849,1998.556043,8734.430116
2460.635615,0.000000,2294.638420,9400.615463
2460.635944,1072.533697,1258.350101,10140.821405
2460.636273,2681.334243,3627.009116,6365.771101
2460.636602,5209.449386,2960.823768,5551.544565
2460.636931,3447.429741,3330.926739,3775.050304
2460.637260,2834.553343,2516.700203,5699.585753
2460.637589,1378.971896,-814.226536,7994.224174
2460.637918,383.047749,-2220.617826,7920.203579
2460.638247,-689.485948,-3627.009116,10214.842000
2460.638576,-1378.971896,-5551.544565,10807.006753
2460.638905,-1762.019645,-4515.256246,10658.965565
2460.639234,-1302.362347,-3552.988522,11547.212695
2460.639563,-612.876398,-1998.556043,11177.109724
2460.639892,612.876398,-0.000000,11325.150913
2460.640221,306.438199,1554.432478,10881.027347
2460.640550,536.266849,2738.761985,10658.965565
2460.640879,1762.019645,1776.494261,8660.409521
2460.641208,2604.724693,3701.029710,6883.915261
2460.641537,2757.943793,3627.009116,5847.626942
2460.641865,2451.505594,2812.782580,6217.729913
2460.642194,1762.019645,1110.308913,7254.018232
2460.642523,689.485948,-1184.329507,7846.182985
2460.642852,-459.657299,-3552.988522,8734.430116
2460.643181,-2068.457845,-4959.379811,10066.800811
2460.643510,-2068.457845,-4367.215058,8882.471304
2460.643839,-1685.410096,-4367.215058,11843.295072
2460.644168,-2145.067394,-2294.638420,10436.903782
2460.644497,-766.095498,-1406.391290,11547.212695
2460.644826,-306.438199,-74.020594,11399.171507
2460.645155,0.000000,2812.782580,8808.450710
2460.645484,0.000000,2368.659014,9326.594869
2460.645813,-229.828649,2664.741391,9844.739029
2460.646142,1225.752797,3330.926739,8882.471304
2460.646471,2451.505594,3627.009116,7031.956449
2460.646800,3294.210641,2442.679609,6291.750507
2460.647129,3064.381992,1480.411884,5551.544565
2460.647458,2834.553343,-592.164754,7031.956449
2460.647787,1455.581446,-2072.576638,7772.162391
2460.648116,919.314598,-4515.256246,8512.368333
2460.648445,459.657299,-3627.009116,9992.780217
2460.648774,-306.438199,-2812.782580,10140.821405
2460.649102,-459.657299,-2664.741391,11029.068536
2460.649431,153.219100,-1036.288319,10881.027347
2460.649760,1302.362347,518.144159,10584.944971
2460.650089,1149.143247,2368.659014,10214.842000
2460.650418,2298.286494,3997.112087,8068.244768
2460.650747,1455.581446,4441.235652,8364.327145
2460.651076,1532.190996,3552.988522,7772.162391
2460.651405,383.047749,2960.823768,7328.038826
2460.651734,-995.924147,-0.000000,7698.141797
2460.652063,-1225.752797,-2368.659014,9326.594869
2460.652392,-1838.629195,-4071.132681,9622.677246
2460.652721,-1225.752797,-3997.112087,7920.203579
2460.653050,-1991.848295,-5477.523971,8808.450710
2460.653379,-2451.505594,-4959.379811,10881.027347
2460.653708,-2221.676944,-3775.050304,11251.130318
2460.654037,-1608.800546,-1702.473667,11547.212695
2460.654366,-153.219100,-370.102971,10140.821405
2460.654695,689.485948,1554.432478,9474.636058
2460.655024,0.000000,3849.070898,8586.388927
2460.655353,0.000000,3182.885551,10658.965565
2460.655682,459.657299,3256.906145,8216.285956
2460.656010,3294.210641,4071.132681,6439.791695
2460.656339,2911.162892,3330.926739,4959.379811
2460.656668,1838.629195,1924.535449,4885.359217
2460.656997,766.095498,-666.185348,7920.203579
2460.657326,-459.657299,-3256.906145,8290.306550
2460.657655,459.657299,-4515.256246,9326.594869
2460.657984,0.000000,-4663.297435,8290.306550
2460.658313,-153.219100,-4145.153275,9770.718434
2460.658643,-1149.143247,-3034.844362,10658.965565
2460.658972,0.000000,-666.185348,10584.944971
2460.659301,919.314598,-148.041188,11251.130318
2460.659630,995.924147,1554.432478,10288.862594
2460.659959,766.095498,3997.112087,10288.862594
2460.660288,-306.438199,3775.050304,10066.800811
2460.660617,0.000000,2960.823768,8586.388927
2460.660946,995.924147,2960.823768,7550.100608
2460.661275,995.924147,2146.597232,6809.894666
2460.661604,306.438199,-0.000000,7031.956449
2460.661933,-689.485948,-1924.535449,8586.388927
2460.662263,-1302.362347,-3849.070898,9474.636058
2460.662592,-842.705048,-5107.421000,8068.244768
2460.662921,-766.095498,-5255.462188,8808.450710
2460.663250,-1302.362347,-3997.112087,10140.821405
2460.663579,-766.095498,-2294.638420,10881.027347
2460.663908,-536.266849,-444.123565,11843.295072
2460.664237,-612.876398,1110.308913,11103.089130
2460.664566,383.047749,2516.700203,9918.759623
2460.664895,0.000000,4219.173869,9474.636058
2460.665224,76.609550,3701.029710,9844.739029
2460.665553,842.705048,2960.823768,8882.471304
2460.665883,2451.505594,3182.885551,7920.203579
2460.666212,3370.820191,2442.679609,6143.709319
2460.666541,2451.505594,-0.000000,6587.832884
2460.666870,1685.410096,-888.247130,6957.935855
2460.667199,1378.971896,-3256.906145,7920.203579
2460.667528,919.314598,-4145.153275,8808.450710
2460.667857,229.828649,-4071.132681,9474.636058
2460.668186,76.609550,-3552.988522,10436.903782
2460.668515,76.609550,-1924.535449,10584.944971
2460.668844,919.314598,-222.061783,10732.986159
2460.669173,1149.143247,1110.308913,10510.924376
2460.669503,2451.505594,3034.844362,9548.656652
2460.669832,2681.334243,5255.462188,8290.306550
2460.670161,2374.896044,5181.441594,7846.182985
2460.670490,2221.676944,4219.173869,7624.121203
2460.670819,766.095498,2664.741391,7994.224174
2460.671148,-1378.971896,-222.061783,8882.471304
2460.671477,-1532.190996,-3404.947333,9548.656652
2460.671806,-1685.410096,-4367.215058,8956.491898
2460.672135,-1532.190996,-4663.297435,8364.327145
2460.672464,-2145.067394,-5181.441594,9326.594869
2460.672793,-2374.896044,-5033.400406,11103.089130
2460.673123,-1838.629195,-3701.029710,12065.356855
2460.673452,-1378.971896,-1628.453072,10807.006753
2460.673781,-306.438199,222.061783,9844.739029
2460.674110,76.609550,2368.659014,9548.656652
2460.674439,-689.485948,4367.215058,8290.306550
2460.674768,-612.876398,3330.926739,10658.965565
2460.675097,229.828649,2590.720797,9030.512492
2460.675426,2221.676944,3108.864956,6883.915261
2460.675755,2145.067394,2220.617826,6661.853478
2460.676084,1532.190996,814.226536,6217.729913
2460.676413,153.219100,-1480.411884,8364.327145
2460.676743,-383.047749,-3478.967927,8734.430116
2460.677072,-229.828649,-3849.070898,9178.553681
2460.677401,153.219100,-4367.215058,9474.636058
2460.677730,153.219100,-3701.029710,9474.636058
2460.678059,-536.266849,-2146.597232,10658.965565
2460.678388,0.000000,-444.123565,10140.821405
2460.678717,383.047749,740.205942,10436.903782
2460.679046,919.314598,1850.514855,10510.924376
2460.679375,1608.800546,3997.112087,9178.553681
2460.679704,1225.752797,5033.400406,8216.285956
2460.680033,1302.362347,2886.803174,7994.224174
2460.680363,1302.362347,2294.638420,7624.121203
2460.680692,766.095498,814.226536,7698.141797
2460.681021,-612.876398,-1628.453072,8512.368333
2460.681350,-995.924147,-3404.947333,9918.759623
2460.681679,-766.095498,-3997.112087,8808.450710
2460.682008,-1302.362347,-4811.338623,8882.471304
2460.682337,-1149.143247,-4737.318029,9992.780217
2460.682666,-536.266849,-3108.864956,10881.027347
2460.682995,0.000000,-1110.308913,10732.986159
2460.683324,0.000000,518.144159,10140.821405
2460.683653,612.876398,2146.597232,9474.636058
2460.683983,-229.828649,3182.885551,9326.594869
2460.684312,76.609550,2590.720797,10510.924376
2460.684641,1532.190996,3034.844362,9474.636058
2460.684970,3064.381992,4293.194464,6513.812290
2460.685299,3907.087040,2368.659014,6957.935855
2460.685628,2757.943793,1998.556043,6143.709319
2460.685957,1991.848295,-148.041188,8364.327145
2460.686286,995.924147,-2812.782580,8142.265362
2460.686615,1378.971896,-4441.235652,8956.491898
2460.686944,0.000000,-4589.276840,10658.965565
2460.687273,0.000000,-3701.029710,9992.780217
2460.687602,-766.095498,-2590.720797,10955.047942
2460.687932,76.609550,-222.061783,10436.903782
2460.688261,1225.752797,740.205942,9992.780217
2460.688590,1915.238745,2294.638420,10584.944971
2460.688919,2374.896044,4441.235652,8512.368333
2460.689248,2451.505594,4367.215058,7920.203579
2460.689577,1225.752797,3775.050304,7994.224174
2460.689906,1149.143247,2960.823768,7179.997637
2460.690235,0.000000,222.061783,8142.265362
2460.690564,-1149.143247,-2220.617826,8808.450710
2460.690893,-842.705048,-3701.029710,9548.656652
2460.691222,-1532.190996,-3997.112087,7772.162391
2460.691552,-1072.533697,-4737.318029,9178.553681
2460.691881,-1685.410096,-3923.091493,9178.553681
2460.692210,-612.876398,-2812.782580,10807.006753
2460.692539,-919.314598,-1110.308913,10510.924376
2460.692868,-306.438199,222.061783,9992.780217
2460.693197,0.000000,1776.494261,9844.739029
2460.693526,-842.705048,3552.988522,8290.306550
2460.693855,-612.876398,3330.926739,9400.615463
2460.694184,-306.438199,2590.720797,9474.636058
2460.694513,995.924147,1776.494261,8586.388927
2460.694842,1225.752797,1184.329507,7994.224174
2460.695172,1149.143247,518.144159,6439.791695
2460.695501,689.485948,-1258.350101,8142.265362
2460.695830,689.485948,-3182.885551,8142.265362
2460.696159,306.438199,-3330.926739,9178.553681
2460.696488,0.000000,-3701.029710,9992.780217
2460.696817,153.219100,-2886.803174,9252.574275
2460.697146,0.000000,-1924.535449,10510.924376
2460.697475,383.047749,-0.000000,9844.739029
2460.697804,1378.971896,1184.329507,9696.697840
2460.698133,1991.848295,2368.659014,9770.718434
2460.698462,2681.334243,3923.091493,8882.471304
2460.698792,1302.362347,3923.091493,8512.368333
2460.699121,0.000000,3330.926739,8364.327145
2460.699450,0.000000,1776.494261,8290.306550
2460.699779,-689.485948,-666.185348,9178.553681
2460.700108,-1149.143247,-2664.741391,9696.697840
2460.700437,-1225.752797,-3923.091493,9104.533087
2460.700766,-1149.143247,-4367.215058,9252.574275
2460.701095,-1225.752797,-3849.070898,8808.450710
2460.701424,-1532.190996,-3478.967927,10140.821405
2460.701753,-689.485948,-3034.844362,10807.006753
2460.702082,306.438199,-1036.288319,10288.862594
2460.702412,612.876398,592.164754,9992.780217
2460.702741,459.657299,2368.659014,8956.491898
2460.703070,-459.657299,3849.070898,8734.430116
2460.703399,0.000000,3034.844362,10436.903782
2460.703728,919.314598,2368.659014,9548.656652
2460.704057,2451.505594,2294.638420,7624.121203
2460.704386,3830.477490,2146.597232,5995.668130
2460.704715,2757.943793,888.247130,6143.709319
2460.705044,2145.067394,-222.061783,7476.080014
2460.705373,2374.896044,-1628.453072,8216.285956
2460.705702,1302.362347,-2812.782580,8512.368333
2460.706032,1072.533697,-3627.009116,9548.656652
2460.706361,0.000000,-3997.112087,10362.883188
2460.706690,-689.485948,-2664.741391,10510.924376
2460.707019,153.219100,-666.185348,11029.068536
2460.707348,1302.362347,1110.308913,10214.842000
2460.707677,2145.067394,2442.679609,9474.636058
2460.708006,1991.848295,4293.194464,8512.368333
2460.708335,1608.800546,3923.091493,8216.285956
2460.708664,842.705048,2664.741391,8068.244768
2460.708993,306.438199,888.247130,7994.224174
2460.709322,-842.705048,-592.164754,8364.327145
2460.709652,-2068.457845,-3552.988522,9770.718434
2460.709981,-1762.019645,-4367.215058,9400.615463
2460.710310,-1532.190996,-3775.050304,8808.450710
2460.710639,-1685.410096,-3849.070898,9326.594869
2460.710968,-1378.971896,-3552.988522,9844.739029
2460.711297,-153.219100,-2368.659014,10732.986159
2460.711626,-306.438199,-592.164754,10362.883188
2460.711955,153.219100,740.205942,9770.718434
2460.712284,0.000000,2664.741391,8586.388927
2460.712613,-919.314598,3701.029710,8956.491898
2460.712942,-1072.533697,2886.803174,10362.883188
2460.713272,76.609550,2516.700203,9104.533087
2460.713601,2221.676944,2368.659014,7105.977043
2460.713930,2298.286494,1702.473667,5921.647536
2460.714259,1532.190996,1036.288319,6661.853478
2460.714588,306.438199,-666.185348,7624.121203
2460.714917,153.219100,-2664.741391,8660.409521
2460.715246,-383.047749,-3404.947333,9474.636058
2460.715575,-229.828649,-3997.112087,9770.718434
2460.715904,-1072.533697,-3034.844362,9770.718434
2460.716233,-842.705048,-1776.494261,10066.800811
2460.716562,-459.657299,-296.082377,10362.883188
2460.716892,536.266849,1110.308913,10214.842000
2460.717221,1225.752797,2146.597232,10955.047942
2460.717550,1532.190996,4071.132681,8660.409521
2460.717879,1455.581446,3775.050304,8290.306550
2460.718208,1149.143247,2960.823768,7105.977043
2460.718537,689.485948,1702.473667,7772.162391
2460.718866,-459.657299,-518.144159,8660.409521
2460.719195,-1072.533697,-2664.741391,8956.491898
2460.719524,-1378.971896,-4219.173869,10362.883188
2460.719853,-1915.238745,-4219.173869,9474.636058
2460.720182,-766.095498,-3701.029710,9400.615463
2460.720512,-766.095498,-4293.194464,10140.821405
2460.720841,-383.047749,-1924.535449,10214.842000
2460.721170,0.000000,-518.144159,10881.027347
2460.721499,153.219100,814.226536,9992.780217
2460.721828,0.000000,2368.659014,9030.512492
2460.722157,-459.657299,2146.597232,10214.842000
2460.722486,0.000000,2664.741391,9622.677246
2460.722815,1838.629195,2812.782580,8364.327145
2460.723144,3907.087040,2664.741391,5995.668130
2460.723473,3753.867940,2294.638420,6365.771101
2460.723802,2757.943793,1554.432478,6365.771101
2460.724132,2221.676944,-222.061783,7328.038826
2460.724461,1149.143247,-2220.617826,7994.224174
2460.724790,919.314598,-4219.173869,8734.430116
2460.725119,-383.047749,-4441.235652,10066.800811
2460.725448,-1378.971896,-3701.029710,10658.965565
2460.725777,-1302.362347,-2368.659014,11399.171507
2460.726106,0.000000,-148.041188,10362.883188
2460.726435,1608.800546,1258.350101,9992.780217
2460.726764,1991.848295,3034.844362,9474.636058
2460.727093,2221.676944,4441.235652,8142.265362
2460.727422,1838.629195,4441.235652,7698.141797
2460.727752,1378.971896,3256.906145,7105.977043
2460.728081,306.438199,2294.638420,7476.080014
2460.728410,-612.876398,-1184.329507,8956.491898
2460.728739,-2145.067394,-3108.864956,9696.697840
2460.729068,-1149.143247,-4663.297435,10881.027347
2460.729397,-1762.019645,-4367.215058,8512.368333
2460.729726,-842.705048,-3775.050304,9474.636058
2460.730055,-1225.752797,-3404.947333,10362.883188
2460.730384,-612.876398,-1776.494261,10510.924376
2460.730713,-766.095498,-444.123565,11029.068536
2460.731042,0.000000,1184.329507,9844.739029
2460.731372,-612.876398,2442.679609,8882.471304
2460.731701,-1225.752797,2368.659014,10362.883188
2460.732030,-383.047749,2516.700203,9696.697840
2460.732359,1838.629195,3108.864956,8438.347739
2460.732688,2528.115143,2738.761985,5995.668130
2460.733017,2757.943793,1924.535449,6143.709319
2460.733346,1225.752797,962.267725,6957.935855
2460.733675,766.095498,-888.247130,7994.224174
2460.734004,383.047749,-3108.864956,8586.388927
2460.734333,-612.876398,-3849.070898,9622.677246
2460.734662,-689.485948,-4071.132681,10362.883188
2460.734992,-1378.971896,-2812.782580,9918.759623
2460.735321,-383.047749,-1332.370696,10658.965565
2460.735650,0.000000,592.164754,10288.862594
2460.735979,1149.143247,1332.370696,10436.903782
2460.736308,1915.238745,3108.864956,10436.903782
2460.736637,1838.629195,3701.029710,8068.244768
2460.736966,2221.676944,3775.050304,7328.038826
2460.737295,1608.800546,3034.844362,6883.915261
2460.737624,1608.800546,2146.597232,7328.038826
2460.737953,76.609550,-814.226536,8290.306550
2460.738282,-689.485948,-2590.720797,8956.491898
2460.738612,-1149.143247,-4737.318029,10658.965565
2460.738941,-1455.581446,-4811.338623,9178.553681
2460.739270,-1455.581446,-4145.153275,9326.594869
2460.739599,-1072.533697,-3997.112087,9844.739029
2460.739928,-459.657299,-1554.432478,9992.780217
2460.740257,0.000000,-296.082377,10436.903782
2460.740586,459.657299,666.185348,9622.677246
2460.740915,0.000000,2442.679609,9400.615463
2460.741244,0.000000,2072.576638,10436.903782
2460.741573,1225.752797,2664.741391,9400.615463
2460.741902,2528.115143,3478.967927,7550.100608
2460.742232,4290.134789,2590.720797,6883.915261
2460.742561,3294.210641,2146.597232,5773.606348
2460.742890,2911.162892,444.123565,7402.059420
2460.743219,1838.629195,-1628.453072,7550.100608
2460.743548,842.705048,-2812.782580,8586.388927
2460.743877,76.609550,-4145.153275,10584.944971
2460.744206,-995.924147,-3849.070898,10658.965565
2460.744535,-1149.143247,-3256.906145,11103.089130
2460.744864,-689.485948,-1850.514855,10658.965565
2460.745193,842.705048,296.082377,10584.944971
2460.745522,1455.581446,1406.391290,10288.862594
2460.745851,1991.848295,3627.009116,8956.491898
2460.746181,1991.848295,3997.112087,8216.285956
2460.746510,2068.457845,3849.070898,7105.977043
2460.746839,1455.581446,4071.132681,6809.894666
2460.747168,306.438199,1628.453072,7772.162391
2460.747497,-536.266849,-1776.494261,8956.491898
2460.747826,-1991.848295,-3552.988522,9770.718434
2460.748155,-1225.752797,-4441.235652,9548.656652
2460.748484,-1762.019645,-4811.338623,7772.162391
2460.748813,-1532.190996,-4441.235652,10362.883188
2460.749142,-1378.971896,-3108.864956,10288.862594
2460.749471,-306.438199,-1332.370696,10510.924376
2460.749801,-383.047749,-0.000000,10140.821405
2460.750130,306.438199,1554.432478,9400.615463
2460.750459,-536.266849,2516.700203,9696.697840
2460.750788,-919.314598,2886.803174,10140.821405
2460.751117,612.876398,2738.761985,9474.636058
2460.751446,2068.457845,2738.761985,7550.100608
2460.751775,2604.724693,2294.638420,6513.812290
2460.752104,1838.629195,1258.350101,6587.832884
2460.752433,919.314598,-148.041188,7920.203579
2460.752762,-306.438199,-1924.535449,7920.203579
2460.753091,-459.657299,-3997.112087,9400.615463
2460.753421,-306.438199,-4219.173869,10214.842000
2460.753750,-995.924147,-3701.029710,9918.759623
2460.754079,-842.705048,-3034.844362,10658.965565
2460.754408,0.000000,-1110.308913,10881.027347
2460.754737,1302.362347,370.102971,10584.944971
2460.755066,2604.724693,1776.494261,10510.924376
2460.755395,2451.505594,4145.153275,8586.388927
2460.755724,2757.943793,4515.256246,7624.121203
2460.756053,2298.286494,4219.173869,6587.832884
2460.756382,1685.410096,3478.967927,6735.874072
2460.756711,306.438199,888.247130,7920.203579
2460.757040,-919.314598,-1554.432478,8882.471304
2460.757369,-2221.676944,-4145.153275,10436.903782
2460.757698,-1838.629195,-4515.256246,8586.388927
2460.758027,-1991.848295,-4737.318029,9104.533087
2460.758356,-2604.724693,-4737.318029,9326.594869
2460.758685,-1991.848295,-3404.947333,11177.109724
2460.759014,-919.314598,-1924.535449,11695.253884
2460.759343,-383.047749,-296.082377,10807.006753
2460.759672,459.657299,1110.308913,9770.718434
2460.760001,76.609550,3108.864956,8216.285956
2460.760330,0.000000,3034.844362,10584.944971
2460.760659,1838.629195,2812.782580,9992.780217
2460.760988,4060.306139,4145.153275,5847.626942
2460.761317,5822.325785,3034.844362,6217.729913
2460.761646,3830.477490,2294.638420,4441.235652
2460.761975,2604.724693,962.267725,7031.956449
2460.762304,1149.143247,-2294.638420,7772.162391
2460.762633,536.266849,-3108.864956,8660.409521
2460.762962,0.000000,-4885.359217,10807.006753
2460.763291,-1149.143247,-4515.256246,10510.924376
2460.763620,-1838.629195,-3182.885551,10881.027347
2460.763948,-459.657299,-1406.391290,11103.089130
2460.764277,612.876398,370.102971,10436.903782
2460.764606,536.266849,1184.329507,10881.027347
2460.764935,76.609550,3627.009116,10732.986159
2460.765264,536.266849,3552.988522,9178.553681
2460.765593,842.705048,2886.803174,7254.018232
2460.765922,1149.143247,3182.885551,7328.038826
2460.766251,383.047749,1258.350101,7105.977043
2460.766580,0.000000,-1184.329507,8808.450710
2460.766909,-919.314598,-2812.782580,9104.533087
2460.767238,-766.095498,-3775.050304,9696.697840
2460.767567,-995.924147,-3923.091493,8290.306550
2460.767896,-536.266849,-3552.988522,8734.430116
2460.768225,-766.095498,-3108.864956,9918.759623
2460.768554,-383.047749,-592.164754,10066.800811
2460.768883,0.000000,148.041188,10807.006753
2460.769212,-229.828649,1554.432478,10288.862594
2460.769541,-153.219100,2960.823768,9400.615463
2460.769870,-766.095498,3256.906145,9400.615463
2460.770199,-383.047749,2516.700203,8808.450710
2460.770528,689.485948,2368.659014,8512.368333
2460.770857,1302.362347,1998.556043,7105.977043
2460.771186,1762.019645,1480.411884,7179.997637
2460.771515,459.657299,-888.247130,7624.121203
2460.771844,459.657299,-2220.617826,7624.121203
2460.772173,229.828649,-3923.091493,8216.285956
2460.772501,-229.828649,-4441.235652,9474.636058
2460.772830,-383.047749,-3404.947333,9918.759623
2460.773159,-153.219100,-2590.720797,10584.944971
2460.773488,1455.581446,-888.247130,10955.047942
2460.773817,1378.971896,814.226536,10584.944971
2460.774146,2681.334243,2072.576638,9474.636058
2460.774475,2911.162892,3627.009116,8882.471304
2460.774804,2681.334243,4663.297435,7920.203579
2460.775133,2145.067394,4145.153275,7698.141797
2460.775462,1685.410096,3256.906145,7476.080014
2460.775791,0.000000,1332.370696,8808.450710
2460.776120,-1455.581446,-2368.659014,9326.594869
2460.776449,-1685.410096,-4441.235652,10732.986159
2460.776778,-2221.676944,-4293.194464,8438.347739
2460.777107,-1532.190996,-4663.297435,9918.759623
2460.777436,-2451.505594,-4293.194464,9104.533087
2460.777765,-1455.581446,-2886.803174,11621.233289
2460.778094,-1378.971896,-2368.659014,11399.171507
2460.778423,0.000000,-444.123565,10288.862594
2460.778752,919.314598,1554.432478,9844.739029
2460.779081,0.000000,3701.029710,8142.265362
2460.779410,0.000000,2960.823768,11177.109724
2460.779739,1685.410096,2738.761985,9918.759623
2460.780068,3907.087040,3627.009116,5329.482782
2460.780397,4673.182538,2738.761985,5773.606348
2460.780726,2987.772442,2146.597232,4219.173869
2460.781054,2834.553343,1258.350101,6143.709319
2460.781383,1378.971896,-1776.494261,7846.182985
2460.781712,766.095498,-2738.761985,8216.285956
2460.782041,-229.828649,-4811.338623,10214.842000
2460.782370,-689.485948,-4441.235652,10955.047942
2460.782699,-1225.752797,-3182.885551,11029.068536
2460.783028,-612.876398,-1406.391290,10881.027347
2460.783357,383.047749,296.082377,9918.759623
2460.783686,612.876398,1702.473667,10584.944971
2460.784015,229.828649,3404.947333,10584.944971
2460.784344,689.485948,3404.947333,8956.491898
2460.784673,1149.143247,2442.679609,7772.162391
2460.785002,229.828649,2960.823768,7402.059420
2460.785331,229.828649,814.226536,7698.141797
2460.785660,153.219100,-1406.391290,8956.491898
2460.785989,-1149.143247,-2812.782580,9030.512492
2460.786318,-1149.143247,-4145.153275,9622.677246
2460.786647,-1302.362347,-4441.235652,8956.491898
2460.786976,-1455.581446,-3775.050304,8956.491898
2460.787305,-1225.752797,-3552.988522,10362.883188
2460.787634,-995.924147,-740.205942,10066.800811
2460.787963,0.000000,444.123565,10881.027347
2460.788292,-153.219100,1036.288319,10214.842000
2460.788621,0.000000,3108.864956,9104.533087
2460.788950,-919.314598,3256.906145,9548.656652
2460.789279,76.609550,2072.576638,8512.368333
2460.789607,1302.362347,1776.494261,7698.141797
2460.789936,2298.286494,1702.473667,7476.080014
2460.790265,1762.019645,1184.329507,6735.874072
2460.790594,842.705048,-444.123565,7698.141797
2460.790923,766.095498,-1998.556043,7846.182985
2460.791252,536.266849,-3478.967927,8512.368333
2460.791581,76.609550,-4145.153275,9918.759623
2460.791910,-612.876398,-2886.803174,10288.862594
2460.792239,-689.485948,-2294.638420,10881.027347
2460.792568,306.438199,-592.164754,10436.903782
2460.792897,1608.800546,1332.370696,9770.718434
2460.793226,2451.505594,2516.700203,9326.594869
2460.793555,2604.724693,3775.050304,8290.306550
2460.793884,2604.724693,4367.215058,7624.121203
2460.794213,1685.410096,3627.009116,7624.121203
2460.794542,1302.362347,2516.700203,7402.059420
2460.794871,0.000000,-0.000000,8882.471304
2460.795200,-1302.362347,-2590.720797,9474.636058
2460.795529,-1838.629195,-4441.235652,10140.821405
2460.795858,-1991.848295,-4589.276840,9104.533087
2460.796187,-2145.067394,-4737.318029,9918.759623
2460.796516,-1915.238745,-4811.338623,10955.047942
2460.796845,-1302.362347,-2812.782580,11103.089130
2460.797174,-306.438199,-1924.535449,11177.109724
2460.797503,76.609550,-0.000000,9992.780217
2460.797831,536.266849,1998.556043,9030.512492
2460.798160,-536.266849,3108.864956,9622.677246
2460.798489,459.657299,2442.679609,11547.212695
2460.798818,1685.410096,3330.926739,7550.100608
2460.799147,5056.230287,3404.947333,6439.791695
2460.799476,3830.477490,2368.659014,4811.338623
2460.799805,2757.943793,1702.473667,5773.606348
2460.800134,1838.629195,-74.020594,8290.306550
2460.800463,919.314598,-2442.679609,7624.121203
2460.800792,-306.438199,-3775.050304,9844.739029
2460.801121,-536.266849,-4367.215058,10066.800811
2460.801450,-842.705048,-4219.173869,9918.759623
2460.801779,-1378.971896,-2516.700203,11177.109724
2460.802108,0.000000,-518.144159,10510.924376
2460.802437,383.047749,814.226536,10214.842000
2460.802766,536.266849,2072.576638,10510.924376
2460.803095,1149.143247,3701.029710,9696.697840
2460.803424,1608.800546,3108.864956,7476.080014
2460.803753,1838.629195,3330.926739,7402.059420
2460.804082,1149.143247,2664.741391,6439.791695
2460.804411,536.266849,-0.000000,8216.285956
2460.804740,-842.705048,-1258.350101,8734.430116
2460.805069,-995.924147,-3404.947333,8956.491898
2460.805398,-995.924147,-4515.256246,8512.368333
2460.805727,-766.095498,-4219.173869,8290.306550
2460.806056,-1225.752797,-4367.215058,10510.924376
2460.806384,-1302.362347,-2664.741391,10732.986159
2460.806713,-306.438199,-814.226536,10955.047942
2460.807042,-229.828649,296.082377,10584.944971
2460.807371,383.047749,2072.576638,9474.636058
2460.807700,-842.705048,2886.803174,9400.615463
2460.808029,-842.705048,2664.741391,9918.759623
2460.808358,0.000000,2294.638420,9326.594869
2460.808687,1762.019645,2294.638420,8142.265362
2460.809016,1915.238745,2072.576638,6365.771101
2460.809345,1455.581446,444.123565,7105.977043
2460.809674,842.705048,-814.226536,7624.121203
2460.810003,919.314598,-2368.659014,8364.327145
2460.810332,766.095498,-3108.864956,8882.471304
2460.810661,76.609550,-3108.864956,9548.656652
2460.810990,-229.828649,-3182.885551,9918.759623
2460.811319,-612.876398,-1776.494261,10584.944971
2460.811648,536.266849,-148.041188,10510.924376
2460.811977,1455.581446,1184.329507,10140.821405
2460.812306,1991.848295,2294.638420,9548.656652
2460.812635,2298.286494,3997.112087,8660.409521
2460.812964,2298.286494,4515.256246,7846.182985
2460.813293,1532.190996,3923.091493,7624.121203
2460.813622,536.266849,2294.638420,7476.080014
2460.813951,-306.438199,-148.041188,8586.388927
2460.814280,-1302.362347,-2738.761985,9030.512492
2460.814609,-995.924147,-4219.173869,9474.636058
2460.814937,-1685.410096,-4737.318029,8438.347739
2460.815266,-1378.971896,-4811.338623,9474.636058
2460.815595,-1532.190996,-4663.297435,9918.759623
2460.815924,-995.924147,-2664.741391,10732.986159
2460.816253,-383.047749,-1332.370696,11177.109724
2460.816582,0.000000,148.041188,10362.883188
2460.816911,76.609550,2146.597232,9178.553681
2460.817240,-536.266849,2886.803174,9696.697840
2460.817569,0.000000,2664.741391,10436.903782
2460.817898,1149.143247,2738.761985,9030.512492
2460.818227,3294.210641,3256.906145,6069.688724
2460.818556,3524.039291,2072.576638,5773.606348
2460.818885,2604.724693,888.247130,6069.688724
2460.819214,1991.848295,-740.205942,7846.182985
2460.819543,919.314598,-2664.741391,8364.327145
2460.819872,0.000000,-3256.906145,9252.574275
2460.820201,-612.876398,-4441.235652,9474.636058
2460.820530,-1685.410096,-3775.050304,10584.944971
2460.820859,-1532.190996,-2442.679609,11251.130318
2460.821188,-459.657299,-370.102971,10732.986159
2460.821517,1685.410096,814.226536,10807.006753
2460.821846,1838.629195,2960.823768,9696.697840
2460.822175,2145.067394,4737.318029,8512.368333
2460.822504,1915.238745,4515.256246,7105.977043
2460.822833,1608.800546,3701.029710,7031.956449
2460.823162,995.924147,2368.659014,7624.121203
2460.823490,-383.047749,-222.061783,8142.265362
2460.823819,-1608.800546,-2664.741391,9474.636058
2460.824148,-1838.629195,-4737.318029,10436.903782
2460.824477,-1991.848295,-4737.318029,9030.512492
2460.824806,-2145.067394,-4367.215058,9030.512492
2460.825135,-1685.410096,-3923.091493,9918.759623
2460.825464,-919.314598,-2146.597232,10732.986159
2460.825793,-229.828649,-296.082377,10584.944971
2460.826122,153.219100,1406.391290,10140.821405
2460.826451,153.219100,1924.535449,8882.471304
2460.826780,-842.705048,2442.679609,10288.862594
2460.827109,229.828649,2368.659014,10732.986159
2460.827438,2068.457845,3923.091493,6661.853478
2460.827767,3830.477490,3330.926739,6957.935855
2460.828096,2834.553343,2368.659014,5403.503377
2460.828425,2221.676944,1258.350101,7476.080014
2460.828754,153.219100,-962.267725,8808.450710
2460.829083,229.828649,-2812.782580,8734.430116
2460.829412,-459.657299,-4959.379811,10658.965565
2460.829741,-1532.190996,-3997.112087,10732.986159
2460.830070,-1532.190996,-3775.050304,10658.965565
2460.830399,-995.924147,-2220.617826,11695.253884
2460.830728,536.266849,-74.020594,10288.862594
2460.831057,2068.457845,1406.391290,10955.047942
2460.831386,3294.210641,3478.967927,8586.388927
2460.831714,3064.381992,4589.276840,8068.244768
2460.832043,2987.772442,4145.153275,7328.038826
2460.832372,2451.505594,4441.235652,6587.832884
2460.832701,1149.143247,2294.638420,7402.059420
2460.833030,0.000000,-962.267725,8364.327145
2460.833359,-2068.457845,-3034.844362,9770.718434
2460.833688,-1991.848295,-4959.379811,11547.212695
2460.834017,-2298.286494,-5033.400406,8734.430116
2460.834346,-1915.238745,-4441.235652,9622.677246
2460.834675,-1608.800546,-3552.988522,10436.903782
2460.835004,-459.657299,-1036.288319,10362.883188
2460.835333,0.000000,-74.020594,11103.089130
2460.835662,0.000000,1036.288319,9696.697840
2460.835991,536.266849,2442.679609,8882.471304
2460.836320,0.000000,2368.659014,10140.821405
2460.836649,459.657299,2368.659014,9844.739029
2460.836978,2834.553343,3034.844362,7031.956449
2460.837307,4519.963438,2886.803174,5921.647536
2460.837636,3983.696590,2294.638420,4663.297435
2460.837965,2451.505594,1110.308913,7105.977043
2460.838294,995.924147,-1110.308913,7994.224174
2460.838623,536.266849,-2812.782580,8290.306550
2460.838952,-306.438199,-4589.276840,9918.759623
2460.839281,-1915.238745,-4219.173869,10510.924376
2460.839610,-2068.457845,-4219.173869,11177.109724
2460.839939,-1762.019645,-2368.659014,11399.171507
2460.840267,0.000000,-148.041188,10807.006753
2460.840596,766.095498,666.185348,10658.965565
2460.840925,1302.362347,2812.782580,10362.883188
2460.841254,1762.019645,4145.153275,7846.182985
2460.841583,1838.629195,3701.029710,7624.121203
2460.841912,1072.533697,3701.029710,7031.956449
2460.842241,1532.190996,2442.679609,8142.265362
2460.842570,0.000000,-1110.308913,8586.388927
2460.842899,-1378.971896,-3108.864956,9178.553681
2460.843228,-1838.629195,-5107.421000,10362.883188
2460.843557,-2145.067394,-4737.318029,9178.553681
2460.843886,-1685.410096,-4515.256246,9696.697840
2460.844215,-1225.752797,-3330.926739,10584.944971
2460.844544,-306.438199,-1258.350101,10732.986159
2460.844873,-229.828649,-0.000000,11103.089130
2460.845202,76.609550,1776.494261,9844.739029
2460.845531,-306.438199,3034.844362,9326.594869
2460.845860,-229.828649,2738.761985,10214.842000
2460.846189,612.876398,3330.926739,9178.553681
2460.846518,2145.067394,3552.988522,6661.853478
2460.846847,3370.820191,2590.720797,6291.750507
2460.847176,2451.505594,2368.659014,5255.462188
2460.847505,1838.629195,1036.288319,7550.100608
2460.847834,383.047749,-1184.329507,8216.285956
2460.848163,-153.219100,-3552.988522,8586.388927
2460.848492,-766.095498,-4811.338623,10288.862594
2460.848820,-995.924147,-3849.070898,10584.944971
2460.849149,-1378.971896,-3256.906145,10658.965565
2460.849478,-612.876398,-1406.391290,11473.192101
2460.849807,919.314598,592.164754,10955.047942
2460.850136,2374.896044,1850.514855,11473.192101
2460.850465,2911.162892,3997.112087,8216.285956
2460.850794,3370.820191,4441.235652,8142.265362
2460.851123,2834.553343,4367.215058,6957.935855
2460.851452,2757.943793,4737.318029,6661.853478
2460.851781,459.657299,1628.453072,7994.224174
2460.852110,-383.047749,-1036.288319,8364.327145
2460.852439,-1762.019645,-3330.926739,9622.677246
2460.852768,-2145.067394,-4885.359217,10732.986159
2460.853097,-2757.943793,-4737.318029,8216.285956
2460.853426,-2221.676944,-5255.462188,11103.089130
2460.853755,-1608.800546,-3997.112087,10362.883188
2460.854084,-383.047749,-1480.411884,10955.047942
2460.854413,-459.657299,-518.144159,11103.089130
2460.854742,536.266849,1628.453072,9696.697840
2460.855071,0.000000,2590.720797,9326.594869
2460.855400,-229.828649,2812.782580,10510.924376
2460.855729,1378.971896,2368.659014,9918.759623
2460.856058,2987.772442,3701.029710,6439.791695
2460.856387,4826.401637,3108.864956,5995.668130
2460.856716,3370.820191,2812.782580,4737.318029
2460.857045,2757.943793,888.247130,6809.894666
2460.857373,1225.752797,-888.247130,7179.997637
2460.857702,0.000000,-3552.988522,8142.265362
2460.858031,-842.705048,-4367.215058,9992.780217
2460.858360,-1225.752797,-3775.050304,10214.842000
2460.858689,-1762.019645,-3404.947333,10584.944971
2460.859018,-1378.971896,-1924.535449,11103.089130
2460.859347,383.047749,518.144159,9918.759623
2460.859676,0.000000,1554.432478,10732.986159
2460.860005,153.219100,2886.803174,10807.006753
2460.860334,383.047749,3108.864956,9696.697840
2460.860663,383.047749,2442.679609,8142.265362
2460.860992,1378.971896,3108.864956,6883.915261
2460.861321,306.438199,1036.288319,7105.977043
2460.861650,766.095498,-1036.288319,8364.327145
2460.861979,-919.314598,-2442.679609,8660.409521
2460.862308,-1532.190996,-4219.173869,9474.636058
2460.862636,-1225.752797,-4663.297435,9252.574275
2460.862965,-1072.533697,-3997.112087,8216.285956
2460.863294,-766.095498,-3997.112087,10584.944971
2460.863623,-919.314598,-1110.308913,11029.068536
2460.863952,229.828649,-0.000000,10732.986159
2460.864281,-612.876398,1036.288319,10732.986159
2460.864610,-536.266849,2664.741391,9844.739029
2460.864939,-536.266849,2590.720797,9770.718434
2460.865268,612.876398,2738.761985,9104.533087
2460.865597,1532.190996,3108.864956,7179.997637
2460.865926,2451.505594,2664.741391,7105.977043
2460.866255,1991.848295,1924.535449,6809.894666
2460.866584,1532.190996,-0.000000,7846.182985
2460.866913,459.657299,-2072.576638,7994.224174
2460.867242,76.609550,-3256.906145,7994.224174
2460.867570,-383.047749,-5181.441594,9696.697840
2460.867899,-306.438199,-4145.153275,10214.842000
2460.868228,0.000000,-2738.761985,10510.924376
2460.868557,0.000000,-962.267725,11177.109724
2460.868886,1991.848295,740.205942,10807.006753
2460.869215,3217.601092,2960.823768,9252.574275
2460.869544,3677.258390,4219.173869,8512.368333
2460.869873,3370.820191,4811.338623,7031.956449
2460.870202,3447.429741,4737.318029,6957.935855
2460.870531,2374.896044,4145.153275,7031.956449
2460.870860,1455.581446,1702.473667,7328.038826
2460.871189,-1302.362347,-1998.556043,9474.636058
2460.871518,-1991.848295,-4145.153275,11103.089130
2460.871847,-2221.676944,-4663.297435,8290.306550
2460.872176,-2528.115143,-4811.338623,8734.430116
2460.872504,-2451.505594,-5847.626942,11473.192101
2460.872833,-2298.286494,-3404.947333,10140.821405
2460.873162,-1225.752797,-2590.720797,13027.624579
2460.873491,-689.485948,-962.267725,10362.883188
2460.873820,1225.752797,1184.329507,9770.718434
2460.874149,-536.266849,3404.947333,9178.553681
2460.874478,-229.828649,2590.720797,11325.150913
2460.874807,2451.505594,2590.720797,9622.677246
2460.875136,5592.497135,4737.318029,4737.318029
2460.875465,5132.839837,3701.029710,5329.482782
2460.875794,2757.943793,3256.906145,4737.318029
2460.876123,3524.039291,962.267725,7624.121203
2460.876452,229.828649,-2072.576638,7328.038826
2460.876781,76.609550,-3923.091493,8660.409521
2460.877110,-995.924147,-5107.421000,11251.130318
2460.877438,-1685.410096,-5255.462188,8956.491898
2460.877767,-2298.286494,-3552.988522,11325.150913
2460.878096,-1072.533697,-1776.494261,11029.068536
2460.878425,153.219100,-0.000000,9992.780217
2460.878754,153.219100,1406.391290,11473.192101
2460.879083,0.000000,3775.050304,9918.759623
2460.879412,0.000000,2664.741391,9400.615463
2460.879741,383.047749,2146.597232,9474.636058
2460.880070,919.314598,3108.864956,6143.709319
2460.880399,1378.971896,666.185348,7698.141797
2460.880728,306.438199,-148.041188,6883.915261
2460.881057,-306.438199,-1850.514855,7994.224174
2460.881386,-1455.581446,-3552.988522,9104.533087
2460.881715,-919.314598,-4811.338623,8142.265362
2460.882044,-842.705048,-4737.318029,8068.244768
2460.882372,-766.095498,-3552.988522,10140.821405
2460.882701,-766.095498,-1406.391290,8882.471304
2460.883030,-536.266849,-296.082377,9770.718434
2460.883359,-612.876398,1110.308913,10362.883188
2460.883688,-536.266849,2516.700203,9548.656652
2460.884017,0.000000,2738.761985,9178.553681
2460.884346,0.000000,2442.679609,9104.533087
2460.884675,536.266849,1554.432478,8734.430116
2460.885004,1455.581446,2516.700203,7624.121203
2460.885333,1378.971896,1258.350101,7328.038826
2460.885662,1149.143247,-592.164754,7920.203579
2460.885991,919.314598,-2072.576638,8364.327145
2460.886320,1149.143247,-2960.823768,8364.327145
2460.886649,0.000000,-4441.235652,9104.533087
2460.886978,0.000000,-3478.967927,10510.924376
2460.887306,0.000000,-2590.720797,10066.800811
2460.887635,766.095498,-888.247130,10807.006753
2460.887964,1608.800546,962.267725,10510.924376
2460.888293,2911.162892,2368.659014,9918.759623
2460.888622,2604.724693,3478.967927,9178.553681
2460.888951,2987.772442,4515.256246,8290.306550
2460.889280,2451.505594,4663.297435,7105.977043
2460.889609,1685.410096,3182.885551,7550.100608
2460.889938,306.438199,1850.514855,8142.265362
2460.890267,-1072.533697,-1184.329507,8882.471304
2460.890596,-1762.019645,-3923.091493,10807.006753
2460.890925,-1608.800546,-4885.359217,9474.636058
2460.891254,-2221.676944,-4367.215058,9326.594869
2460.891583,-1455.581446,-4441.235652,9918.759623
2460.891912,-1302.362347,-3478.967927,10732.986159
2460.892240,-306.438199,-1924.535449,11103.089130
2460.892569,-153.219100,-148.041188,10288.862594
2460.892898,383.047749,1480.411884,9178.553681
2460.893227,-383.047749,2960.823768,9252.574275
2460.893556,-459.657299,2368.659014,11029.068536
2460.893885,1685.410096,2220.617826,9844.739029
2460.894214,3140.991542,3849.070898,5477.523971
2460.894543,4290.134789,2516.700203,6143.709319
2460.894872,3294.210641,2294.638420,4737.318029
2460.895201,2987.772442,1332.370696,6587.832884
2460.895530,995.924147,-1924.535449,7476.080014
2460.895859,459.657299,-3552.988522,7994.224174
2460.896188,-612.876398,-5107.421000,9844.739029
2460.896517,-1302.362347,-4737.318029,9918.759623
2460.896846,-1762.019645,-3997.112087,10510.924376
2460.897174,-1149.143247,-1702.473667,10362.883188
2460.897503,0.000000,-148.041188,10214.842000
2460.897832,0.000000,1258.350101,10584.944971
2460.898161,0.000000,2886.803174,10510.924376
2460.898490,76.609550,3034.844362,8660.409521
2460.898819,1072.533697,2368.659014,7179.997637
2460.899148,919.314598,3108.864956,6735.874072
2460.899477,306.438199,666.185348,6883.915261
2460.899806,0.000000,-1184.329507,8438.347739
2460.900135,-1378.971896,-3034.844362,8512.368333
2460.900464,-689.485948,-4219.173869,9622.677246
2460.900793,-1149.143247,-5107.421000,8882.471304
2460.901122,-1378.971896,-3997.112087,9104.533087
2460.901451,-1302.362347,-3627.009116,10214.842000
2460.901780,-842.705048,-1184.329507,9696.697840
2460.902108,-459.657299,370.102971,10214.842000
2460.902437,-459.657299,1406.391290,9844.739029
2460.902766,-306.438199,3404.947333,9252.574275
2460.903095,-536.266849,3034.844362,9474.636058
2460.903424,0.000000,2220.617826,9252.574275
2460.903753,1149.143247,2442.679609,8068.244768
2460.904082,2374.896044,2590.720797,7105.977043
2460.904411,2221.676944,1480.411884,6883.915261
2460.904740,995.924147,-370.102971,7105.977043
2460.905069,536.266849,-1924.535449,8586.388927
2460.905398,766.095498,-2886.803174,8660.409521
2460.905727,306.438199,-4515.256246,10066.800811
2460.906056,0.000000,-3552.988522,10658.965565
2460.906385,-383.047749,-2664.741391,10584.944971
2460.906714,76.609550,-1110.308913,11325.150913
2460.907042,1685.410096,1184.329507,10732.986159
2460.907371,2451.505594,1776.494261,9992.780217
2460.907700,3677.258390,4071.132681,8956.491898
2460.908029,3447.429741,4811.338623,7698.141797
2460.908358,2757.943793,4367.215058,7328.038826
2460.908687,1838.629195,3256.906145,7550.100608
2460.909016,459.657299,1258.350101,8364.327145
2460.909345,-1532.190996,-2146.597232,9622.677246
2460.909674,-2221.676944,-4071.132681,10955.047942
2460.910003,-2068.457845,-4515.256246,9622.677246
2460.910332,-1685.410096,-4737.318029,9326.594869
2460.910661,-1838.629195,-4663.297435,9992.780217
2460.910990,-1532.190996,-2960.823768,10510.924376
2460.911319,-689.485948,-1480.411884,11547.212695
2460.911648,0.000000,-0.000000,10140.821405
2460.911976,689.485948,2146.597232,9104.533087
2460.912305,-306.438199,3108.864956,8882.471304
2460.912634,229.828649,2368.659014,10881.027347
2460.912963,1838.629195,2146.597232,8660.409521
2460.913292,4060.306139,3997.112087,5403.503377
2460.913621,4290.134789,2442.679609,5699.585753
2460.913950,2987.772442,1924.535449,4737.318029
2460.914279,2834.553343,962.267725,7105.977043
2460.914608,995.924147,-1702.473667,7476.080014
2460.914937,919.314598,-3330.926739,7920.203579
2460.915266,-536.266849,-4367.215058,9474.636058
2460.915595,-1149.143247,-4219.173869,9918.759623
2460.915924,-1455.581446,-3849.070898,10881.027347
2460.916253,-1072.533697,-1628.453072,10955.047942
2460.916582,229.828649,-222.061783,9844.739029
2460.916910,0.000000,1554.432478,10510.924376
2460.917239,-306.438199,3108.864956,10066.800811
2460.917568,612.876398,2738.761985,9178.553681
2460.917897,842.705048,2368.659014,8364.327145
2460.918226,612.876398,2886.803174,6883.915261
2460.918555,229.828649,444.123565,7105.977043
2460.918884,-383.047749,-1110.308913,8660.409521
2460.919213,-1838.629195,-2738.761985,8512.368333
2460.919542,-1149.143247,-3849.070898,9474.636058
2460.919871,-1455.581446,-3627.009116,9474.636058
2460.920200,-689.485948,-3775.050304,9400.615463
2460.920529,-1302.362347,-2812.782580,10214.842000
2460.920858,-766.095498,-1036.288319,10288.862594
2460.921187,-306.438199,-0.000000,10584.944971
2460.921516,-306.438199,1332.370696,10732.986159
2460.921844,-459.657299,2960.823768,9474.636058
2460.922173,-383.047749,3404.947333,10214.842000
2460.922502,153.219100,2368.659014,9622.677246
2460.922831,1302.362347,3256.906145,7920.203579
2460.923160,2298.286494,2664.741391,7402.059420
2460.923489,1915.238745,1554.432478,6661.853478
2460.923818,1455.581446,-0.000000,7550.100608
2460.924147,919.314598,-1702.473667,7920.203579
2460.924476,612.876398,-3256.906145,8142.265362
2460.924805,383.047749,-4145.153275,9844.739029
2460.925134,-459.657299,-3404.947333,10288.862594
2460.925463,-306.438199,-2220.617826,10807.006753
2460.925792,536.266849,-592.164754,11177.109724
2460.926121,1762.019645,888.247130,10362.883188
2460.926450,2145.067394,2146.597232,9770.718434
2460.926778,2987.772442,3478.967927,8956.491898
2460.927107,2911.162892,4663.297435,7846.182985
2460.927436,2451.505594,4367.215058,7402.059420
2460.927765,2451.505594,3404.947333,7254.018232
2460.928094,1072.533697,1480.411884,7624.121203
2460.928423,-459.657299,-1258.350101,8882.471304
2460.928752,-1762.019645,-3256.906145,9918.759623
2460.929081,-1685.410096,-4515.256246,10140.821405
2460.929410,-2451.505594,-4811.338623,9252.574275
2460.929739,-1762.019645,-5033.400406,10436.903782
2460.930068,-1762.019645,-3627.009116,10510.924376
2460.930397,-612.876398,-1924.535449,11251.130318
2460.930726,-459.657299,-0.000000,10807.006753
2460.931055,536.266849,1480.411884,9696.697840
2460.931384,-689.485948,2812.782580,8660.409521
2460.931712,306.438199,2960.823768,10658.965565
2460.932041,1608.800546,2664.741391,9992.780217
2460.932370,3064.381992,3923.091493,5625.565159
2460.932699,4596.572988,2516.700203,6143.709319
2460.933028,3370.820191,1850.514855,5033.400406
2460.933357,3064.381992,962.267725,7179.997637
2460.933686,383.047749,-1776.494261,7328.038826
2460.934015,229.828649,-3404.947333,8290.306550
2460.934344,-842.705048,-4219.173869,9918.759623
2460.934673,-1608.800546,-3849.070898,10066.800811
2460.935002,-1915.238745,-3256.906145,10584.944971
2460.935331,-1608.800546,-444.123565,11029.068536
2460.935660,0.000000,-0.000000,9844.739029
2460.935989,76.609550,1554.432478,10584.944971
2460.936318,612.876398,3108.864956,10214.842000
2460.936646,1225.752797,4219.173869,7550.100608
2460.936975,1991.848295,2960.823768,7846.182985
2460.937304,1608.800546,3627.009116,6809.894666
2460.937633,1072.533697,1110.308913,7624.121203
2460.937962,0.000000,-1258.350101,9252.574275
2460.938291,-1225.752797,-3034.844362,8808.450710
2460.938620,-1149.143247,-4737.318029,9918.759623
2460.938949,-2221.676944,-4811.338623,8882.471304
2460.939278,-1762.019645,-4293.194464,9548.656652
2460.939607,-1915.238745,-3256.906145,10436.903782
2460.939936,-919.314598,-962.267725,9918.759623
2460.940265,-536.266849,518.144159,10362.883188
2460.940594,-612.876398,1850.514855,10066.800811
2460.940923,-153.219100,3256.906145,9104.533087
2460.941252,-306.438199,2664.741391,9918.759623
2460.941580,536.266849,3182.885551,8882.471304
2460.941909,1838.629195,2590.720797,7328.038826
2460.942238,2451.505594,1776.494261,7402.059420
2460.942567,1455.581446,962.267725,7179.997637
2460.942896,1072.533697,-1184.329507,8068.244768
2460.943225,919.314598,-2368.659014,8142.265362
2460.943554,306.438199,-3552.988522,9030.512492
2460.943883,-459.657299,-4293.194464,10658.965565
2460.944212,-766.095498,-2812.782580,10288.862594
2460.944541,0.000000,-1924.535449,11177.109724
2460.944870,1072.533697,-148.041188,10658.965565
2460.945199,2757.943793,962.267725,9474.636058
2460.945528,3370.820191,3256.906145,8734.430116
2460.945857,3907.087040,4811.338623,7698.141797
2460.946186,3447.429741,4959.379811,6957.935855
2460.946514,2681.334243,4071.132681,7105.977043
2460.946843,1608.800546,3182.885551,7328.038826
2460.947172,76.609550,-0.000000,8364.327145
2460.947501,-1302.362347,-2664.741391,9400.615463
2460.947830,-2757.943793,-4811.338623,11029.068536
2460.948159,-2681.334243,-5255.462188,9178.553681
2460.948488,-2068.457845,-5033.400406,9992.780217
2460.948817,-2068.457845,-4293.194464,10140.821405
2460.949146,-1149.143247,-2368.659014,10584.944971
2460.949475,-153.219100,-814.226536,10955.047942
2460.949804,-306.438199,962.267725,9918.759623
2460.950133,842.705048,2442.679609,8808.450710
2460.950462,153.219100,2294.638420,10955.047942
2460.950791,2145.067394,2886.803174,8882.471304
2460.951120,3447.429741,4367.215058,5773.606348
2460.951449,4596.572988,3478.967927,5995.668130
2460.951777,3677.258390,2960.823768,4737.318029
2460.952106,3140.991542,1554.432478,7772.162391
2460.952435,689.485948,-518.144159,8068.244768
2460.952764,76.609550,-2590.720797,8438.347739
2460.953093,-1302.362347,-4737.318029,11177.109724
2460.953422,-1838.629195,-4367.215058,10066.800811
2460.953751,-2757.943793,-4219.173869,10807.006753
2460.954080,-1838.629195,-2368.659014,11695.253884
2460.954409,-612.876398,-666.185348,10362.883188
2460.954738,0.000000,592.164754,10658.965565
2460.955067,0.000000,2886.803174,9252.574275
2460.955396,0.000000,2664.741391,9770.718434
2460.955725,766.095498,2368.659014,9030.512492
2460.956054,1225.752797,4219.173869,6809.894666
2460.956383,1762.019645,1628.453072,7328.038826
2460.956711,689.485948,222.061783,7328.038826
2460.957040,0.000000,-1702.473667,8216.285956
2460.957369,-1608.800546,-2664.741391,8882.471304
2460.957698,-1455.581446,-4367.215058,9252.574275
2460.958027,-1608.800546,-4145.153275,9326.594869
2460.958356,-1532.190996,-3182.885551,9548.656652
2460.958685,-1149.143247,-1998.556043,10436.903782
2460.959014,-1838.629195,-518.144159,9770.718434
2460.959343,0.000000,-0.000000,10732.986159
2460.959672,-536.266849,1924.535449,9474.636058
2460.960001,0.000000,3478.967927,9252.574275
2460.960330,-383.047749,1998.556043,9474.636058
2460.960657,842.705048,1998.556043,8438.347739
2460.960987,1455.581446,2960.823768,7031.956449
2460.961316,1455.581446,1776.494261,6957.935855
2460.961645,1608.800546,-148.041188,7624.121203
2460.961974,0.000000,-1924.535449,8882.471304
2460.962303,153.219100,-2886.803174,8734.430116
2460.962632,229.828649,-4441.235652,9400.615463
2460.962961,-229.828649,-4663.297435,10955.047942
2460.963290,-229.828649,-2738.761985,10732.986159
2460.963619,612.876398,-1628.453072,11029.068536
2460.963949,1762.019645,148.041188,10214.842000
2460.964278,3140.991542,1702.473667,9844.739029
2460.964607,3524.039291,3404.947333,8438.347739
2460.964936,4213.525239,5033.400406,7624.121203
2460.965265,3217.601092,4737.318029,7105.977043
2460.965594,2451.505594,3701.029710,7328.038826
2460.965923,1149.143247,2368.659014,7698.141797
2460.966252,-612.876398,-518.144159,8734.430116
2460.966581,-2528.115143,-2590.720797,9918.759623
2460.966910,-2374.896044,-4737.318029,10658.965565
2460.967240,-2834.553343,-4663.297435,8956.491898
2460.967569,-2145.067394,-4811.338623,10807.006753
2460.967898,-1991.848295,-3849.070898,10510.924376
2460.968227,-459.657299,-1998.556043,10955.047942
2460.968556,0.000000,222.061783,11103.089130
2460.968885,919.314598,1406.391290,9104.533087
2460.969214,536.266849,2368.659014,9474.636058
2460.969543,842.705048,1554.432478,12583.501014
2460.969872,2298.286494,3330.926739,8068.244768
2460.970202,4903.011187,4663.297435,5921.647536
2460.970531,5286.058936,3256.906145,4293.194464
2460.970860,4290.134789,3627.009116,4515.256246
2460.971189,3600.648841,1184.329507,7846.182985
2460.971518,766.095498,-962.267725,6809.894666
2460.971847,689.485948,-4367.215058,9326.594869
2460.972176,-1608.800546,-4737.318029,10807.006753
2460.972505,-2068.457845,-4589.276840,9548.656652
2460.972834,-2604.724693,-4515.256246,11547.212695
2460.973163,-1532.190996,-2368.659014,11399.171507
2460.973493,-153.219100,-1036.288319,10436.903782
2460.973822,383.047749,1184.329507,11251.130318
2460.974151,153.219100,3034.844362,9696.697840
2460.974480,0.000000,1850.514855,10584.944971
2460.974809,919.314598,2294.638420,9400.615463
2460.975138,1685.410096,4293.194464,6513.812290
2460.975467,1991.848295,1258.350101,7031.956449
2460.975796,459.657299,296.082377,7179.997637
2460.976125,1072.533697,-1776.494261,8660.409521
2460.976454,-1378.971896,-3256.906145,8512.368333
2460.976784,-1608.800546,-4737.318029,9104.533087
2460.977113,-1685.410096,-4737.318029,9326.594869
2460.977442,-1915.238745,-3256.906145,9400.615463
2460.977771,-2451.505594,-1998.556043,10362.883188
2460.978100,-1838.629195,-1332.370696,10362.883188
2460.978429,-306.438199,296.082377,11399.171507
2460.978758,-459.657299,1776.494261,9696.697840
2460.979087,153.219100,3923.091493,8290.306550
2460.979416,-766.095498,2960.823768,8882.471304
2460.979746,-153.219100,1776.494261,9474.636058
2460.980075,536.266849,2516.700203,7846.182985
2460.980404,1149.143247,1480.411884,6957.935855
2460.980733,1225.752797,-962.267725,6957.935855
2460.981062,919.314598,-2146.597232,7402.059420
2460.981391,766.095498,-2220.617826,8142.265362
2460.981720,76.609550,-4145.153275,8290.306550
2460.982049,536.266849,-3849.070898,9474.636058
2460.982378,536.266849,-2368.659014,9992.780217
2460.982707,919.314598,-1036.288319,9696.697840
2460.983037,1455.581446,-0.000000,9992.780217
2460.983366,1991.848295,2072.576638,10436.903782
2460.983695,2911.162892,2812.782580,8808.450710
2460.984024,2757.943793,4145.153275,8068.244768
2460.984353,2681.334243,4367.215058,7772.162391
2460.984682,1838.629195,2812.782580,7920.203579
2460.985011,459.657299,1554.432478,7920.203579
2460.985340,-919.314598,-666.185348,8660.409521
2460.985669,-1455.581446,-3701.029710,10214.842000
2460.985999,-1762.019645,-4515.256246,10362.883188
2460.986328,-1762.019645,-4071.132681,8956.491898
2460.986657,-1532.190996,-4737.318029,9770.718434
2460.986986,-1532.190996,-4145.153275,10510.924376
2460.987315,0.000000,-2368.659014,11325.150913
2460.987644,1072.533697,-0.000000,11029.068536
2460.987973,153.219100,1776.494261,9992.780217
2460.988302,0.000000,1850.514855,10732.986159
2460.988631,1378.971896,2368.659014,12287.418637
2460.988960,2374.896044,3997.112087,7179.997637
2460.989290,4903.011187,4737.318029,6809.894666
2460.989619,4749.792088,3849.070898,4663.297435
2460.989948,4596.572988,3552.988522,5847.626942
2460.990277,2681.334243,1110.308913,7624.121203
2460.990606,1149.143247,-814.226536,7031.956449
2460.990935,-153.219100,-4441.235652,9252.574275
2460.991264,-1225.752797,-4663.297435,10214.842000
2460.991593,-1838.629195,-4663.297435,9474.636058
2460.991922,-1991.848295,-4145.153275,11103.089130
2460.992252,-229.828649,-2590.720797,10658.965565
2460.992581,-229.828649,-222.061783,10881.027347
2460.992910,76.609550,1258.350101,10658.965565
2460.993239,-229.828649,2886.803174,9992.780217
2460.993568,0.000000,1998.556043,10510.924376
2460.993897,766.095498,2960.823768,9252.574275
2460.994226,1302.362347,3701.029710,6365.771101
2460.994555,1225.752797,222.061783,7476.080014
2460.994884,459.657299,370.102971,7402.059420
2460.995213,306.438199,-740.205942,7920.203579
2460.995543,-1225.752797,-3182.885551,8216.285956
2460.995872,-1378.971896,-4663.297435,9326.594869
2460.996201,-1762.019645,-4737.318029,9474.636058
2460.996530,-1378.971896,-2960.823768,9474.636058
2460.996859,-1608.800546,-2146.597232,9548.656652
2460.997188,-842.705048,-888.247130,10214.842000
2460.997517,-383.047749,888.247130,11103.089130
2460.997846,-919.314598,2368.659014,9844.739029
2460.998175,-459.657299,3182.885551,8956.491898
2460.998505,-1072.533697,2590.720797,9104.533087
2460.998834,-689.485948,1776.494261,9400.615463
2460.999163,0.000000,1850.514855,8438.347739
2460.999492,0.000000,666.185348,7846.182985
2460.999821,1072.533697,-888.247130,7476.080014
2461.000150,995.924147,-1480.411884,7254.018232
2461.000479,842.705048,-2368.659014,7624.121203
2461.000808,306.438199,-3404.947333,8586.388927
2461.001137,689.485948,-3775.050304,9400.615463
2461.001466,229.828649,-1998.556043,9696.697840
2461.001796,1225.752797,-962.267725,9400.615463
2461.002125,1072.533697,-0.000000,9696.697840
2461.002454,2068.457845,2146.597232,9770.718434
2461.002783,2604.724693,3182.885551,8956.491898
2461.003112,2374.896044,3849.070898,8142.265362
2461.003441,2145.067394,4145.153275,8290.306550
2461.003770,1378.971896,3108.864956,7920.203579
2461.004099,76.609550,2072.576638,8068.244768
2461.004428,-1072.533697,-962.267725,8956.491898
2461.004758,-1685.410096,-3404.947333,10436.903782
2461.005087,-1685.410096,-4515.256246,9696.697840
2461.005416,-1378.971896,-4441.235652,8956.491898
2461.005745,-1225.752797,-4885.359217,9918.759623
2461.006074,-1685.410096,-3701.029710,10288.862594
2461.006403,153.219100,-1850.514855,11547.212695
2461.006732,-229.828649,-74.020594,10881.027347
2461.007061,0.000000,888.247130,9918.759623
2461.007390,0.000000,1998.556043,10807.006753
2461.007719,995.924147,2146.597232,11843.295072
2461.008049,1608.800546,2812.782580,7402.059420
2461.008378,4903.011187,3849.070898,6735.874072
2461.008707,4290.134789,3627.009116,4811.338623
2461.009036,4366.744339,3775.050304,6143.709319
2461.009365,2834.553343,1554.432478,7328.038826
2461.009694,1378.971896,-666.185348,7179.997637
2461.010023,383.047749,-3256.906145,9400.615463
2461.010352,-1225.752797,-4737.318029,9992.780217
2461.010681,-1455.581446,-5477.523971,11029.068536
2461.011011,-1302.362347,-4145.153275,10732.986159
2461.011340,-766.095498,-2294.638420,11029.068536
2461.011669,-306.438199,-370.102971,10362.883188
2461.011998,229.828649,1850.514855,10362.883188
2461.012327,0.000000,2960.823768,10288.862594
2461.012656,1302.362347,2294.638420,9474.636058
2461.012985,2451.505594,3330.926739,6661.853478
2461.013314,2451.505594,3182.885551,7105.977043
2461.013643,1378.971896,1480.411884,6365.771101
2461.013972,459.657299,148.041188,7476.080014
2461.014302,-766.095498,-2220.617826,8142.265362
2461.014631,-1302.362347,-3775.050304,8216.285956
2461.014960,-1225.752797,-5107.421000,9474.636058
2461.015289,-1608.800546,-3108.864956,8142.265362
2461.015618,-1378.971896,-3478.967927,9696.697840
2461.015947,-1532.190996,-1924.535449,9918.759623
2461.016276,-383.047749,-74.020594,9918.759623
2461.016605,-612.876398,444.123565,10955.047942
2461.016934,-612.876398,2442.679609,9104.533087
2461.017264,-995.924147,2886.803174,9178.553681
2461.017593,-995.924147,2886.803174,9770.718434
2461.017922,-459.657299,1776.494261,9030.512492
2461.018251,0.000000,1332.370696,8882.471304
2461.018580,612.876398,888.247130,7698.141797
2461.018909,995.924147,-518.144159,7698.141797
2461.019238,766.095498,-1554.432478,7698.141797
2461.019567,919.314598,-2442.679609,8290.306550
2461.019896,689.485948,-3775.050304,9326.594869
2461.020225,766.095498,-3108.864956,9400.615463
2461.020555,766.095498,-1702.473667,9844.739029
2461.020884,1072.533697,-592.164754,10510.924376
2461.021213,1378.971896,740.205942,10288.862594
2461.021542,2451.505594,2220.617826,9844.739029
2461.021871,2681.334243,3108.864956,8956.491898
2461.022200,2604.724693,4219.173869,8290.306550
2461.022529,2374.896044,4219.173869,8068.244768
2461.022858,1378.971896,3256.906145,7920.203579
2461.023187,-229.828649,1480.411884,8216.285956
2461.023517,-1149.143247,-1332.370696,9474.636058
2461.023846,-1608.800546,-3256.906145,10288.862594
2461.024175,-1915.238745,-3997.112087,9326.594869
2461.024504,-1149.143247,-4589.276840,9548.656652
2461.024833,-1072.533697,-4293.194464,9992.780217
2461.025162,-1149.143247,-3108.864956,9844.739029
2461.025491,-306.438199,-1776.494261,11029.068536
2461.025820,229.828649,-296.082377,10436.903782
2461.026149,383.047749,1480.411884,9400.615463
2461.026478,0.000000,2442.679609,10066.800811
2461.026808,0.000000,1628.453072,11843.295072
2461.027137,2681.334243,2368.659014,8216.285956
2461.027466,4673.182538,4293.194464,6069.688724
2461.027795,4826.401637,3182.885551,5255.462188
2461.028124,4136.915689,3108.864956,5329.482782
2461.028453,3524.039291,1702.473667,7698.141797
2461.028782,2374.896044,-1110.308913,6957.935855
2461.029111,1149.143247,-2886.803174,8586.388927
2461.029440,-612.876398,-4589.276840,9696.697840
2461.029769,-2221.676944,-5107.421000,10510.924376
2461.030099,-1915.238745,-4737.318029,11843.295072
2461.030428,-842.705048,-2072.576638,10658.965565
2461.030757,0.000000,-740.205942,10510.924376
2461.031086,-306.438199,1480.411884,11029.068536
2461.031415,229.828649,3404.947333,10288.862594
2461.031744,306.438199,1702.473667,10214.842000
2461.032073,919.314598,2442.679609,7550.100608
2461.032402,1455.581446,2960.823768,7476.080014
2461.032731,919.314598,962.267725,6513.812290
2461.033061,306.438199,-0.000000,7550.100608
2461.033390,-919.314598,-1850.514855,8660.409521
2461.033719,-1225.752797,-3552.988522,8364.327145
2461.034048,-842.705048,-4959.379811,9474.636058
2461.034377,-1378.971896,-4071.132681,9030.512492
2461.034706,-1302.362347,-2590.720797,9696.697840
2461.035035,-1302.362347,-1554.432478,9548.656652
2461.035364,-536.266849,-0.000000,9696.697840
2461.035693,-766.095498,814.226536,10658.965565
2461.036022,-842.705048,2442.679609,9474.636058
2461.036352,-459.657299,3256.906145,9104.533087
2461.036681,-842.705048,2368.659014,9918.759623
2461.037010,459.657299,2146.597232,8512.368333
2461.037339,842.705048,2664.741391,7179.997637
2461.037668,1225.752797,1332.370696,7402.059420
2461.037997,689.485948,-222.061783,7624.121203
2461.038326,766.095498,-1998.556043,8068.244768
2461.038655,76.609550,-2664.741391,8512.368333
2461.038984,0.000000,-3701.029710,9548.656652
2461.039314,-383.047749,-4071.132681,10288.862594
2461.039643,-383.047749,-2886.803174,9918.759623
2461.039972,0.000000,-1036.288319,10955.047942
2461.040301,842.705048,814.226536,10732.986159
2461.040630,2145.067394,1776.494261,10140.821405
2461.040959,2374.896044,3330.926739,9178.553681
2461.041288,2757.943793,4145.153275,8068.244768
2461.041617,2528.115143,3923.091493,7550.100608
2461.041946,2068.457845,2812.782580,7698.141797
2461.042275,919.314598,1850.514855,7846.182985
2461.042605,-612.876398,-814.226536,8660.409521
2461.042934,-1838.629195,-3256.906145,9918.759623
2461.043263,-1532.190996,-4663.297435,10732.986159
2461.043592,-2681.334243,-4811.338623,9400.615463
2461.043921,-1149.143247,-5477.523971,10807.006753
2461.044250,-1378.971896,-3404.947333,10732.986159
2461.044579,-459.657299,-1406.391290,10584.944971
2461.044908,0.000000,-0.000000,10658.965565
2461.045237,536.266849,2294.638420,9178.553681
2461.045567,0.000000,2960.823768,9992.780217
2461.045896,2298.286494,2960.823768,11177.109724
2461.046225,2987.772442,4293.194464,5995.668130
2461.046554,4596.572988,4071.132681,7328.038826
2461.046883,4596.572988,3108.864956,4737.318029
2461.047212,4903.011187,2960.823768,5847.626942
2461.047541,2145.067394,666.185348,7105.977043
2461.047870,1225.752797,-1258.350101,6957.935855
2461.048199,0.000000,-4441.235652,9696.697840
2461.048528,-1608.800546,-3849.070898,9918.759623
2461.048858,-2068.457845,-5477.523971,10510.924376
2461.049187,-2451.505594,-3997.112087,11103.089130
2461.049516,-612.876398,-1776.494261,10732.986159
2461.049845,-383.047749,444.123565,10436.903782
2461.050174,0.000000,2146.597232,10510.924376
2461.050503,612.876398,3182.885551,10584.944971
2461.050832,766.095498,2516.700203,8364.327145
2461.051161,2681.334243,3923.091493,7772.162391
2461.051490,1532.190996,3108.864956,6513.812290
2461.051820,1302.362347,1332.370696,7698.141797
2461.052149,-306.438199,-666.185348,8808.450710
2461.052478,-1378.971896,-2368.659014,8438.347739
2461.052807,-1685.410096,-4515.256246,9770.718434
2461.053136,-2145.067394,-5181.441594,9474.636058
2461.053465,-2834.553343,-4145.153275,9178.553681
2461.053794,-2451.505594,-3256.906145,11103.089130
2461.054123,-2221.676944,-1184.329507,9770.718434
2461.054452,-612.876398,-222.061783,10658.965565
2461.054781,-229.828649,1258.350101,10066.800811
2461.055111,-536.266849,3701.029710,8438.347739
2461.055440,-459.657299,2220.617826,9696.697840
2461.055769,76.609550,2220.617826,9400.615463
2461.056098,919.314598,2960.823768,7031.956449
2461.056427,2145.067394,2368.659014,7179.997637
2461.056756,1532.190996,888.247130,6587.832884
2461.057085,1302.362347,-518.144159,7920.203579
2461.057414,459.657299,-2220.617826,8290.306550
2461.057743,76.609550,-2590.720797,8438.347739
2461.058073,459.657299,-4441.235652,9992.780217
2461.058402,-612.876398,-2886.803174,10214.842000
2461.058731,-536.266849,-2220.617826,10510.924376
2461.059060,153.219100,-962.267725,11029.068536
2461.059389,1762.019645,962.267725,9696.697840
2461.059718,2451.505594,2146.597232,9474.636058
2461.060047,2528.115143,3627.009116,8586.388927
2461.060376,2604.724693,4441.235652,7105.977043
2461.060705,2221.676944,2886.803174,7624.121203
2461.061035,1302.362347,2960.823768,7328.038826
2461.061364,-229.828649,888.247130,8068.244768
2461.061693,-1608.800546,-2220.617826,9548.656652
2461.062022,-1685.410096,-4219.173869,10436.903782
2461.062351,-1762.019645,-4589.276840,10140.821405
2461.062680,-2145.067394,-4811.338623,9770.718434
2461.063009,-1762.019645,-4589.276840,10362.883188
2461.063339,-995.924147,-2886.803174,10584.944971
2461.063668,306.438199,-962.267725,10732.986159
2461.063997,229.828649,370.102971,9474.636058
2461.064326,766.095498,1480.411884,10584.944971
2461.064655,2757.943793,1628.453072,11029.068536
2461.064984,3447.429741,4441.235652,5995.668130
2461.065313,4979.620737,4663.297435,7624.121203
2461.065642,4519.963438,4293.194464,5255.462188
2461.065972,4979.620737,3997.112087,5551.544565
2461.066301,2604.724693,1998.556043,6957.935855
2461.066630,1072.533697,-0.000000,7254.018232
2461.066959,-459.657299,-3775.050304,9696.697840
2461.067288,-1608.800546,-4589.276840,10510.924376
2461.067617,-1915.238745,-5403.503377,10881.027347
2461.067946,-2604.724693,-4589.276840,10807.006753
2461.068275,-919.314598,-3256.906145,11177.109724
2461.068605,0.000000,-740.205942,10881.027347
2461.068934,1149.143247,1480.411884,10066.800811
2461.069263,689.485948,2368.659014,10362.883188
2461.069592,2374.896044,1924.535449,9622.677246
2461.069921,2757.943793,4589.276840,6661.853478
2461.070250,3294.210641,4293.194464,6735.874072
2461.070579,2451.505594,2664.741391,5699.585753
2461.070909,1838.629195,1406.391290,7550.100608
2461.071238,76.609550,-814.226536,7994.224174
2461.071567,-1455.581446,-3034.844362,8364.327145
2461.071896,-2757.943793,-5181.441594,10955.047942
2461.072225,-2757.943793,-4367.215058,8956.491898
2461.072554,-2834.553343,-4145.153275,10362.883188
2461.072883,-3753.867940,-3108.864956,10807.006753
2461.073212,-2374.896044,-2072.576638,10807.006753
2461.073542,-1532.190996,-444.123565,12361.439231
2461.073871,-995.924147,1850.514855,9844.739029
2461.074200,383.047749,3404.947333,7772.162391
2461.074529,-1149.143247,2738.761985,9474.636058
2461.074858,0.000000,2442.679609,10510.924376
2461.075187,919.314598,2442.679609,7624.121203
2461.075516,2604.724693,2368.659014,6735.874072
2461.075845,2068.457845,296.082377,6143.709319
2461.076175,1915.238745,-888.247130,7328.038826
2461.076504,919.314598,-1998.556043,8660.409521
2461.076833,0.000000,-3923.091493,8364.327145
2461.077162,0.000000,-4071.132681,10288.862594
2461.077491,-842.705048,-2590.720797,10584.944971
2461.077820,-766.095498,-1924.535449,10214.842000
2461.078149,-459.657299,-1036.288319,11769.274478
2461.078479,919.314598,518.144159,10140.821405
2461.078808,2068.457845,2072.576638,8956.491898
2461.079137,2681.334243,3627.009116,8660.409521
2461.079466,2681.334243,4959.379811,7105.977043
2461.079795,2221.676944,3552.988522,7476.080014
2461.080124,1532.190996,2738.761985,7105.977043
2461.080453,459.657299,962.267725,7698.141797
2461.080782,-766.095498,-2442.679609,9252.574275
2461.081112,-1685.410096,-4145.153275,9696.697840
2461.081441,-1838.629195,-4885.359217,10436.903782
2461.081770,-1915.238745,-4737.318029,9326.594869
2461.082099,-1302.362347,-4441.235652,10362.883188
2461.082428,-536.266849,-2886.803174,10510.924376
2461.082757,0.000000,-296.082377,11029.068536
2461.083086,0.000000,888.247130,10288.862594
2461.083415,612.876398,1480.411884,10288.862594
2461.083745,2528.115143,2072.576638,11251.130318
2461.084074,2834.553343,4589.276840,6439.791695
2461.084403,4903.011187,4367.215058,7031.956449
2461.084732,4213.525239,4145.153275,5255.462188
2461.085061,5132.839837,2960.823768,5921.647536
2461.085390,3524.039291,962.267725,7031.956449
2461.085719,1532.190996,-518.144159,7994.224174
2461.086049,-612.876398,-3997.112087,9622.677246
2461.086378,-1532.190996,-5107.421000,10658.965565
2461.086707,-1608.800546,-5033.400406,10436.903782
2461.087036,-1991.848295,-3997.112087,10955.047942
2461.087365,-153.219100,-2442.679609,11843.295072
2461.087694,-536.266849,-0.000000,11325.150913
2461.088023,383.047749,1924.535449,11251.130318
2461.088352,76.609550,2220.617826,11029.068536
2461.088682,2374.896044,2368.659014,9326.594869
2461.089011,2757.943793,4515.256246,7031.956449
2461.089340,2681.334243,4219.173869,6143.709319
2461.089669,2298.286494,2590.720797,6217.729913
2461.089998,1532.190996,1184.329507,8216.285956
2461.090327,0.000000,-1702.473667,8068.244768
2461.090656,-1991.848295,-3923.091493,8660.409521
2461.090985,-2068.457845,-5033.400406,10510.924376
2461.091315,-2528.115143,-4071.132681,7994.224174
2461.091644,-2221.676944,-3849.070898,10362.883188
2461.091973,-2834.553343,-2368.659014,9992.780217
2461.092302,-1608.800546,-1554.432478,10584.944971
2461.092631,-919.314598,-0.000000,10881.027347
2461.092960,-153.219100,2368.659014,9030.512492
2461.093289,0.000000,3108.864956,7994.224174
2461.093618,-1225.752797,2886.803174,9178.553681
2461.093948,-536.266849,2368.659014,9992.780217
2461.094277,1532.190996,2220.617826,8216.285956
2461.094606,2451.505594,1480.411884,6661.853478
2461.094935,1838.629195,-518.144159,6439.791695
2461.095264,1302.362347,-814.226536,6957.935855
2461.095593,689.485948,-2294.638420,8068.244768
2461.095922,229.828649,-3775.050304,8438.347739
2461.096252,229.828649,-3478.967927,9696.697840
2461.096581,-536.266849,-2368.659014,10140.821405
2461.096910,-612.876398,-2368.659014,10214.842000
2461.097239,-766.095498,-1110.308913,11325.150913
2461.097568,919.314598,814.226536,10288.862594
2461.097897,1455.581446,2072.576638,9474.636058
2461.098226,1685.410096,3404.947333,8956.491898
2461.098555,1685.410096,4367.215058,8142.265362
2461.098885,1302.362347,3034.844362,8142.265362
2461.099214,383.047749,1554.432478,7994.224174
2461.099543,-536.266849,-1036.288319,8734.430116
2461.099872,-1455.581446,-2590.720797,9474.636058
2461.100201,-1838.629195,-3923.091493,10140.821405
2461.100530,-1762.019645,-4441.235652,9400.615463
2461.100859,-1532.190996,-4367.215058,9548.656652
2461.101188,-1455.581446,-4293.194464,9992.780217
2461.101518,-536.266849,-2516.700203,10288.862594
2461.101847,306.438199,-592.164754,10436.903782
2461.102176,153.219100,888.247130,9696.697840
2461.102505,1149.143247,1776.494261,11103.089130
2461.102834,2298.286494,3404.947333,9252.574275
2461.103163,3370.820191,4737.318029,6809.894666
2461.103492,4443.353888,4071.132681,6291.750507
2461.103822,4060.306139,3997.112087,5107.421000
2461.104151,4596.572988,2664.741391,6735.874072
2461.104480,1991.848295,592.164754,7402.059420
2461.104809,306.438199,-1998.556043,8290.306550
2461.105138,-766.095498,-4219.173869,9918.759623
2461.105467,-1455.581446,-5107.421000,9918.759623
2461.105796,-1762.019645,-5551.544565,10732.986159
2461.106125,-1455.581446,-4219.173869,11251.130318
2461.106455,0.000000,-2368.659014,11177.109724
2461.106784,0.000000,-0.000000,10955.047942
2461.107113,459.657299,1554.432478,10955.047942
2461.107442,2145.067394,2294.638420,10436.903782
2461.107771,2911.162892,3923.091493,7624.121203
2461.108100,3447.429741,4885.359217,7254.018232
2461.108429,2451.505594,4367.215058,5551.544565
2461.108758,2298.286494,3404.947333,8142.265362
2461.109088,0.000000,592.164754,8956.491898
2461.109417,-766.095498,-1850.514855,8364.327145
2461.109746,-1915.238745,-4737.318029,10288.862594
2461.110075,-2298.286494,-4663.297435,8956.491898
2461.110404,-2145.067394,-4441.235652,9770.718434
2461.110733,-2374.896044,-4071.132681,10066.800811
2461.111062,-1225.752797,-2146.597232,10140.821405
2461.111392,-1149.143247,-1702.473667,12139.377449
2461.111721,-459.657299,666.185348,10510.924376
2461.112050,0.000000,2590.720797,8808.450710
2461.112379,-689.485948,2664.741391,9030.512492
2461.112708,-1915.238745,2664.741391,9548.656652
2461.113037,-229.828649,2886.803174,9696.697840
2461.113366,1455.581446,2516.700203,7994.224174
2461.113695,1991.848295,962.267725,6143.709319
2461.114025,1915.238745,-0.000000,5921.647536
2461.114354,1455.581446,-444.123565,6291.750507
2461.114683,1149.143247,-2368.659014,7328.038826
2461.115012,766.095498,-3552.988522,9030.512492
2461.115341,153.219100,-2886.803174,9326.594869
2461.115670,-459.657299,-3108.864956,9918.759623
2461.115999,-689.485948,-1998.556043,10881.027347
2461.116328,-229.828649,-518.144159,10807.006753
2461.116658,766.095498,518.144159,10584.944971
2461.116987,1532.190996,2294.638420,9770.718434
2461.117316,1608.800546,3552.988522,9178.553681
2461.117645,1762.019645,4293.194464,8660.409521
2461.117974,1072.533697,3108.864956,7698.141797
2461.118303,459.657299,1850.514855,8290.306550
2461.118632,-459.657299,-666.185348,8660.409521
2461.118962,-1378.971896,-2442.679609,9104.533087
2461.119291,-1685.410096,-4441.235652,10140.821405
2461.119620,-1762.019645,-4589.276840,9326.594869
2461.119949,-1225.752797,-4737.318029,9844.739029
2461.120278,-995.924147,-3849.070898,9844.739029
2461.120607,-229.828649,-2072.576638,10288.862594
2461.120936,-153.219100,-740.205942,11029.068536
2461.121265,-536.266849,888.247130,10732.986159
2461.121595,0.000000,2146.597232,10732.986159
2461.121924,766.095498,2294.638420,11547.212695
2461.122253,2298.286494,3923.091493,8068.244768
2461.122582,4060.306139,4589.276840,7105.977043
2461.122911,5132.839837,4071.132681,5477.523971
2461.123240,4443.353888,3997.112087,5329.482782
2461.123569,3140.991542,1924.535449,7031.956449
2461.123898,1838.629195,-0.000000,7105.977043
2461.124228,612.876398,-2886.803174,8512.368333
2461.124557,-1149.143247,-4737.318029,9474.636058
2461.124886,-919.314598,-4959.379811,10807.006753
2461.125215,-1149.143247,-4663.297435,11621.233289
2461.125544,-612.876398,-2294.638420,10584.944971
2461.125873,0.000000,-444.123565,10955.047942
2461.126202,0.000000,1702.473667,10510.924376
2461.126532,1072.533697,2368.659014,11473.192101
2461.126861,1762.019645,2960.823768,8364.327145
2461.127190,3753.867940,4145.153275,7698.141797
2461.127519,2604.724693,3701.029710,5921.647536
2461.127848,2451.505594,2738.761985,6735.874072
2461.128177,1149.143247,370.102971,8216.285956
2461.128506,0.000000,-2072.576638,7698.141797
2461.128835,-1149.143247,-3923.091493,8438.347739
2461.129165,-1838.629195,-5477.523971,10362.883188
2461.129494,-2068.457845,-4441.235652,9178.553681
2461.129823,-1149.143247,-4145.153275,10140.821405
2461.130152,-1532.190996,-2516.700203,9844.739029
2461.130481,-1149.143247,-592.164754,10436.903782
2461.130810,-766.095498,296.082377,11621.233289
2461.131139,-919.314598,2516.700203,9474.636058
2461.131468,-536.266849,2368.659014,9474.636058
2461.131798,-1149.143247,2146.597232,10066.800811
2461.132127,0.000000,2294.638420,8882.471304
2461.132456,612.876398,1850.514855,8438.347739
2461.132785,1762.019645,1480.411884,6735.874072
2461.133114,1838.629195,148.041188,6365.771101
2461.133443,1225.752797,-962.267725,6957.935855
2461.133772,1532.190996,-2072.576638,7402.059420
2461.134102,536.266849,-3627.009116,8290.306550
2461.134431,612.876398,-3478.967927,9400.615463
2461.134760,-766.095498,-2294.638420,9770.718434
2461.135089,-536.266849,-1554.432478,10362.883188
2461.135418,-306.438199,-222.061783,10658.965565
2461.135747,459.657299,1406.391290,10288.862594
2461.136076,1302.362347,2590.720797,9548.656652
2461.136405,1149.143247,2886.803174,9104.533087
2461.136735,1072.533697,3997.112087,7920.203579
2461.137064,766.095498,3256.906145,7994.224174
2461.137393,0.000000,1850.514855,8142.265362
2461.137722,-842.705048,-222.061783,8438.347739
2461.138051,-1532.190996,-3108.864956,9548.656652
2461.138380,-1149.143247,-4145.153275,9326.594869
2461.138709,-1455.581446,-4811.338623,9178.553681
2461.139038,-995.924147,-4663.297435,9622.677246
2461.139368,-689.485948,-3701.029710,9992.780217
2461.139697,0.000000,-1998.556043,10584.944971
2461.140026,0.000000,-148.041188,10436.903782
2461.140355,0.000000,1258.350101,10214.842000
2461.140684,-383.047749,2072.576638,10955.047942
2461.141013,536.266849,2664.741391,11621.233289
2461.141342,1838.629195,2812.782580,7994.224174
2461.141671,4136.915689,3997.112087,7105.977043
2461.142001,4136.915689,3775.050304,5625.565159
2461.142330,3907.087040,3330.926739,6143.709319
2461.142659,2757.943793,1036.288319,7846.182985
2461.142988,1072.533697,-518.144159,7994.224174
2461.143317,689.485948,-3478.967927,9400.615463
2461.143646,-689.485948,-4367.215058,9548.656652
2461.143975,-1072.533697,-4737.318029,10584.944971
2461.144305,-1149.143247,-3701.029710,10807.006753
2461.144634,0.000000,-1850.514855,10881.027347
2461.144963,153.219100,-74.020594,10584.944971
2461.145292,383.047749,1628.453072,10955.047942
2461.145621,1455.581446,2812.782580,10955.047942
2461.145950,1685.410096,3256.906145,7994.224174
2461.146279,2374.896044,3923.091493,8068.244768
2461.146608,1915.238745,4071.132681,6439.791695
2461.146938,1838.629195,2294.638420,6957.935855
2461.147267,536.266849,-0.000000,8068.244768
2461.147596,0.000000,-2220.617826,7550.100608
2461.147925,-1225.752797,-4515.256246,9696.697840
2461.148254,-1685.410096,-4959.379811,9326.594869
2461.148583,-1608.800546,-3997.112087,8808.450710
2461.148912,-1608.800546,-3552.988522,10510.924376
2461.149241,-1378.971896,-1628.453072,9918.759623
2461.149571,-536.266849,-222.061783,11251.130318
2461.149900,-459.657299,1036.288319,10955.047942
2461.150229,-842.705048,2812.782580,9474.636058
2461.150558,-1072.533697,1924.535449,9992.780217
2461.150887,-1225.752797,2220.617826,9622.677246
2461.151216,-766.095498,2368.659014,9474.636058
2461.151545,459.657299,1924.535449,8586.388927
2461.151875,842.705048,962.267725,6957.935855
2461.152204,1838.629195,-222.061783,7550.100608
2461.152533,612.876398,-1554.432478,7328.038826
2461.152862,766.095498,-2664.741391,8364.327145
2461.153191,383.047749,-4071.132681,9252.574275
2461.153520,76.609550,-2886.803174,9326.594869
2461.153849,76.609550,-2442.679609,9770.718434
2461.154178,0.000000,-1406.391290,10140.821405
2461.154508,842.705048,-74.020594,10436.903782
2461.154837,1149.143247,1924.535449,10214.842000
2461.155166,2604.724693,2960.823768,9400.615463
2461.155495,1991.848295,4219.173869,8364.327145
2461.155824,1455.581446,4367.215058,7772.162391
2461.156153,229.828649,2886.803174,8216.285956
2461.156482,76.609550,666.185348,8512.368333
2461.156811,-1149.143247,-1258.350101,8660.409521
2461.157141,-1685.410096,-3034.844362,9770.718434
2461.157470,-1762.019645,-3775.050304,9104.533087
2461.157799,-1838.629195,-4367.215058,10066.800811
2461.158128,-2298.286494,-4811.338623,9918.759623
2461.158457,-766.095498,-3034.844362,9992.780217
2461.158786,-766.095498,-2294.638420,10881.027347
2461.159115,0.000000,-0.000000,9992.780217
2461.159445,-383.047749,1332.370696,9178.553681
2461.159774,76.609550,2220.617826,11325.150913
2461.160103,1838.629195,2516.700203,10140.821405
2461.160432,4213.525239,4737.318029,6365.771101
2461.160761,5056.230287,3997.112087,6365.771101
2461.161090,4213.525239,4515.256246,4515.256246
2461.161419,4979.620737,3330.926739,7105.977043
2461.161749,2451.505594,1110.308913,6587.832884
2461.162078,2068.457845,-962.267725,7550.100608
2461.162407,0.000000,-3997.112087,10288.862594
2461.162736,-2145.067394,-4737.318029,9770.718434
2461.163065,-2451.505594,-6217.729913,12287.418637
2461.163394,-2221.676944,-3923.091493,11325.150913
2461.163724,-153.219100,-2516.700203,11399.171507
2461.164053,-766.095498,-518.144159,11547.212695
2461.164382,995.924147,2368.659014,11843.295072
2461.164711,2221.676944,3182.885551,10066.800811
2461.165040,4443.353888,3923.091493,7698.141797
2461.165369,3907.087040,5699.585753,7328.038826
2461.165699,3600.648841,4293.194464,6513.812290
2461.166028,2757.943793,2220.617826,7105.977043
2461.166357,766.095498,148.041188,7476.080014
2461.166686,459.657299,-2220.617826,8586.388927
2461.167015,-2145.067394,-4441.235652,9696.697840
2461.167345,-2451.505594,-5551.544565,10955.047942
2461.167674,-2681.334243,-4441.235652,9326.594869
2461.168003,-2451.505594,-3701.029710,11103.089130
2461.168332,-2528.115143,-1924.535449,9622.677246
2461.168661,-1149.143247,-296.082377,10584.944971
2461.168990,-842.705048,888.247130,10510.924376
2461.169320,-459.657299,2960.823768,7772.162391
2461.169649,0.000000,2886.803174,9548.656652
2461.169978,229.828649,1702.473667,10436.903782
2461.170307,1532.190996,2886.803174,6365.771101
2461.170636,2987.772442,3034.844362,7328.038826
2461.170965,2451.505594,1480.411884,5699.585753
2461.171295,2451.505594,296.082377,7105.977043
2461.171624,612.876398,-2146.597232,8142.265362
2461.171953,0.000000,-2886.803174,7920.203579
2461.172282,-766.095498,-5329.482782,10214.842000
2461.172611,-1762.019645,-3256.906145,9844.739029
2461.172941,-2221.676944,-2738.761985,10584.944971
2461.173270,-1532.190996,-1554.432478,10881.027347
2461.173599,0.000000,-0.000000,10584.944971
2461.173928,1302.362347,740.205942,10362.883188
2461.174257,1608.800546,3701.029710,8734.430116
2461.174586,1762.019645,4071.132681,8586.388927
2461.174916,1915.238745,2442.679609,7846.182985
2461.175245,1378.971896,3627.009116,7698.141797
2461.175574,-306.438199,1184.329507,7994.224174
2461.175903,-689.485948,-2072.576638,9104.533087
2461.176232,-2221.676944,-3923.091493,9770.718434
2461.176561,-1302.362347,-4367.215058,10436.903782
2461.176891,-1532.190996,-5181.441594,9326.594869
2461.177220,-1455.581446,-4441.235652,9992.780217
2461.177549,-919.314598,-2664.741391,10066.800811
2461.177878,0.000000,-592.164754,10066.800811
2461.178207,-383.047749,592.164754,9844.739029
2461.178537,689.485948,962.267725,10732.986159
2461.178866,2221.676944,2294.638420,9696.697840
2461.179195,2757.943793,4589.276840,7624.121203
2461.179524,3294.210641,4219.173869,6587.832884
2461.179853,3370.820191,4071.132681,6143.709319
2461.180182,3677.258390,3330.926739,7105.977043
2461.180512,2221.676944,1406.391290,7031.956449
2461.180841,1685.410096,-1036.288319,7772.162391
2461.181170,-383.047749,-3775.050304,9770.718434
2461.181499,-1608.800546,-4663.297435,9622.677246
2461.181828,-1991.848295,-5329.482782,11029.068536
2461.182157,-1608.800546,-4367.215058,10881.027347
2461.182487,-153.219100,-2590.720797,10807.006753
2461.182816,536.266849,-888.247130,11473.192101
2461.183145,2374.896044,1776.494261,10066.800811
2461.183474,3294.210641,3256.906145,9400.615463
2461.183803,4290.134789,3552.988522,7846.182985
2461.184132,3677.258390,5329.482782,6809.894666
2461.184462,2987.772442,4737.318029,6883.915261
2461.184791,1915.238745,3256.906145,6735.874072
2461.185120,612.876398,740.205942,8068.244768
2461.185449,-1072.533697,-2146.597232,8956.491898
2461.185778,-2528.115143,-4293.194464,10584.944971
2461.186108,-2834.553343,-5773.606348,10362.883188
2461.186437,-3140.991542,-5033.400406,9696.697840
2461.186766,-2834.553343,-4737.318029,10732.986159
2461.187095,-3217.601092,-3108.864956,10584.944971
2461.187424,-1608.800546,-1332.370696,11695.253884
2461.187753,-1302.362347,-0.000000,10510.924376
2461.188083,919.314598,2220.617826,8734.430116
2461.188412,-306.438199,2738.761985,9178.553681
2461.188741,689.485948,2294.638420,10955.047942
2461.189070,1608.800546,3627.009116,6957.935855
2461.189399,3907.087040,4071.132681,6439.791695
2461.189728,3064.381992,2664.741391,4589.276840
2461.190058,3064.381992,1924.535449,5921.647536
2461.190387,1072.533697,-0.000000,7994.224174
2461.190716,-383.047749,-2590.720797,7920.203579
2461.191045,-383.047749,-4737.318029,10214.842000
2461.191374,-2145.067394,-4219.173869,10214.842000
2461.191704,-2298.286494,-3849.070898,9918.759623
2461.192033,-1915.238745,-2886.803174,11695.253884
2461.192362,-689.485948,-222.061783,9992.780217
2461.192691,-153.219100,518.144159,10214.842000
2461.193020,766.095498,1850.514855,11621.233289
2461.193349,1378.971896,3923.091493,8808.450710
2461.193679,2145.067394,3404.947333,7624.121203
2461.194008,2374.896044,3627.009116,7179.997637
2461.194337,1532.190996,3182.885551,6587.832884
2461.194666,1532.190996,-74.020594,8808.450710
2461.194995,-536.266849,-1776.494261,8512.368333
2461.195324,-919.314598,-3404.947333,9326.594869
2461.195654,-2374.896044,-4885.359217,10584.944971
2461.195983,-1991.848295,-5255.462188,9178.553681
2461.196312,-1915.238745,-4367.215058,10807.006753
2461.196641,-1378.971896,-2516.700203,11103.089130
2461.196970,-689.485948,-518.144159,10436.903782
2461.197300,0.000000,-0.000000,11325.150913
2461.197629,-766.095498,1628.453072,10288.862594
2461.197958,1532.190996,2294.638420,10510.924376
2461.198287,1915.238745,3478.967927,7105.977043
2461.198616,3447.429741,4219.173869,7179.997637
2461.198945,2987.772442,3478.967927,6291.750507
2461.199275,3294.210641,2960.823768,6661.853478
2461.199604,2145.067394,518.144159,7920.203579
2461.199933,1225.752797,-1776.494261,7550.100608
2461.200262,153.219100,-3997.112087,8364.327145
2461.200591,-1225.752797,-4885.359217,9474.636058
2461.200920,-1378.971896,-5255.462188,10881.027347
2461.201250,-1532.190996,-3256.906145,11029.068536
2461.201579,0.000000,-2220.617826,11029.068536
2461.201908,766.095498,-444.123565,11029.068536
2461.202237,1762.019645,1850.514855,10362.883188
2461.202566,3294.210641,4219.173869,7772.162391
2461.202896,3983.696590,3849.070898,7476.080014
2461.203225,3677.258390,4959.379811,6217.729913
2461.203554,3370.820191,4737.318029,6661.853478
2461.203883,2374.896044,2442.679609,7550.100608
2461.204212,536.266849,-0.000000,7994.224174
2461.204541,-1532.190996,-2664.741391,9326.594869
2461.204871,-2374.896044,-4737.318029,10066.800811
2461.205200,-2757.943793,-5403.503377,9474.636058
2461.205529,-2911.162892,-4811.338623,9844.739029
2461.205858,-2528.115143,-4515.256246,10807.006753
2461.206187,-2298.286494,-2738.761985,10807.006753
2461.206516,-995.924147,-1332.370696,11547.212695
2461.206846,-383.047749,370.102971,10288.862594
2461.207175,0.000000,2368.659014,8734.430116
2461.207504,-153.219100,2590.720797,11103.089130
2461.207833,995.924147,2960.823768,9400.615463
2461.208162,2911.162892,4441.235652,5995.668130
2461.208492,4213.525239,3552.988522,6217.729913
2461.208821,2987.772442,2738.761985,4589.276840
2461.209150,2987.772442,1406.391290,7846.182985
2461.209479,459.657299,-888.247130,7476.080014
2461.209808,0.000000,-3108.864956,7994.224174
2461.210137,-1378.971896,-5255.462188,10732.986159
2461.210467,-1915.238745,-3849.070898,9622.677246
2461.210796,-2145.067394,-4219.173869,10510.924376
2461.211125,-1685.410096,-2442.679609,11769.274478
2461.211454,536.266849,-1036.288319,9474.636058
2461.211783,536.266849,1036.288319,11177.109724
2461.212112,459.657299,2368.659014,10807.006753
2461.212442,1378.971896,3404.947333,9400.615463
2461.212771,2068.457845,3404.947333,7846.182985
2461.213100,2604.724693,4441.235652,6365.771101
2461.213429,1915.238745,2812.782580,6365.771101
2461.213758,1302.362347,814.226536,8068.244768
2461.214088,0.000000,-1184.329507,7550.100608
2461.214417,-689.485948,-2664.741391,8882.471304
2461.214746,-2374.896044,-5255.462188,10510.924376
2461.215075,-1915.238745,-4959.379811,9104.533087
2461.215404,-1915.238745,-4219.173869,10510.924376
2461.215733,-1838.629195,-2442.679609,10510.924376
2461.216063,-919.314598,-1702.473667,9992.780217
2461.216392,-459.657299,-222.061783,11251.130318
2461.216721,-459.657299,1776.494261,9400.615463
2461.217050,229.828649,2146.597232,10510.924376
2461.217379,1302.362347,2072.576638,9696.697840
2461.217708,2528.115143,4145.153275,6069.688724
2461.218038,3677.258390,3552.988522,7402.059420
2461.218367,3140.991542,3182.885551,5181.441594
2461.218696,3370.820191,1110.308913,7031.956449
2461.219025,1991.848295,-1332.370696,7994.224174
2461.219354,689.485948,-2442.679609,7772.162391
2461.219684,-689.485948,-5033.400406,9696.697840
2461.220013,-1685.410096,-4811.338623,10362.883188
2461.220342,-1685.410096,-3923.091493,11251.130318
2461.220671,-1608.800546,-2220.617826,11103.089130
2461.221000,0.000000,-888.247130,11325.150913
2461.221329,1149.143247,814.226536,11991.336260
2461.221659,2451.505594,2960.823768,9770.718434
2461.221988,2911.162892,4293.194464,7920.203579
2461.222317,2987.772442,3701.029710,6957.935855
2461.222646,3294.210641,5033.400406,6661.853478
2461.222975,1685.410096,3849.070898,6587.832884
2461.223304,689.485948,666.185348,7624.121203
2461.223634,-689.485948,-2072.576638,9030.512492
2461.223963,-2528.115143,-4367.215058,10658.965565
2461.224292,-1991.848295,-5181.441594,9252.574275
2461.224621,-2145.067394,-5033.400406,8586.388927
2461.224950,-1762.019645,-4441.235652,10288.862594
2461.225279,-1302.362347,-2442.679609,10214.842000
2461.225609,-383.047749,-518.144159,10584.944971
2461.225938,-536.266849,148.041188,10807.006753
2461.226267,0.000000,2220.617826,8956.491898
2461.226596,-459.657299,2886.803174,10288.862594
2461.226925,-919.314598,2738.761985,9918.759623
2461.227255,1225.752797,2368.659014,8956.491898
2461.227584,2528.115143,2368.659014,6439.791695
2461.227913,3217.601092,2146.597232,5847.626942
2461.228242,2451.505594,1258.350101,6365.771101
2461.228571,1532.190996,-370.102971,7179.997637
2461.228900,612.876398,-2220.617826,7698.141797
2461.229230,76.609550,-4145.153275,9030.512492
2461.229559,-995.924147,-4145.153275,9770.718434
2461.229888,-1608.800546,-3849.070898,10732.986159
2461.230217,-995.924147,-3478.967927,11251.130318
2461.230546,-536.266849,-1110.308913,11473.192101
2461.230875,306.438199,592.164754,11473.192101
2461.231205,1149.143247,2590.720797,10288.862594
2461.231534,2145.067394,4219.173869,9400.615463
2461.231863,2221.676944,4737.318029,7698.141797
2461.232192,2451.505594,3849.070898,6735.874072
2461.232521,2145.067394,3034.844362,7624.121203
2461.232851,229.828649,740.205942,8142.265362
2461.233180,-995.924147,-2220.617826,8512.368333
2461.233509,-2221.676944,-4145.153275,9548.656652
2461.233838,-1762.019645,-5255.462188,10066.800811
2461.234167,-1991.848295,-5181.441594,9104.533087
2461.234496,-842.705048,-4589.276840,10214.842000
2461.234826,-689.485948,-2812.782580,10140.821405
2461.235155,0.000000,-740.205942,10214.842000
2461.235484,-306.438199,1258.350101,10436.903782
2461.235813,-306.438199,2220.617826,9992.780217
2461.236142,306.438199,2146.597232,10955.047942
2461.236471,1608.800546,3034.844362,8956.491898
2461.236801,2757.943793,4293.194464,6143.709319
2461.237130,3983.696590,3108.864956,6439.791695
2461.237459,3600.648841,3404.947333,5255.462188
2461.237788,3447.429741,1628.453072,7105.977043
2461.238117,1532.190996,-296.082377,6809.894666
2461.238447,766.095498,-2294.638420,7328.038826
2461.238776,-842.705048,-4959.379811,9918.759623
2461.239105,-1915.238745,-4959.379811,10584.944971
2461.239434,-2145.067394,-4811.338623,11547.212695
2461.239763,-1302.362347,-3034.844362,10881.027347
2461.240092,-76.609550,-1184.329507,11473.192101
2461.240422,-459.657299,814.226536,11103.089130
2461.240751,1378.971896,2368.659014,11251.130318
2461.241080,1838.629195,3701.029710,8216.285956
2461.241409,3064.381992,3478.967927,7994.224174
2461.241738,2451.505594,4737.318029,6587.832884
2461.242067,2298.286494,3182.885551,6513.812290
2461.242397,1608.800546,592.164754,7920.203579
2461.242726,-306.438199,-1554.432478,8216.285956
2461.243055,-1302.362347,-3775.050304,9178.553681
2461.243384,-2451.505594,-5329.482782,10214.842000
2461.243713,-1762.019645,-5477.523971,9474.636058
2461.244043,-1762.019645,-3997.112087,9918.759623
2461.244372,-766.095498,-2146.597232,10214.842000
2461.244701,-689.485948,-888.247130,10510.924376
2461.245030,-612.876398,740.205942,11103.089130
2461.245359,-842.705048,2368.659014,9844.739029
2461.245688,-612.876398,2442.679609,9622.677246
2461.246018,-766.095498,2664.741391,10214.842000
2461.246347,0.000000,2294.638420,9696.697840
2461.246676,1838.629195,2886.803174,7624.121203
2461.247005,2681.334243,2442.679609,6883.915261
2461.247334,2451.505594,888.247130,5995.668130
2461.247663,2374.896044,-0.000000,7105.977043
2461.247993,1378.971896,-1702.473667,7476.080014
2461.248322,459.657299,-3256.906145,8142.265362
2461.248651,-383.047749,-3775.050304,9770.718434
2461.248980,-919.314598,-2738.761985,10288.862594
2461.249309,-995.924147,-2442.679609,10955.047942
2461.249639,0.000000,-1036.288319,11251.130318
2461.249968,766.095498,740.205942,10288.862594
2461.250297,1302.362347,2590.720797,9770.718434
2461.250626,1991.848295,3552.988522,8808.450710
2461.250955,2068.457845,3701.029710,8068.244768
2461.251284,1838.629195,2960.823768,8068.244768
2461.251614,1685.410096,2220.617826,7846.182985
2461.251943,0.000000,-0.000000,8290.306550
2461.252272,-1532.190996,-2294.638420,9178.553681
2461.252601,-1991.848295,-3849.070898,9474.636058
2461.252930,-1608.800546,-4885.359217,10066.800811
2461.253259,-1378.971896,-4441.235652,9252.574275
2461.253589,-536.266849,-3923.091493,10362.883188
2461.253918,-766.095498,-2516.700203,10214.842000
2461.254247,-306.438199,-444.123565,10362.883188
2461.254576,-842.705048,666.185348,10807.006753
2461.254905,-153.219100,1480.411884,10732.986159
2461.255235,1072.533697,2146.597232,10955.047942
2461.255564,1838.629195,3701.029710,7105.977043
2461.255893,3600.648841,3923.091493,7031.956449
2461.256222,3830.477490,3182.885551,5551.544565
2461.256551,4060.306139,3701.029710,5995.668130
2461.256880,2681.334243,1554.432478,6883.915261
2461.257210,1838.629195,-370.102971,7179.997637
2461.257539,306.438199,-2960.823768,8660.409521
2461.257868,-919.314598,-4737.318029,9400.615463
2461.258197,-1915.238745,-5255.462188,10510.924376
2461.258526,-1455.581446,-4589.276840,11103.089130
2461.258855,-153.219100,-2368.659014,10510.924376
2461.259185,-306.438199,-666.185348,11177.109724
2461.259514,76.609550,1480.411884,10732.986159
2461.259843,1072.533697,2516.700203,10436.903782
2461.260172,2145.067394,3256.906145,8290.306550
2461.260501,2987.772442,3923.091493,7105.977043
2461.260830,2298.286494,4071.132681,6735.874072
2461.261159,2374.896044,3034.844362,6957.935855
2461.261488,995.924147,148.041188,7624.121203
2461.261817,0.000000,-1480.411884,8290.306550
2461.262146,-1532.190996,-3627.009116,9104.533087
2461.262476,-1838.629195,-5181.441594,10362.883188
2461.262805,-2451.505594,-5033.400406,9770.718434
2461.263134,-2221.676944,-3775.050304,10066.800811
2461.263463,-383.047749,-2516.700203,10140.821405
2461.263792,-1225.752797,-518.144159,10881.027347
2461.264121,-612.876398,592.164754,11621.233289
2461.264450,-1072.533697,2368.659014,10140.821405
2461.264779,-612.876398,2442.679609,10214.842000
2461.265108,-766.095498,2294.638420,10140.821405
2461.265437,689.485948,2368.659014,9326.594869
2461.265766,1532.190996,2664.741391,7402.059420
2461.266095,2298.286494,2220.617826,7328.038826
2461.266424,2451.505594,962.267725,5847.626942
2461.266754,2451.505594,-74.020594,6809.894666
2461.267083,1532.190996,-1776.494261,7328.038826
2461.267412,842.705048,-3034.844362,7920.203579
2461.267741,-229.828649,-3182.885551,9992.780217
2461.268070,-612.876398,-2886.803174,9770.718434
2461.268399,-689.485948,-2368.659014,10288.862594
2461.268728,-689.485948,-814.226536,11177.109724
2461.269057,306.438199,962.267725,10362.883188
2461.269386,842.705048,2664.741391,9696.697840
2461.269715,842.705048,3478.967927,9030.512492
2461.270044,1455.581446,3923.091493,8068.244768
2461.270373,1072.533697,3034.844362,7550.100608
2461.270702,536.266849,2664.741391,7624.121203
2461.271031,0.000000,-296.082377,8068.244768
2461.271361,-1149.143247,-2738.761985,9030.512492
2461.271690,-2221.676944,-4145.153275,9548.656652
2461.272019,-1608.800546,-5403.503377,9992.780217
2461.272348,-1378.971896,-5255.462188,9622.677246
2461.272677,-995.924147,-4071.132681,10362.883188
2461.273006,-536.266849,-2146.597232,10510.924376
2461.273335,-383.047749,-0.000000,10362.883188
2461.273664,-153.219100,1332.370696,10362.883188
2461.273993,1149.143247,1702.473667,10955.047942
2461.274322,1991.848295,3404.947333,8364.327145
2461.274651,3370.820191,4441.235652,7994.224174
2461.274980,3524.039291,4145.153275,5921.647536
2461.275309,3830.477490,3701.029710,6365.771101
2461.275639,3064.381992,2368.659014,7031.956449
2461.275968,1685.410096,222.061783,7105.977043
2461.276297,229.828649,-2442.679609,9104.533087
2461.276626,-1532.190996,-4219.173869,9548.656652
2461.276955,-1685.410096,-6439.791695,10584.944971
2461.277284,-2298.286494,-5921.647536,11103.089130
2461.277613,-842.705048,-3775.050304,10436.903782
2461.277942,-842.705048,-2146.597232,10955.047942
2461.278271,0.000000,-0.000000,10732.986159
2461.278600,1608.800546,1776.494261,11547.212695
2461.278929,2681.334243,3923.091493,7402.059420
2461.279258,3907.087040,3997.112087,7698.141797
2461.279587,3907.087040,4737.318029,5773.606348
2461.279916,3677.258390,5477.523971,5181.441594
2461.280246,2145.067394,2368.659014,7105.977043
2461.280575,689.485948,592.164754,7624.121203
2461.280904,-766.095498,-2294.638420,9474.636058
2461.281233,-3447.429741,-5329.482782,10214.842000
2461.281562,-2374.896044,-6217.729913,10288.862594
2461.281891,-3524.039291,-5551.544565,9474.636058
2461.282220,-2374.896044,-3701.029710,11029.068536
2461.282549,-2681.334243,-2516.700203,10658.965565
2461.282878,-1302.362347,-148.041188,11621.233289
2461.283207,-919.314598,1776.494261,10214.842000
2461.283536,0.000000,2368.659014,9326.594869
2461.283865,-1455.581446,2516.700203,9992.780217
2461.284194,1762.019645,2812.782580,10140.821405
2461.284523,2374.896044,4219.173869,5773.606348
2461.284853,3907.087040,3552.988522,6883.915261
2461.285182,3370.820191,2294.638420,4589.276840
2461.285511,3140.991542,1628.453072,6735.874072
2461.285840,1685.410096,-1110.308913,7994.224174
2461.286169,612.876398,-2442.679609,7179.997637
2461.286498,-842.705048,-4663.297435,11029.068536
2461.286827,-2221.676944,-3478.967927,10288.862594
2461.287156,-2374.896044,-4071.132681,11251.130318
2461.287485,-2451.505594,-2220.617826,11547.212695
2461.287814,-229.828649,-444.123565,10732.986159
2461.288143,0.000000,1554.432478,10955.047942
2461.288472,1455.581446,2368.659014,10066.800811
2461.288801,1915.238745,3923.091493,8216.285956
2461.289131,2451.505594,3182.885551,7624.121203
2461.289460,1991.848295,4071.132681,6513.812290
2461.289789,1302.362347,2368.659014,6513.812290
2461.290118,459.657299,-740.205942,7846.182985
2461.290447,-1072.533697,-2812.782580,8734.430116
2461.290776,-1455.581446,-4145.153275,9400.615463
2461.291105,-2298.286494,-5477.523971,9770.718434
2461.291434,-2451.505594,-5329.482782,9548.656652
2461.291763,-1378.971896,-3182.885551,10140.821405
2461.292092,-919.314598,-1406.391290,10584.944971
2461.292421,-766.095498,370.102971,10214.842000
2461.292750,0.000000,1702.473667,10807.006753
2461.293079,-153.219100,1924.535449,10955.047942
2461.293408,153.219100,2738.761985,9178.553681
2461.293738,2374.896044,3775.050304,6735.874072
2461.294067,3064.381992,3330.926739,6365.771101
2461.294396,2987.772442,2960.823768,6069.688724
2461.294725,3064.381992,2146.597232,7254.018232
2461.295054,1838.629195,-222.061783,7550.100608
2461.295383,842.705048,-2368.659014,7550.100608
2461.295712,-153.219100,-4071.132681,9474.636058
2461.296041,-1838.629195,-4959.379811,9696.697840
2461.296370,-2221.676944,-5699.585753,12065.356855
2461.296699,-1608.800546,-3034.844362,11843.295072
2461.297028,-229.828649,-1998.556043,11029.068536
2461.297357,459.657299,-0.000000,11473.192101
2461.297686,2298.286494,2738.761985,9992.780217
2461.298016,2987.772442,3552.988522,8438.347739
2461.298345,3524.039291,3701.029710,7402.059420
2461.298674,3677.258390,4959.379811,6365.771101
2461.299003,2834.553343,4071.132681,6809.894666
2461.299332,1608.800546,1776.494261,7328.038826
2461.299661,-612.876398,-1036.288319,8142.265362
2461.299990,-2068.457845,-3701.029710,9104.533087
2461.300319,-2911.162892,-6439.791695,10288.862594
2461.300648,-2681.334243,-5995.668130,9770.718434
2461.300977,-2374.896044,-4515.256246,9474.636058
2461.301306,-1838.629195,-3478.967927,10955.047942
2461.301635,-1838.629195,-1406.391290,10584.944971
2461.301964,-689.485948,444.123565,10955.047942
2461.302293,-612.876398,2072.576638,8808.450710
2461.302623,0.000000,2516.700203,9622.677246
2461.302952,1072.533697,1480.411884,11029.068536
2461.303281,1762.019645,3701.029710,6735.874072
2461.303610,4136.915689,3108.864956,7031.956449
2461.303939,3370.820191,3404.947333,4145.153275
2461.304268,3830.477490,2738.761985,5847.626942
2461.304597,1838.629195,592.164754,7328.038826
2461.304926,1149.143247,-1258.350101,7031.956449
2461.305255,-383.047749,-3997.112087,9770.718434
2461.305584,-1532.190996,-5329.482782,10362.883188
2461.305913,-2528.115143,-4959.379811,10955.047942
2461.306242,-2451.505594,-3923.091493,11769.274478
2461.306571,-1149.143247,-1554.432478,11177.109724
2461.306901,-229.828649,-0.000000,11325.150913
2461.307230,842.705048,1998.556043,11251.130318
2461.307559,1838.629195,3627.009116,9178.553681
2461.307888,2987.772442,3478.967927,8364.327145
2461.308217,3370.820191,4737.318029,7179.997637
2461.308546,2987.772442,4293.194464,6365.771101
2461.308875,1532.190996,1628.453072,7254.018232
2461.309204,0.000000,-1036.288319,8142.265362
2461.309533,-1608.800546,-2886.803174,8956.491898
2461.309862,-2298.286494,-4737.318029,9992.780217
2461.310191,-2374.896044,-5921.647536,10732.986159
2461.310520,-2145.067394,-4959.379811,10140.821405
2461.310849,-1762.019645,-3108.864956,10881.027347
2461.311178,-1685.410096,-1110.308913,10436.903782
2461.311508,-536.266849,370.102971,10658.965565
2461.311837,-766.095498,1776.494261,10066.800811
2461.312166,306.438199,1998.556043,9992.780217
2461.312495,1532.190996,1850.514855,10881.027347
2461.312824,1991.848295,3849.070898,6143.709319
2461.313153,3677.258390,3627.009116,6883.915261
2461.313482,3064.381992,3330.926739,5403.503377
2461.313811,3753.867940,2368.659014,6439.791695
2461.314140,2604.724693,-222.061783,7920.203579
2461.314469,1532.190996,-1998.556043,7476.080014
2461.314798,76.609550,-4663.297435,9104.533087
2461.315127,-1685.410096,-5625.565159,9770.718434
2461.315456,-2451.505594,-4663.297435,10658.965565
2461.315786,-2068.457845,-3256.906145,11473.192101
2461.316115,-229.828649,-1998.556043,10881.027347
2461.316444,383.047749,-0.000000,11103.089130
2461.316773,1838.629195,2960.823768,10214.842000
2461.317102,2451.505594,3330.926739,8734.430116
2461.317431,2757.943793,3108.864956,7624.121203
2461.317760,2757.943793,4737.318029,6735.874072
2461.318089,2068.457845,3552.988522,7105.977043
2461.318418,383.047749,1110.308913,7772.162391
2461.318747,-766.095498,-1628.453072,8956.491898
2461.319076,-1149.143247,-3775.050304,9474.636058
2461.319405,-2451.505594,-6069.688724,10066.800811
2461.319734,-2298.286494,-5773.606348,9696.697840
2461.320063,-1915.238745,-4515.256246,10214.842000
2461.320393,-1532.190996,-2960.823768,10288.862594
2461.320722,-1302.362347,-1184.329507,10140.821405
2461.321051,-459.657299,444.123565,10362.883188
2461.321380,-459.657299,1554.432478,9770.718434
2461.321709,689.485948,1110.308913,10881.027347
2461.322038,1072.533697,2812.782580,8290.306550
2461.322367,2681.334243,4145.153275,6735.874072
2461.322696,3294.210641,3923.091493,5847.626942
2461.323025,2987.772442,3775.050304,5773.606348
2461.323354,2528.115143,2368.659014,7179.997637
2461.323683,1225.752797,-148.041188,7402.059420
2461.324012,995.924147,-2442.679609,8290.306550
2461.324341,-1302.362347,-4663.297435,9770.718434
2461.324670,-2374.896044,-5477.523971,10140.821405
2461.325000,-2221.676944,-4441.235652,11473.192101
2461.325329,-1685.410096,-2812.782580,10881.027347
2461.325658,0.000000,-1628.453072,10732.986159
2461.325987,612.876398,222.061783,11177.109724
2461.326316,2068.457845,2664.741391,10510.924376
2461.326645,2987.772442,3552.988522,8142.265362
2461.326974,3600.648841,4441.235652,7254.018232
2461.327303,3064.381992,5329.482782,6291.750507
2461.327632,2451.505594,3849.070898,6883.915261
2461.327961,766.095498,1554.432478,7550.100608
2461.328290,-612.876398,-1258.350101,9326.594869
2461.328619,-1991.848295,-3552.988522,10140.821405
2461.328948,-2451.505594,-6069.688724,10510.924376
2461.329278,-2757.943793,-6217.729913,10584.944971
2461.329607,-2528.115143,-4515.256246,10510.924376
2461.329936,-1608.800546,-2886.803174,10881.027347
2461.330265,-1685.410096,-1702.473667,10881.027347
2461.330594,229.828649,518.144159,11103.089130
2461.330923,-689.485948,1702.473667,9030.512492
2461.331252,229.828649,1628.453072,10584.944971
2461.331581,1838.629195,2368.659014,9918.759623
2461.331910,2528.115143,4071.132681,5847.626942
2461.332239,3907.087040,3849.070898,6661.853478
2461.332568,3370.820191,3701.029710,5255.462188
2461.332897,3600.648841,1850.514855,7179.997637
2461.333226,1149.143247,-0.000000,7179.997637
2461.333555,842.705048,-2072.576638,7105.977043
2461.333885,-919.314598,-4589.276840,9918.759623
2461.334214,-2221.676944,-4959.379811,10066.800811
2461.334543,-2221.676944,-4737.318029,11029.068536
2461.334872,-2145.067394,-2886.803174,11029.068536
2461.335201,-229.828649,-2146.597232,10807.006753
2461.335530,-306.438199,148.041188,10881.027347
2461.335859,1608.800546,2664.741391,10584.944971
2461.336188,2298.286494,3627.009116,7624.121203
2461.336517,3064.381992,3552.988522,7476.080014
2461.336846,2604.724693,5255.462188,6513.812290
2461.337175,2145.067394,3997.112087,6365.771101
2461.337504,766.095498,888.247130,7698.141797
2461.337833,-383.047749,-1776.494261,8364.327145
2461.338163,-2374.896044,-3552.988522,9548.656652
2461.338492,-2374.896044,-5551.544565,10436.903782
2461.338821,-2451.505594,-5699.585753,9474.636058
2461.339150,-2374.896044,-4589.276840,10436.903782
2461.339479,-1915.238745,-2738.761985,10658.965565
2461.339808,-1302.362347,-518.144159,10362.883188
2461.340137,0.000000,-0.000000,10955.047942
2461.340466,-842.705048,1998.556043,9696.697840
2461.340795,-919.314598,1998.556043,10436.903782
2461.341124,0.000000,2072.576638,10362.883188
2461.341453,1302.362347,3256.906145,7105.977043
2461.341782,2911.162892,3182.885551,7698.141797
2461.342111,2987.772442,3182.885551,5699.585753
2461.342440,2834.553343,1850.514855,7105.977043
2461.342770,1149.143247,-518.144159,7772.162391
2461.343099,995.924147,-1924.535449,7476.080014
2461.343428,153.219100,-3849.070898,9400.615463
2461.343757,-1072.533697,-4515.256246,10140.821405
2461.344086,-1991.848295,-3775.050304,11177.109724
2461.344415,-1455.581446,-3034.844362,11769.274478
2461.344744,0.000000,-1554.432478,11473.192101
2461.345073,1072.533697,444.123565,11177.109724
2461.345402,2221.676944,2886.803174,10288.862594
2461.345731,2757.943793,4145.153275,8512.368333
2461.346060,2911.162892,4293.194464,7402.059420
2461.346389,3294.210641,4959.379811,6809.894666
2461.346718,2298.286494,4145.153275,6661.853478
2461.347048,1455.581446,1480.411884,7179.997637
2461.347377,-306.438199,-1258.350101,8142.265362
2461.347706,-1532.190996,-3552.988522,9030.512492
2461.348035,-2298.286494,-5699.585753,10510.924376
2461.348364,-1991.848295,-5921.647536,9918.759623
2461.348693,-1685.410096,-4441.235652,9696.697840
2461.349022,-1378.971896,-3404.947333,11103.089130
2461.349351,-1072.533697,-1480.411884,10584.944971
2461.349680,0.000000,444.123565,10732.986159
2461.350009,-1149.143247,1554.432478,10584.944971
2461.350338,1149.143247,1480.411884,11769.274478
2461.350667,1762.019645,2738.761985,8142.265362
2461.350996,3600.648841,4219.173869,6735.874072
2461.351325,4136.915689,3552.988522,5625.565159
2461.351655,3753.867940,3923.091493,5699.585753
2461.351984,2451.505594,2146.597232,7254.018232
2461.352313,2145.067394,222.061783,6735.874072
2461.352642,1072.533697,-2590.720797,7994.224174
2461.352971,-1455.581446,-4441.235652,9474.636058
2461.353300,-2145.067394,-6069.688724,10955.047942
2461.353629,-2528.115143,-5403.503377,12139.377449
2461.353958,-1532.190996,-3256.906145,10881.027347
2461.354287,-689.485948,-2516.700203,11769.274478
2461.354616,-766.095498,444.123565,11399.171507
2461.354945,0.000000,2886.803174,11177.109724
2461.355274,1455.581446,2294.638420,10140.821405
2461.355603,2604.724693,4293.194464,6661.853478
2461.355932,3064.381992,4959.379811,7476.080014
2461.356262,2528.115143,3627.009116,5477.523971
2461.356591,1838.629195,1850.514855,7698.141797
2461.356920,689.485948,-518.144159,7846.182985
2461.357249,-383.047749,-2516.700203,7254.018232
2461.357578,-2145.067394,-4885.359217,9474.636058
2461.357907,-2145.067394,-5625.565159,10584.944971
2461.358236,-2681.334243,-4515.256246,9030.512492
2461.358565,-2145.067394,-3552.988522,10658.965565
2461.358894,-1762.019645,-1776.494261,9844.739029
2461.359223,-1072.533697,-0.000000,11103.089130
2461.359552,-459.657299,1776.494261,10807.006753
2461.359881,-459.657299,3627.009116,8290.306550
2461.360210,-689.485948,2294.638420,11251.130318
2461.360540,766.095498,2368.659014,9548.656652
2461.360869,2298.286494,3849.070898,5699.585753
2461.361198,2528.115143,2738.761985,7402.059420
2461.361527,2757.943793,1480.411884,5477.523971
2461.361856,2987.772442,222.061783,7476.080014
2461.362185,1072.533697,-1702.473667,7698.141797
2461.362514,995.924147,-2886.803174,7624.121203
2461.362843,0.000000,-4885.359217,10807.006753
2461.363172,-766.095498,-3256.906145,10807.006753
2461.363501,-1532.190996,-2886.803174,11547.212695
2461.363830,-612.876398,-2220.617826,12213.398043
2461.364159,383.047749,222.061783,10807.006753
2461.364488,1149.143247,2294.638420,10510.924376
2461.364817,1915.238745,3775.050304,8882.471304
2461.365146,2451.505594,3997.112087,7920.203579
2461.365475,3064.381992,3182.885551,7105.977043
2461.365804,2221.676944,3923.091493,7031.956449
2461.366133,995.924147,1480.411884,7550.100608
2461.366462,0.000000,-1406.391290,8512.368333
2461.366791,-1455.581446,-3034.844362,9178.553681
2461.367120,-1915.238745,-4885.359217,10288.862594
2461.367449,-1378.971896,-5625.565159,9474.636058
2461.367779,-1608.800546,-4737.318029,9622.677246
2461.368108,-689.485948,-3256.906145,11103.089130
2461.368437,-919.314598,-1036.288319,9992.780217
2461.368766,0.000000,888.247130,10584.944971
2461.369095,-536.266849,1110.308913,10881.027347
2461.369424,1072.533697,2294.638420,11621.233289
2461.369753,2068.457845,3775.050304,7254.018232
2461.370082,3907.087040,4589.276840,7402.059420
2461.370411,3753.867940,3256.906145,5773.606348
2461.370740,4213.525239,4071.132681,5699.585753
2461.371069,2757.943793,1776.494261,6661.853478
2461.371398,1608.800546,-666.185348,6883.915261
2461.371727,536.266849,-2590.720797,8512.368333
2461.372056,-1378.971896,-4885.359217,8882.471304
2461.372385,-1838.629195,-6439.791695,10807.006753
2461.372714,-1838.629195,-5403.503377,11103.089130
2461.373043,-536.266849,-3034.844362,10732.986159
2461.373372,-612.876398,-1924.535449,11325.150913
2461.373701,-612.876398,666.185348,10658.965565
2461.374030,-459.657299,2146.597232,11177.109724
2461.374359,919.314598,2072.576638,10214.842000
2461.374688,2451.505594,3627.009116,6587.832884
2461.375017,2604.724693,4071.132681,7550.100608
2461.375346,1915.238745,3034.844362,5625.565159
2461.375675,1608.800546,1998.556043,7402.059420
2461.376004,229.828649,-666.185348,8068.244768
2461.376334,-1149.143247,-2886.803174,7846.182985
2461.376663,-2145.067394,-5255.462188,9992.780217
2461.376992,-1991.848295,-4737.318029,9252.574275
2461.377321,-2145.067394,-3923.091493,9104.533087
2461.377650,-2068.457845,-3330.926739,10584.944971
2461.377979,-1608.800546,-1184.329507,10584.944971
2461.378308,-689.485948,-0.000000,11843.295072
2461.378637,-536.266849,1776.494261,10436.903782
2461.378966,-995.924147,3330.926739,8734.430116
2461.379295,-1149.143247,2368.659014,10362.883188
2461.379624,-766.095498,2368.659014,10066.800811
2461.379953,1608.800546,2664.741391,8660.409521
2461.380282,2451.505594,2516.700203,6217.729913
2461.380611,2757.943793,1258.350101,5403.503377
2461.380940,2681.334243,592.164754,6217.729913
2461.381269,2221.676944,-1258.350101,7179.997637
2461.381598,1302.362347,-2812.782580,7624.121203
2461.381927,689.485948,-4219.173869,9104.533087
2461.382256,0.000000,-2960.823768,10362.883188
2461.382585,-689.485948,-2220.617826,10584.944971
2461.382914,-612.876398,-1702.473667,11843.295072
2461.383243,76.609550,370.102971,10807.006753
2461.383572,1225.752797,1406.391290,10510.924376
2461.383901,1838.629195,3330.926739,9474.636058
2461.384230,2068.457845,3627.009116,8364.327145
2461.384559,2374.896044,3404.947333,8512.368333
2461.384889,1455.581446,2738.761985,7698.141797
2461.385218,229.828649,1406.391290,7920.203579
2461.385547,-919.314598,-1850.514855,9030.512492
2461.385876,-2221.676944,-3182.885551,9474.636058
2461.386205,-2298.286494,-4811.338623,10140.821405
2461.386534,-1685.410096,-5181.441594,10436.903782
2461.386863,-2298.286494,-4885.359217,9622.677246
2461.387192,-766.095498,-3182.885551,10362.883188
2461.387521,-766.095498,-1036.288319,9992.780217
2461.387850,-229.828649,666.185348,10436.903782
2461.388179,1302.362347,1480.411884,11325.150913
2461.388508,3064.381992,3478.967927,7698.141797
2461.388837,3370.820191,4071.132681,7772.162391
2461.389166,3447.429741,5181.441594,5995.668130
2461.389495,4213.525239,4515.256246,6291.750507
2461.389824,3140.991542,2960.823768,6513.812290
2461.390153,2221.676944,1850.514855,6439.791695
2461.390482,459.657299,-1406.391290,8364.327145
2461.390811,-1225.752797,-3775.050304,9104.533087
2461.391140,-2145.067394,-6143.709319,10436.903782
2461.391469,-2451.505594,-6513.812290,10807.006753
2461.391798,-1915.238745,-4663.297435,10140.821405
2461.392127,-1532.190996,-2590.720797,11251.130318
2461.392456,-766.095498,-592.164754,10066.800811
2461.392785,229.828649,1850.514855,11251.130318
2461.393115,2221.676944,1998.556043,10732.986159
2461.393444,3600.648841,3923.091493,7105.977043
2461.393773,4060.306139,5033.400406,7254.018232
2461.394102,2604.724693,4811.338623,5477.523971
2461.394431,2757.943793,3330.926739,6809.894666
2461.394760,689.485948,1258.350101,7476.080014
2461.395089,0.000000,-1628.453072,7920.203579
2461.395418,-2757.943793,-5107.421000,9918.759623
