#time,accel_x,accel_y,accel_z
2438.566516,536.266849,-74.020594,8808.450710
2438.566845,229.828649,-148.041188,8956.491898
2438.567174,306.438199,-0.000000,8808.450710
2438.567503,153.219100,-0.000000,9030.512492
2438.567832,153.219100,-370.102971,8882.471304
2438.568161,306.438199,-148.041188,8956.491898
2438.568490,76.609550,-148.041188,9030.512492
2438.568819,76.609550,-222.061783,8956.491898
2438.569148,229.828649,-148.041188,8808.450710
2438.569477,383.047749,-74.020594,9104.533087
2438.569806,306.438199,-0.000000,9178.553681
2438.570135,76.609550,-296.082377,8956.491898
2438.570463,-229.828649,-370.102971,9326.594869
2438.570792,689.485948,-518.144159,9104.533087
2438.571121,306.438199,-0.000000,8956.491898
2438.571450,229.828649,-148.041188,9252.574275
2438.571779,306.438199,-370.102971,9030.512492
2438.572108,383.047749,-222.061783,9178.553681
2438.572437,76.609550,-444.123565,9178.553681
2438.572766,536.266849,-370.102971,9474.636058
2438.573095,229.828649,-148.041188,9252.574275
2438.573424,383.047749,-74.020594,9252.574275
2438.573753,229.828649,-296.082377,9326.594869
2438.574082,306.438199,-74.020594,9252.574275
2438.574411,153.219100,-0.000000,9178.553681
2438.574740,383.047749,-222.061783,8734.430116
2438.575069,76.609550,-222.061783,8808.450710
2438.575398,459.657299,-74.020594,9474.636058
2438.575727,536.266849,-148.041188,9104.533087
2438.576056,229.828649,-0.000000,8956.491898
2438.576385,229.828649,-0.000000,8808.450710
2438.576714,306.438199,-0.000000,9030.512492
2438.577043,76.609550,-148.041188,8956.491898
2438.577372,459.657299,-74.020594,9030.512492
2438.577701,229.828649,-222.061783,9030.512492
2438.578030,536.266849,-296.082377,9030.512492
2438.578359,459.657299,-222.061783,8882.471304
2438.578688,306.438199,-148.041188,8956.491898
2438.579017,306.438199,-0.000000,8808.450710
2438.579346,229.828649,-148.041188,8956.491898
2438.579675,306.438199,-370.102971,8290.306550
2438.580004,153.219100,-222.061783,9252.574275
2438.580332,153.219100,-296.082377,9178.553681
2438.580661,306.438199,-0.000000,9178.553681
2438.580990,306.438199,-148.041188,9030.512492
2438.581319,229.828649,-222.061783,9178.553681
2438.581648,459.657299,-296.082377,9030.512492
2438.581977,383.047749,-148.041188,9252.574275
2438.582306,536.266849,-222.061783,9326.594869
2438.582635,229.828649,-222.061783,8808.450710
2438.582964,229.828649,-148.041188,9252.574275
2438.583293,306.438199,-0.000000,9252.574275
2438.583622,229.828649,-74.020594,9104.533087
2438.583951,306.438199,-74.020594,9104.533087
2438.584280,536.266849,-148.041188,9178.553681
2438.584609,229.828649,-296.082377,9178.553681
2438.584938,536.266849,-370.102971,9326.594869
2438.585267,306.438199,-518.144159,9326.594869
2438.585596,153.219100,-296.082377,8956.491898
2438.585925,536.266849,-222.061783,8956.491898
2438.586254,229.828649,-296.082377,8956.491898
2438.586583,536.266849,148.041188,9548.656652
2438.586912,153.219100,-148.041188,9178.553681
2438.587241,459.657299,-0.000000,9326.594869
2438.587570,153.219100,-0.000000,9030.512492
2438.587899,229.828649,-148.041188,8808.450710
2438.588228,306.438199,-74.020594,9030.512492
2438.588557,229.828649,-0.000000,9030.512492
2438.588886,459.657299,-222.061783,8808.450710
2438.589215,153.219100,-148.041188,9104.533087
2438.589544,306.438199,-222.061783,8956.491898
2438.589872,76.609550,-0.000000,9104.533087
2438.590201,306.438199,-0.000000,9030.512492
2438.590530,459.657299,-0.000000,9104.533087
2438.590859,229.828649,-148.041188,8808.450710
2438.591188,536.266849,-74.020594,9178.553681
2438.591517,153.219100,-74.020594,9252.574275
2438.591846,459.657299,-444.123565,9030.512492
2438.592175,536.266849,-148.041188,9400.615463
2438.592504,459.657299,-148.041188,9104.533087
2438.592833,229.828649,-74.020594,8956.491898
2438.593162,76.609550,-74.020594,9104.533087
2438.593491,459.657299,-592.164754,9252.574275
2438.593820,153.219100,-592.164754,9104.533087
2438.594149,459.657299,-592.164754,9104.533087
2438.594478,-383.047749,-0.000000,9474.636058
2438.594807,306.438199,-148.041188,9474.636058
2438.595136,689.485948,-444.123565,9548.656652
2438.595465,1455.581446,-1184.329507,9548.656652
2438.595794,1762.019645,-666.185348,9252.574275
2438.596123,2068.457845,-740.205942,9474.636058
2438.596452,2145.067394,-518.144159,9252.574275
2438.596781,2681.334243,-74.020594,8734.430116
2438.597110,3294.210641,444.123565,9178.553681
2438.597439,4060.306139,-0.000000,8734.430116
2438.597768,3600.648841,296.082377,8586.388927
2438.598097,2681.334243,518.144159,8586.388927
2438.598426,2834.553343,296.082377,8660.409521
2438.598755,2987.772442,-148.041188,9474.636058
2438.599084,2068.457845,-592.164754,9252.574275
2438.599412,1302.362347,-592.164754,9474.636058
2438.599741,2298.286494,-1998.556043,9844.739029
2438.600070,2834.553343,-1258.350101,9178.553681
2438.600399,2834.553343,-148.041188,9326.594869
2438.600728,3294.210641,-1406.391290,9696.697840
2438.601057,3753.867940,-592.164754,9030.512492
2438.601386,4826.401637,962.267725,9918.759623
2438.601715,5669.106685,888.247130,7254.018232
2438.602044,4673.182538,1406.391290,8216.285956
2438.602373,5056.230287,1184.329507,9030.512492
2438.602702,4903.011187,814.226536,7031.956449
2438.603031,3983.696590,296.082377,8808.450710
2438.603360,2681.334243,-74.020594,8734.430116
2438.603689,2145.067394,-74.020594,9474.636058
2438.604018,1455.581446,-962.267725,9622.677246
2438.604347,766.095498,-1480.411884,9474.636058
2438.604676,1072.533697,-1332.370696,10140.821405
2438.605005,229.828649,-1628.453072,9622.677246
2438.605334,1608.800546,-814.226536,9696.697840
2438.605663,1608.800546,-740.205942,10362.883188
2438.605992,2681.334243,666.185348,7920.203579
2438.606321,3370.820191,296.082377,9326.594869
2438.606650,3753.867940,1628.453072,8512.368333
2438.606979,3753.867940,1406.391290,7994.224174
2438.607308,4060.306139,1406.391290,8216.285956
2438.607637,3140.991542,370.102971,8660.409521
2438.607966,2145.067394,-74.020594,8882.471304
2438.608295,1378.971896,-888.247130,9326.594869
2438.608624,229.828649,-1332.370696,9474.636058
2438.608952,-229.828649,-1776.494261,10510.924376
2438.609281,-919.314598,-1924.535449,9696.697840
2438.609610,-383.047749,-2146.597232,10140.821405
2438.609939,-536.266849,-1258.350101,9844.739029
2438.610268,0.000000,-444.123565,9770.718434
2438.610597,306.438199,296.082377,9030.512492
2438.610926,919.314598,740.205942,9104.533087
2438.611255,1532.190996,1554.432478,8586.388927
2438.611584,2068.457845,1924.535449,7328.038826
2438.611913,1532.190996,1480.411884,7772.162391
2438.612242,1608.800546,2146.597232,8142.265362
2438.612571,1762.019645,1332.370696,8142.265362
2438.612900,689.485948,888.247130,8290.306550
2438.613229,383.047749,-0.000000,8438.347739
2438.613558,-229.828649,-518.144159,9030.512492
2438.613887,-842.705048,-1332.370696,9474.636058
2438.614216,-842.705048,-1776.494261,9770.718434
2438.614545,-536.266849,-2368.659014,9918.759623
2438.614874,-536.266849,-1850.514855,9770.718434
2438.615203,-229.828649,-1850.514855,10362.883188
2438.615532,0.000000,-962.267725,10510.924376
2438.615861,842.705048,-592.164754,10066.800811
2438.616190,1991.848295,-74.020594,9696.697840
2438.616519,2681.334243,888.247130,8956.491898
2438.616848,3677.258390,1702.473667,8438.347739
2438.617177,3830.477490,2516.700203,8216.285956
2438.617506,3140.991542,3108.864956,7772.162391
2438.617835,2834.553343,2812.782580,7402.059420
2438.618164,1762.019645,2294.638420,7624.121203
2438.618493,306.438199,1110.308913,8068.244768
2438.618821,-842.705048,-666.185348,9030.512492
2438.619150,-2145.067394,-2220.617826,10362.883188
2438.619479,-2757.943793,-2812.782580,10214.842000
2438.619808,-1685.410096,-2664.741391,9548.656652
2438.620137,-1991.848295,-2294.638420,9548.656652
2438.620466,-2451.505594,-2220.617826,10881.027347
2438.620795,-2145.067394,-2590.720797,11399.171507
2438.621124,-1532.190996,-2072.576638,11547.212695
2438.621453,-229.828649,-1776.494261,10066.800811
2438.621782,0.000000,-592.164754,10288.862594
2438.622111,-383.047749,962.267725,8734.430116
2438.622440,0.000000,592.164754,10362.883188
2438.622769,612.876398,444.123565,9326.594869
2438.623098,2298.286494,1702.473667,8734.430116
2438.623427,2834.553343,2738.761985,5403.503377
2438.623756,3447.429741,3552.988522,4441.235652
2438.624085,2604.724693,2664.741391,5255.462188
2438.624414,1762.019645,2072.576638,6143.709319
2438.624743,842.705048,148.041188,7698.141797
2438.625072,0.000000,-2368.659014,8364.327145
2438.625401,-1378.971896,-3404.947333,9548.656652
2438.625730,-2068.457845,-4367.215058,10955.047942
2438.626059,-1838.629195,-3330.926739,9696.697840
2438.626388,-1378.971896,-3256.906145,11325.150913
2438.626717,0.000000,-2220.617826,11917.315666
2438.627046,-153.219100,-148.041188,11695.253884
2438.627375,842.705048,592.164754,10510.924376
2438.627704,76.609550,1036.288319,9844.739029
2438.628033,459.657299,444.123565,10881.027347
2438.628361,2145.067394,1554.432478,9030.512492
2438.628690,3217.601092,3404.947333,5921.647536
2438.629019,3907.087040,2960.823768,6661.853478
2438.629348,3447.429741,3701.029710,4885.359217
2438.629677,3370.820191,2368.659014,6735.874072
2438.630006,459.657299,148.041188,6809.894666
2438.630335,-766.095498,-1850.514855,7994.224174
2438.630664,-1302.362347,-4145.153275,11103.089130
2438.630993,-2451.505594,-2738.761985,9400.615463
2438.631322,-2528.115143,-2960.823768,11103.089130
2438.631651,-2604.724693,-4219.173869,11103.089130
2438.631980,-1455.581446,-2368.659014,12139.377449
2438.632309,-1455.581446,-1776.494261,12213.398043
2438.632638,0.000000,-74.020594,10658.965565
2438.632967,306.438199,370.102971,9918.759623
2438.633296,0.000000,1480.411884,9474.636058
2438.633625,-229.828649,2146.597232,9918.759623
2438.633954,76.609550,1850.514855,8438.347739
2438.634283,1991.848295,1480.411884,8216.285956
2438.634612,2145.067394,2442.679609,5255.462188
2438.634941,2987.772442,2072.576638,5403.503377
2438.635270,1838.629195,1554.432478,5477.523971
2438.635599,1838.629195,370.102971,6587.832884
2438.635928,1072.533697,-962.267725,8660.409521
2438.636257,0.000000,-814.226536,8438.347739
2438.636586,-459.657299,-2442.679609,10214.842000
2438.636915,-1685.410096,-2886.803174,10732.986159
2438.637244,-1149.143247,-2368.659014,10732.986159
2438.637573,-612.876398,-2442.679609,11843.295072
2438.637901,229.828649,-666.185348,11029.068536
2438.638230,306.438199,-0.000000,11325.150913
2438.638559,1378.971896,444.123565,11547.212695
2438.638888,2374.896044,1998.556043,9104.533087
2438.639217,2987.772442,1924.535449,8364.327145
2438.639546,3524.039291,2812.782580,6735.874072
2438.639875,3600.648841,4145.153275,6587.832884
2438.640204,3064.381992,2368.659014,6735.874072
2438.640533,1762.019645,1850.514855,7031.956449
2438.640862,689.485948,-370.102971,8068.244768
2438.641191,-1149.143247,-1554.432478,8512.368333
2438.641520,-1991.848295,-2442.679609,9622.677246
2438.641849,-1685.410096,-2812.782580,10288.862594
2438.642178,-1762.019645,-2294.638420,9548.656652
2438.642507,-2298.286494,-2368.659014,11177.109724
2438.642836,-2298.286494,-3256.906145,12065.356855
2438.643165,-1608.800546,-1554.432478,11103.089130
2438.643494,-842.705048,-888.247130,10436.903782
2438.643823,-306.438199,-814.226536,9770.718434
2438.644152,0.000000,666.185348,9030.512492
2438.644481,-612.876398,740.205942,9548.656652
2438.644810,-383.047749,740.205942,9326.594869
2438.645139,306.438199,1036.288319,7994.224174
2438.645468,1915.238745,1110.308913,7105.977043
2438.645797,1455.581446,1702.473667,5033.400406
2438.646126,1685.410096,1850.514855,5625.565159
2438.646455,612.876398,814.226536,6809.894666
2438.646784,766.095498,666.185348,6957.935855
2438.647113,0.000000,-592.164754,9104.533087
2438.647441,-459.657299,-1554.432478,8660.409521
2438.647770,0.000000,-2886.803174,10066.800811
2438.648099,-919.314598,-2368.659014,10214.842000
2438.648428,-766.095498,-2294.638420,10658.965565
2438.648757,-383.047749,-1850.514855,11325.150913
2438.649086,536.266849,-518.144159,10881.027347
2438.649416,229.828649,-0.000000,10955.047942
2438.649745,306.438199,-666.185348,10214.842000
2438.650074,0.000000,-0.000000,9992.780217
2438.650403,919.314598,-0.000000,9844.739029
2438.650732,1838.629195,1776.494261,8216.285956
2438.651061,2987.772442,2812.782580,6587.832884
2438.651390,3140.991542,2368.659014,6365.771101
2438.651719,2451.505594,2738.761985,6365.771101
2438.652048,1838.629195,1258.350101,7328.038826
2438.652377,612.876398,-74.020594,6883.915261
2438.652706,-153.219100,-1776.494261,9696.697840
2438.653035,-995.924147,-2368.659014,10510.924376
2438.653364,-1608.800546,-2146.597232,9474.636058
2438.653693,-1685.410096,-2590.720797,10881.027347
2438.654022,-1455.581446,-2294.638420,10510.924376
2438.654351,-1072.533697,-1184.329507,10955.047942
2438.654680,229.828649,-1184.329507,11251.130318
2438.655009,383.047749,-222.061783,10362.883188
2438.655339,229.828649,-74.020594,10214.842000
2438.655668,-229.828649,1110.308913,9104.533087
2438.655997,-306.438199,962.267725,9178.553681
2438.656326,0.000000,814.226536,8882.471304
2438.656655,1762.019645,1332.370696,8364.327145
2438.656984,1991.848295,2220.617826,6513.812290
2438.657313,1915.238745,1998.556043,6365.771101
2438.657642,1685.410096,1480.411884,6513.812290
2438.657971,1685.410096,296.082377,7328.038826
2438.658300,995.924147,-222.061783,8290.306550
2438.658629,153.219100,-1110.308913,8808.450710
2438.658958,-76.609550,-1998.556043,9918.759623
2438.659287,-995.924147,-2368.659014,10214.842000
2438.659616,-842.705048,-1924.535449,10584.944971
2438.659945,-459.657299,-2294.638420,11177.109724
2438.660274,306.438199,-1258.350101,10584.944971
2438.660603,689.485948,-296.082377,11103.089130
2438.660932,1072.533697,222.061783,10288.862594
2438.661261,1608.800546,1184.329507,8808.450710
2438.661591,2681.334243,1776.494261,8290.306550
2438.661920,2911.162892,2812.782580,7105.977043
2438.662249,3064.381992,3256.906145,6513.812290
2438.662578,2221.676944,2368.659014,7105.977043
2438.662907,1225.752797,1628.453072,7105.977043
2438.663236,0.000000,222.061783,7994.224174
2438.663565,-1072.533697,-1480.411884,8956.491898
2438.663894,-1455.581446,-2812.782580,9918.759623
2438.664223,-1915.238745,-1776.494261,8882.471304
2438.664552,-1915.238745,-2664.741391,10288.862594
2438.664881,-2298.286494,-2664.741391,10881.027347
2438.665210,-1838.629195,-2368.659014,11547.212695
2438.665539,-1685.410096,-1702.473667,11103.089130
2438.665868,-995.924147,-1258.350101,10584.944971
2438.666197,-229.828649,-962.267725,10510.924376
2438.666526,-229.828649,222.061783,9400.615463
2438.666855,0.000000,1480.411884,9400.615463
2438.667184,76.609550,962.267725,9474.636058
2438.667514,1302.362347,1406.391290,7920.203579
2438.667843,2451.505594,2072.576638,6365.771101
2438.668172,2298.286494,1924.535449,5625.565159
2438.668501,2298.286494,1554.432478,5477.523971
2438.668830,1225.752797,888.247130,7254.018232
2438.669159,612.876398,222.061783,7624.121203
2438.669488,0.000000,-1036.288319,8512.368333
2438.669817,-1072.533697,-2812.782580,9400.615463
2438.670146,-1149.143247,-2812.782580,10140.821405
2438.670475,-1225.752797,-2886.803174,10881.027347
2438.670804,-1991.848295,-2738.761985,11251.130318
2438.671133,153.219100,-1924.535449,11251.130318
2438.671462,153.219100,-666.185348,11399.171507
2438.671791,229.828649,222.061783,10881.027347
2438.672120,153.219100,-296.082377,10510.924376
2438.672449,1149.143247,-74.020594,10732.986159
2438.672778,2298.286494,1998.556043,7624.121203
2438.673107,3294.210641,3182.885551,7254.018232
2438.673436,2911.162892,2960.823768,5625.565159
2438.673766,3447.429741,2738.761985,6883.915261
2438.674095,1915.238745,1702.473667,7402.059420
2438.674424,229.828649,518.144159,7328.038826
2438.674753,-842.705048,-1702.473667,8734.430116
2438.675082,-1532.190996,-3034.844362,10510.924376
2438.675411,-1685.410096,-2220.617826,9548.656652
2438.675740,-1532.190996,-2664.741391,10732.986159
2438.676069,-1455.581446,-2590.720797,10807.006753
2438.676398,-1378.971896,-2294.638420,11769.274478
2438.676727,-1072.533697,-1628.453072,11325.150913
2438.677056,-459.657299,-444.123565,10214.842000
2438.677385,612.876398,-740.205942,10510.924376
2438.677714,0.000000,1036.288319,8882.471304
2438.678043,0.000000,1184.329507,9992.780217
2438.678372,76.609550,370.102971,8882.471304
2438.678701,1991.848295,1184.329507,8216.285956
2438.679030,2451.505594,1628.453072,7031.956449
2438.679359,2757.943793,2072.576638,5181.441594
2438.679689,2451.505594,1406.391290,5995.668130
2438.680018,1608.800546,1110.308913,6291.750507
2438.680347,1915.238745,222.061783,7402.059420
2438.680676,459.657299,-740.205942,8216.285956
2438.681005,-459.657299,-2220.617826,9400.615463
2438.681334,-995.924147,-2812.782580,10955.047942
2438.681663,-995.924147,-2368.659014,10436.903782
2438.681992,-842.705048,-2294.638420,11029.068536
2438.682321,0.000000,-1776.494261,11029.068536
2438.682650,459.657299,-222.061783,11251.130318
2438.682979,842.705048,-0.000000,11325.150913
2438.683308,1762.019645,814.226536,9548.656652
2438.683637,2374.896044,1628.453072,8438.347739
2438.683966,3370.820191,2442.679609,7476.080014
2438.684295,3294.210641,3552.988522,6439.791695
2438.684624,2757.943793,2590.720797,7031.956449
2438.684953,2604.724693,2146.597232,7402.059420
2438.685282,1608.800546,296.082377,7179.997637
2438.685611,-383.047749,-814.226536,8512.368333
2438.685941,-1225.752797,-2886.803174,9548.656652
2438.686270,-1302.362347,-2812.782580,9770.718434
2438.686599,-1149.143247,-2072.576638,9400.615463
2438.686928,-1608.800546,-2368.659014,10658.965565
2438.687257,-1915.238745,-2368.659014,11103.089130
2438.687586,-919.314598,-2072.576638,11991.336260
2438.687915,-1149.143247,-1110.308913,11103.089130
2438.688244,-306.438199,-888.247130,10510.924376
2438.688573,-229.828649,-222.061783,10362.883188
2438.688902,-612.876398,1258.350101,8660.409521
2438.689231,-153.219100,1110.308913,9992.780217
2438.689560,229.828649,666.185348,8660.409521
2438.689889,842.705048,740.205942,7179.997637
2438.690218,1225.752797,444.123565,7402.059420
2438.690547,1378.971896,1850.514855,5329.482782
2438.690876,1378.971896,814.226536,7105.977043
2438.691205,1149.143247,888.247130,6587.832884
2438.691534,1225.752797,666.185348,7698.141797
2438.691864,612.876398,-1480.411884,8660.409521
2438.692193,0.000000,-1776.494261,8808.450710
2438.692522,-995.924147,-2368.659014,10214.842000
2438.692851,-689.485948,-2368.659014,10510.924376
2438.693180,-612.876398,-1998.556043,10510.924376
2438.693509,-153.219100,-1850.514855,11473.192101
2438.693838,0.000000,-148.041188,10732.986159
2438.694167,0.000000,-370.102971,10881.027347
2438.694496,229.828649,-222.061783,10288.862594
2438.694825,1455.581446,1258.350101,8586.388927
2438.695154,2757.943793,1924.535449,7920.203579
2438.695483,2681.334243,3108.864956,6735.874072
2438.695812,2757.943793,2664.741391,6883.915261
2438.696141,2145.067394,1998.556043,7105.977043
2438.696470,766.095498,740.205942,6883.915261
2438.696799,153.219100,-370.102971,7846.182985
2438.697128,-766.095498,-2368.659014,9030.512492
2438.697457,-766.095498,-2886.803174,10955.047942
2438.697786,-1302.362347,-2812.782580,9844.739029
2438.698116,-689.485948,-2294.638420,10288.862594
2438.698445,-995.924147,-1628.453072,10658.965565
2438.698774,-383.047749,-1110.308913,10510.924376
2438.699103,0.000000,-518.144159,10584.944971
2438.699432,0.000000,-370.102971,10658.965565
2438.699761,0.000000,-148.041188,9992.780217
2438.700090,-383.047749,1036.288319,9770.718434
2438.700419,-459.657299,518.144159,9400.615463
2438.700748,-153.219100,1036.288319,8512.368333
2438.701077,1532.190996,1184.329507,8290.306550
2438.701406,2374.896044,1258.350101,6735.874072
2438.701735,2374.896044,1702.473667,6143.709319
2438.702064,1532.190996,2220.617826,6809.894666
2438.702393,1991.848295,666.185348,7105.977043
2438.702722,919.314598,222.061783,7624.121203
2438.703051,459.657299,-814.226536,8438.347739
2438.703380,-306.438199,-2146.597232,9548.656652
2438.703709,-1149.143247,-2442.679609,10584.944971
2438.704039,-612.876398,-2146.597232,10881.027347
2438.704368,-689.485948,-2664.741391,10881.027347
2438.704697,-383.047749,-1406.391290,10807.006753
2438.705026,76.609550,-592.164754,10881.027347
2438.705355,766.095498,-0.000000,10955.047942
2438.705684,1532.190996,1184.329507,9474.636058
2438.706013,2451.505594,1702.473667,8364.327145
2438.706342,2911.162892,2294.638420,7105.977043
2438.706671,2068.457845,3182.885551,6957.935855
2438.707000,2451.505594,2516.700203,7105.977043
2438.707329,1685.410096,1406.391290,7105.977043
2438.707658,536.266849,-148.041188,7772.162391
2438.707987,-383.047749,-1258.350101,8808.450710
2438.708316,-1838.629195,-2590.720797,10584.944971
2438.708645,-2374.896044,-2886.803174,10066.800811
2438.708974,-1532.190996,-1924.535449,9992.780217
2438.709303,-2145.067394,-2072.576638,10584.944971
2438.709632,-1838.629195,-1776.494261,10881.027347
2438.709961,-1302.362347,-1110.308913,11547.212695
2438.710291,76.609550,-222.061783,10658.965565
2438.710620,306.438199,-0.000000,9992.780217
2438.710949,-459.657299,370.102971,9548.656652
2438.711278,-689.485948,1258.350101,9548.656652
2438.711607,-689.485948,296.082377,9844.739029
2438.711936,1072.533697,1036.288319,8216.285956
2438.712265,2298.286494,1850.514855,5847.626942
2438.712594,2834.553343,1924.535449,5625.565159
2438.712923,1685.410096,1776.494261,5625.565159
2438.713252,1149.143247,1258.350101,6809.894666
2438.713581,459.657299,-0.000000,7476.080014
2438.713910,306.438199,-666.185348,8068.244768
2438.714239,-612.876398,-2146.597232,9178.553681
2438.714568,-1532.190996,-2886.803174,10510.924376
2438.714897,-1762.019645,-2664.741391,10140.821405
2438.715226,-995.924147,-2220.617826,10510.924376
2438.715555,-306.438199,-1776.494261,10881.027347
2438.715884,-306.438199,-222.061783,10955.047942
2438.716213,536.266849,296.082377,10881.027347
2438.716543,306.438199,-0.000000,10362.883188
2438.716872,1915.238745,222.061783,9474.636058
2438.717201,2834.553343,2072.576638,7402.059420
2438.717530,3447.429741,2886.803174,6957.935855
2438.717859,3064.381992,3034.844362,6217.729913
2438.718188,3294.210641,2220.617826,6883.915261
2438.718517,2068.457845,1332.370696,7254.018232
2438.718846,766.095498,-222.061783,7476.080014
2438.719175,-1225.752797,-1850.514855,9178.553681
2438.719504,-1532.190996,-2960.823768,10658.965565
2438.719833,-2221.676944,-3182.885551,10362.883188
2438.720162,-1608.800546,-2294.638420,9992.780217
2438.720491,-1455.581446,-2960.823768,10955.047942
2438.720820,-1302.362347,-2368.659014,11177.109724
2438.721149,-306.438199,-1110.308913,11547.212695
2438.721478,-229.828649,-518.144159,10066.800811
2438.721807,229.828649,-148.041188,9252.574275
2438.722136,-153.219100,888.247130,9770.718434
2438.722466,-153.219100,444.123565,9696.697840
2438.722795,1455.581446,592.164754,9030.512492
2438.723124,2911.162892,2146.597232,6143.709319
2438.723453,3753.867940,2220.617826,6069.688724
2438.723782,2298.286494,2146.597232,5773.606348
2438.724111,2298.286494,1998.556043,6661.853478
2438.724440,1072.533697,444.123565,7328.038826
2438.724769,229.828649,-592.164754,8364.327145
2438.725098,-536.266849,-1924.535449,9844.739029
2438.725427,-1685.410096,-2960.823768,10658.965565
2438.725756,-1608.800546,-2886.803174,10510.924376
2438.726085,-1378.971896,-2590.720797,10955.047942
2438.726414,-383.047749,-2294.638420,10732.986159
2438.726743,229.828649,-888.247130,10732.986159
2438.727072,153.219100,-0.000000,10807.006753
2438.727401,153.219100,-592.164754,10066.800811
2438.727730,1608.800546,-518.144159,10362.883188
2438.728059,2604.724693,1702.473667,7698.141797
2438.728388,3830.477490,2368.659014,7550.100608
2438.728718,3600.648841,3256.906145,6365.771101
2438.729047,3294.210641,3256.906145,6587.832884
2438.729376,2145.067394,2368.659014,7328.038826
2438.729705,919.314598,888.247130,7254.018232
2438.730034,-689.485948,-666.185348,8438.347739
2438.730363,-1991.848295,-2146.597232,10658.965565
2438.730692,-2221.676944,-2516.700203,10288.862594
2438.731021,-2681.334243,-2294.638420,9474.636058
2438.731350,-2068.457845,-3034.844362,11325.150913
2438.731679,-2451.505594,-2368.659014,10732.986159
2438.732008,-1455.581446,-1998.556043,11325.150913
2438.732337,-1685.410096,-1258.350101,10436.903782
2438.732666,76.609550,-1332.370696,9844.739029
2438.732995,-306.438199,444.123565,9548.656652
2438.733324,-459.657299,1258.350101,8734.430116
2438.733653,-383.047749,296.082377,9770.718434
2438.733982,1225.752797,592.164754,9326.594869
2438.734311,2834.553343,1776.494261,6143.709319
2438.734641,3140.991542,2220.617826,5625.565159
2438.734970,3217.601092,2590.720797,5033.400406
2438.735299,2068.457845,1702.473667,6809.894666
2438.735628,1302.362347,962.267725,7624.121203
2438.735957,306.438199,296.082377,7846.182985
2438.736286,-689.485948,-1924.535449,9104.533087
2438.736615,-1685.410096,-3108.864956,10584.944971
2438.736944,-2374.896044,-2664.741391,10658.965565
2438.737273,-995.924147,-3256.906145,10807.006753
2438.737602,-459.657299,-2442.679609,10881.027347
2438.737931,0.000000,-888.247130,11177.109724
2438.738260,0.000000,-0.000000,10955.047942
2438.738589,-306.438199,222.061783,10658.965565
2438.738918,0.000000,-592.164754,10881.027347
2438.739247,2068.457845,814.226536,9548.656652
2438.739576,2757.943793,3034.844362,7031.956449
2438.739905,4366.744339,2442.679609,7105.977043
2438.740234,3753.867940,3256.906145,6143.709319
2438.740563,3753.867940,2664.741391,7031.956449
2438.740893,2221.676944,1850.514855,6735.874072
2438.741222,842.705048,-0.000000,7476.080014
2438.741551,-612.876398,-2294.638420,9992.780217
2438.741880,-1455.581446,-2812.782580,10584.944971
2438.742209,-1915.238745,-3182.885551,10214.842000
2438.742538,-1532.190996,-2960.823768,10584.944971
2438.742867,-1685.410096,-2738.761985,10732.986159
2438.743196,-1225.752797,-1776.494261,10807.006753
2438.743525,-383.047749,-1406.391290,11029.068536
2438.743854,0.000000,-814.226536,10436.903782
2438.744183,383.047749,-370.102971,9548.656652
2438.744512,-153.219100,1110.308913,9548.656652
2438.744841,-536.266849,1036.288319,9252.574275
2438.745170,0.000000,592.164754,9178.553681
2438.745499,1455.581446,666.185348,8364.327145
2438.745828,1608.800546,1332.370696,5995.668130
2438.746157,2221.676944,1628.453072,6439.791695
2438.746486,1608.800546,1110.308913,6365.771101
2438.746816,2451.505594,888.247130,6957.935855
2438.747145,1225.752797,-148.041188,7846.182985
2438.747474,306.438199,-444.123565,7920.203579
2438.747803,-459.657299,-2368.659014,9622.677246
2438.748132,-1302.362347,-2442.679609,10288.862594
2438.748461,-1302.362347,-2664.741391,10881.027347
2438.748790,-842.705048,-2886.803174,10436.903782
2438.749119,536.266849,-1998.556043,10658.965565
2438.749448,153.219100,-592.164754,10807.006753
2438.749777,612.876398,-0.000000,10362.883188
2438.750106,1149.143247,1110.308913,9696.697840
2438.750435,2451.505594,1702.473667,8290.306550
2438.750765,2757.943793,2664.741391,7105.977043
2438.751094,2987.772442,3034.844362,6587.832884
2438.751423,1991.848295,2590.720797,6809.894666
2438.751752,1915.238745,1998.556043,7105.977043
2438.752081,689.485948,592.164754,7698.141797
2438.752410,-766.095498,-888.247130,8512.368333
2438.752739,-1532.190996,-2442.679609,10288.862594
2438.753068,-1455.581446,-2590.720797,10214.842000
2438.753397,-1532.190996,-2590.720797,9918.759623
2438.753726,-1685.410096,-2146.597232,10807.006753
2438.754055,-1685.410096,-2072.576638,10807.006753
2438.754384,-1455.581446,-1332.370696,11473.192101
2438.754714,-842.705048,-666.185348,10732.986159
2438.755043,153.219100,-518.144159,10362.883188
2438.755372,0.000000,370.102971,10066.800811
2438.755701,-612.876398,888.247130,9252.574275
2438.756030,-153.219100,518.144159,10214.842000
2438.756359,76.609550,1110.308913,8808.450710
2438.756688,1762.019645,1480.411884,8068.244768
2438.757017,2221.676944,1924.535449,5995.668130
2438.757346,2145.067394,2220.617826,6291.750507
2438.757675,1455.581446,1258.350101,6883.915261
2438.758004,1378.971896,370.102971,7031.956449
2438.758334,842.705048,-222.061783,8586.388927
2438.758663,0.000000,-1258.350101,8586.388927
2438.758992,-1072.533697,-2368.659014,10066.800811
2438.759321,-1302.362347,-2590.720797,10955.047942
2438.759650,-919.314598,-2368.659014,10288.862594
2438.759979,0.000000,-1850.514855,11325.150913
2438.760308,0.000000,-1554.432478,11103.089130
2438.760637,459.657299,-666.185348,10732.986159
2438.760966,76.609550,-148.041188,10881.027347
2438.761295,1072.533697,222.061783,9918.759623
2438.761624,2068.457845,1332.370696,7846.182985
2438.761953,3140.991542,2442.679609,7254.018232
2438.762283,3370.820191,2442.679609,6143.709319
2438.762612,3140.991542,2516.700203,6661.853478
2438.762941,2298.286494,1776.494261,6735.874072
2438.763270,1915.238745,370.102971,7105.977043
2438.763599,-766.095498,-1406.391290,8438.347739
2438.763928,-1608.800546,-2664.741391,9474.636058
2438.764257,-1762.019645,-3182.885551,10658.965565
2438.764586,-2221.676944,-2516.700203,9770.718434
2438.764915,-1762.019645,-2664.741391,10955.047942
2438.765244,-1991.848295,-2368.659014,10658.965565
2438.765573,-842.705048,-1332.370696,11029.068536
2438.765903,-995.924147,-814.226536,10362.883188
2438.766232,76.609550,-592.164754,9474.636058
2438.766561,153.219100,296.082377,9326.594869
2438.766890,-306.438199,1406.391290,9474.636058
2438.767219,0.000000,592.164754,9252.574275
2438.767548,842.705048,962.267725,8512.368333
2438.767877,2451.505594,1554.432478,6513.812290
2438.768206,2834.553343,1702.473667,5551.544565
2438.768535,2145.067394,1258.350101,5847.626942
2438.768864,1608.800546,1184.329507,6735.874072
2438.769193,919.314598,-444.123565,7772.162391
2438.769522,76.609550,-592.164754,8882.471304
2438.769852,-612.876398,-2220.617826,9770.718434
2438.770181,-1072.533697,-2664.741391,10955.047942
2438.770510,-1838.629195,-2368.659014,10584.944971
2438.770839,-689.485948,-2220.617826,10955.047942
2438.771168,-306.438199,-1628.453072,11029.068536
2438.771497,229.828649,-148.041188,10881.027347
2438.771826,0.000000,148.041188,11103.089130
2438.772155,689.485948,-0.000000,10510.924376
2438.772484,1762.019645,1036.288319,8660.409521
2438.772813,3370.820191,2368.659014,7994.224174
2438.773142,2987.772442,3182.885551,6439.791695
2438.773472,3064.381992,3256.906145,6809.894666
2438.773801,2298.286494,2590.720797,7105.977043
2438.774130,995.924147,1480.411884,7105.977043
2438.774459,0.000000,-518.144159,8290.306550
2438.774788,-1532.190996,-1628.453072,9696.697840
2438.775117,-2068.457845,-2812.782580,10584.944971
2438.775446,-2221.676944,-2442.679609,9400.615463
2438.775775,-2145.067394,-2442.679609,10955.047942
2438.776104,-2451.505594,-2664.741391,11473.192101
2438.776433,-1532.190996,-1998.556043,11843.295072
2438.776762,-842.705048,-1110.308913,11251.130318
2438.777091,76.609550,-888.247130,10436.903782
2438.777421,229.828649,-0.000000,9326.594869
2438.777750,-689.485948,1406.391290,9030.512492
2438.778079,0.000000,518.144159,10584.944971
2438.778408,995.924147,888.247130,8808.450710
2438.778737,2911.162892,2368.659014,6069.688724
2438.779066,3064.381992,2220.617826,5551.544565
2438.779395,2451.505594,2294.638420,4663.297435
2438.779724,1838.629195,1628.453072,6735.874072
2438.780053,1072.533697,740.205942,7254.018232
2438.780382,229.828649,-0.000000,8216.285956
2438.780711,-689.485948,-1628.453072,9400.615463
2438.781041,-1532.190996,-2738.761985,10140.821405
2438.781370,-2145.067394,-2960.823768,10436.903782
2438.781699,-1378.971896,-2812.782580,10807.006753
2438.782028,-383.047749,-2590.720797,11251.130318
2438.782357,0.000000,-888.247130,11325.150913
2438.782686,153.219100,-0.000000,10584.944971
2438.783015,306.438199,-0.000000,10510.924376
2438.783344,689.485948,-592.164754,10584.944971
2438.783673,2604.724693,1110.308913,8512.368333
2438.784002,3830.477490,2294.638420,7179.997637
2438.784331,3600.648841,2590.720797,6587.832884
2438.784661,4060.306139,3256.906145,5255.462188
2438.784990,2987.772442,2442.679609,6735.874072
2438.785319,1302.362347,1036.288319,6587.832884
2438.785648,0.000000,-296.082377,7624.121203
2438.785977,-1762.019645,-2294.638420,10288.862594
2438.786306,-2221.676944,-2886.803174,10584.944971
2438.786635,-2451.505594,-3108.864956,9770.718434
2438.786964,-2298.286494,-3182.885551,10881.027347
2438.787293,-2145.067394,-3034.844362,11695.253884
2438.787622,-1838.629195,-1480.411884,11103.089130
2438.787951,-842.705048,-888.247130,11177.109724
2438.788280,-459.657299,-962.267725,10140.821405
2438.788610,459.657299,-0.000000,9400.615463
2438.788939,-689.485948,1924.535449,9326.594869
2438.789268,-536.266849,296.082377,9918.759623
2438.789597,919.314598,518.144159,9030.512492
2438.789926,2757.943793,1554.432478,6809.894666
2438.790255,3294.210641,2146.597232,5699.585753
2438.790584,2681.334243,2146.597232,5551.544565
2438.790913,1838.629195,2368.659014,6883.915261
2438.791242,1991.848295,888.247130,7698.141797
2438.791571,766.095498,-222.061783,7994.224174
2438.791900,-306.438199,-1258.350101,9178.553681
2438.792230,-1149.143247,-2960.823768,10658.965565
2438.792559,-2145.067394,-2664.741391,10881.027347
2438.792888,-1532.190996,-2590.720797,10584.944971
2438.793217,-536.266849,-2812.782580,10955.047942
2438.793546,76.609550,-1332.370696,11251.130318
2438.793875,153.219100,296.082377,10584.944971
2438.794204,383.047749,-0.000000,10807.006753
2438.794533,1302.362347,296.082377,9770.718434
2438.794862,2528.115143,1702.473667,7772.162391
2438.795191,3447.429741,2664.741391,6957.935855
2438.795520,3370.820191,2886.803174,7105.977043
2438.795849,2987.772442,2664.741391,6661.853478
2438.796179,1455.581446,2368.659014,7105.977043
2438.796508,995.924147,740.205942,7328.038826
2438.796837,-459.657299,-888.247130,8660.409521
2438.797166,-1762.019645,-1998.556043,9696.697840
2438.797495,-1149.143247,-3034.844362,10658.965565
2438.797824,-1991.848295,-2220.617826,9770.718434
2438.798153,-1762.019645,-3108.864956,11103.089130
2438.798482,-1762.019645,-2368.659014,11177.109724
2438.798811,-1302.362347,-888.247130,10807.006753
2438.799140,-919.314598,-962.267725,10658.965565
2438.799469,-229.828649,-962.267725,9992.780217
2438.799799,0.000000,-0.000000,9474.636058
2438.800128,-383.047749,740.205942,9178.553681
2438.800457,-229.828649,518.144159,9178.553681
2438.800786,842.705048,518.144159,8882.471304
2438.801115,2451.505594,1480.411884,6587.832884
2438.801444,2604.724693,1628.453072,5625.565159
2438.801773,2221.676944,1776.494261,5773.606348
2438.802102,2374.896044,1924.535449,7031.956449
2438.802431,1762.019645,814.226536,7328.038826
2438.802760,689.485948,-0.000000,7994.224174
2438.803089,0.000000,-1332.370696,9178.553681
2438.803418,-1302.362347,-2590.720797,10436.903782
2438.803748,-1378.971896,-2368.659014,10807.006753
2438.804077,-1149.143247,-2368.659014,10584.944971
2438.804406,-306.438199,-1924.535449,11251.130318
2438.804735,-153.219100,-1406.391290,10955.047942
2438.805064,229.828649,-370.102971,10732.986159
2438.805393,689.485948,-0.000000,10732.986159
2438.805722,1685.410096,666.185348,8808.450710
2438.806051,3064.381992,1850.514855,8142.265362
2438.806380,3294.210641,3108.864956,6957.935855
2438.806709,3677.258390,2664.741391,6957.935855
2438.807038,2757.943793,2368.659014,7624.121203
2438.807368,2834.553343,1480.411884,7105.977043
2438.807697,383.047749,518.144159,8142.265362
2438.808026,-919.314598,-1184.329507,8956.491898
2438.808355,-2145.067394,-2664.741391,10658.965565
2438.808684,-1915.238745,-2960.823768,10510.924376
2438.809013,-1532.190996,-2220.617826,9474.636058
2438.809342,-1608.800546,-2664.741391,11251.130318
2438.809671,-1838.629195,-1998.556043,10584.944971
2438.810000,-919.314598,-1184.329507,11103.089130
2438.810329,-612.876398,-1184.329507,10362.883188
2438.810658,0.000000,-444.123565,9474.636058
2438.810987,-306.438199,148.041188,9696.697840
2438.811317,-612.876398,740.205942,9178.553681
2438.811646,-306.438199,222.061783,9770.718434
2438.811975,1072.533697,740.205942,8734.430116
2438.812304,2451.505594,1258.350101,6661.853478
2438.812633,2298.286494,1850.514855,5625.565159
2438.812962,2221.676944,1850.514855,6069.688724
2438.813291,1685.410096,1776.494261,6661.853478
2438.813620,1685.410096,-74.020594,7698.141797
2438.813949,536.266849,-222.061783,8290.306550
2438.814278,-229.828649,-1628.453072,9252.574275
2438.814607,-1149.143247,-2664.741391,10732.986159
2438.814937,-1455.581446,-2294.638420,10436.903782
2438.815266,-689.485948,-2368.659014,10584.944971
2438.815595,-306.438199,-1776.494261,10732.986159
2438.815924,0.000000,-888.247130,10584.944971
2438.816253,0.000000,-0.000000,10584.944971
2438.816582,229.828649,-74.020594,11177.109724
2438.816911,766.095498,296.082377,9104.533087
2438.817240,2681.334243,1776.494261,7994.224174
2438.817569,3064.381992,2960.823768,6809.894666
2438.817898,2911.162892,2960.823768,6365.771101
2438.818227,2528.115143,2442.679609,7105.977043
2438.818556,2068.457845,1184.329507,6809.894666
2438.818886,995.924147,-0.000000,7772.162391
2438.819215,-1072.533697,-1258.350101,8882.471304
2438.819544,-1608.800546,-2590.720797,10436.903782
2438.819873,-1838.629195,-2442.679609,9918.759623
2438.820202,-1225.752797,-1998.556043,9696.697840
2438.820531,-1608.800546,-2368.659014,10436.903782
2438.820860,-1991.848295,-1776.494261,11177.109724
2438.821189,-1302.362347,-962.267725,12287.418637
2438.821518,-689.485948,-1332.370696,10510.924376
2438.821847,383.047749,-814.226536,9918.759623
2438.822176,-459.657299,592.164754,9252.574275
2438.822506,-459.657299,814.226536,9474.636058
2438.822835,-612.876398,1036.288319,9030.512492
2438.823164,1225.752797,888.247130,8142.265362
2438.823493,2068.457845,1258.350101,7031.956449
2438.823822,1915.238745,2146.597232,5921.647536
2438.824151,2145.067394,1480.411884,6439.791695
2438.824480,1455.581446,1258.350101,6587.832884
2438.824809,1685.410096,222.061783,7846.182985
2438.825138,383.047749,-74.020594,8290.306550
2438.825467,0.000000,-1702.473667,9178.553681
2438.825796,-1915.238745,-2886.803174,10955.047942
2438.826125,-1225.752797,-2368.659014,10510.924376
2438.826455,-612.876398,-1776.494261,10658.965565
2438.826784,-306.438199,-1776.494261,11103.089130
2438.827113,76.609550,-222.061783,10881.027347
2438.827442,306.438199,296.082377,11177.109724
2438.827771,612.876398,-0.000000,10881.027347
2438.828100,842.705048,888.247130,9104.533087
2438.828429,2298.286494,1406.391290,8068.244768
2438.828758,2757.943793,2516.700203,6439.791695
2438.829087,2451.505594,2664.741391,6513.812290
2438.829416,2298.286494,1998.556043,7105.977043
2438.829745,1378.971896,1184.329507,7402.059420
2438.830075,383.047749,-296.082377,8216.285956
2438.830404,-995.924147,-1998.556043,9400.615463
2438.830733,-1225.752797,-3108.864956,10066.800811
2438.831062,-1532.190996,-2368.659014,9622.677246
2438.831391,-919.314598,-2294.638420,10288.862594
2438.831720,-1455.581446,-2072.576638,10881.027347
2438.832049,-1149.143247,-1480.411884,11251.130318
2438.832378,-842.705048,-1554.432478,11325.150913
2438.832707,0.000000,-814.226536,9992.780217
2438.833036,306.438199,-592.164754,10140.821405
2438.833365,-536.266849,814.226536,9104.533087
2438.833694,-612.876398,814.226536,9548.656652
2438.834024,-612.876398,814.226536,8586.388927
2438.834353,689.485948,-0.000000,7550.100608
2438.834682,1072.533697,370.102971,7476.080014
2438.835011,1378.971896,518.144159,6439.791695
2438.835340,1685.410096,888.247130,6439.791695
2438.835669,1455.581446,444.123565,6809.894666
2438.835998,1378.971896,444.123565,7105.977043
2438.836327,995.924147,-148.041188,8660.409521
2438.836656,0.000000,-1702.473667,9030.512492
2438.836985,0.000000,-2220.617826,9770.718434
2438.837314,-919.314598,-2220.617826,10510.924376
2438.837644,-919.314598,-2072.576638,10955.047942
2438.837973,-612.876398,-1850.514855,11177.109724
2438.838302,0.000000,-370.102971,10955.047942
2438.838631,612.876398,-0.000000,10362.883188
2438.838960,1149.143247,740.205942,9400.615463
2438.839289,1838.629195,1776.494261,8512.368333
2438.839618,2681.334243,2294.638420,7698.141797
2438.839947,2681.334243,2664.741391,6957.935855
2438.840276,2298.286494,2368.659014,7105.977043
2438.840605,1302.362347,1480.411884,7624.121203
2438.840934,306.438199,222.061783,8142.265362
2438.841263,-995.924147,-814.226536,8808.450710
2438.841593,-1991.848295,-2220.617826,9770.718434
2438.841922,-2298.286494,-2442.679609,10881.027347
2438.842251,-1838.629195,-2220.617826,10362.883188
2438.842580,-1608.800546,-2442.679609,10955.047942
2438.842909,-1149.143247,-1332.370696,10436.903782
2438.843238,-842.705048,-814.226536,11103.089130
2438.843567,-383.047749,-444.123565,10436.903782
2438.843896,-153.219100,148.041188,9622.677246
2438.844226,0.000000,-592.164754,11029.068536
2438.844555,689.485948,296.082377,9400.615463
2438.844884,2374.896044,1554.432478,7476.080014
2438.845213,3370.820191,2442.679609,6661.853478
2438.845542,3370.820191,2960.823768,5181.441594
2438.845871,2987.772442,2442.679609,6809.894666
2438.846200,1762.019645,2072.576638,6513.812290
2438.846529,766.095498,592.164754,7254.018232
2438.846859,-229.828649,-1110.308913,8882.471304
2438.847188,-1685.410096,-1554.432478,9326.594869
2438.847517,-1915.238745,-3108.864956,10658.965565
2438.847846,-1685.410096,-2516.700203,10214.842000
2438.848175,-1302.362347,-2442.679609,10732.986159
2438.848504,-766.095498,-1998.556043,10955.047942
2438.848833,-229.828649,-592.164754,10658.965565
2438.849163,0.000000,-0.000000,10288.862594
2438.849492,459.657299,-1332.370696,11177.109724
2438.849821,1762.019645,666.185348,10214.842000
2438.850150,2834.553343,1406.391290,7920.203579
2438.850479,3907.087040,1998.556043,7105.977043
2438.850808,3983.696590,2886.803174,6365.771101
2438.851137,4290.134789,3034.844362,6513.812290
2438.851467,2911.162892,2294.638420,6735.874072
2438.851796,2145.067394,1258.350101,6957.935855
2438.852125,383.047749,-592.164754,8438.347739
2438.852454,-1455.581446,-1332.370696,9400.615463
2438.852783,-2451.505594,-3034.844362,11029.068536
2438.853112,-2987.772442,-2960.823768,9992.780217
2438.853441,-2145.067394,-3256.906145,11029.068536
2438.853770,-2604.724693,-2886.803174,10510.924376
2438.854100,-1302.362347,-1776.494261,10584.944971
2438.854429,-2145.067394,-1554.432478,10881.027347
2438.854758,-306.438199,-1184.329507,10288.862594
2438.855087,0.000000,370.102971,9622.677246
2438.855416,-536.266849,518.144159,8956.491898
2438.855745,-612.876398,-0.000000,9844.739029
2438.856074,229.828649,-148.041188,10214.842000
2438.856404,2221.676944,1628.453072,7476.080014
2438.856733,2911.162892,1850.514855,6513.812290
2438.857062,3370.820191,1850.514855,5551.544565
2438.857391,2681.334243,2590.720797,6365.771101
2438.857720,1991.848295,1480.411884,7476.080014
2438.858049,766.095498,592.164754,7624.121203
2438.858378,0.000000,-1036.288319,8956.491898
2438.858708,-689.485948,-2072.576638,10510.924376
2438.859037,-1991.848295,-2738.761985,11325.150913
2438.859366,-1608.800546,-3108.864956,11177.109724
2438.859695,-995.924147,-2442.679609,10881.027347
2438.860024,-229.828649,-1480.411884,11251.130318
2438.860353,-229.828649,-0.000000,10658.965565
2438.860682,459.657299,222.061783,10732.986159
2438.861011,919.314598,-444.123565,11029.068536
2438.861341,2298.286494,592.164754,8734.430116
2438.861670,2987.772442,2368.659014,7698.141797
2438.861999,3524.039291,2516.700203,6661.853478
2438.862328,3524.039291,3404.947333,6365.771101
2438.862657,2834.553343,2886.803174,7031.956449
2438.862986,1608.800546,1480.411884,7179.997637
2438.863315,612.876398,-444.123565,8142.265362
2438.863645,-1378.971896,-1702.473667,9992.780217
2438.863974,-1915.238745,-3256.906145,10955.047942
2438.864303,-2451.505594,-3034.844362,9918.759623
2438.864632,-1991.848295,-2738.761985,10362.883188
2438.864961,-2068.457845,-2960.823768,11029.068536
2438.865290,-1838.629195,-1924.535449,11029.068536
2438.865619,-1915.238745,-1036.288319,10955.047942
2438.865949,-383.047749,-1110.308913,9696.697840
2438.866278,766.095498,-444.123565,8956.491898
2438.866607,-612.876398,1036.288319,9030.512492
2438.866936,0.000000,-0.000000,10066.800811
2438.867265,1225.752797,592.164754,8512.368333
2438.867594,3140.991542,2590.720797,5921.647536
2438.867923,3140.991542,2220.617826,5551.544565
2438.868252,3677.258390,2812.782580,5403.503377
2438.868582,2528.115143,2220.617826,6735.874072
2438.868911,1302.362347,888.247130,7031.956449
2438.869240,306.438199,-0.000000,7846.182985
2438.869569,-1378.971896,-1332.370696,9326.594869
2438.869898,-1915.238745,-2664.741391,10732.986159
2438.870227,-1762.019645,-3182.885551,10881.027347
2438.870556,-1302.362347,-2368.659014,10362.883188
2438.870886,-919.314598,-2442.679609,11399.171507
2438.871215,-153.219100,-1702.473667,11399.171507
2438.871544,-383.047749,370.102971,10362.883188
2438.871873,-306.438199,-296.082377,10362.883188
2438.872202,0.000000,-444.123565,10510.924376
2438.872531,2145.067394,962.267725,11103.089130
2438.872860,2757.943793,1776.494261,7031.956449
2438.873190,3677.258390,2664.741391,7550.100608
2438.873519,3907.087040,2738.761985,5255.462188
2438.873848,4060.306139,3849.070898,6143.709319
2438.874177,2451.505594,1998.556043,7105.977043
2438.874506,689.485948,814.226536,7254.018232
2438.874835,-1149.143247,-1628.453072,10066.800811
2438.875164,-1762.019645,-2812.782580,11251.130318
2438.875493,-2451.505594,-2812.782580,9622.677246
2438.875823,-2298.286494,-3108.864956,10881.027347
2438.876152,-1915.238745,-3256.906145,11547.212695
2438.876481,-1915.238745,-1554.432478,10955.047942
2438.876810,-1149.143247,-1332.370696,11251.130318
2438.877139,-689.485948,-666.185348,10288.862594
2438.877468,-306.438199,-74.020594,10288.862594
2438.877797,-153.219100,1480.411884,9104.533087
2438.878127,-689.485948,1406.391290,9770.718434
2438.878456,-153.219100,-74.020594,9252.574275
2438.878785,1915.238745,888.247130,8142.265362
2438.879114,2757.943793,1998.556043,5699.585753
2438.879443,2757.943793,1554.432478,5699.585753
2438.879772,2681.334243,2146.597232,5551.544565
2438.880101,2451.505594,1554.432478,6513.812290
2438.880431,1762.019645,444.123565,8068.244768
2438.880760,229.828649,-444.123565,8290.306550
2438.881089,-766.095498,-2590.720797,10140.821405
2438.881418,-1608.800546,-2738.761985,11029.068536
2438.881747,-1838.629195,-3034.844362,10807.006753
2438.882076,-689.485948,-3256.906145,11029.068536
2438.882405,0.000000,-2146.597232,11029.068536
2438.882734,-229.828649,-222.061783,11251.130318
2438.883064,0.000000,296.082377,10510.924376
2438.883393,766.095498,666.185348,9844.739029
2438.883722,2145.067394,1480.411884,7772.162391
2438.884051,3830.477490,2590.720797,7328.038826
2438.884380,2987.772442,3034.844362,6143.709319
2438.884709,2757.943793,2294.638420,6291.750507
2438.885038,2451.505594,1998.556043,7105.977043
2438.885368,1149.143247,370.102971,7254.018232
2438.885697,-689.485948,-1036.288319,8438.347739
2438.886026,-2145.067394,-2738.761985,10140.821405
2438.886355,-1838.629195,-2960.823768,10214.842000
2438.886684,-2068.457845,-2294.638420,9474.636058
2438.887013,-1762.019645,-2664.741391,10881.027347
2438.887342,-2298.286494,-2442.679609,10955.047942
2438.887672,-766.095498,-1628.453072,11843.295072
2438.888001,-1532.190996,-1110.308913,10436.903782
2438.888330,-383.047749,-814.226536,10214.842000
2438.888659,-536.266849,-222.061783,9400.615463
2438.888988,-689.485948,962.267725,9474.636058
2438.889317,-383.047749,666.185348,9696.697840
2438.889646,153.219100,1110.308913,8882.471304
2438.889975,3294.210641,1850.514855,6735.874072
2438.890305,2681.334243,2146.597232,5773.606348
2438.890634,2068.457845,2146.597232,5699.585753
2438.890963,1762.019645,1628.453072,6661.853478
2438.891292,1302.362347,370.102971,7476.080014
2438.891621,536.266849,-0.000000,8290.306550
2438.891950,0.000000,-1332.370696,9178.553681
2438.892279,-1762.019645,-2590.720797,10955.047942
2438.892609,-1762.019645,-2812.782580,10881.027347
2438.892938,-1072.533697,-2220.617826,10732.986159
2438.893267,-383.047749,-2072.576638,10955.047942
2438.893596,0.000000,-888.247130,11251.130318
2438.893925,0.000000,-0.000000,11547.212695
2438.894254,459.657299,148.041188,10881.027347
2438.894583,1225.752797,-0.000000,10584.944971
2438.894913,2757.943793,1554.432478,8216.285956
2438.895242,3983.696590,3034.844362,7105.977043
2438.895571,4136.915689,3182.885551,6069.688724
2438.895900,4213.525239,3552.988522,6069.688724
2438.896229,2757.943793,2368.659014,6439.791695
2438.896558,1915.238745,1184.329507,6439.791695
2438.896887,0.000000,-814.226536,8438.347739
2438.897216,-1915.238745,-2738.761985,10066.800811
2438.897546,-2145.067394,-3034.844362,10732.986159
2438.897875,-2451.505594,-2368.659014,9918.759623
2438.898204,-1838.629195,-2590.720797,10436.903782
2438.898533,-1991.848295,-2368.659014,11695.253884
2438.898862,-1991.848295,-1110.308913,11399.171507
2438.899191,-612.876398,-518.144159,11103.089130
2438.899520,0.000000,-1184.329507,10066.800811
2438.899850,0.000000,-0.000000,9474.636058
2438.900179,-536.266849,962.267725,9178.553681
2438.900508,-612.876398,370.102971,9696.697840
2438.900837,536.266849,-0.000000,8660.409521
2438.901166,2987.772442,1258.350101,6735.874072
2438.901495,3370.820191,2590.720797,5403.503377
2438.901824,2528.115143,1850.514855,5403.503377
2438.902154,2451.505594,2146.597232,6143.709319
2438.902483,1915.238745,518.144159,7328.038826
2438.902812,536.266849,370.102971,7920.203579
2438.903141,-229.828649,-1702.473667,9178.553681
2438.903470,-1762.019645,-3256.906145,10881.027347
2438.903799,-1762.019645,-2886.803174,11103.089130
2438.904128,-766.095498,-2516.700203,10436.903782
2438.904457,-689.485948,-2368.659014,10955.047942
2438.904787,0.000000,-1036.288319,11251.130318
2438.905116,229.828649,370.102971,10881.027347
2438.905445,-306.438199,148.041188,10584.944971
2438.905774,1378.971896,-0.000000,9992.780217
2438.906103,2451.505594,1258.350101,8438.347739
2438.906432,3447.429741,2738.761985,7105.977043
2438.906761,3370.820191,2664.741391,6143.709319
2438.907091,2834.553343,2738.761985,6587.832884
2438.907420,2528.115143,1850.514855,7105.977043
2438.907749,1072.533697,518.144159,7105.977043
2438.908078,-766.095498,-666.185348,8808.450710
2438.908407,-1378.971896,-3182.885551,10658.965565
2438.908736,-1532.190996,-3552.988522,10362.883188
2438.909065,-1915.238745,-2294.638420,9992.780217
2438.909395,-1838.629195,-2960.823768,11029.068536
2438.909724,-2068.457845,-2368.659014,11621.233289
2438.910053,-1302.362347,-1036.288319,11695.253884
2438.910382,-536.266849,-592.164754,10807.006753
2438.910711,306.438199,-740.205942,9770.718434
2438.911040,-229.828649,370.102971,9326.594869
2438.911369,-689.485948,1924.535449,9474.636058
2438.911698,-689.485948,1110.308913,9178.553681
2438.912028,689.485948,814.226536,8290.306550
2438.912357,1991.848295,1406.391290,6587.832884
2438.912686,2451.505594,1702.473667,5255.462188
2438.913015,2145.067394,1258.350101,6291.750507
2438.913344,2374.896044,888.247130,6069.688724
2438.913673,1915.238745,-0.000000,7846.182985
2438.914002,536.266849,518.144159,8068.244768
2438.914332,-383.047749,-1776.494261,8734.430116
2438.914661,-1225.752797,-2294.638420,10732.986159
2438.914990,-1915.238745,-1924.535449,10807.006753
2438.915319,-995.924147,-2368.659014,10732.986159
2438.915648,-919.314598,-1998.556043,10510.924376
2438.915977,229.828649,-888.247130,10658.965565
2438.916306,459.657299,-0.000000,10807.006753
2438.916636,1378.971896,592.164754,9400.615463
2438.916965,2221.676944,1480.411884,8512.368333
2438.917294,2987.772442,1924.535449,7994.224174
2438.917623,4060.306139,3034.844362,6661.853478
2438.917952,3600.648841,2368.659014,6957.935855
2438.918281,2374.896044,1998.556043,7328.038826
2438.918610,1378.971896,962.267725,7550.100608
2438.918939,0.000000,-222.061783,8142.265362
2438.919269,-1762.019645,-1998.556043,9548.656652
2438.919598,-2221.676944,-3034.844362,10955.047942
2438.919927,-1685.410096,-2368.659014,10288.862594
2438.920256,-1762.019645,-1628.453072,10510.924376
2438.920585,-1532.190996,-1628.453072,11177.109724
2438.920914,-1455.581446,-962.267725,10955.047942
2438.921243,-995.924147,-666.185348,11029.068536
2438.921573,-689.485948,-370.102971,10288.862594
2438.921902,153.219100,-370.102971,9844.739029
2438.922231,-612.876398,-296.082377,9770.718434
2438.922560,-383.047749,-74.020594,9992.780217
2438.922889,1072.533697,666.185348,8808.450710
2438.923218,2528.115143,1480.411884,6587.832884
2438.923547,3217.601092,1850.514855,5995.668130
2438.923877,2451.505594,2368.659014,5699.585753
2438.924206,2451.505594,2072.576638,6809.894666
2438.924535,1762.019645,518.144159,7254.018232
2438.924864,1149.143247,-74.020594,8068.244768
2438.925193,0.000000,-1110.308913,9030.512492
2438.925522,-1378.971896,-2442.679609,9844.739029
2438.925851,-1915.238745,-3034.844362,11473.192101
2438.926180,-1225.752797,-2442.679609,10807.006753
2438.926510,-766.095498,-2220.617826,11177.109724
2438.926839,-536.266849,-1628.453072,10807.006753
2438.927168,-306.438199,-518.144159,10436.903782
2438.927497,-612.876398,-222.061783,10807.006753
2438.927826,842.705048,-148.041188,10584.944971
2438.928155,1991.848295,1110.308913,8290.306550
2438.928484,3064.381992,2368.659014,7550.100608
2438.928814,3524.039291,2886.803174,6217.729913
2438.929143,3447.429741,3627.009116,6217.729913
2438.929472,2145.067394,2146.597232,6957.935855
2438.929801,1762.019645,962.267725,6439.791695
2438.930130,459.657299,-222.061783,7920.203579
2438.930459,-1532.190996,-1776.494261,9474.636058
2438.930788,-2221.676944,-3256.906145,10658.965565
2438.931118,-2451.505594,-3404.947333,10510.924376
2438.931447,-2145.067394,-2886.803174,10140.821405
2438.931776,-2451.505594,-2664.741391,10955.047942
2438.932105,-2221.676944,-1702.473667,10881.027347
2438.932434,-919.314598,-1036.288319,11399.171507
2438.932763,153.219100,-1480.411884,10362.883188
2438.933092,536.266849,-0.000000,9400.615463
2438.933421,-459.657299,1332.370696,9178.553681
2438.933751,-536.266849,592.164754,9696.697840
2438.934080,383.047749,444.123565,9104.533087
2438.934409,2145.067394,2146.597232,6957.935855
2438.934738,3447.429741,1702.473667,5847.626942
2438.935067,2451.505594,1850.514855,5033.400406
2438.935396,2068.457845,2146.597232,5995.668130
2438.935725,1455.581446,962.267725,7179.997637
2438.936055,842.705048,-0.000000,8068.244768
2438.936384,0.000000,-1036.288319,9252.574275
2438.936713,-1149.143247,-2442.679609,10807.006753
2438.937042,-1838.629195,-2886.803174,11251.130318
2438.937371,-1455.581446,-2442.679609,10881.027347
2438.937700,-229.828649,-2146.597232,11251.130318
2438.938029,0.000000,-1406.391290,11325.150913
2438.938359,0.000000,-0.000000,11103.089130
2438.938688,0.000000,222.061783,11029.068536
2438.939017,842.705048,-0.000000,10510.924376
2438.939346,2604.724693,1406.391290,8808.450710
2438.939675,3677.258390,2812.782580,7328.038826
2438.940004,3217.601092,2960.823768,6513.812290
2438.940333,3217.601092,3627.009116,6587.832884
2438.940662,2604.724693,2368.659014,6735.874072
2438.940992,1378.971896,1258.350101,6735.874072
2438.941321,-153.219100,-518.144159,8734.430116
2438.941650,-1378.971896,-2220.617826,10214.842000
2438.941979,-1991.848295,-3256.906145,10881.027347
2438.942308,-2528.115143,-2220.617826,9844.739029
2438.942637,-1915.238745,-2590.720797,11251.130318
2438.942966,-1991.848295,-2442.679609,11103.089130
2438.943296,-1302.362347,-1184.329507,11695.253884
2438.943625,-1072.533697,-962.267725,10732.986159
2438.943954,383.047749,-740.205942,9992.780217
2438.944283,153.219100,296.082377,9474.636058
2438.944612,-306.438199,1406.391290,9474.636058
2438.944944,-383.047749,296.082377,9770.718434
2438.945273,1072.533697,814.226536,8364.327145
2438.945602,2528.115143,1480.411884,5995.668130
2438.945932,2528.115143,1702.473667,5773.606348
2438.946261,2834.553343,1628.453072,5329.482782
2438.946590,1685.410096,1554.432478,7105.977043
2438.946920,1225.752797,-0.000000,7402.059420
2438.947249,306.438199,-222.061783,8142.265362
2438.947578,-536.266849,-1924.535449,9030.512492
2438.947908,-1532.190996,-2664.741391,10288.862594
2438.948237,-1455.581446,-2886.803174,11103.089130
2438.948566,-689.485948,-2368.659014,9918.759623
2438.948895,-536.266849,-2368.659014,11251.130318
2438.949225,229.828649,-1110.308913,10955.047942
2438.949554,229.828649,148.041188,10362.883188
2438.949883,536.266849,-0.000000,10658.965565
2438.950213,1608.800546,592.164754,8808.450710
2438.950542,3217.601092,1998.556043,7772.162391
2438.950871,3600.648841,2664.741391,6587.832884
2438.951201,3294.210641,2516.700203,6069.688724
2438.951530,2604.724693,2294.638420,6735.874072
2438.951859,1838.629195,1332.370696,6957.935855
2438.952189,459.657299,-0.000000,7402.059420
2438.952518,-1225.752797,-1406.391290,8882.471304
2438.952847,-1838.629195,-3034.844362,10807.006753
2438.953177,-2528.115143,-2960.823768,10288.862594
2438.953506,-2298.286494,-2442.679609,10881.027347
2438.953835,-2528.115143,-3034.844362,11103.089130
2438.954165,-1915.238745,-1776.494261,11473.192101
2438.954494,-1378.971896,-1110.308913,11547.212695
2438.954823,-306.438199,-814.226536,10140.821405
2438.955153,536.266849,-518.144159,9770.718434
2438.955482,-306.438199,1850.514855,9992.780217
2438.955811,-383.047749,740.205942,9474.636058
2438.956141,229.828649,222.061783,10140.821405
2438.956470,2221.676944,1480.411884,6957.935855
2438.956799,3217.601092,2146.597232,6069.688724
2438.957128,2451.505594,1998.556043,5477.523971
2438.957458,1991.848295,2072.576638,6217.729913
2438.957787,1762.019645,962.267725,7402.059420
2438.958116,1149.143247,444.123565,7772.162391
2438.958446,0.000000,-296.082377,8956.491898
2438.958775,-1225.752797,-2220.617826,10140.821405
2438.959104,-1991.848295,-2368.659014,11103.089130
2438.959434,-1838.629195,-2442.679609,11103.089130
2438.959763,-536.266849,-2368.659014,10807.006753
2438.960092,-306.438199,-1850.514855,11325.150913
2438.960422,0.000000,-814.226536,10584.944971
2438.960751,0.000000,296.082377,10732.986159
2438.961080,612.876398,-740.205942,11251.130318
2438.961410,1838.629195,740.205942,8808.450710
2438.961739,3524.039291,2220.617826,7476.080014
2438.962068,3753.867940,2960.823768,6883.915261
2438.962398,3294.210641,2664.741391,6513.812290
2438.962727,3370.820191,2442.679609,6883.915261
2438.963056,2451.505594,1628.453072,6143.709319
2438.963386,919.314598,518.144159,7550.100608
2438.963715,-995.924147,-1332.370696,9326.594869
2438.964044,-2298.286494,-2664.741391,10732.986159
2438.964373,-1838.629195,-2738.761985,10584.944971
2438.964703,-1838.629195,-2516.700203,10288.862594
2438.965032,-1532.190996,-3182.885551,10881.027347
2438.965361,-1762.019645,-1776.494261,11177.109724
2438.965691,-1072.533697,-962.267725,10881.027347
2438.966020,-842.705048,-888.247130,10288.862594
2438.966349,76.609550,-518.144159,9622.677246
2438.966679,0.000000,592.164754,9030.512492
2438.967008,-383.047749,962.267725,9252.574275
2438.967337,76.609550,-74.020594,9030.512492
2438.967667,1685.410096,888.247130,8142.265362
2438.967996,2451.505594,1998.556043,5625.565159
2438.968325,2681.334243,1628.453072,5847.626942
2438.968655,2298.286494,1924.535449,5773.606348
2438.968984,2451.505594,1184.329507,7476.080014
2438.969313,919.314598,296.082377,8068.244768
2438.969643,76.609550,-814.226536,8586.388927
2438.969972,-1532.190996,-2886.803174,10510.924376
2438.970301,-2298.286494,-2368.659014,11251.130318
2438.970631,-1685.410096,-2960.823768,11177.109724
2438.970960,-1225.752797,-2590.720797,10807.006753
2438.971289,-306.438199,-1998.556043,10732.986159
2438.971618,0.000000,-444.123565,10881.027347
2438.971948,0.000000,-0.000000,10584.944971
2438.972277,1225.752797,370.102971,10214.842000
2438.972606,3140.991542,1776.494261,8364.327145
2438.972936,3600.648841,2664.741391,7254.018232
2438.973265,3370.820191,3108.864956,6143.709319
2438.973594,3217.601092,2738.761985,7105.977043
2438.973924,2298.286494,2072.576638,7031.956449
2438.974253,842.705048,962.267725,7550.100608
2438.974582,-689.485948,-962.267725,8734.430116
2438.974912,-2298.286494,-2146.597232,10066.800811
2438.975241,-2298.286494,-2886.803174,11251.130318
2438.975570,-2987.772442,-2590.720797,10214.842000
2438.975900,-2451.505594,-2960.823768,11177.109724
2438.976229,-2451.505594,-2960.823768,11103.089130
2438.976558,-1072.533697,-1332.370696,11177.109724
2438.976888,-689.485948,-814.226536,10584.944971
2438.977217,0.000000,-1036.288319,9474.636058
2438.977546,0.000000,-0.000000,9326.594869
2438.977876,0.000000,518.144159,10140.821405
2438.978205,1455.581446,1036.288319,9104.533087
2438.978534,2528.115143,2442.679609,6069.688724
2438.978863,4826.401637,2886.803174,5995.668130
2438.979193,3140.991542,2516.700203,4885.359217
2438.979522,2604.724693,1998.556043,7105.977043
2438.979851,383.047749,1332.370696,6957.935855
2438.980181,306.438199,-0.000000,7772.162391
2438.980510,-842.705048,-1258.350101,9400.615463
2438.980839,-1915.238745,-2220.617826,9548.656652
2438.981169,-2221.676944,-3478.967927,11177.109724
2438.981498,-2145.067394,-2664.741391,11251.130318
2438.981827,-1302.362347,-2516.700203,10807.006753
2438.982157,-1072.533697,-1776.494261,11103.089130
2438.982486,0.000000,-148.041188,10955.047942
2438.982815,0.000000,-0.000000,10288.862594
2438.983145,1302.362347,-888.247130,11547.212695
2438.983474,2528.115143,1628.453072,8586.388927
2438.983803,4443.353888,2368.659014,7994.224174
2438.984133,4749.792088,2886.803174,6217.729913
2438.984462,4749.792088,4219.173869,5995.668130
2438.984791,3753.867940,2886.803174,6957.935855
2438.985121,2374.896044,2294.638420,6365.771101
2438.985450,995.924147,518.144159,7698.141797
2438.985779,-1149.143247,-888.247130,9326.594869
2438.986108,-2528.115143,-2590.720797,10881.027347
2438.986438,-3600.648841,-3182.885551,10881.027347
2438.986767,-2451.505594,-3256.906145,11029.068536
2438.987096,-2757.943793,-3182.885551,11177.109724
2438.987426,-2451.505594,-2146.597232,10807.006753
2438.987755,-1608.800546,-814.226536,10881.027347
2438.988084,-229.828649,-1184.329507,10214.842000
2438.988414,383.047749,-370.102971,9622.677246
2438.988743,-536.266849,740.205942,8586.388927
2438.989072,-306.438199,370.102971,9548.656652
2438.989402,536.266849,-222.061783,10881.027347
2438.989731,2374.896044,1184.329507,6439.791695
2438.990060,3753.867940,2294.638420,6069.688724
2438.990390,3447.429741,2294.638420,5255.462188
2438.990719,2987.772442,2738.761985,5773.606348
2438.991048,1838.629195,1850.514855,7402.059420
2438.991378,1149.143247,444.123565,7402.059420
2438.991707,-153.219100,-592.164754,8586.388927
2438.992036,-1762.019645,-2516.700203,9918.759623
2438.992366,-2374.896044,-2960.823768,10881.027347
2438.992695,-2604.724693,-2590.720797,10807.006753
2438.993024,-1072.533697,-2516.700203,11103.089130
2438.993353,-153.219100,-2442.679609,11399.171507
2438.993683,-536.266849,-370.102971,11177.109724
2438.994012,-383.047749,296.082377,10658.965565
2438.994341,-383.047749,-518.144159,9770.718434
2438.994671,689.485948,-296.082377,10881.027347
2438.995000,1838.629195,1110.308913,8290.306550
2438.995329,3294.210641,1776.494261,7031.956449
2438.995659,4136.915689,2664.741391,6069.688724
2438.995988,3753.867940,3404.947333,5699.585753
2438.996317,2528.115143,2368.659014,7031.956449
2438.996647,919.314598,1184.329507,7328.038826
2438.996976,-306.438199,-444.123565,8290.306550
2438.997305,-1838.629195,-2442.679609,10807.006753
2438.997635,-2374.896044,-2812.782580,9844.739029
2438.997964,-3140.991542,-3256.906145,10066.800811
2438.998293,-2374.896044,-3701.029710,11843.295072
2438.998623,-2528.115143,-3256.906145,10955.047942
2438.998952,-1378.971896,-1776.494261,11621.233289
2438.999281,-995.924147,-1184.329507,10658.965565
2438.999611,0.000000,-740.205942,9474.636058
2438.999940,153.219100,518.144159,9696.697840
2439.000269,-689.485948,2220.617826,9104.533087
2439.000598,-459.657299,-0.000000,10362.883188
2439.000928,1685.410096,1332.370696,7846.182985
2439.001257,3600.648841,2442.679609,5033.400406
2439.001586,2834.553343,2368.659014,5329.482782
2439.001916,2451.505594,2146.597232,5329.482782
2439.002245,2145.067394,1036.288319,7328.038826
2439.002574,1302.362347,-518.144159,7476.080014
2439.002904,229.828649,-370.102971,8216.285956
2439.003233,-1225.752797,-2442.679609,10510.924376
2439.003562,-1838.629195,-2886.803174,10584.944971
2439.003892,-2068.457845,-2368.659014,10732.986159
2439.004221,-766.095498,-2960.823768,11029.068536
2439.004550,306.438199,-2368.659014,10881.027347
2439.004880,229.828649,-740.205942,11473.192101
2439.005209,0.000000,296.082377,10955.047942
2439.005538,689.485948,-74.020594,10807.006753
2439.005868,2374.896044,962.267725,9178.553681
2439.006197,4213.525239,3330.926739,7105.977043
2439.006526,4443.353888,3330.926739,6513.812290
2439.006856,3830.477490,4071.132681,5847.626942
2439.007185,3064.381992,2738.761985,7105.977043
2439.007514,2374.896044,1850.514855,6661.853478
2439.007843,306.438199,296.082377,7772.162391
2439.008173,-1608.800546,-1776.494261,9548.656652
2439.008502,-2221.676944,-3478.967927,11769.274478
2439.008831,-2911.162892,-1850.514855,9918.759623
2439.009161,-1991.848295,-2590.720797,10881.027347
2439.009490,-2068.457845,-2738.761985,11547.212695
2439.009819,-1378.971896,-1406.391290,11103.089130
2439.010149,-1225.752797,-592.164754,11547.212695
2439.010478,-689.485948,-814.226536,9992.780217
2439.010807,153.219100,-444.123565,10214.842000
2439.011137,-536.266849,1036.288319,9400.615463
2439.011466,-612.876398,740.205942,9844.739029
2439.011795,76.609550,-0.000000,9326.594869
2439.012125,2528.115143,222.061783,8660.409521
2439.012454,2604.724693,1702.473667,5329.482782
2439.012783,3447.429741,2294.638420,5551.544565
2439.013113,2604.724693,2442.679609,5181.441594
2439.013442,2604.724693,1554.432478,6661.853478
2439.013771,1762.019645,1036.288319,7846.182985
2439.014101,689.485948,-222.061783,8068.244768
2439.014430,-1072.533697,-2738.761985,9696.697840
2439.014759,-1838.629195,-2886.803174,11325.150913
2439.015088,-1532.190996,-2738.761985,11177.109724
2439.015418,-842.705048,-2368.659014,11177.109724
2439.015747,0.000000,-1776.494261,10955.047942
2439.016076,-153.219100,-518.144159,10807.006753
2439.016406,229.828649,296.082377,10881.027347
2439.016735,229.828649,-222.061783,10288.862594
2439.017064,1991.848295,370.102971,8882.471304
2439.017394,3677.258390,2368.659014,7105.977043
2439.017723,3677.258390,2738.761985,6143.709319
2439.018052,3447.429741,2738.761985,5995.668130
2439.018382,3140.991542,2072.576638,6957.935855
2439.018711,2221.676944,1406.391290,7179.997637
2439.019040,459.657299,-518.144159,7846.182985
2439.019370,-1455.581446,-2220.617826,9548.656652
2439.019699,-1838.629195,-3478.967927,11325.150913
2439.020028,-2298.286494,-3034.844362,10214.842000
2439.020358,-1762.019645,-2442.679609,10584.944971
2439.020687,-1455.581446,-3034.844362,11177.109724
2439.021016,-1149.143247,-1406.391290,11103.089130
2439.021346,-919.314598,-1554.432478,11251.130318
2439.021675,-306.438199,-888.247130,9992.780217
2439.022004,0.000000,-444.123565,9400.615463
2439.022334,-919.314598,888.247130,9326.594869
2439.022663,-995.924147,888.247130,9104.533087
2439.022992,-229.828649,-0.000000,8956.491898
2439.023321,1838.629195,1110.308913,6587.832884
2439.023651,2221.676944,1998.556043,5699.585753
2439.023980,2068.457845,1406.391290,5995.668130
2439.024309,1455.581446,1480.411884,5995.668130
2439.024639,1455.581446,666.185348,7328.038826
2439.024968,766.095498,-74.020594,7994.224174
2439.025297,-229.828649,-518.144159,8142.265362
2439.025627,-1149.143247,-2738.761985,11103.089130
2439.025956,-1608.800546,-2368.659014,11251.130318
2439.026285,-1225.752797,-2294.638420,10807.006753
2439.026615,-536.266849,-2294.638420,10881.027347
2439.026944,-153.219100,-1554.432478,10584.944971
2439.027273,383.047749,-370.102971,11473.192101
2439.027603,459.657299,-296.082377,10807.006753
2439.027932,2374.896044,1406.391290,8512.368333
2439.028261,3370.820191,2146.597232,8734.430116
2439.028591,3524.039291,3330.926739,6143.709319
2439.028920,3753.867940,3330.926739,6661.853478
2439.029249,2911.162892,2516.700203,6735.874072
2439.029579,2298.286494,1850.514855,6735.874072
2439.029908,842.705048,-0.000000,7698.141797
2439.030237,-919.314598,-148.041188,9622.677246
2439.030566,-1915.238745,-2960.823768,11843.295072
2439.030896,-2221.676944,-2738.761985,10510.924376
2439.031225,-1455.581446,-1628.453072,10066.800811
2439.031554,-1915.238745,-2072.576638,10955.047942
2439.031884,-1608.800546,-1184.329507,10955.047942
2439.032213,-1149.143247,-666.185348,11917.315666
2439.032542,-612.876398,-1184.329507,10881.027347
2439.032872,0.000000,-222.061783,9918.759623
2439.033201,-306.438199,-222.061783,9696.697840
2439.033530,-995.924147,370.102971,9548.656652
2439.033860,-229.828649,-0.000000,10214.842000
2439.034189,2221.676944,740.205942,7772.162391
2439.034518,3140.991542,1924.535449,5403.503377
2439.034848,3217.601092,2146.597232,5847.626942
2439.035177,2528.115143,2738.761985,5181.441594
2439.035506,2528.115143,1924.535449,6587.832884
2439.035836,1302.362347,592.164754,7254.018232
2439.036165,383.047749,-0.000000,7920.203579
2439.036494,-1149.143247,-2220.617826,9918.759623
2439.036824,-2221.676944,-3182.885551,11177.109724
2439.037153,-1838.629195,-2960.823768,11103.089130
2439.037482,-995.924147,-2294.638420,10881.027347
2439.037811,-383.047749,-2072.576638,10955.047942
2439.038141,-383.047749,-592.164754,10658.965565
2439.038470,0.000000,-0.000000,10732.986159
2439.038799,-229.828649,-444.123565,9992.780217
2439.039129,919.314598,-666.185348,10807.006753
2439.039458,1762.019645,1036.288319,7994.224174
2439.039787,4060.306139,2590.720797,6735.874072
2439.040117,3677.258390,2664.741391,6291.750507
2439.040446,3370.820191,3034.844362,5699.585753
2439.040775,2757.943793,1924.535449,6883.915261
2439.041105,1072.533697,1110.308913,6809.894666
2439.041434,-536.266849,-666.185348,8438.347739
2439.041763,-2451.505594,-2886.803174,10807.006753
2439.042093,-1991.848295,-3108.864956,10214.842000
2439.042422,-2221.676944,-2516.700203,10436.903782
2439.042751,-1991.848295,-3182.885551,10955.047942
2439.043081,-1991.848295,-2368.659014,11029.068536
2439.043410,-995.924147,-1184.329507,11547.212695
2439.043739,-842.705048,-740.205942,10510.924376
2439.044069,-229.828649,-888.247130,9844.739029
2439.044398,153.219100,-0.000000,9770.718434
2439.044727,-612.876398,1480.411884,8956.491898
2439.045056,-612.876398,666.185348,9104.533087
2439.045386,-229.828649,814.226536,8512.368333
2439.045715,1838.629195,888.247130,7698.141797
2439.046044,1762.019645,1850.514855,5181.441594
2439.046374,1991.848295,1406.391290,5921.647536
2439.046703,2145.067394,814.226536,6365.771101
2439.047032,1991.848295,592.164754,7624.121203
2439.047362,689.485948,-0.000000,8364.327145
2439.047691,-459.657299,-1036.288319,8882.471304
2439.048020,-1072.533697,-2590.720797,10881.027347
2439.048349,-1991.848295,-2072.576638,11325.150913
2439.048679,-1149.143247,-2368.659014,10658.965565
2439.049008,-919.314598,-2294.638420,11547.212695
2439.049337,689.485948,-1332.370696,10807.006753
2439.049667,383.047749,-296.082377,11473.192101
2439.049996,1225.752797,592.164754,9696.697840
2439.050325,2145.067394,1702.473667,8290.306550
2439.050654,3217.601092,1702.473667,7624.121203
2439.050984,2528.115143,3182.885551,6735.874072
2439.051313,3140.991542,2960.823768,6883.915261
2439.051642,2374.896044,2664.741391,7179.997637
2439.051971,1608.800546,1184.329507,7402.059420
2439.052301,-229.828649,296.082377,8290.306550
2439.052630,-1685.410096,-1628.453072,9474.636058
2439.052959,-1378.971896,-3256.906145,11695.253884
2439.053289,-1608.800546,-2368.659014,9992.780217
2439.053618,-1302.362347,-1628.453072,10732.986159
2439.053947,-2221.676944,-2072.576638,10584.944971
2439.054276,-1378.971896,-1110.308913,11103.089130
2439.054606,-766.095498,-1184.329507,11251.130318
2439.054935,-153.219100,-740.205942,9992.780217
2439.055264,-306.438199,-296.082377,9104.533087
2439.055593,0.000000,-74.020594,9770.718434
2439.055923,0.000000,-222.061783,9992.780217
2439.056252,1302.362347,518.144159,9326.594869
2439.056581,2834.553343,1850.514855,6069.688724
2439.056911,3677.258390,2146.597232,6143.709319
2439.057240,2987.772442,2738.761985,5255.462188
2439.057569,2374.896044,2220.617826,6661.853478
2439.057898,1915.238745,1110.308913,7476.080014
2439.058228,689.485948,296.082377,8068.244768
2439.058557,-919.314598,-1258.350101,9474.636058
2439.058886,-1532.190996,-2516.700203,10362.883188
2439.059215,-1915.238745,-3034.844362,11177.109724
2439.059545,-1762.019645,-2590.720797,10658.965565
2439.059874,-536.266849,-2664.741391,11325.150913
2439.060203,-689.485948,-1258.350101,11029.068536
2439.060533,-536.266849,-0.000000,10955.047942
2439.060862,0.000000,-222.061783,10362.883188
2439.061191,383.047749,-518.144159,10288.862594
2439.061520,1991.848295,888.247130,8660.409521
2439.061850,2987.772442,2220.617826,7105.977043
2439.062179,3907.087040,2812.782580,6365.771101
2439.062508,3600.648841,3108.864956,5625.565159
2439.062837,3064.381992,2442.679609,6661.853478
2439.063167,1685.410096,1110.308913,6809.894666
2439.063496,229.828649,370.102971,7846.182985
2439.063825,-1838.629195,-1776.494261,9770.718434
2439.064155,-2298.286494,-3404.947333,11029.068536
2439.064484,-2757.943793,-2590.720797,9696.697840
2439.064813,-2757.943793,-3330.926739,11177.109724
2439.065142,-2374.896044,-3182.885551,11473.192101
2439.065472,-1991.848295,-2146.597232,11251.130318
2439.065801,-1225.752797,-962.267725,11103.089130
2439.066130,-536.266849,-740.205942,9696.697840
2439.066460,306.438199,-0.000000,9770.718434
2439.066789,-383.047749,1702.473667,8364.327145
2439.067118,-459.657299,888.247130,9400.615463
2439.067447,-229.828649,370.102971,9178.553681
2439.067777,2068.457845,1110.308913,7698.141797
2439.068106,2298.286494,2220.617826,5403.503377
2439.068435,2451.505594,1628.453072,5551.544565
2439.068764,1762.019645,1702.473667,5773.606348
2439.069094,1838.629195,666.185348,7624.121203
2439.069423,1072.533697,-0.000000,8068.244768
2439.069752,0.000000,-666.185348,8438.347739
2439.070082,-1302.362347,-3034.844362,10732.986159
2439.070411,-1991.848295,-2368.659014,11029.068536
2439.070740,-1378.971896,-2368.659014,11103.089130
2439.071069,-689.485948,-2294.638420,10955.047942
2439.071399,383.047749,-2294.638420,11029.068536
2439.071728,0.000000,-0.000000,11029.068536
2439.072057,766.095498,296.082377,11547.212695
2439.072386,1608.800546,592.164754,9104.533087
2439.072716,3140.991542,1924.535449,8290.306550
2439.073045,3907.087040,3182.885551,7031.956449
2439.073374,3677.258390,3330.926739,6439.791695
2439.073704,3600.648841,2886.803174,7328.038826
2439.074033,2911.162892,2368.659014,6735.874072
2439.074362,1838.629195,1036.288319,7105.977043
2439.074691,-766.095498,-962.267725,8290.306550
2439.075021,-1685.410096,-2368.659014,10214.842000
2439.075350,-1915.238745,-3182.885551,11251.130318
2439.075679,-1915.238745,-2220.617826,9992.780217
2439.076008,-1378.971896,-2812.782580,11251.130318
2439.076338,-2298.286494,-1998.556043,11251.130318
2439.076667,-689.485948,-1036.288319,11103.089130
2439.076996,-842.705048,-592.164754,10955.047942
2439.077326,0.000000,-740.205942,10140.821405
2439.077655,0.000000,222.061783,9918.759623
2439.077984,-306.438199,888.247130,9770.718434
2439.078313,-383.047749,-148.041188,9844.739029
2439.078643,1838.629195,444.123565,8290.306550
2439.078972,3447.429741,2072.576638,5625.565159
2439.079301,3600.648841,2516.700203,5477.523971
2439.079630,2834.553343,2368.659014,5477.523971
2439.079960,2681.334243,2072.576638,7031.956449
2439.080289,1149.143247,592.164754,7031.956449
2439.080618,536.266849,-296.082377,7402.059420
2439.080948,-766.095498,-2220.617826,9770.718434
2439.081277,-1455.581446,-2738.761985,10732.986159
2439.081606,-1915.238745,-3108.864956,11251.130318
2439.081935,-1072.533697,-2368.659014,11029.068536
2439.082265,-536.266849,-2368.659014,11029.068536
2439.082594,-306.438199,-1184.329507,10807.006753
2439.082923,-689.485948,-0.000000,10214.842000
2439.083252,-383.047749,-74.020594,10510.924376
2439.083582,919.314598,222.061783,9918.759623
2439.083911,2374.896044,1850.514855,7402.059420
2439.084240,3600.648841,2516.700203,6883.915261
2439.084570,3217.601092,2590.720797,5995.668130
2439.084899,3140.991542,2664.741391,5995.668130
2439.085228,2451.505594,1554.432478,6809.894666
2439.085557,995.924147,370.102971,7254.018232
2439.085887,-383.047749,-1258.350101,8882.471304
2439.086216,-2145.067394,-2812.782580,10214.842000
2439.086545,-2298.286494,-2738.761985,9992.780217
2439.086875,-2451.505594,-2516.700203,9918.759623
2439.087204,-2528.115143,-3552.988522,11621.233289
2439.087533,-2451.505594,-2664.741391,11769.274478
2439.087862,-1072.533697,-1406.391290,12065.356855
2439.088192,-1302.362347,-1258.350101,10436.903782
2439.088521,229.828649,-888.247130,10140.821405
2439.088850,0.000000,814.226536,9252.574275
2439.089179,-612.876398,1554.432478,9104.533087
2439.089509,-306.438199,370.102971,9696.697840
2439.089838,1149.143247,740.205942,8808.450710
2439.090167,2221.676944,1554.432478,5551.544565
2439.090497,2681.334243,1776.494261,5625.565159
2439.090826,2298.286494,1924.535449,5477.523971
2439.091155,1838.629195,1480.411884,6809.894666
2439.091484,1302.362347,370.102971,7772.162391
2439.091814,383.047749,-0.000000,8290.306550
2439.092143,-459.657299,-2146.597232,9548.656652
2439.092472,-1532.190996,-2960.823768,11177.109724
2439.092801,-1685.410096,-2294.638420,11103.089130
2439.093131,-1072.533697,-2294.638420,11029.068536
2439.093460,-459.657299,-2368.659014,11251.130318
2439.093789,0.000000,-888.247130,11177.109724
2439.094119,0.000000,-0.000000,10807.006753
2439.094448,383.047749,-592.164754,11029.068536
2439.094777,2145.067394,148.041188,9252.574275
2439.095106,3600.648841,1554.432478,7920.203579
2439.095436,4213.525239,3182.885551,6217.729913
2439.095765,4136.915689,3256.906145,6143.709319
2439.096094,3294.210641,3552.988522,7105.977043
2439.096423,2604.724693,2442.679609,6587.832884
2439.096753,1378.971896,1110.308913,7105.977043
2439.097082,-842.705048,-1110.308913,8882.471304
2439.097411,-1991.848295,-2664.741391,10658.965565
2439.097741,-1991.848295,-3034.844362,10955.047942
2439.098070,-2298.286494,-1924.535449,9770.718434
2439.098399,-2221.676944,-2960.823768,11695.253884
2439.098728,-2221.676944,-2072.576638,11177.109724
2439.099058,-766.095498,-888.247130,11325.150913
2439.099387,-689.485948,-1332.370696,10584.944971
2439.099716,76.609550,-592.164754,9400.615463
2439.100045,-459.657299,-0.000000,9326.594869
2439.100375,-383.047749,888.247130,9844.739029
2439.100704,919.314598,148.041188,10214.842000
2439.101033,2298.286494,1480.411884,6587.832884
2439.101363,3677.258390,2442.679609,5847.626942
2439.101692,3064.381992,2294.638420,5033.400406
2439.102021,2911.162892,2442.679609,5847.626942
2439.102350,1915.238745,1702.473667,7105.977043
2439.102680,1225.752797,592.164754,8438.347739
2439.103009,-153.219100,-888.247130,9252.574275
2439.103338,-1915.238745,-2220.617826,10140.821405
2439.103667,-2298.286494,-3256.906145,11399.171507
2439.103997,-2221.676944,-2442.679609,11177.109724
2439.104326,-766.095498,-2220.617826,11325.150913
2439.104655,-612.876398,-1924.535449,11103.089130
2439.104985,-229.828649,-148.041188,11029.068536
2439.105314,0.000000,518.144159,10362.883188
2439.105643,229.828649,-222.061783,9992.780217
2439.105972,1685.410096,888.247130,8956.491898
2439.106302,2604.724693,2368.659014,7179.997637
2439.106631,3294.210641,2368.659014,6661.853478
2439.106960,3294.210641,2664.741391,6439.791695
2439.107290,2911.162892,1850.514855,6587.832884
2439.107619,1532.190996,1258.350101,7254.018232
2439.107948,153.219100,-148.041188,7846.182985
2439.108277,-1608.800546,-1406.391290,9548.656652
2439.108607,-2528.115143,-3256.906145,11103.089130
2439.108936,-2757.943793,-2664.741391,9992.780217
2439.109265,-2757.943793,-3404.947333,10658.965565
2439.109594,-2681.334243,-3478.967927,11399.171507
2439.109924,-2221.676944,-2072.576638,11325.150913
2439.110253,-1378.971896,-888.247130,11103.089130
2439.110582,-842.705048,-666.185348,9696.697840
2439.110912,229.828649,-222.061783,9178.553681
2439.111241,-383.047749,1258.350101,8660.409521
2439.111570,-383.047749,666.185348,9548.656652
2439.111899,689.485948,740.205942,8808.450710
2439.112229,2757.943793,1924.535449,5699.585753
2439.112558,2987.772442,1998.556043,5773.606348
2439.112887,2528.115143,2072.576638,5255.462188
2439.113216,2068.457845,2072.576638,6809.894666
2439.113546,1149.143247,370.102971,7402.059420
2439.113875,612.876398,-370.102971,8290.306550
2439.114204,-919.314598,-1110.308913,9622.677246
2439.114534,-1838.629195,-2886.803174,9844.739029
2439.114863,-2451.505594,-3108.864956,11843.295072
2439.115192,-1762.019645,-2590.720797,10881.027347
2439.115521,-689.485948,-2590.720797,10955.047942
2439.115851,-153.219100,-1480.411884,11103.089130
2439.116180,153.219100,-0.000000,10658.965565
2439.116509,995.924147,-74.020594,11029.068536
2439.116838,2528.115143,518.144159,8290.306550
2439.117168,4136.915689,2220.617826,7846.182985
2439.117497,4519.963438,3330.926739,6217.729913
2439.117826,4749.792088,3478.967927,6365.771101
2439.118156,3524.039291,3108.864956,6661.853478
2439.118485,2451.505594,2738.761985,6809.894666
2439.118814,229.828649,592.164754,7846.182985
2439.119143,-459.657299,-1258.350101,9326.594869
2439.119473,-2528.115143,-2516.700203,11029.068536
2439.119802,-2451.505594,-2738.761985,11325.150913
2439.120131,-2604.724693,-2146.597232,9474.636058
2439.120460,-2451.505594,-2738.761985,11843.295072
2439.120790,-3064.381992,-2590.720797,11325.150913
2439.121119,-995.924147,-888.247130,11473.192101
2439.121448,-383.047749,-1406.391290,10436.903782
2439.121778,459.657299,-0.000000,9326.594869
2439.122107,0.000000,740.205942,8956.491898
2439.122436,-383.047749,296.082377,10288.862594
2439.122765,1149.143247,222.061783,9252.574275
2439.123095,3370.820191,1998.556043,6365.771101
2439.123424,4673.182538,2146.597232,5847.626942
2439.123753,3677.258390,2812.782580,4663.297435
2439.124082,3370.820191,2738.761985,6291.750507
2439.124412,1455.581446,1776.494261,6735.874072
2439.124741,919.314598,-0.000000,7402.059420
2439.125070,-536.266849,-962.267725,9474.636058
2439.125400,-2221.676944,-2146.597232,9992.780217
2439.125729,-2298.286494,-3330.926739,11769.274478
2439.126058,-2451.505594,-2886.803174,10140.821405
2439.126387,-842.705048,-2960.823768,10955.047942
2439.126717,-919.314598,-1924.535449,11325.150913
2439.127046,0.000000,74.020594,10510.924376
2439.127375,-383.047749,222.061783,10510.924376
2439.127705,383.047749,-592.164754,10510.924376
2439.128034,2221.676944,814.226536,9474.636058
2439.128363,3064.381992,2146.597232,7179.997637
2439.128692,3983.696590,2368.659014,6883.915261
2439.129022,3907.087040,3108.864956,5699.585753
2439.129351,3753.867940,2738.761985,6439.791695
2439.129680,2298.286494,1628.453072,6587.832884
2439.130009,995.924147,592.164754,7550.100608
2439.130339,0.000000,-1332.370696,9474.636058
2439.130668,-2681.334243,-2442.679609,10584.944971
2439.130997,-2987.772442,-3330.926739,10584.944971
2439.131327,-2604.724693,-2812.782580,10214.842000
2439.131656,-2374.896044,-3404.947333,11177.109724
2439.131985,-2681.334243,-2442.679609,11029.068536
2439.132314,-1302.362347,-1036.288319,11325.150913
2439.132644,-995.924147,-1258.350101,10510.924376
2439.132973,-383.047749,-444.123565,9474.636058
2439.133302,-383.047749,1258.350101,9178.553681
2439.133631,-766.095498,888.247130,9400.615463
2439.133961,-383.047749,-222.061783,9548.656652
2439.134290,1608.800546,1258.350101,7772.162391
2439.134619,3064.381992,2146.597232,5403.503377
2439.134949,2681.334243,1628.453072,5773.606348
2439.135278,1378.971896,2146.597232,5551.544565
2439.135607,1838.629195,1332.370696,7476.080014
2439.135936,1149.143247,592.164754,7624.121203
2439.136266,306.438199,-296.082377,8142.265362
2439.136595,-1149.143247,-2220.617826,9844.739029
2439.136924,-1991.848295,-3108.864956,11769.274478
2439.137253,-2298.286494,-2886.803174,11547.212695
2439.137583,-1225.752797,-2590.720797,11029.068536
2439.137912,-383.047749,-2442.679609,11547.212695
2439.138241,-229.828649,-592.164754,10881.027347
2439.138571,0.000000,-0.000000,11029.068536
2439.138900,919.314598,-0.000000,10140.821405
2439.139229,3294.210641,1628.453072,8512.368333
2439.139558,4826.401637,2664.741391,6957.935855
2439.139888,4290.134789,2664.741391,6365.771101
2439.140217,3753.867940,3182.885551,6735.874072
2439.140546,2911.162892,2664.741391,6809.894666
2439.140875,2068.457845,1332.370696,6661.853478
2439.141205,0.000000,-222.061783,8290.306550
2439.141534,-1685.410096,-1258.350101,9696.697840
2439.141863,-1991.848295,-3701.029710,11843.295072
2439.142193,-2374.896044,-2442.679609,9696.697840
2439.142522,-1225.752797,-2072.576638,10732.986159
2439.142851,-1915.238745,-2368.659014,10881.027347
2439.143180,-1225.752797,-814.226536,10658.965565
2439.143510,-995.924147,-1036.288319,11325.150913
2439.143839,0.000000,-888.247130,9844.739029
2439.144168,76.609550,-962.267725,9992.780217
2439.144497,-766.095498,444.123565,10140.821405
2439.144827,-766.095498,-0.000000,9696.697840
2439.145156,536.266849,-0.000000,9548.656652
2439.145485,2451.505594,1332.370696,6587.832884
2439.145815,3447.429741,2294.638420,5625.565159
2439.146144,2911.162892,2590.720797,5107.421000
2439.146473,2834.553343,3034.844362,5699.585753
2439.146802,1762.019645,740.205942,7550.100608
2439.147132,1149.143247,592.164754,7402.059420
2439.147461,0.000000,-666.185348,8882.471304
2439.147790,-1608.800546,-2442.679609,10584.944971
2439.148120,-1991.848295,-2590.720797,11251.130318
2439.148449,-1532.190996,-2442.679609,10807.006753
2439.148778,-229.828649,-2442.679609,11251.130318
2439.149107,0.000000,-1554.432478,11103.089130
2439.149437,-153.219100,-592.164754,10807.006753
2439.149766,-306.438199,-74.020594,10510.924376
2439.150095,0.000000,-518.144159,10436.903782
2439.150424,2068.457845,592.164754,9178.553681
2439.150754,3064.381992,2294.638420,7402.059420
2439.151083,3140.991542,2368.659014,6587.832884
2439.151412,3370.820191,2664.741391,6291.750507
2439.151742,3753.867940,2368.659014,6883.915261
2439.152071,2451.505594,1776.494261,6809.894666
2439.152400,842.705048,444.123565,7624.121203
2439.152729,-1302.362347,-1554.432478,9622.677246
2439.153058,-2451.505594,-3034.844362,10955.047942
2439.153387,-2681.334243,-2960.823768,10732.986159
2439.153717,-1991.848295,-2664.741391,10658.965565
2439.154046,-1685.410096,-2738.761985,11251.130318
2439.154375,-1915.238745,-1554.432478,10807.006753
2439.154704,-1302.362347,-592.164754,11251.130318
2439.155033,-1072.533697,-1110.308913,10214.842000
2439.155363,0.000000,-518.144159,9696.697840
2439.155692,-383.047749,962.267725,9474.636058
2439.156021,-766.095498,1480.411884,9400.615463
2439.156350,-306.438199,-0.000000,8882.471304
2439.156679,1302.362347,370.102971,8364.327145
2439.157008,2145.067394,1554.432478,5847.626942
2439.157338,2451.505594,1850.514855,5847.626942
2439.157667,2374.896044,1776.494261,5477.523971
2439.157996,2221.676944,1406.391290,6217.729913
2439.158325,1302.362347,370.102971,8216.285956
2439.158654,0.000000,-370.102971,8660.409521
2439.158983,-995.924147,-2294.638420,10066.800811
2439.159313,-1762.019645,-2886.803174,11251.130318
2439.159642,-1378.971896,-2590.720797,10807.006753
2439.159971,-1149.143247,-2590.720797,10955.047942
2439.160300,0.000000,-2072.576638,10881.027347
2439.160629,0.000000,-888.247130,11251.130318
2439.160958,459.657299,-444.123565,10732.986159
2439.161288,1302.362347,-0.000000,9770.718434
2439.161617,2298.286494,1628.453072,7550.100608
2439.161946,3524.039291,2368.659014,7179.997637
2439.162275,3370.820191,3034.844362,5995.668130
2439.162604,3370.820191,2516.700203,6143.709319
2439.162933,2298.286494,1850.514855,6735.874072
2439.163263,1072.533697,888.247130,7254.018232
2439.163592,-306.438199,-444.123565,8882.471304
2439.163921,-1991.848295,-2072.576638,9844.739029
2439.164250,-1915.238745,-2960.823768,10955.047942
2439.164579,-1991.848295,-2368.659014,9918.759623
2439.164909,-1072.533697,-2738.761985,10807.006753
2439.165238,-1532.190996,-2516.700203,11325.150913
2439.165567,-689.485948,-1184.329507,11399.171507
2439.165896,-919.314598,-962.267725,11029.068536
2439.166225,-306.438199,-740.205942,9696.697840
2439.166554,-459.657299,-222.061783,9918.759623
2439.166884,-919.314598,296.082377,9992.780217
2439.167213,-306.438199,-0.000000,9252.574275
2439.167542,1378.971896,518.144159,8882.471304
2439.167871,1915.238745,1776.494261,5625.565159
2439.168200,3524.039291,2368.659014,6069.688724
2439.168529,2757.943793,2590.720797,5255.462188
2439.168859,2298.286494,2368.659014,6217.729913
2439.169188,1608.800546,666.185348,7698.141797
2439.169517,306.438199,-0.000000,8068.244768
2439.169846,0.000000,-2294.638420,9918.759623
2439.170175,-1838.629195,-2664.741391,10881.027347
2439.170504,-2451.505594,-2664.741391,11103.089130
2439.170834,-1455.581446,-2220.617826,11177.109724
2439.171163,-306.438199,-1998.556043,11251.130318
2439.171492,-306.438199,-666.185348,10881.027347
2439.171821,153.219100,-148.041188,10955.047942
2439.172150,153.219100,-444.123565,10436.903782
2439.172479,1072.533697,-222.061783,9696.697840
2439.172809,2451.505594,1480.411884,7772.162391
2439.173138,3447.429741,2664.741391,7254.018232
2439.173467,3600.648841,2812.782580,5773.606348
2439.173796,3677.258390,2738.761985,6291.750507
2439.174125,2757.943793,1702.473667,6365.771101
2439.174455,1149.143247,814.226536,7031.956449
2439.174784,-229.828649,-222.061783,9030.512492
2439.175113,-2374.896044,-1998.556043,10510.924376
2439.175442,-2221.676944,-3182.885551,11251.130318
2439.175771,-2298.286494,-2294.638420,9696.697840
2439.176100,-1991.848295,-2516.700203,10955.047942
2439.176430,-2221.676944,-2220.617826,11547.212695
2439.176759,-1302.362347,-1258.350101,11843.295072
2439.177088,-1608.800546,-1184.329507,10955.047942
2439.177417,0.000000,-1184.329507,10066.800811
2439.177746,0.000000,296.082377,9548.656652
2439.178075,-536.266849,962.267725,9474.636058
2439.178405,-842.705048,-0.000000,9474.636058
2439.178734,0.000000,-0.000000,8660.409521
2439.179063,2604.724693,888.247130,6661.853478
2439.179392,2757.943793,1776.494261,4959.379811
2439.179721,2834.553343,1628.453072,5403.503377
2439.180050,1838.629195,2220.617826,5477.523971
2439.180380,2298.286494,962.267725,7476.080014
2439.180709,1072.533697,148.041188,7846.182985
2439.181038,0.000000,-1110.308913,9104.533087
2439.181367,-1532.190996,-2738.761985,11621.233289
2439.181696,-2221.676944,-3182.885551,11695.253884
2439.182025,-1685.410096,-3034.844362,10955.047942
2439.182355,-766.095498,-2442.679609,11325.150913
2439.182684,0.000000,-1480.411884,11103.089130
2439.183013,-229.828649,-0.000000,10881.027347
2439.183342,-229.828649,518.144159,11177.109724
2439.183671,689.485948,444.123565,10140.821405
2439.184001,3140.991542,814.226536,8068.244768
2439.184330,3830.477490,2812.782580,6883.915261
2439.184659,3370.820191,2738.761985,5773.606348
2439.184988,3677.258390,3034.844362,6143.709319
2439.185317,2681.334243,2220.617826,6809.894666
2439.185646,1608.800546,1036.288319,7105.977043
2439.185976,229.828649,-1036.288319,8586.388927
2439.186305,-1608.800546,-2294.638420,10288.862594
2439.186634,-1378.971896,-3627.009116,11399.171507
2439.186963,-2145.067394,-2294.638420,9918.759623
2439.187292,-1762.019645,-2516.700203,10881.027347
2439.187621,-1991.848295,-2294.638420,11695.253884
2439.187951,-1225.752797,-1184.329507,11177.109724
2439.188280,-1378.971896,-814.226536,10881.027347
2439.188609,-229.828649,-666.185348,9770.718434
2439.188938,-612.876398,-222.061783,9474.636058
2439.189267,-919.314598,1332.370696,9770.718434
2439.189596,0.000000,740.205942,9030.512492
2439.189926,1225.752797,962.267725,8216.285956
2439.190255,2604.724693,2294.638420,5995.668130
2439.190584,3753.867940,1628.453072,5773.606348
2439.190913,2528.115143,2368.659014,5255.462188
2439.191242,2221.676944,2072.576638,6439.791695
2439.191572,1532.190996,296.082377,7994.224174
2439.191901,612.876398,-74.020594,8216.285956
2439.192230,-383.047749,-1406.391290,9918.759623
2439.192559,-1302.362347,-2738.761985,10732.986159
2439.192888,-1685.410096,-3034.844362,11621.233289
2439.193217,-459.657299,-1998.556043,11399.171507
2439.193547,-459.657299,-1628.453072,11177.109724
2439.193876,-383.047749,-666.185348,11029.068536
2439.194205,76.609550,-148.041188,10955.047942
2439.194534,689.485948,962.267725,9770.718434
2439.194863,2145.067394,1184.329507,8290.306550
2439.195192,3600.648841,2072.576638,7624.121203
2439.195522,3064.381992,2516.700203,6809.894666
2439.195851,2757.943793,2146.597232,6661.853478
2439.196180,2298.286494,2146.597232,6809.894666
2439.196509,1685.410096,1110.308913,7105.977043
2439.196838,306.438199,-296.082377,8438.347739
2439.197167,-1455.581446,-1258.350101,9178.553681
2439.197497,-1532.190996,-2886.803174,11547.212695
2439.197826,-1532.190996,-2664.741391,9992.780217
2439.198155,-1608.800546,-2516.700203,10881.027347
2439.198484,-1991.848295,-2590.720797,10955.047942
2439.198813,-1762.019645,-1554.432478,10955.047942
2439.199142,-1302.362347,-1554.432478,11473.192101
2439.199472,-459.657299,-740.205942,9992.780217
2439.199801,383.047749,-74.020594,9548.656652
2439.200130,-612.876398,370.102971,9622.677246
2439.200459,-766.095498,296.082377,9474.636058
2439.200788,689.485948,148.041188,9326.594869
2439.201118,2451.505594,1924.535449,5995.668130
2439.201447,2987.772442,1850.514855,5773.606348
2439.201776,2757.943793,2294.638420,5551.544565
2439.202105,2145.067394,2146.597232,6365.771101
2439.202434,1532.190996,444.123565,6365.771101
2439.202763,995.924147,-0.000000,7994.224174
2439.203093,0.000000,-888.247130,9178.553681
2439.203422,-1762.019645,-2220.617826,10510.924376
2439.203751,-1838.629195,-2960.823768,11251.130318
2439.204080,-1455.581446,-2442.679609,10658.965565
2439.204409,-383.047749,-2368.659014,11103.089130
2439.204738,-153.219100,-1554.432478,11103.089130
2439.205068,-536.266849,-666.185348,10732.986159
2439.205397,-459.657299,-592.164754,10658.965565
2439.205726,536.266849,-518.144159,10214.842000
2439.206055,2068.457845,1258.350101,7846.182985
2439.206384,3294.210641,2294.638420,7402.059420
2439.206713,3600.648841,3182.885551,6587.832884
2439.207043,3524.039291,3256.906145,6365.771101
2439.207372,2834.553343,2812.782580,7105.977043
2439.207701,1762.019645,1480.411884,6957.935855
2439.208030,0.000000,-0.000000,8142.265362
2439.208359,-1532.190996,-1702.473667,9844.739029
2439.208688,-1915.238745,-3108.864956,11251.130318
2439.209018,-2298.286494,-2738.761985,9770.718434
2439.209347,-1915.238745,-2960.823768,11177.109724
2439.209676,-2221.676944,-2664.741391,11399.171507
2439.210005,-1302.362347,-1184.329507,11251.130318
2439.210334,-919.314598,-1110.308913,11251.130318
2439.210664,-536.266849,-1184.329507,10066.800811
2439.210993,-153.219100,-148.041188,9400.615463
2439.211322,-536.266849,740.205942,9474.636058
2439.211651,0.000000,148.041188,9844.739029
2439.211980,1302.362347,740.205942,9252.574275
2439.212309,2681.334243,1628.453072,6291.750507
2439.212639,3294.210641,2220.617826,5625.565159
2439.212968,2911.162892,2146.597232,5107.421000
2439.213297,2911.162892,2664.741391,6217.729913
2439.213626,2221.676944,888.247130,7328.038826
2439.213955,1072.533697,-222.061783,8216.285956
2439.214284,-612.876398,-888.247130,8734.430116
2439.214614,-1532.190996,-2368.659014,10881.027347
2439.214943,-1915.238745,-2368.659014,11103.089130
2439.215272,-1149.143247,-1998.556043,10807.006753
2439.215601,-306.438199,-2220.617826,11103.089130
2439.215930,0.000000,-1332.370696,10955.047942
2439.216259,-306.438199,-74.020594,10955.047942
2439.216589,229.828649,-222.061783,10510.924376
2439.216918,536.266849,-148.041188,9844.739029
2439.217247,1838.629195,666.185348,8660.409521
2439.217576,2911.162892,2368.659014,7105.977043
2439.217905,2987.772442,2516.700203,6587.832884
2439.218234,2757.943793,3404.947333,6513.812290
2439.218564,3140.991542,2220.617826,7105.977043
2439.218893,1762.019645,888.247130,7179.997637
2439.219222,383.047749,592.164754,7846.182985
2439.219551,-1225.752797,-2072.576638,9770.718434
2439.219880,-1991.848295,-2812.782580,10955.047942
2439.220210,-1915.238745,-2368.659014,10140.821405
2439.220539,-1378.971896,-3034.844362,10955.047942
2439.220868,-1915.238745,-3108.864956,10881.027347
2439.221197,-1608.800546,-962.267725,11177.109724
2439.221526,-1149.143247,-888.247130,11251.130318
2439.221855,-612.876398,-888.247130,10140.821405
2439.222185,0.000000,-0.000000,9548.656652
2439.222514,-612.876398,1110.308913,9178.553681
2439.222843,-766.095498,370.102971,9622.677246
2439.223172,153.219100,666.185348,8882.471304
2439.223501,2451.505594,1110.308913,7550.100608
2439.223830,2374.896044,1924.535449,6217.729913
2439.224160,2298.286494,1554.432478,6143.709319
2439.224489,1378.971896,1406.391290,6439.791695
2439.224818,1302.362347,592.164754,7550.100608
2439.225147,536.266849,-592.164754,8438.347739
2439.225476,0.000000,-888.247130,8808.450710
2439.225805,-995.924147,-2886.803174,10881.027347
2439.226135,-1685.410096,-2886.803174,11029.068536
2439.226464,-995.924147,-2368.659014,10881.027347
2439.226793,-766.095498,-2294.638420,11251.130318
2439.227122,0.000000,-1480.411884,10807.006753
2439.227451,0.000000,-296.082377,11251.130318
2439.227780,76.609550,296.082377,11177.109724
2439.228110,1762.019645,1036.288319,8290.306550
2439.228439,3217.601092,1776.494261,8216.285956
2439.228768,3140.991542,3108.864956,6587.832884
2439.229097,3600.648841,3108.864956,6365.771101
2439.229426,2681.334243,2442.679609,6661.853478
2439.229756,1532.190996,1480.411884,6809.894666
2439.230085,383.047749,-0.000000,7550.100608
2439.230414,-766.095498,-1184.329507,8956.491898
2439.230743,-1915.238745,-2368.659014,11103.089130
2439.231072,-2298.286494,-2664.741391,10140.821405
2439.231401,-1608.800546,-2294.638420,10140.821405
2439.231731,-1991.848295,-2368.659014,10658.965565
2439.232060,-995.924147,-2146.597232,11251.130318
2439.232389,-1149.143247,-1406.391290,11621.233289
2439.232718,-153.219100,-1406.391290,10362.883188
2439.233047,229.828649,-222.061783,9622.677246
2439.233376,-306.438199,444.123565,9548.656652
2439.233706,-383.047749,518.144159,9992.780217
2439.234035,1149.143247,1036.288319,9178.553681
2439.234364,2681.334243,2220.617826,6143.709319
2439.234693,3677.258390,2146.597232,5921.647536
2439.235022,3140.991542,2442.679609,5329.482782
2439.235351,2681.334243,2442.679609,5847.626942
2439.235681,1532.190996,740.205942,6661.853478
2439.236010,459.657299,-74.020594,7994.224174
2439.236339,-612.876398,-1036.288319,9400.615463
2439.236668,-2145.067394,-2590.720797,10510.924376
2439.236997,-2145.067394,-3478.967927,11473.192101
2439.237326,-1608.800546,-2960.823768,11029.068536
2439.237656,-1149.143247,-2368.659014,11547.212695
2439.237985,-766.095498,-1332.370696,11103.089130
2439.238314,-153.219100,-0.000000,10881.027347
2439.238643,919.314598,-0.000000,11177.109724
2439.238972,2221.676944,740.205942,8512.368333
2439.239302,4366.744339,2220.617826,7846.182985
2439.239631,4136.915689,2516.700203,6365.771101
2439.239960,4366.744339,2960.823768,6661.853478
2439.240289,3370.820191,3108.864956,6439.791695
2439.240618,2681.334243,2146.597232,6439.791695
2439.240947,919.314598,370.102971,7550.100608
2439.241277,-689.485948,-888.247130,8882.471304
2439.241606,-2681.334243,-2664.741391,10436.903782
2439.241935,-3140.991542,-3923.091493,11843.295072
2439.242264,-2911.162892,-3108.864956,10214.842000
2439.242593,-2451.505594,-2664.741391,11473.192101
2439.242922,-2528.115143,-2664.741391,11177.109724
2439.243252,-1608.800546,-962.267725,10362.883188
2439.243581,-1149.143247,-888.247130,10436.903782
2439.243910,-383.047749,-0.000000,8882.471304
2439.244239,-612.876398,370.102971,9622.677246
2439.244568,0.000000,-148.041188,10881.027347
2439.244897,1225.752797,740.205942,7179.997637
2439.245227,3294.210641,1924.535449,7105.977043
2439.245556,3524.039291,1998.556043,5033.400406
2439.245885,3524.039291,2368.659014,5773.606348
2439.246214,2068.457845,2072.576638,7402.059420
2439.246543,1225.752797,1184.329507,6957.935855
2439.246872,-76.609550,-740.205942,8068.244768
2439.247202,-1225.752797,-1702.473667,9104.533087
2439.247531,-2221.676944,-2368.659014,9844.739029
2439.247860,-2451.505594,-3256.906145,11325.150913
2439.248189,-2145.067394,-2960.823768,10362.883188
2439.248518,-919.314598,-2516.700203,11251.130318
2439.248848,-919.314598,-1776.494261,10881.027347
2439.249177,-306.438199,-296.082377,10214.842000
2439.249506,0.000000,-962.267725,10955.047942
2439.249835,1378.971896,-0.000000,9622.677246
2439.250164,2681.334243,1776.494261,8068.244768
2439.250493,4519.963438,1998.556043,7846.182985
2439.250823,4060.306139,2812.782580,6735.874072
2439.251152,4596.572988,3330.926739,6513.812290
2439.251481,3370.820191,2886.803174,6365.771101
2439.251810,2221.676944,1998.556043,6661.853478
2439.252139,459.657299,444.123565,8512.368333
2439.252468,-1762.019645,-814.226536,9326.594869
2439.252797,-2834.553343,-2960.823768,11177.109724
2439.253126,-2911.162892,-3404.947333,10955.047942
2439.253455,-3064.381992,-2886.803174,10658.965565
2439.253785,-2681.334243,-2960.823768,11695.253884
2439.254114,-2451.505594,-1850.514855,10955.047942
2439.254443,-919.314598,-1036.288319,11251.130318
2439.254772,-766.095498,-1332.370696,10510.924376
2439.255101,153.219100,666.185348,9474.636058
2439.255430,-1302.362347,222.061783,10436.903782
2439.255759,842.705048,-370.102971,10807.006753
2439.256088,2068.457845,1110.308913,6735.874072
2439.256418,4826.401637,2368.659014,7031.956449
2439.256747,3753.867940,2368.659014,5033.400406
2439.257076,3907.087040,3256.906145,6143.709319
2439.257405,2834.553343,2368.659014,6291.750507
2439.257734,1455.581446,1332.370696,6217.729913
2439.258063,229.828649,-888.247130,9030.512492
2439.258392,-1532.190996,-1184.329507,9474.636058
2439.258721,-2451.505594,-2960.823768,11251.130318
2439.259050,-2911.162892,-3404.947333,11325.150913
2439.259380,-1838.629195,-2738.761985,10362.883188
2439.259709,-1608.800546,-2590.720797,11399.171507
2439.260038,-995.924147,-1406.391290,11399.171507
2439.260367,-306.438199,370.102971,10732.986159
2439.260696,-612.876398,-888.247130,11029.068536
2439.261025,1762.019645,296.082377,10362.883188
2439.261354,2834.553343,1776.494261,7550.100608
2439.261683,4443.353888,1850.514855,7624.121203
2439.262013,4290.134789,2738.761985,6217.729913
2439.262342,5132.839837,4441.235652,6365.771101
2439.262671,4136.915689,2738.761985,5921.647536
2439.263000,2757.943793,2664.741391,6513.812290
2439.263329,689.485948,518.144159,8290.306550
2439.263658,-1608.800546,-1036.288319,9474.636058
2439.263987,-3064.381992,-3330.926739,10881.027347
2439.264316,-3447.429741,-3775.050304,11473.192101
2439.264645,-2834.553343,-4145.153275,10584.944971
2439.264975,-2987.772442,-3034.844362,11769.274478
2439.265304,-2681.334243,-2442.679609,11103.089130
2439.265633,-1991.848295,-1184.329507,11325.150913
2439.265962,-995.924147,-1258.350101,10584.944971
2439.266291,76.609550,740.205942,8808.450710
2439.266620,0.000000,814.226536,8808.450710
2439.266949,-306.438199,-222.061783,10140.821405
2439.267278,1149.143247,370.102971,9178.553681
2439.267607,2987.772442,2072.576638,6143.709319
2439.267937,3907.087040,1924.535449,5995.668130
2439.268266,3064.381992,2886.803174,4737.318029
2439.268595,3447.429741,2886.803174,6735.874072
2439.268924,1915.238745,1480.411884,5921.647536
2439.269253,1072.533697,518.144159,7105.977043
2439.269582,-1149.143247,-1332.370696,9844.739029
2439.269911,-2451.505594,-2294.638420,10362.883188
2439.270240,-2834.553343,-3627.009116,11547.212695
2439.270570,-2221.676944,-2886.803174,10584.944971
2439.270899,-995.924147,-3034.844362,11029.068536
2439.271228,-612.876398,-1924.535449,11399.171507
2439.271557,0.000000,-0.000000,10436.903782
2439.271886,-689.485948,-370.102971,10881.027347
2439.272215,153.219100,-888.247130,11103.089130
2439.272544,2374.896044,1776.494261,8734.430116
2439.272873,3600.648841,2146.597232,7105.977043
2439.273202,4060.306139,2516.700203,6809.894666
2439.273532,3983.696590,3627.009116,5995.668130
2439.273861,4443.353888,2590.720797,6735.874072
2439.274190,2451.505594,2368.659014,6217.729913
2439.274519,1302.362347,518.144159,7476.080014
2439.274848,-1072.533697,-1036.288319,9548.656652
2439.275177,-2451.505594,-2886.803174,10288.862594
2439.275506,-2834.553343,-3552.988522,11325.150913
2439.275835,-2834.553343,-2664.741391,9918.759623
2439.276165,-2221.676944,-2812.782580,11769.274478
2439.276494,-2528.115143,-2368.659014,11399.171507
2439.276823,-1302.362347,-1110.308913,10658.965565
2439.277152,-689.485948,-1110.308913,10955.047942
2439.277481,0.000000,-518.144159,9770.718434
2439.277810,-306.438199,1110.308913,9326.594869
2439.278139,-459.657299,-0.000000,10214.842000
2439.278468,995.924147,222.061783,9474.636058
2439.278797,2451.505594,1850.514855,6513.812290
2439.279127,4443.353888,2146.597232,6069.688724
2439.279456,3064.381992,2516.700203,4885.359217
2439.279785,3524.039291,2886.803174,6069.688724
2439.280114,2068.457845,1850.514855,6883.915261
2439.280443,995.924147,370.102971,7402.059420
2439.280772,-612.876398,-1036.288319,9326.594869
2439.281101,-1991.848295,-2516.700203,10214.842000
2439.281430,-2221.676944,-3404.947333,11473.192101
2439.281759,-2221.676944,-3478.967927,10955.047942
2439.282089,-919.314598,-3034.844362,11325.150913
2439.282418,-766.095498,-2368.659014,11103.089130
2439.282747,-306.438199,-74.020594,10732.986159
2439.283076,-383.047749,148.041188,10584.944971
2439.283405,1225.752797,-148.041188,10955.047942
2439.283734,3217.601092,1628.453072,8290.306550
2439.284063,4519.963438,2516.700203,7550.100608
2439.284392,4826.401637,2590.720797,6513.812290
2439.284722,4060.306139,3627.009116,5847.626942
2439.285051,3677.258390,2886.803174,6365.771101
2439.285380,2298.286494,2146.597232,6365.771101
2439.285709,612.876398,-0.000000,7772.162391
2439.286038,-1991.848295,-1702.473667,9622.677246
2439.286367,-2834.553343,-2664.741391,11621.233289
2439.286696,-2374.896044,-3182.885551,10436.903782
2439.287025,-2528.115143,-2886.803174,10214.842000
2439.287354,-2528.115143,-3256.906145,11843.295072
2439.287684,-2528.115143,-1702.473667,11473.192101
2439.288013,-1762.019645,-666.185348,11325.150913
2439.288342,-842.705048,-1036.288319,10362.883188
2439.288671,-153.219100,296.082377,9400.615463
2439.289000,-536.266849,1184.329507,9104.533087
2439.289329,-995.924147,518.144159,10288.862594
2439.289658,153.219100,-222.061783,9918.759623
2439.289987,2298.286494,1554.432478,7105.977043
2439.290317,3064.381992,1998.556043,5255.462188
2439.290646,3140.991542,2368.659014,5551.544565
2439.290975,2757.943793,2368.659014,5551.544565
2439.291304,2451.505594,1406.391290,6957.935855
2439.291633,1225.752797,296.082377,7402.059420
2439.291962,76.609550,-222.061783,8734.430116
2439.292291,-1532.190996,-2516.700203,10362.883188
2439.292620,-2604.724693,-2886.803174,11473.192101
2439.292949,-2221.676944,-3404.947333,11621.233289
2439.293279,-1685.410096,-2590.720797,11103.089130
2439.293608,306.438199,-2294.638420,11621.233289
2439.293937,-229.828649,-222.061783,10881.027347
2439.294266,0.000000,518.144159,10584.944971
2439.294595,1149.143247,222.061783,9918.759623
2439.294924,2911.162892,1554.432478,7476.080014
2439.295253,3524.039291,2516.700203,7179.997637
2439.295582,3907.087040,2664.741391,6069.688724
2439.295911,3983.696590,2960.823768,6439.791695
2439.296241,3064.381992,2516.700203,6587.832884
2439.296570,2298.286494,1776.494261,6513.812290
2439.296899,153.219100,-296.082377,8364.327145
2439.297228,-1685.410096,-1628.453072,10066.800811
2439.297557,-2145.067394,-3552.988522,11621.233289
2439.297886,-1915.238745,-3108.864956,10881.027347
2439.298215,-1608.800546,-2664.741391,10288.862594
2439.298544,-2374.896044,-2738.761985,11695.253884
2439.298874,-1915.238745,-1480.411884,11029.068536
2439.299203,-1225.752797,-814.226536,10955.047942
2439.299532,-459.657299,-1110.308913,10066.800811
2439.299861,0.000000,-0.000000,9326.594869
2439.300190,-383.047749,148.041188,9622.677246
2439.300519,306.438199,-0.000000,9918.759623
2439.300848,1685.410096,1110.308913,7402.059420
2439.301177,3294.210641,1924.535449,6069.688724
2439.301506,3294.210641,2368.659014,5255.462188
2439.301836,2834.553343,2738.761985,6217.729913
2439.302165,1915.238745,2072.576638,6809.894666
2439.302494,1149.143247,740.205942,7105.977043
2439.302823,612.876398,-370.102971,8216.285956
2439.303152,-1302.362347,-1406.391290,9696.697840
2439.303481,-2145.067394,-2960.823768,11399.171507
2439.303810,-2221.676944,-3182.885551,11325.150913
2439.304139,-1149.143247,-2590.720797,10658.965565
2439.304469,-689.485948,-2664.741391,10955.047942
2439.304798,-306.438199,-962.267725,11029.068536
2439.305127,-383.047749,-148.041188,10955.047942
2439.305456,76.609550,-814.226536,10881.027347
2439.305785,1838.629195,666.185348,8882.471304
2439.306114,2987.772442,2294.638420,7772.162391
2439.306443,3907.087040,2516.700203,6883.915261
2439.306772,3830.477490,3182.885551,6439.791695
2439.307101,3983.696590,2812.782580,6587.832884
2439.307431,2681.334243,2442.679609,6513.812290
2439.307760,1762.019645,1406.391290,7402.059420
2439.308089,-536.266849,-148.041188,9252.574275
2439.308418,-2681.334243,-1998.556043,10362.883188
2439.308747,-2298.286494,-3108.864956,11991.336260
2439.309076,-2374.896044,-2812.782580,9770.718434
2439.309405,-1838.629195,-3108.864956,11177.109724
2439.309734,-2681.334243,-2590.720797,11547.212695
2439.310063,-1225.752797,-1036.288319,10807.006753
2439.310393,-1149.143247,-1036.288319,10881.027347
2439.310722,-306.438199,-518.144159,9474.636058
2439.311051,0.000000,370.102971,9326.594869
2439.311380,-766.095498,592.164754,9918.759623
2439.311709,-842.705048,-222.061783,9548.656652
2439.312038,766.095498,370.102971,8734.430116
2439.312367,2451.505594,1850.514855,5773.606348
2439.312696,3294.210641,2146.597232,5773.606348
2439.313026,2528.115143,2738.761985,5477.523971
2439.313355,2528.115143,2368.659014,6365.771101
2439.313684,1838.629195,1184.329507,7476.080014
2439.314013,689.485948,-0.000000,8216.285956
2439.314342,-842.705048,-1776.494261,9992.780217
2439.314671,-2221.676944,-2738.761985,10436.903782
2439.315000,-2298.286494,-3404.947333,11769.274478
2439.315329,-1685.410096,-2590.720797,10510.924376
2439.315658,-842.705048,-2368.659014,11399.171507
2439.315988,-459.657299,-1258.350101,11473.192101
2439.316317,-766.095498,-222.061783,11103.089130
2439.316646,0.000000,-222.061783,10288.862594
2439.316975,1685.410096,370.102971,9622.677246
2439.317304,3217.601092,2146.597232,7402.059420
2439.317633,3753.867940,2442.679609,7105.977043
2439.317962,3753.867940,3256.906145,5773.606348
2439.318291,3600.648841,2960.823768,6069.688724
2439.318621,2987.772442,2664.741391,6291.750507
2439.318950,1532.190996,1554.432478,6883.915261
2439.319279,0.000000,-1036.288319,8660.409521
2439.319608,-2221.676944,-2294.638420,9844.739029
2439.319937,-2451.505594,-3627.009116,12065.356855
2439.320266,-2911.162892,-3108.864956,10510.924376
2439.320595,-1762.019645,-2960.823768,10955.047942
2439.320924,-1685.410096,-2516.700203,11103.089130
2439.321253,-1149.143247,-1258.350101,10510.924376
2439.321583,-1378.971896,-962.267725,11177.109724
2439.321912,-766.095498,-666.185348,9918.759623
2439.322241,0.000000,370.102971,9474.636058
2439.322570,-536.266849,666.185348,9548.656652
2439.322899,-306.438199,-0.000000,9844.739029
2439.323228,1608.800546,518.144159,7698.141797
2439.323557,3217.601092,2146.597232,6365.771101
2439.323886,3524.039291,2368.659014,5181.441594
2439.324215,2911.162892,2738.761985,5551.544565
2439.324545,2528.115143,2072.576638,6735.874072
2439.324874,1302.362347,666.185348,7179.997637
2439.325203,76.609550,-740.205942,8216.285956
2439.325532,-1302.362347,-1998.556043,9992.780217
2439.325861,-2145.067394,-3404.947333,10881.027347
2439.326190,-1915.238745,-3330.926739,11917.315666
2439.326519,-1455.581446,-2590.720797,11251.130318
2439.326848,-995.924147,-2294.638420,11547.212695
2439.327178,-536.266849,-814.226536,10955.047942
2439.327507,0.000000,296.082377,11325.150913
2439.327836,919.314598,740.205942,10436.903782
2439.328165,2604.724693,1702.473667,8586.388927
2439.328494,3677.258390,3108.864956,7105.977043
2439.328823,3830.477490,3108.864956,6291.750507
2439.329152,3677.258390,3034.844362,6439.791695
2439.329481,2987.772442,2442.679609,6587.832884
2439.329810,2528.115143,1332.370696,6587.832884
2439.330140,1149.143247,-222.061783,7994.224174
2439.330469,-1149.143247,-1406.391290,9178.553681
2439.330798,-2757.943793,-2960.823768,11251.130318
2439.331127,-2757.943793,-3330.926739,10807.006753
2439.331456,-2298.286494,-2664.741391,10362.883188
2439.331785,-2221.676944,-2664.741391,11103.089130
2439.332114,-1991.848295,-1702.473667,10658.965565
2439.332443,-1455.581446,-740.205942,10955.047942
2439.332773,-995.924147,-814.226536,10658.965565
2439.333102,-229.828649,-0.000000,9326.594869
2439.333431,-689.485948,592.164754,9770.718434
2439.333760,-842.705048,444.123565,9548.656652
2439.334089,536.266849,-0.000000,9252.574275
2439.334418,1915.238745,1628.453072,6957.935855
2439.334747,3140.991542,1628.453072,5921.647536
2439.335076,2834.553343,2294.638420,5329.482782
2439.335405,1991.848295,2368.659014,6069.688724
2439.335735,1532.190996,1110.308913,6809.894666
2439.336064,842.705048,-0.000000,7624.121203
2439.336393,-229.828649,-888.247130,8882.471304
2439.336722,-1455.581446,-2368.659014,10066.800811
2439.337051,-2221.676944,-3701.029710,10955.047942
2439.337380,-2604.724693,-2960.823768,11251.130318
2439.337709,-919.314598,-2368.659014,10955.047942
2439.338038,-383.047749,-1554.432478,11103.089130
2439.338368,-612.876398,-0.000000,10881.027347
2439.338697,0.000000,-0.000000,11103.089130
2439.339026,1915.238745,222.061783,10066.800811
2439.339355,3140.991542,1924.535449,7920.203579
2439.339684,3983.696590,2368.659014,7105.977043
2439.340013,3907.087040,2886.803174,6365.771101
2439.340342,3983.696590,2886.803174,6587.832884
2439.340671,2987.772442,2368.659014,6587.832884
2439.341000,1915.238745,1480.411884,6957.935855
2439.341330,306.438199,-0.000000,8882.471304
2439.341659,-2834.553343,-1776.494261,10584.944971
2439.341988,-2757.943793,-3552.988522,12065.356855
2439.342317,-2911.162892,-3182.885551,10436.903782
2439.342646,-1838.629195,-2664.741391,10732.986159
2439.342975,-2298.286494,-2738.761985,11547.212695
2439.343304,-1762.019645,-1480.411884,11251.130318
2439.343633,-1225.752797,-1332.370696,11547.212695
2439.343962,-689.485948,-962.267725,10214.842000
2439.344292,76.609550,370.102971,9104.533087
2439.344621,0.000000,666.185348,10362.883188
2439.344950,153.219100,-74.020594,9696.697840
2439.345279,1991.848295,1258.350101,7179.997637
2439.345608,3677.258390,2072.576638,6069.688724
2439.345937,3907.087040,1998.556043,4737.318029
2439.346266,3294.210641,2590.720797,5995.668130
2439.346595,2451.505594,2886.803174,6661.853478
2439.346925,1225.752797,666.185348,6809.894666
2439.347254,459.657299,-370.102971,8512.368333
2439.347583,-1378.971896,-1776.494261,9622.677246
2439.347912,-2374.896044,-2886.803174,11251.130318
2439.348241,-1915.238745,-3330.926739,11473.192101
2439.348570,-919.314598,-2812.782580,10510.924376
2439.348899,-153.219100,-2590.720797,11547.212695
2439.349228,-229.828649,-962.267725,10807.006753
2439.349557,-306.438199,-0.000000,10436.903782
2439.349887,0.000000,-296.082377,10362.883188
2439.350216,1225.752797,296.082377,10066.800811
2439.350545,2221.676944,1776.494261,7772.162391
2439.350874,3524.039291,2220.617826,7624.121203
2439.351203,3524.039291,2590.720797,6661.853478
2439.351532,3907.087040,3108.864956,5847.626942
2439.351861,2757.943793,2442.679609,6365.771101
2439.352190,1608.800546,1702.473667,7031.956449
2439.352520,306.438199,370.102971,8438.347739
2439.352849,-2068.457845,-1850.514855,9770.718434
2439.353178,-2298.286494,-2960.823768,11325.150913
2439.353507,-2298.286494,-3034.844362,11103.089130
2439.353836,-2374.896044,-3182.885551,11177.109724
2439.354165,-2068.457845,-2812.782580,11547.212695
2439.354494,-1608.800546,-1332.370696,11177.109724
2439.354823,-1225.752797,-1110.308913,11029.068536
2439.355152,-459.657299,-814.226536,10658.965565
2439.355481,-229.828649,592.164754,9252.574275
2439.355810,-766.095498,962.267725,9992.780217
2439.356139,-612.876398,-0.000000,9548.656652
2439.356468,1915.238745,296.082377,8956.491898
2439.356797,2681.334243,1554.432478,6143.709319
2439.357126,3064.381992,1924.535449,5921.647536
2439.357455,2681.334243,2738.761985,5699.585753
2439.357784,2528.115143,1998.556043,6735.874072
2439.358113,1455.581446,1184.329507,7328.038826
2439.358443,1072.533697,-0.000000,8808.450710
2439.358772,0.000000,-1258.350101,9696.697840
2439.359101,-1608.800546,-2664.741391,10881.027347
2439.359430,-2068.457845,-3182.885551,11843.295072
2439.359759,-1608.800546,-2886.803174,11103.089130
2439.360088,-689.485948,-2516.700203,11177.109724
2439.360417,-536.266849,-1554.432478,11251.130318
2439.360746,76.609550,-444.123565,10732.986159
2439.361075,842.705048,-0.000000,10732.986159
2439.361404,2298.286494,1184.329507,8290.306550
2439.361733,3753.867940,2738.761985,7328.038826
2439.362062,3447.429741,2960.823768,6365.771101
2439.362391,3447.429741,3108.864956,6513.812290
2439.362720,2604.724693,3034.844362,6439.791695
2439.363049,2528.115143,1998.556043,6439.791695
2439.363378,1225.752797,-0.000000,7105.977043
2439.363707,-1378.971896,-888.247130,9770.718434
2439.364036,-2145.067394,-3478.967927,11325.150913
2439.364365,-2221.676944,-2960.823768,10807.006753
2439.364695,-2145.067394,-2590.720797,9548.656652
2439.365024,-1762.019645,-2368.659014,11103.089130
2439.365353,-2757.943793,-2442.679609,11399.171507
2439.365682,-766.095498,-1036.288319,11029.068536
2439.366011,-383.047749,-1776.494261,10510.924376
2439.366340,-383.047749,-592.164754,8734.430116
2439.366669,-306.438199,-0.000000,9548.656652
2439.366998,-229.828649,148.041188,9918.759623
2439.367327,995.924147,222.061783,9030.512492
2439.367656,2757.943793,2072.576638,6291.750507
2439.367985,3830.477490,1850.514855,5995.668130
2439.368314,3064.381992,2590.720797,5329.482782
2439.368643,2604.724693,3182.885551,6291.750507
2439.368972,1762.019645,1702.473667,6809.894666
2439.369301,689.485948,-0.000000,7624.121203
2439.369630,-689.485948,-1036.288319,9178.553681
2439.369959,-1915.238745,-2146.597232,10362.883188
2439.370288,-2451.505594,-2664.741391,11917.315666
2439.370617,-2068.457845,-3034.844362,11177.109724
2439.370947,-1225.752797,-2442.679609,11103.089130
2439.371276,-995.924147,-1776.494261,11251.130318
2439.371605,-766.095498,-222.061783,10658.965565
2439.371934,-229.828649,-592.164754,10732.986159
2439.372263,1608.800546,-518.144159,10214.842000
2439.372592,2451.505594,1702.473667,7254.018232
2439.372921,4213.525239,2516.700203,7698.141797
2439.373250,3753.867940,3182.885551,6217.729913
2439.373579,3907.087040,3330.926739,6661.853478
2439.373908,3140.991542,2738.761985,6513.812290
2439.374237,1991.848295,1554.432478,6735.874072
2439.374566,229.828649,-148.041188,8586.388927
2439.374895,-2451.505594,-1184.329507,9992.780217
2439.375224,-2374.896044,-3627.009116,11917.315666
2439.375553,-2987.772442,-3034.844362,10658.965565
2439.375882,-2298.286494,-2442.679609,10288.862594
2439.376211,-2451.505594,-2738.761985,11399.171507
2439.376540,-1762.019645,-1628.453072,10807.006753
2439.376869,-1149.143247,-1332.370696,11103.089130
2439.377199,-1685.410096,-1110.308913,9696.697840
2439.377528,0.000000,-0.000000,9030.512492
2439.377857,-383.047749,-0.000000,10510.924376
2439.378186,766.095498,444.123565,9696.697840
2439.378515,2298.286494,1702.473667,6587.832884
2439.378844,3753.867940,2368.659014,6513.812290
2439.379173,3217.601092,2146.597232,5403.503377
2439.379502,3677.258390,3330.926739,6513.812290
2439.379831,2145.067394,1850.514855,6513.812290
2439.380160,1302.362347,1110.308913,7105.977043
2439.380489,-153.219100,-666.185348,9104.533087
2439.380818,-1532.190996,-1554.432478,9474.636058
2439.381147,-2681.334243,-3108.864956,11177.109724
2439.381476,-2604.724693,-3775.050304,11547.212695
2439.381805,-1302.362347,-2960.823768,10288.862594
2439.382134,-1378.971896,-2516.700203,11325.150913
