#time,accel_x,accel_y,accel_z
2491.787435,459.657299,-0.000000,9030.512492
2491.787764,229.828649,-148.041188,9104.533087
2491.788093,229.828649,-0.000000,9104.533087
2491.788422,919.314598,-74.020594,9104.533087
2491.788751,536.266849,222.061783,9178.553681
2491.789079,-229.828649,-222.061783,9400.615463
2491.789408,153.219100,-444.123565,9178.553681
2491.789737,229.828649,-74.020594,9252.574275
2491.790066,0.000000,-222.061783,9252.574275
2491.790395,229.828649,-148.041188,8956.491898
2491.790724,383.047749,-0.000000,9400.615463
2491.791053,536.266849,148.041188,9252.574275
2491.791382,842.705048,-148.041188,9178.553681
2491.791711,459.657299,-148.041188,8734.430116
2491.792040,459.657299,-0.000000,8734.430116
2491.792369,536.266849,-0.000000,8734.430116
2491.792698,383.047749,-0.000000,8882.471304
2491.793027,689.485948,-0.000000,9326.594869
2491.793356,919.314598,-518.144159,9104.533087
2491.793685,306.438199,-222.061783,9104.533087
2491.794014,689.485948,-370.102971,9030.512492
2491.794343,306.438199,-222.061783,9030.512492
2491.794672,383.047749,-296.082377,8808.450710
2491.795001,229.828649,-0.000000,8956.491898
2491.795330,306.438199,-222.061783,8882.471304
2491.795659,0.000000,-74.020594,9252.574275
2491.795988,0.000000,-370.102971,9326.594869
2491.796317,306.438199,-370.102971,8956.491898
2491.796645,229.828649,-0.000000,9252.574275
2491.796974,306.438199,-148.041188,9030.512492
2491.797303,536.266849,-148.041188,9104.533087
2491.797632,459.657299,-296.082377,9104.533087
2491.797961,842.705048,-444.123565,9326.594869
2491.798290,383.047749,-370.102971,9326.594869
2491.798619,536.266849,-296.082377,9326.594869
2491.798948,612.876398,-296.082377,9252.574275
2491.799277,229.828649,-222.061783,9252.574275
2491.799606,536.266849,-370.102971,9104.533087
2491.799935,76.609550,-0.000000,9326.594869
2491.800264,459.657299,-148.041188,9474.636058
2491.800593,459.657299,-296.082377,9178.553681
2491.800922,383.047749,-222.061783,9326.594869
2491.801251,153.219100,-0.000000,8734.430116
2491.801580,229.828649,148.041188,9178.553681
2491.801909,229.828649,-0.000000,8956.491898
2491.802238,229.828649,-0.000000,8882.471304
2491.802567,536.266849,-0.000000,8734.430116
2491.802896,459.657299,148.041188,9548.656652
2491.803225,306.438199,-518.144159,8808.450710
2491.803554,153.219100,-296.082377,8734.430116
2491.803882,459.657299,-148.041188,8808.450710
2491.804211,229.828649,-148.041188,8734.430116
2491.804540,76.609550,-148.041188,8808.450710
2491.804869,306.438199,-444.123565,8882.471304
2491.805198,536.266849,-444.123565,8808.450710
2491.805527,153.219100,-222.061783,8808.450710
2491.805856,306.438199,-296.082377,9178.553681
2491.806185,383.047749,-74.020594,9178.553681
2491.806514,306.438199,296.082377,9400.615463
2491.806843,306.438199,-148.041188,9104.533087
2491.807172,153.219100,-148.041188,9178.553681
2491.807501,229.828649,-222.061783,8956.491898
2491.807830,612.876398,-222.061783,9178.553681
2491.808159,612.876398,-148.041188,9326.594869
2491.808488,229.828649,-0.000000,9474.636058
2491.808817,229.828649,-222.061783,9178.553681
2491.809146,229.828649,-222.061783,9326.594869
2491.809475,229.828649,-296.082377,9252.574275
2491.809804,306.438199,-0.000000,9400.615463
2491.810133,153.219100,-296.082377,9252.574275
2491.810462,919.314598,-592.164754,9104.533087
2491.810791,995.924147,-148.041188,9178.553681
2491.811120,306.438199,-0.000000,9178.553681
2491.811448,306.438199,-222.061783,9178.553681
2491.811777,229.828649,-148.041188,9178.553681
2491.812106,229.828649,-148.041188,8956.491898
2491.812435,536.266849,-222.061783,9104.533087
2491.812764,0.000000,-0.000000,9178.553681
2491.813093,766.095498,-148.041188,9104.533087
2491.813422,459.657299,-0.000000,8808.450710
2491.813751,459.657299,-74.020594,8882.471304
2491.814080,306.438199,-0.000000,8734.430116
2491.814409,229.828649,-74.020594,8882.471304
2491.814738,229.828649,-222.061783,8956.491898
2491.815067,536.266849,-148.041188,8956.491898
2491.815396,383.047749,444.123565,9400.615463
2491.815725,229.828649,-148.041188,9474.636058
2491.816054,1149.143247,-888.247130,9474.636058
2491.816383,1378.971896,-962.267725,9326.594869
2491.816712,1608.800546,-518.144159,9252.574275
2491.817041,2221.676944,-666.185348,9030.512492
2491.817370,3677.258390,-74.020594,8808.450710
2491.817699,3600.648841,-0.000000,8586.388927
2491.818028,4060.306139,-444.123565,8734.430116
2491.818357,3830.477490,-0.000000,8438.347739
2491.818686,2911.162892,518.144159,8734.430116
2491.819014,2834.553343,444.123565,8290.306550
2491.819343,2374.896044,-222.061783,9696.697840
2491.819672,2681.334243,-740.205942,9326.594869
2491.820001,1302.362347,-666.185348,9844.739029
2491.820330,1532.190996,-1850.514855,10658.965565
2491.820659,2451.505594,-1776.494261,9474.636058
2491.820988,2528.115143,-0.000000,9178.553681
2491.821317,2451.505594,-1406.391290,9844.739029
2491.821646,3600.648841,-518.144159,9030.512492
2491.821975,3983.696590,1110.308913,9622.677246
2491.822304,5132.839837,666.185348,7698.141797
2491.822633,4596.572988,1036.288319,7772.162391
2491.822962,4673.182538,1332.370696,9252.574275
2491.823291,4673.182538,1036.288319,7328.038826
2491.823620,3830.477490,888.247130,8734.430116
2491.823949,2987.772442,-0.000000,9252.574275
2491.824278,2298.286494,-74.020594,8660.409521
2491.824607,1838.629195,-666.185348,9918.759623
2491.824936,842.705048,-1110.308913,9548.656652
2491.825265,2068.457845,-666.185348,9918.759623
2491.825594,689.485948,-1406.391290,9474.636058
2491.825923,1991.848295,-444.123565,9474.636058
2491.826251,2298.286494,-814.226536,9992.780217
2491.826580,3753.867940,1036.288319,8142.265362
2491.826909,3524.039291,-74.020594,8734.430116
2491.827238,4519.963438,1332.370696,8956.491898
2491.827567,4519.963438,666.185348,7846.182985
2491.827896,4443.353888,962.267725,7920.203579
2491.828225,4136.915689,296.082377,9030.512492
2491.828554,3064.381992,-370.102971,9104.533087
2491.828883,2987.772442,-1406.391290,9178.553681
2491.829212,2834.553343,-1702.473667,9474.636058
2491.829541,2604.724693,-1554.432478,10436.903782
2491.829870,2145.067394,-1776.494261,9696.697840
2491.830199,2374.896044,-1776.494261,10214.842000
2491.830528,2681.334243,-592.164754,9696.697840
2491.830857,3217.601092,-0.000000,9400.615463
2491.831186,3753.867940,1036.288319,8438.347739
2491.831515,4749.792088,1406.391290,8734.430116
2491.831844,4443.353888,2368.659014,8216.285956
2491.832173,4136.915689,2664.741391,7179.997637
2491.832502,3753.867940,2368.659014,7772.162391
2491.832831,2987.772442,1776.494261,8142.265362
2491.833160,2068.457845,1184.329507,8290.306550
2491.833489,1225.752797,-740.205942,9104.533087
2491.833817,536.266849,-1850.514855,9548.656652
2491.834146,76.609550,-2590.720797,10140.821405
2491.834475,0.000000,-2812.782580,10658.965565
2491.834804,229.828649,-2442.679609,10807.006753
2491.835133,612.876398,-1776.494261,10288.862594
2491.835462,1838.629195,-592.164754,9696.697840
2491.835791,3064.381992,148.041188,9252.574275
2491.836120,3370.820191,1628.453072,8512.368333
2491.836449,3140.991542,3182.885551,7550.100608
2491.836778,3140.991542,3330.926739,7105.977043
2491.837107,2451.505594,3108.864956,7031.956449
2491.837436,842.705048,1998.556043,7254.018232
2491.837765,0.000000,444.123565,8586.388927
2491.838094,-2068.457845,-962.267725,9548.656652
2491.838423,-1762.019645,-3182.885551,10658.965565
2491.838752,-2451.505594,-3182.885551,8660.409521
2491.839081,-2604.724693,-3627.009116,10066.800811
2491.839410,-2834.553343,-3775.050304,11251.130318
2491.839739,-2221.676944,-2516.700203,10658.965565
2491.840068,-1378.971896,-2220.617826,11843.295072
2491.840397,-229.828649,-888.247130,10214.842000
2491.840726,766.095498,592.164754,9326.594869
2491.841054,0.000000,2294.638420,8290.306550
2491.841383,229.828649,1406.391290,10584.944971
2491.841712,2145.067394,1480.411884,9326.594869
2491.842041,4749.792088,2960.823768,5921.647536
2491.842370,5669.106685,2294.638420,5551.544565
2491.842699,4903.011187,2072.576638,4959.379811
2491.843028,4060.306139,1258.350101,7105.977043
2491.843357,2528.115143,-1184.329507,7550.100608
2491.843686,1608.800546,-2072.576638,8364.327145
2491.844015,-459.657299,-2368.659014,9918.759623
2491.844344,-1915.238745,-2960.823768,10510.924376
2491.844673,-2374.896044,-2960.823768,11547.212695
2491.845002,-1608.800546,-1184.329507,9918.759623
2491.845331,-536.266849,-1036.288319,10510.924376
2491.845660,-689.485948,-0.000000,10510.924376
2491.845989,-689.485948,1850.514855,9548.656652
2491.846318,-536.266849,740.205942,9622.677246
2491.846647,-995.924147,-296.082377,9104.533087
2491.846976,-1149.143247,-370.102971,9474.636058
2491.847305,-1149.143247,-1036.288319,9326.594869
2491.847634,-995.924147,-1332.370696,9252.574275
2491.847963,-229.828649,-1110.308913,8956.491898
2491.848292,612.876398,296.082377,8290.306550
2491.848620,459.657299,-444.123565,7550.100608
2491.848949,995.924147,518.144159,7698.141797
2491.849278,1302.362347,1036.288319,7920.203579
2491.849607,1225.752797,814.226536,8512.368333
2491.849936,1072.533697,444.123565,8660.409521
2491.850265,1302.362347,-0.000000,9474.636058
2491.850594,2145.067394,-74.020594,9474.636058
2491.850923,2145.067394,-0.000000,9104.533087
2491.851252,1838.629195,-0.000000,9104.533087
2491.851581,1915.238745,-0.000000,9474.636058
2491.851910,1762.019645,666.185348,9400.615463
2491.852239,995.924147,962.267725,9474.636058
2491.852568,842.705048,518.144159,9178.553681
2491.852897,383.047749,222.061783,8882.471304
2491.853226,-383.047749,-1110.308913,8956.491898
2491.853555,-995.924147,-1332.370696,9400.615463
2491.853884,-1225.752797,-1776.494261,9326.594869
2491.854213,-612.876398,-1628.453072,9474.636058
2491.854542,-1149.143247,-1406.391290,9548.656652
2491.854871,0.000000,-1332.370696,9992.780217
2491.855200,-229.828649,-814.226536,9770.718434
2491.855529,0.000000,-444.123565,10288.862594
2491.855857,-153.219100,444.123565,9696.697840
2491.856186,153.219100,1258.350101,9252.574275
2491.856515,1072.533697,1406.391290,8882.471304
2491.856844,1762.019645,1184.329507,7920.203579
2491.857173,2374.896044,1554.432478,7624.121203
2491.857502,2681.334243,592.164754,7476.080014
2491.857831,1685.410096,518.144159,7698.141797
2491.858160,1685.410096,-74.020594,8364.327145
2491.858489,842.705048,-1406.391290,8364.327145
2491.858818,0.000000,-2368.659014,8956.491898
2491.859147,76.609550,-2442.679609,9844.739029
2491.859476,0.000000,-1998.556043,9844.739029
2491.859805,-459.657299,-962.267725,9622.677246
2491.860134,0.000000,-0.000000,9918.759623
2491.860463,0.000000,962.267725,9548.656652
2491.860792,-306.438199,1184.329507,9104.533087
2491.861121,-383.047749,1036.288319,9178.553681
2491.861450,-459.657299,740.205942,8734.430116
2491.861779,-229.828649,148.041188,8364.327145
2491.862108,-306.438199,-370.102971,9178.553681
2491.862437,-612.876398,-1184.329507,9548.656652
2491.862766,-919.314598,-1776.494261,9178.553681
2491.863095,-995.924147,-1628.453072,8660.409521
2491.863423,-766.095498,-1110.308913,9104.533087
2491.863752,-306.438199,-888.247130,8882.471304
2491.864081,153.219100,-0.000000,9030.512492
2491.864410,0.000000,740.205942,9474.636058
2491.864739,0.000000,444.123565,9400.615463
2491.865068,153.219100,444.123565,9178.553681
2491.865397,76.609550,-0.000000,9770.718434
2491.865726,689.485948,-222.061783,10288.862594
2491.866055,1685.410096,-296.082377,9474.636058
2491.866384,2221.676944,-296.082377,9030.512492
2491.866713,1991.848295,-0.000000,9030.512492
2491.867042,2757.943793,962.267725,8734.430116
2491.867371,2298.286494,1258.350101,8364.327145
2491.867700,1915.238745,1258.350101,8068.244768
2491.868030,1149.143247,592.164754,8290.306550
2491.868359,612.876398,222.061783,9400.615463
2491.868688,-536.266849,-740.205942,9030.512492
2491.869017,-1225.752797,-1406.391290,9696.697840
2491.869346,-689.485948,-1702.473667,9992.780217
2491.869675,-1532.190996,-1184.329507,9326.594869
2491.870004,-1072.533697,-1480.411884,10140.821405
2491.870333,-1302.362347,-1184.329507,10140.821405
2491.870662,-995.924147,-444.123565,9770.718434
2491.870991,-383.047749,-0.000000,9992.780217
2491.871320,76.609550,1110.308913,9252.574275
2491.871649,0.000000,1702.473667,8956.491898
2491.871978,0.000000,1776.494261,8586.388927
2491.872307,0.000000,1184.329507,8512.368333
2491.872636,153.219100,370.102971,8808.450710
2491.872965,1149.143247,-296.082377,8660.409521
2491.873294,1762.019645,-444.123565,8956.491898
2491.873623,1608.800546,-1184.329507,8438.347739
2491.873952,1762.019645,-1258.350101,7550.100608
2491.874281,1685.410096,-1036.288319,8512.368333
2491.874610,1302.362347,-740.205942,8956.491898
2491.874939,1455.581446,-222.061783,9104.533087
2491.875268,1225.752797,-74.020594,9104.533087
2491.875597,842.705048,296.082377,9474.636058
2491.875926,0.000000,296.082377,9178.553681
2491.876255,76.609550,296.082377,9252.574275
2491.876584,-383.047749,222.061783,9474.636058
2491.876913,-766.095498,74.020594,9548.656652
2491.877242,-689.485948,-444.123565,9474.636058
2491.877571,-766.095498,-740.205942,8882.471304
2491.877900,-1225.752797,-1480.411884,9770.718434
2491.878229,-689.485948,-1702.473667,8882.471304
2491.878558,-612.876398,-1776.494261,9474.636058
2491.878887,-842.705048,-814.226536,9474.636058
2491.879216,-306.438199,-666.185348,9326.594869
2491.879545,0.000000,-296.082377,9178.553681
2491.879874,536.266849,814.226536,8882.471304
2491.880203,536.266849,444.123565,9400.615463
2491.880532,536.266849,222.061783,9548.656652
2491.880861,1072.533697,148.041188,9474.636058
2491.881190,1455.581446,-222.061783,9400.615463
2491.881519,1608.800546,-74.020594,8142.265362
2491.881848,2681.334243,666.185348,7994.224174
2491.882177,2681.334243,296.082377,7476.080014
2491.882506,2528.115143,1036.288319,7920.203579
2491.882835,2298.286494,518.144159,7846.182985
2491.883164,1455.581446,666.185348,7846.182985
2491.883493,536.266849,148.041188,8512.368333
2491.883822,-229.828649,-222.061783,8734.430116
2491.884151,-612.876398,-1184.329507,9326.594869
2491.884480,-766.095498,-1628.453072,10362.883188
2491.884809,-689.485948,-1406.391290,9696.697840
2491.885138,-1072.533697,-962.267725,10214.842000
2491.885467,-1149.143247,-1258.350101,9696.697840
2491.885796,-1149.143247,-518.144159,9696.697840
2491.886125,-919.314598,-592.164754,10362.883188
2491.886454,-612.876398,-296.082377,9770.718434
2491.886783,-383.047749,444.123565,9696.697840
2491.887112,0.000000,666.185348,8734.430116
2491.887441,-459.657299,962.267725,9030.512492
2491.887770,-153.219100,592.164754,9400.615463
2491.888099,0.000000,-74.020594,8882.471304
2491.888428,1838.629195,-962.267725,9030.512492
2491.888757,1532.190996,-444.123565,7105.977043
2491.889086,2298.286494,-666.185348,8586.388927
2491.889415,2604.724693,-296.082377,8364.327145
2491.889745,2681.334243,-0.000000,8512.368333
2491.890074,2911.162892,-592.164754,9252.574275
2491.890403,1762.019645,296.082377,9104.533087
2491.890732,995.924147,-0.000000,9326.594869
2491.891061,229.828649,1110.308913,9400.615463
2491.891390,-306.438199,370.102971,9696.697840
2491.891719,-995.924147,-0.000000,9696.697840
2491.892048,-919.314598,-0.000000,10066.800811
2491.892377,-919.314598,-222.061783,9400.615463
2491.892706,-689.485948,-1332.370696,8586.388927
2491.893035,-1072.533697,-1036.288319,9474.636058
2491.893364,-842.705048,-1850.514855,9474.636058
2491.893693,-689.485948,-1406.391290,9030.512492
2491.894022,-153.219100,-1110.308913,8364.327145
2491.894351,0.000000,-666.185348,9326.594869
2491.894680,-689.485948,-222.061783,8808.450710
2491.895009,-229.828649,-0.000000,8882.471304
2491.895338,153.219100,518.144159,8882.471304
2491.895667,229.828649,666.185348,8586.388927
2491.895996,76.609550,-0.000000,9548.656652
2491.896325,766.095498,-1110.308913,9474.636058
2491.896654,1149.143247,-222.061783,9622.677246
2491.896983,1608.800546,-296.082377,9030.512492
2491.897312,2374.896044,-0.000000,7772.162391
2491.897641,2451.505594,592.164754,7920.203579
2491.897970,2681.334243,592.164754,8364.327145
2491.898299,2681.334243,962.267725,7772.162391
2491.898628,1915.238745,592.164754,8808.450710
2491.898957,383.047749,888.247130,8512.368333
2491.899286,76.609550,-222.061783,9104.533087
2491.899615,-1378.971896,-888.247130,10436.903782
2491.899944,-1608.800546,-1480.411884,10732.986159
2491.900273,-1608.800546,-1258.350101,9622.677246
2491.900602,-1762.019645,-1110.308913,9918.759623
2491.900931,-1532.190996,-1480.411884,10584.944971
2491.901260,-1072.533697,-814.226536,10140.821405
2491.901589,-919.314598,-444.123565,9918.759623
2491.901918,-459.657299,-148.041188,9474.636058
2491.902247,0.000000,518.144159,9104.533087
2491.902576,-229.828649,1332.370696,8660.409521
2491.902905,153.219100,888.247130,8956.491898
2491.903234,919.314598,-0.000000,9178.553681
2491.903563,1608.800546,296.082377,7846.182985
2491.903892,3140.991542,370.102971,7031.956449
2491.904221,2757.943793,444.123565,7105.977043
2491.904550,2528.115143,518.144159,7772.162391
2491.904879,2374.896044,-0.000000,8364.327145
2491.905208,1685.410096,-222.061783,8512.368333
2491.905537,306.438199,-74.020594,9474.636058
2491.905866,76.609550,-666.185348,9622.677246
2491.906195,-766.095498,-666.185348,9548.656652
2491.906524,-766.095498,-0.000000,10510.924376
2491.906853,-536.266849,-0.000000,9474.636058
2491.907182,-689.485948,148.041188,9474.636058
2491.907511,-612.876398,370.102971,9474.636058
2491.907840,-306.438199,-222.061783,8882.471304
2491.908169,-842.705048,-1036.288319,9474.636058
2491.908498,-612.876398,-1110.308913,9622.677246
2491.908827,-842.705048,-1110.308913,9474.636058
2491.909156,-689.485948,-1332.370696,9400.615463
2491.909485,-689.485948,-962.267725,9400.615463
2491.909814,-229.828649,-518.144159,9030.512492
2491.910143,306.438199,-148.041188,8956.491898
2491.910472,919.314598,-0.000000,8290.306550
2491.910801,1149.143247,962.267725,8586.388927
2491.911131,1302.362347,962.267725,8734.430116
2491.911460,1378.971896,666.185348,8734.430116
2491.911789,1378.971896,-0.000000,9030.512492
2491.912118,1685.410096,-666.185348,9178.553681
2491.912447,1608.800546,-888.247130,9326.594869
2491.912776,1685.410096,-592.164754,9030.512492
2491.913105,1455.581446,-740.205942,9252.574275
2491.913434,1455.581446,-148.041188,9326.594869
2491.913763,1455.581446,296.082377,9104.533087
2491.914092,919.314598,740.205942,8660.409521
2491.914421,459.657299,666.185348,8586.388927
2491.914750,229.828649,-0.000000,8808.450710
2491.915079,-612.876398,-296.082377,8882.471304
2491.915408,-1149.143247,-888.247130,9400.615463
2491.915737,-1225.752797,-1332.370696,9178.553681
2491.916066,-1149.143247,-1258.350101,9474.636058
2491.916395,-995.924147,-1036.288319,9326.594869
2491.916724,-919.314598,-1184.329507,9400.615463
2491.917053,0.000000,-666.185348,9696.697840
2491.917382,-306.438199,-74.020594,9474.636058
2491.917711,0.000000,222.061783,9104.533087
2491.918040,229.828649,962.267725,9178.553681
2491.918369,1378.971896,1332.370696,8216.285956
2491.918698,2068.457845,1406.391290,7920.203579
2491.919027,2298.286494,962.267725,7846.182985
2491.919356,2451.505594,740.205942,7920.203579
2491.919685,2145.067394,-0.000000,8438.347739
2491.920014,1608.800546,-444.123565,8882.471304
2491.920343,919.314598,-962.267725,8956.491898
2491.920672,76.609550,-1480.411884,9622.677246
2491.921001,-612.876398,-1258.350101,10288.862594
2491.921330,-612.876398,-1184.329507,10288.862594
2491.921659,-383.047749,-888.247130,10140.821405
2491.921988,0.000000,-74.020594,9918.759623
2491.922317,0.000000,592.164754,9400.615463
2491.922646,0.000000,740.205942,9030.512492
2491.922975,766.095498,518.144159,8882.471304
2491.923304,919.314598,222.061783,8364.327145
2491.923633,689.485948,-0.000000,8882.471304
2491.923962,459.657299,-518.144159,8808.450710
2491.924291,0.000000,-1110.308913,8882.471304
2491.924620,-995.924147,-740.205942,9474.636058
2491.924949,-459.657299,-592.164754,9030.512492
2491.925278,-536.266849,-370.102971,8882.471304
2491.925607,-536.266849,-0.000000,9178.553681
2491.925936,-229.828649,444.123565,8956.491898
2491.926265,229.828649,518.144159,8734.430116
2491.926594,153.219100,-0.000000,9326.594869
2491.926923,842.705048,-222.061783,9326.594869
2491.927252,1378.971896,-370.102971,8660.409521
2491.927581,1838.629195,-518.144159,9030.512492
2491.927910,2145.067394,-518.144159,8956.491898
2491.928239,2068.457845,-0.000000,8586.388927
2491.928568,2298.286494,-0.000000,8512.368333
2491.928897,1762.019645,444.123565,8512.368333
2491.929226,1608.800546,370.102971,8734.430116
2491.929555,689.485948,222.061783,8586.388927
2491.929884,0.000000,-0.000000,9252.574275
2491.930213,-842.705048,-296.082377,9104.533087
2491.930542,-1378.971896,-518.144159,9400.615463
2491.930871,-1991.848295,-1480.411884,9696.697840
2491.931200,-1685.410096,-1480.411884,9992.780217
2491.931529,-1378.971896,-1924.535449,9844.739029
2491.931858,-1302.362347,-1480.411884,10584.944971
2491.932187,-1302.362347,-888.247130,10288.862594
2491.932517,-842.705048,-740.205942,9844.739029
2491.932846,-459.657299,222.061783,9548.656652
2491.933175,0.000000,1036.288319,9104.533087
2491.933504,0.000000,1110.308913,8956.491898
2491.933833,-306.438199,370.102971,8512.368333
2491.934162,995.924147,1036.288319,8660.409521
2491.934491,2221.676944,592.164754,7920.203579
2491.934820,2451.505594,888.247130,7254.018232
2491.935149,2298.286494,-0.000000,7846.182985
2491.935478,1455.581446,-74.020594,8808.450710
2491.935807,1762.019645,-444.123565,8734.430116
2491.936136,1149.143247,-962.267725,8734.430116
2491.936465,459.657299,-444.123565,9326.594869
2491.936794,-229.828649,-518.144159,9696.697840
2491.937123,-536.266849,-148.041188,9770.718434
2491.937452,-459.657299,-0.000000,9696.697840
2491.937781,-383.047749,148.041188,9252.574275
2491.938110,-153.219100,444.123565,8956.491898
2491.938439,-689.485948,-222.061783,8882.471304
2491.938768,-612.876398,-518.144159,9178.553681
2491.939097,-459.657299,-1036.288319,9252.574275
2491.939426,-612.876398,-1258.350101,9178.553681
2491.939755,-842.705048,-1480.411884,9326.594869
2491.940084,-689.485948,-888.247130,9104.533087
2491.940413,-383.047749,-740.205942,8956.491898
2491.940742,0.000000,-518.144159,8808.450710
2491.941071,153.219100,-0.000000,8734.430116
2491.941400,612.876398,962.267725,8956.491898
2491.941729,919.314598,962.267725,8586.388927
2491.942058,1455.581446,666.185348,8734.430116
2491.942387,1532.190996,-0.000000,8734.430116
2491.942716,1762.019645,-222.061783,8882.471304
2491.943045,1915.238745,-888.247130,8956.491898
2491.943374,1838.629195,-666.185348,8882.471304
2491.943703,1378.971896,-74.020594,9030.512492
2491.944032,995.924147,-74.020594,9326.594869
2491.944361,536.266849,-74.020594,9178.553681
2491.944690,229.828649,-0.000000,9400.615463
2491.945019,-153.219100,-0.000000,9474.636058
2491.945348,-766.095498,-0.000000,9400.615463
2491.945677,-766.095498,-74.020594,9400.615463
2491.946006,-995.924147,-518.144159,9400.615463
2491.946335,-1072.533697,-740.205942,9326.594869
2491.946664,-1302.362347,-1110.308913,9474.636058
2491.946993,-995.924147,-1110.308913,9622.677246
2491.947322,-842.705048,-666.185348,9474.636058
2491.947651,-383.047749,-444.123565,9622.677246
2491.947980,-383.047749,-222.061783,9178.553681
2491.948309,0.000000,-0.000000,9104.533087
2491.948638,306.438199,888.247130,8956.491898
2491.948967,766.095498,962.267725,8216.285956
2491.949296,1378.971896,1332.370696,7994.224174
2491.949625,1608.800546,888.247130,7920.203579
2491.949954,1149.143247,740.205942,8364.327145
2491.950283,1762.019645,-222.061783,8364.327145
2491.950612,1378.971896,-814.226536,8364.327145
2491.950941,1225.752797,-1184.329507,8808.450710
2491.951270,536.266849,-1480.411884,9178.553681
2491.951599,383.047749,-1480.411884,9474.636058
2491.951928,76.609550,-1258.350101,9696.697840
2491.952257,842.705048,-444.123565,9696.697840
2491.952586,612.876398,-0.000000,9770.718434
2491.952915,459.657299,666.185348,8956.491898
2491.953244,229.828649,592.164754,8734.430116
2491.953573,0.000000,222.061783,8808.450710
2491.953903,306.438199,-148.041188,8734.430116
2491.954232,-229.828649,-666.185348,9178.553681
2491.954561,0.000000,-962.267725,8956.491898
2491.954890,-842.705048,-1776.494261,9474.636058
2491.955219,-766.095498,-1554.432478,9548.656652
2491.955548,-689.485948,-1036.288319,9548.656652
2491.955877,-612.876398,-740.205942,9326.594869
2491.956206,-229.828649,296.082377,9326.594869
2491.956535,0.000000,592.164754,9326.594869
2491.956864,612.876398,740.205942,9030.512492
2491.957193,1072.533697,1332.370696,9178.553681
2491.957522,1455.581446,666.185348,8956.491898
2491.957851,2451.505594,740.205942,8290.306550
2491.958180,2604.724693,370.102971,8438.347739
2491.958509,2528.115143,-0.000000,8586.388927
2491.958838,2374.896044,-370.102971,8512.368333
2491.959167,1991.848295,-296.082377,8660.409521
2491.959496,1225.752797,-0.000000,8956.491898
2491.959825,919.314598,-222.061783,8956.491898
2491.960154,76.609550,-0.000000,8734.430116
2491.960483,-383.047749,148.041188,9474.636058
2491.960812,-383.047749,-740.205942,9474.636058
2491.961141,-842.705048,-370.102971,8808.450710
2491.961470,-1302.362347,-814.226536,9326.594869
2491.961799,-689.485948,-888.247130,9400.615463
2491.962128,-995.924147,-1850.514855,9474.636058
2491.962457,-459.657299,-1036.288319,9918.759623
2491.962786,-612.876398,-1332.370696,9622.677246
2491.963115,-612.876398,-444.123565,9844.739029
2491.963444,-306.438199,-0.000000,9474.636058
2491.963773,459.657299,1184.329507,9178.553681
2491.964102,1072.533697,740.205942,8956.491898
2491.964431,1532.190996,1554.432478,8882.471304
2491.964759,1685.410096,1702.473667,8142.265362
2491.965088,1455.581446,1036.288319,8512.368333
2491.965417,1608.800546,444.123565,8364.327145
2491.965746,2451.505594,-518.144159,8808.450710
2491.966075,1072.533697,-814.226536,9326.594869
2491.966404,459.657299,-1332.370696,9474.636058
2491.966733,306.438199,-1480.411884,9326.594869
2491.967062,153.219100,-1036.288319,9400.615463
2491.967391,76.609550,-592.164754,9474.636058
2491.967720,383.047749,-74.020594,9326.594869
2491.968049,0.000000,370.102971,9104.533087
2491.968378,383.047749,518.144159,9030.512492
2491.968706,153.219100,888.247130,8956.491898
2491.969035,-383.047749,-0.000000,9178.553681
2491.969364,0.000000,-888.247130,9030.512492
2491.969693,-612.876398,-962.267725,9400.615463
2491.970022,-842.705048,-1406.391290,9474.636058
2491.970351,-766.095498,-1332.370696,9104.533087
2491.970680,-842.705048,-1036.288319,9104.533087
2491.971009,-306.438199,-592.164754,9104.533087
2491.971338,-229.828649,-148.041188,9030.512492
2491.971667,0.000000,-0.000000,8882.471304
2491.971996,153.219100,370.102971,8586.388927
2491.972324,153.219100,666.185348,8512.368333
2491.972653,459.657299,148.041188,9030.512492
2491.972982,842.705048,-74.020594,8808.450710
2491.973311,1532.190996,-518.144159,8586.388927
2491.973640,1838.629195,-814.226536,8586.388927
2491.973969,1838.629195,-740.205942,8438.347739
2491.974298,2298.286494,-74.020594,8734.430116
2491.974627,1915.238745,-74.020594,8216.285956
2491.974956,1532.190996,-0.000000,8512.368333
2491.975285,1149.143247,-0.000000,8882.471304
2491.975614,612.876398,148.041188,8808.450710
2491.975942,0.000000,-74.020594,9474.636058
2491.976271,-459.657299,-518.144159,8882.471304
2491.976600,-1072.533697,-666.185348,9770.718434
2491.976929,-766.095498,-888.247130,9622.677246
2491.977258,-612.876398,-814.226536,9326.594869
2491.977587,-919.314598,-1184.329507,9844.739029
2491.977916,-612.876398,-1258.350101,9992.780217
2491.978245,-306.438199,-962.267725,9770.718434
2491.978574,-689.485948,-814.226536,10362.883188
2491.978903,0.000000,-0.000000,9696.697840
2491.979232,0.000000,592.164754,9178.553681
2491.979560,0.000000,1184.329507,8808.450710
2491.979889,459.657299,888.247130,9104.533087
2491.980218,1072.533697,814.226536,8438.347739
2491.980547,2451.505594,814.226536,8142.265362
2491.980876,2681.334243,444.123565,7698.141797
2491.981205,2068.457845,-0.000000,7698.141797
2491.981534,2068.457845,-370.102971,8364.327145
2491.981863,1378.971896,-148.041188,8956.491898
2491.982192,1455.581446,-444.123565,8734.430116
2491.982521,919.314598,-222.061783,8882.471304
2491.982850,0.000000,-222.061783,9474.636058
2491.983178,0.000000,-444.123565,9918.759623
2491.983507,-153.219100,296.082377,9400.615463
2491.983836,-383.047749,296.082377,9252.574275
2491.984165,-153.219100,296.082377,9548.656652
2491.984494,-383.047749,-74.020594,9548.656652
2491.984823,-766.095498,222.061783,9400.615463
2491.985152,-76.609550,-1332.370696,9474.636058
2491.985481,-842.705048,-1628.453072,9104.533087
2491.985810,-1072.533697,-1332.370696,9400.615463
2491.986139,-766.095498,-1110.308913,9548.656652
2491.986468,-766.095498,-814.226536,9178.553681
2491.986796,-536.266849,-0.000000,9326.594869
2491.987125,-459.657299,-0.000000,9030.512492
2491.987454,-229.828649,518.144159,8734.430116
2491.987783,536.266849,-0.000000,9104.533087
2491.988112,1072.533697,370.102971,8808.450710
2491.988441,1302.362347,296.082377,8956.491898
2491.988770,1608.800546,-0.000000,8364.327145
2491.989099,2068.457845,-0.000000,8512.368333
2491.989428,1762.019645,-74.020594,8808.450710
2491.989757,2145.067394,-444.123565,8808.450710
2491.990086,1455.581446,-814.226536,8216.285956
2491.990415,1072.533697,222.061783,9104.533087
2491.990743,229.828649,-0.000000,9326.594869
2491.991072,-383.047749,296.082377,9474.636058
2491.991401,-1149.143247,-0.000000,9326.594869
2491.991730,-1149.143247,-296.082377,9622.677246
2491.992059,-1302.362347,-888.247130,9770.718434
2491.992388,-995.924147,-1184.329507,9474.636058
2491.992717,-995.924147,-1258.350101,9178.553681
2491.993046,-995.924147,-1184.329507,9400.615463
2491.993375,-766.095498,-1110.308913,9474.636058
2491.993704,-612.876398,-1036.288319,9474.636058
2491.994033,0.000000,-592.164754,9474.636058
2491.994361,612.876398,-0.000000,9400.615463
2491.994690,1455.581446,888.247130,8290.306550
2491.995019,2451.505594,1702.473667,7920.203579
2491.995348,2451.505594,2220.617826,7105.977043
2491.995677,2604.724693,1850.514855,7476.080014
2491.996006,2145.067394,1258.350101,7994.224174
2491.996335,1685.410096,444.123565,8142.265362
2491.996664,1149.143247,-740.205942,9400.615463
2491.996993,459.657299,-1850.514855,9474.636058
2491.997322,-383.047749,-2368.659014,9622.677246
2491.997651,-612.876398,-2368.659014,10288.862594
2491.997979,-306.438199,-1406.391290,10436.903782
2491.998308,0.000000,-592.164754,9844.739029
2491.998637,536.266849,370.102971,9696.697840
2491.998966,1072.533697,666.185348,9400.615463
2491.999295,153.219100,962.267725,8882.471304
2491.999624,1608.800546,1480.411884,8586.388927
2491.999953,1532.190996,1036.288319,8512.368333
2492.000282,919.314598,592.164754,8438.347739
2492.000611,229.828649,-74.020594,8956.491898
2492.000940,-689.485948,-740.205942,9178.553681
2492.001269,-1302.362347,-1258.350101,9474.636058
2492.001597,-1225.752797,-1406.391290,9622.677246
2492.001926,-1072.533697,-518.144159,10362.883188
2492.002255,-1149.143247,-592.164754,9400.615463
2492.002584,-536.266849,296.082377,9474.636058
2492.002913,0.000000,444.123565,8956.491898
2492.003242,459.657299,740.205942,9252.574275
2492.003571,1149.143247,-0.000000,9104.533087
2492.003900,1991.848295,-0.000000,8142.265362
2492.004229,2834.553343,444.123565,8290.306550
2492.004558,3140.991542,222.061783,8438.347739
2492.004887,2604.724693,518.144159,8216.285956
2492.005215,2221.676944,222.061783,8290.306550
2492.005544,1838.629195,296.082377,8438.347739
2492.005873,689.485948,-148.041188,8956.491898
2492.006202,0.000000,-296.082377,8956.491898
2492.006531,-689.485948,-592.164754,9622.677246
2492.006860,-1378.971896,-814.226536,9622.677246
2492.007189,-2145.067394,-1258.350101,9474.636058
2492.007518,-1608.800546,-1110.308913,9622.677246
2492.007847,-1685.410096,-1258.350101,9548.656652
2492.008176,-1302.362347,-1258.350101,9548.656652
2492.008505,-1302.362347,-1480.411884,10066.800811
2492.008833,-995.924147,-1480.411884,9622.677246
2492.009162,-689.485948,-1036.288319,9474.636058
2492.009491,-306.438199,-148.041188,9696.697840
2492.009820,153.219100,518.144159,9178.553681
2492.010149,1072.533697,1480.411884,8438.347739
2492.010478,1762.019645,1480.411884,7920.203579
2492.010807,1762.019645,1480.411884,7698.141797
2492.011136,1455.581446,740.205942,7994.224174
2492.011465,1072.533697,740.205942,8216.285956
2492.011794,919.314598,-148.041188,8364.327145
2492.012123,306.438199,-962.267725,9252.574275
2492.012452,0.000000,-1702.473667,9622.677246
2492.012780,-689.485948,-1554.432478,9918.759623
2492.013109,153.219100,-2220.617826,9696.697840
2492.013438,0.000000,-888.247130,9844.739029
2492.013767,842.705048,-296.082377,9474.636058
2492.014096,1378.971896,962.267725,8734.430116
2492.014425,1378.971896,1480.411884,8438.347739
2492.014754,1378.971896,1480.411884,8290.306550
2492.015083,842.705048,1110.308913,8142.265362
2492.015412,919.314598,592.164754,8734.430116
2492.015741,459.657299,-0.000000,8586.388927
2492.016070,-459.657299,-1184.329507,8882.471304
2492.016398,-1225.752797,-1776.494261,9474.636058
2492.016727,-1378.971896,-1924.535449,9548.656652
2492.017056,-1532.190996,-1406.391290,9770.718434
2492.017385,-1225.752797,-666.185348,9622.677246
2492.017714,-766.095498,-148.041188,9326.594869
2492.018043,306.438199,518.144159,9474.636058
2492.018372,995.924147,888.247130,9104.533087
2492.018701,1762.019645,740.205942,8660.409521
2492.019030,2451.505594,962.267725,8438.347739
2492.019359,2757.943793,592.164754,8142.265362
2492.019688,2911.162892,444.123565,8290.306550
2492.020016,2757.943793,444.123565,8660.409521
2492.020345,1685.410096,-518.144159,8734.430116
2492.020674,1455.581446,-370.102971,9178.553681
2492.021003,459.657299,-666.185348,9474.636058
2492.021332,-383.047749,-666.185348,9474.636058
2492.021661,-995.924147,-740.205942,9918.759623
2492.021990,-1302.362347,-1110.308913,9770.718434
2492.022319,-1225.752797,-1036.288319,9844.739029
2492.022648,-1149.143247,-592.164754,9696.697840
2492.022977,-995.924147,-518.144159,9326.594869
2492.023306,-766.095498,-814.226536,9548.656652
2492.023634,-612.876398,-1036.288319,9474.636058
2492.023963,-306.438199,-1036.288319,9548.656652
2492.024292,0.000000,-666.185348,9400.615463
2492.024621,-306.438199,-0.000000,9104.533087
2492.024950,536.266849,-0.000000,8586.388927
2492.025279,766.095498,962.267725,8438.347739
2492.025608,689.485948,1184.329507,7994.224174
2492.025937,995.924147,1332.370696,7920.203579
2492.026266,536.266849,1036.288319,8142.265362
2492.026595,459.657299,296.082377,8364.327145
2492.026924,-536.266849,-74.020594,9030.512492
2492.027252,153.219100,-1258.350101,8734.430116
2492.027581,229.828649,-2072.576638,9252.574275
2492.027910,459.657299,-1776.494261,9252.574275
2492.028239,383.047749,-1406.391290,9400.615463
2492.028568,689.485948,-814.226536,9400.615463
2492.028897,1072.533697,-518.144159,9326.594869
2492.029226,1455.581446,296.082377,8956.491898
2492.029555,1455.581446,1184.329507,9104.533087
2492.029884,1149.143247,1406.391290,8808.450710
2492.030213,1072.533697,962.267725,8586.388927
2492.030542,306.438199,518.144159,9030.512492
2492.030870,-306.438199,-74.020594,9030.512492
2492.031199,-612.876398,-1924.535449,9178.553681
2492.031528,-1378.971896,-1850.514855,9992.780217
2492.031857,-1608.800546,-1554.432478,9992.780217
2492.032186,-995.924147,-1406.391290,9696.697840
2492.032515,-995.924147,-1036.288319,9918.759623
2492.032844,-842.705048,-74.020594,9622.677246
2492.033173,-229.828649,666.185348,9696.697840
2492.033502,229.828649,814.226536,9696.697840
2492.033831,1302.362347,888.247130,9696.697840
2492.034160,2298.286494,1036.288319,8586.388927
2492.034489,3064.381992,1258.350101,8142.265362
2492.034817,3370.820191,1258.350101,7846.182985
2492.035146,3677.258390,962.267725,8290.306550
2492.035475,3217.601092,370.102971,8438.347739
2492.035804,2374.896044,-0.000000,8364.327145
2492.036133,1838.629195,-296.082377,9178.553681
2492.036462,383.047749,-592.164754,9400.615463
2492.036791,0.000000,-1110.308913,9548.656652
2492.037120,-1149.143247,-592.164754,9252.574275
2492.037449,-1072.533697,-370.102971,9400.615463
2492.037778,-1149.143247,-518.144159,9326.594869
2492.038107,-383.047749,-444.123565,9252.574275
2492.038435,-919.314598,-740.205942,9252.574275
2492.038764,-995.924147,-1110.308913,9474.636058
2492.039093,-842.705048,-1406.391290,9770.718434
2492.039422,-766.095498,-962.267725,9474.636058
2492.039751,-459.657299,-814.226536,9400.615463
2492.040080,229.828649,-222.061783,9326.594869
2492.040409,229.828649,296.082377,9178.553681
2492.040738,383.047749,1110.308913,8808.450710
2492.041067,1225.752797,1036.288319,7846.182985
2492.041396,1532.190996,1406.391290,7920.203579
2492.041725,995.924147,1184.329507,8290.306550
2492.042053,766.095498,592.164754,8290.306550
2492.042382,306.438199,-296.082377,8586.388927
2492.042711,306.438199,-1110.308913,9326.594869
2492.043040,0.000000,-1702.473667,9474.636058
2492.043369,153.219100,-1924.535449,9252.574275
2492.043698,-229.828649,-1702.473667,10066.800811
2492.044027,306.438199,-962.267725,9622.677246
2492.044356,919.314598,-0.000000,9400.615463
2492.044685,919.314598,592.164754,9252.574275
2492.045014,1072.533697,740.205942,9030.512492
2492.045343,536.266849,1258.350101,9030.512492
2492.045671,-383.047749,740.205942,8808.450710
2492.046000,0.000000,-0.000000,8734.430116
2492.046329,-689.485948,-370.102971,8808.450710
2492.046658,-995.924147,-888.247130,9252.574275
2492.046987,-1225.752797,-1628.453072,9474.636058
2492.047316,-1302.362347,-1850.514855,9474.636058
2492.047645,-995.924147,-1406.391290,9400.615463
2492.047974,-612.876398,-740.205942,9400.615463
2492.048303,-383.047749,-0.000000,8586.388927
2492.048632,0.000000,370.102971,8882.471304
2492.048961,0.000000,740.205942,9104.533087
2492.049289,766.095498,518.144159,8956.491898
2492.049618,1608.800546,814.226536,8586.388927
2492.049947,2298.286494,592.164754,8660.409521
2492.050276,2681.334243,-0.000000,8290.306550
2492.050605,2068.457845,148.041188,8512.368333
2492.050934,2221.676944,-296.082377,8586.388927
2492.051263,1838.629195,-222.061783,8586.388927
2492.051592,1378.971896,-222.061783,8956.491898
2492.051921,612.876398,-370.102971,8882.471304
2492.052250,153.219100,-296.082377,9400.615463
2492.052579,-1072.533697,-296.082377,9474.636058
2492.052907,-536.266849,-370.102971,9252.574275
2492.053236,-995.924147,-444.123565,9548.656652
2492.053565,-612.876398,-518.144159,9548.656652
2492.053894,-842.705048,-1036.288319,9400.615463
2492.054223,-536.266849,-1480.411884,9622.677246
2492.054552,-689.485948,-1554.432478,9918.759623
2492.054881,-766.095498,-1480.411884,9696.697840
2492.055210,-306.438199,-518.144159,9770.718434
2492.055539,0.000000,-148.041188,9474.636058
2492.055868,76.609550,740.205942,8956.491898
2492.056197,766.095498,1332.370696,8586.388927
2492.056526,1302.362347,1554.432478,8216.285956
2492.056854,1685.410096,1776.494261,8142.265362
2492.057183,1532.190996,1628.453072,8290.306550
2492.057512,919.314598,962.267725,8438.347739
2492.057841,1072.533697,-0.000000,8586.388927
2492.058170,995.924147,-518.144159,9104.533087
2492.058499,766.095498,-1036.288319,9104.533087
2492.058828,689.485948,-1332.370696,9474.636058
2492.059157,536.266849,-962.267725,9622.677246
2492.059486,459.657299,-518.144159,9474.636058
2492.059815,995.924147,-74.020594,9474.636058
2492.060144,612.876398,592.164754,9178.553681
2492.060472,689.485948,888.247130,8660.409521
2492.060801,229.828649,1110.308913,8808.450710
2492.061130,229.828649,518.144159,8882.471304
2492.061459,153.219100,-0.000000,8956.491898
2492.061788,0.000000,-444.123565,8882.471304
2492.062117,-612.876398,-1184.329507,9326.594869
2492.062446,-1378.971896,-1702.473667,9178.553681
2492.062775,-1608.800546,-1554.432478,9178.553681
2492.063104,-612.876398,-1258.350101,9326.594869
2492.063433,-842.705048,-74.020594,9178.553681
2492.063762,-995.924147,-148.041188,9474.636058
2492.064090,459.657299,-444.123565,9548.656652
2492.064419,229.828649,518.144159,8882.471304
2492.064748,306.438199,-0.000000,8660.409521
2492.065077,1072.533697,-0.000000,9326.594869
2492.065410,1302.362347,-592.164754,8882.471304
2492.065739,1915.238745,296.082377,8364.327145
2492.066068,1991.848295,-962.267725,8290.306550
2492.066397,1455.581446,-592.164754,8512.368333
2492.066726,1762.019645,-370.102971,8586.388927
2492.067055,1532.190996,-0.000000,8956.491898
2492.067384,842.705048,-148.041188,8660.409521
2492.067714,612.876398,-0.000000,8882.471304
2492.068043,0.000000,-74.020594,9400.615463
2492.068372,-536.266849,-296.082377,9030.512492
2492.068701,-766.095498,-444.123565,9104.533087
2492.069030,-612.876398,-518.144159,9474.636058
2492.069359,-919.314598,-666.185348,9326.594869
2492.069688,-689.485948,-1258.350101,9178.553681
2492.070017,-766.095498,-1258.350101,9548.656652
2492.070346,-383.047749,-962.267725,9326.594869
2492.070675,-383.047749,-666.185348,9178.553681
2492.071005,229.828649,-296.082377,9548.656652
2492.071334,0.000000,-370.102971,9400.615463
2492.071663,459.657299,740.205942,8882.471304
2492.071992,766.095498,1184.329507,8512.368333
2492.072321,1378.971896,1258.350101,7994.224174
2492.072650,2145.067394,1332.370696,7698.141797
2492.072979,2068.457845,666.185348,7846.182985
2492.073308,1991.848295,-0.000000,8364.327145
2492.073637,1608.800546,-666.185348,8512.368333
2492.073966,1302.362347,-814.226536,8882.471304
2492.074296,919.314598,-1406.391290,9178.553681
2492.074625,842.705048,-1332.370696,9548.656652
2492.074954,459.657299,-814.226536,9918.759623
2492.075283,842.705048,-148.041188,9918.759623
2492.075612,766.095498,-222.061783,9548.656652
2492.075941,919.314598,592.164754,9178.553681
2492.076270,0.000000,666.185348,9474.636058
2492.076599,229.828649,518.144159,9474.636058
2492.076928,-383.047749,222.061783,9252.574275
2492.077258,-536.266849,-74.020594,9400.615463
2492.077587,-766.095498,-1036.288319,9622.677246
2492.077916,-1302.362347,-1776.494261,9548.656652
2492.078245,-919.314598,-1554.432478,9770.718434
2492.078574,-919.314598,-888.247130,9474.636058
2492.078903,-766.095498,-444.123565,9474.636058
2492.079232,-459.657299,222.061783,8956.491898
2492.079561,306.438199,-0.000000,9252.574275
2492.079890,1455.581446,814.226536,8586.388927
2492.080219,2298.286494,518.144159,7624.121203
2492.080549,2451.505594,814.226536,8438.347739
2492.080878,2298.286494,888.247130,7994.224174
2492.081207,2528.115143,222.061783,8290.306550
2492.081536,2221.676944,-0.000000,8290.306550
2492.081865,1532.190996,-518.144159,8808.450710
2492.082194,919.314598,-740.205942,8882.471304
2492.082523,306.438199,-444.123565,8734.430116
2492.082852,-229.828649,-444.123565,9178.553681
2492.083181,-612.876398,-444.123565,9030.512492
2492.083510,-919.314598,-296.082377,9178.553681
2492.083840,-1302.362347,-592.164754,9178.553681
2492.084169,-1149.143247,-592.164754,9400.615463
2492.084498,-1149.143247,-962.267725,9474.636058
2492.084827,-1149.143247,-1332.370696,9326.594869
2492.085156,-689.485948,-1850.514855,9696.697840
2492.085485,-459.657299,-1628.453072,9326.594869
2492.085814,-459.657299,-740.205942,9474.636058
2492.086143,76.609550,-814.226536,9252.574275
2492.086472,383.047749,592.164754,8882.471304
2492.086801,919.314598,962.267725,8512.368333
2492.087131,1149.143247,1184.329507,8586.388927
2492.087460,842.705048,1332.370696,8734.430116
2492.087789,536.266849,1258.350101,8216.285956
2492.088118,383.047749,888.247130,8216.285956
2492.088447,306.438199,-370.102971,8956.491898
2492.088776,229.828649,-1036.288319,9252.574275
2492.089105,0.000000,-1406.391290,9474.636058
2492.089434,76.609550,-1554.432478,9696.697840
2492.089763,536.266849,-1850.514855,9918.759623
2492.090092,612.876398,-1110.308913,9622.677246
2492.090422,1072.533697,-370.102971,9622.677246
2492.090751,1455.581446,740.205942,8882.471304
2492.091080,1762.019645,1036.288319,9252.574275
2492.091409,1838.629195,1406.391290,8586.388927
2492.091738,1225.752797,1480.411884,8882.471304
2492.092067,459.657299,1184.329507,8364.327145
2492.092396,153.219100,-0.000000,8512.368333
2492.092725,-383.047749,-592.164754,9030.512492
2492.093054,-1225.752797,-1480.411884,9400.615463
2492.093383,-1302.362347,-2220.617826,9696.697840
2492.093713,-1072.533697,-2146.597232,9770.718434
2492.094042,-1378.971896,-1110.308913,9400.615463
2492.094371,-1302.362347,-814.226536,9104.533087
2492.094700,-459.657299,-0.000000,8956.491898
2492.095029,306.438199,740.205942,9178.553681
2492.095358,919.314598,740.205942,9104.533087
2492.095687,1915.238745,1036.288319,8734.430116
2492.096016,2681.334243,444.123565,8438.347739
2492.096345,2834.553343,592.164754,8364.327145
2492.096674,2604.724693,370.102971,8364.327145
2492.097004,2681.334243,-0.000000,8512.368333
2492.097333,1991.848295,148.041188,8290.306550
2492.097662,995.924147,-0.000000,8882.471304
2492.097991,459.657299,-296.082377,9030.512492
2492.098320,-229.828649,-148.041188,9178.553681
2492.098649,-995.924147,-740.205942,9252.574275
2492.098978,-1455.581446,-518.144159,9326.594869
2492.099307,-1455.581446,-296.082377,9622.677246
2492.099636,-1838.629195,-1110.308913,9992.780217
2492.099965,-1149.143247,-1036.288319,9326.594869
2492.100295,-1302.362347,-1110.308913,9326.594869
2492.100624,-842.705048,-1480.411884,9548.656652
2492.100953,-766.095498,-1110.308913,9770.718434
2492.101282,-306.438199,-1036.288319,9770.718434
2492.101611,0.000000,296.082377,9548.656652
2492.101940,536.266849,592.164754,8882.471304
2492.102269,612.876398,1480.411884,8586.388927
2492.102598,689.485948,1702.473667,7920.203579
2492.102927,919.314598,1776.494261,7846.182985
2492.103257,842.705048,1184.329507,7920.203579
2492.103586,919.314598,222.061783,7994.224174
2492.103915,0.000000,-740.205942,8438.347739
2492.104244,0.000000,-1332.370696,9178.553681
2492.104573,0.000000,-2294.638420,9252.574275
2492.104902,0.000000,-1702.473667,9474.636058
2492.105231,459.657299,-1702.473667,9548.656652
2492.105560,689.485948,-1036.288319,9622.677246
2492.105889,1225.752797,-0.000000,9474.636058
2492.106218,1455.581446,370.102971,9030.512492
2492.106548,1685.410096,1332.370696,8882.471304
2492.106877,766.095498,1628.453072,8512.368333
2492.107206,612.876398,1184.329507,8586.388927
2492.107535,383.047749,666.185348,8808.450710
2492.107864,-536.266849,-370.102971,8956.491898
2492.108193,-842.705048,-1332.370696,9474.636058
2492.108522,-1685.410096,-2294.638420,9474.636058
2492.108851,-2298.286494,-2072.576638,10214.842000
2492.109180,-1532.190996,-1628.453072,9548.656652
2492.109509,-1072.533697,-888.247130,9992.780217
2492.109839,-612.876398,-148.041188,9474.636058
2492.110168,76.609550,592.164754,9400.615463
2492.110497,1225.752797,518.144159,9696.697840
2492.110826,2145.067394,814.226536,8586.388927
2492.111155,3064.381992,1110.308913,8290.306550
2492.111484,3140.991542,1332.370696,7920.203579
2492.111813,2987.772442,962.267725,7698.141797
2492.112142,2911.162892,740.205942,8586.388927
2492.112471,2451.505594,-0.000000,8586.388927
2492.112800,1838.629195,-0.000000,8734.430116
2492.113130,76.609550,-444.123565,9400.615463
2492.113459,0.000000,-370.102971,9326.594869
2492.113788,-383.047749,-666.185348,9474.636058
2492.114117,-306.438199,-370.102971,9474.636058
2492.114446,-766.095498,-370.102971,9326.594869
2492.114775,-842.705048,-370.102971,9252.574275
2492.115104,-229.828649,-222.061783,9548.656652
2492.115433,-842.705048,-888.247130,9400.615463
2492.115762,0.000000,-1110.308913,9252.574275
2492.116091,0.000000,-444.123565,9622.677246
2492.116421,0.000000,-592.164754,9326.594869
2492.116750,0.000000,-444.123565,9030.512492
2492.117079,0.000000,-0.000000,9178.553681
2492.117408,383.047749,444.123565,8882.471304
2492.117737,306.438199,444.123565,8586.388927
2492.118066,383.047749,1258.350101,8364.327145
2492.118395,0.000000,888.247130,8216.285956
2492.118724,153.219100,370.102971,8586.388927
2492.119053,306.438199,-0.000000,8808.450710
2492.119382,306.438199,-1036.288319,8660.409521
2492.119712,536.266849,-1332.370696,9326.594869
2492.120041,1149.143247,-1850.514855,9474.636058
2492.120370,1225.752797,-1702.473667,9326.594869
2492.120699,1455.581446,-1036.288319,9696.697840
2492.121028,1302.362347,-222.061783,9178.553681
2492.121357,1608.800546,370.102971,9252.574275
2492.121686,1378.971896,814.226536,9104.533087
2492.122015,689.485948,592.164754,8808.450710
2492.122344,536.266849,1036.288319,8808.450710
2492.122673,-383.047749,740.205942,9030.512492
2492.123003,-1302.362347,-0.000000,9030.512492
2492.123332,-1455.581446,-888.247130,9326.594869
2492.123661,-1838.629195,-1776.494261,9474.636058
2492.123990,-1915.238745,-2146.597232,9548.656652
2492.124319,-1532.190996,-1776.494261,9326.594869
2492.124648,-995.924147,-1184.329507,9548.656652
2492.124977,-1532.190996,-222.061783,9104.533087
2492.125306,0.000000,592.164754,9252.574275
2492.125635,306.438199,962.267725,9178.553681
2492.125964,995.924147,962.267725,9548.656652
2492.126294,1685.410096,1258.350101,8512.368333
2492.126623,2911.162892,1406.391290,8586.388927
2492.126952,2528.115143,1184.329507,7994.224174
2492.127281,2987.772442,666.185348,7846.182985
2492.127610,2681.334243,-0.000000,8586.388927
2492.127939,1762.019645,-0.000000,8438.347739
2492.128268,1072.533697,-592.164754,8808.450710
2492.128597,153.219100,-666.185348,9400.615463
2492.128926,-306.438199,-592.164754,9104.533087
2492.129256,-1225.752797,-740.205942,9770.718434
2492.129585,-842.705048,-592.164754,9548.656652
2492.129914,-689.485948,-666.185348,9622.677246
2492.130243,-459.657299,-74.020594,9622.677246
2492.130572,0.000000,-296.082377,9400.615463
2492.130901,0.000000,-666.185348,9326.594869
2492.131230,229.828649,-962.267725,9474.636058
2492.131559,76.609550,-518.144159,9474.636058
2492.131888,0.000000,-518.144159,9474.636058
2492.132217,-306.438199,-370.102971,9326.594869
2492.132547,0.000000,296.082377,9178.553681
2492.132876,459.657299,592.164754,8660.409521
2492.133205,229.828649,666.185348,8808.450710
2492.133534,459.657299,666.185348,8512.368333
2492.133863,536.266849,666.185348,8882.471304
2492.134192,383.047749,518.144159,8882.471304
2492.134521,229.828649,-0.000000,8808.450710
2492.134850,536.266849,-814.226536,8734.430116
2492.135179,842.705048,-1110.308913,9104.533087
2492.135508,1149.143247,-814.226536,8734.430116
2492.135838,1149.143247,-740.205942,9400.615463
2492.136167,1302.362347,-518.144159,9252.574275
2492.136496,1608.800546,444.123565,9474.636058
2492.136825,1149.143247,444.123565,8808.450710
2492.137154,612.876398,740.205942,8808.450710
2492.137483,383.047749,666.185348,8808.450710
2492.137812,0.000000,518.144159,8734.430116
2492.138141,-306.438199,296.082377,9030.512492
2492.138470,-612.876398,-518.144159,9030.512492
2492.138799,-995.924147,-1110.308913,8956.491898
2492.139129,-1378.971896,-1924.535449,9474.636058
2492.139458,-1302.362347,-1628.453072,9030.512492
2492.139787,-1072.533697,-1406.391290,9030.512492
2492.140116,-995.924147,-666.185348,9252.574275
2492.140445,-306.438199,-74.020594,9178.553681
2492.140774,0.000000,-0.000000,9326.594869
2492.141103,383.047749,518.144159,9104.533087
2492.141432,995.924147,962.267725,8586.388927
2492.141761,919.314598,1036.288319,8438.347739
2492.142090,1455.581446,592.164754,8882.471304
2492.142420,1608.800546,-0.000000,8808.450710
2492.142749,1532.190996,-0.000000,8882.471304
2492.143078,1532.190996,-370.102971,9104.533087
2492.143407,919.314598,-592.164754,9030.512492
2492.143736,1225.752797,-814.226536,9178.553681
2492.144065,766.095498,-370.102971,9030.512492
2492.144394,919.314598,-74.020594,9400.615463
2492.144723,306.438199,148.041188,9030.512492
2492.145052,153.219100,296.082377,8956.491898
2492.145381,0.000000,148.041188,8882.471304
2492.145711,0.000000,-74.020594,9104.533087
2492.146040,-612.876398,-814.226536,9326.594869
2492.146369,0.000000,-1184.329507,9770.718434
2492.146698,-612.876398,-1554.432478,9770.718434
2492.147027,-919.314598,-962.267725,9696.697840
2492.147356,-1072.533697,-888.247130,9622.677246
2492.147685,-536.266849,-444.123565,9696.697840
2492.148014,0.000000,222.061783,9400.615463
2492.148343,153.219100,518.144159,9104.533087
2492.148672,612.876398,1258.350101,8734.430116
2492.149002,1378.971896,1480.411884,8216.285956
2492.149331,1302.362347,1776.494261,7920.203579
2492.149660,2068.457845,1258.350101,7550.100608
2492.149989,2298.286494,370.102971,7772.162391
2492.150318,1915.238745,-296.082377,8142.265362
2492.150647,1838.629195,-962.267725,7920.203579
2492.150976,1685.410096,-1480.411884,9178.553681
2492.151305,1149.143247,-1480.411884,9326.594869
2492.151634,766.095498,-1184.329507,9326.594869
2492.151963,612.876398,-740.205942,9770.718434
2492.152293,536.266849,-222.061783,9474.636058
2492.152622,306.438199,296.082377,9474.636058
2492.152951,229.828649,370.102971,9548.656652
2492.153280,306.438199,962.267725,9400.615463
2492.153609,-383.047749,666.185348,9326.594869
2492.153938,-459.657299,-0.000000,9252.574275
2492.154267,-612.876398,-296.082377,9326.594869
2492.154596,-995.924147,-814.226536,9474.636058
2492.154925,-1302.362347,-1036.288319,9474.636058
2492.155255,-689.485948,-1406.391290,9474.636058
2492.155584,-612.876398,-444.123565,9918.759623
2492.155913,-919.314598,-518.144159,9548.656652
2492.156242,229.828649,-0.000000,9474.636058
2492.156571,612.876398,518.144159,9030.512492
2492.156900,1378.971896,888.247130,8660.409521
2492.157229,1608.800546,1036.288319,8660.409521
2492.157558,1915.238745,666.185348,8734.430116
2492.157887,1915.238745,814.226536,8808.450710
2492.158216,1838.629195,-0.000000,9030.512492
2492.158546,1455.581446,-0.000000,8660.409521
2492.158875,1072.533697,-444.123565,8808.450710
2492.159204,766.095498,-222.061783,9252.574275
2492.159533,76.609550,-296.082377,9474.636058
2492.159862,229.828649,-370.102971,9400.615463
2492.160191,0.000000,-74.020594,8808.450710
2492.160520,-306.438199,-0.000000,9326.594869
2492.160849,-612.876398,-444.123565,9252.574275
2492.161178,-459.657299,-444.123565,9474.636058
2492.161507,-766.095498,-888.247130,9474.636058
2492.161837,-459.657299,-962.267725,9474.636058
2492.162166,-383.047749,-1332.370696,9474.636058
2492.162495,-383.047749,-1258.350101,9918.759623
2492.162824,76.609550,-740.205942,9844.739029
2492.163153,-153.219100,-74.020594,9696.697840
2492.163482,0.000000,444.123565,9104.533087
2492.163811,229.828649,1184.329507,8586.388927
2492.164140,689.485948,1406.391290,8364.327145
2492.164469,229.828649,962.267725,8216.285956
2492.164798,1532.190996,592.164754,8068.244768
2492.165127,1225.752797,-148.041188,8290.306550
2492.165456,995.924147,-740.205942,8216.285956
2492.165785,1149.143247,-1110.308913,8512.368333
2492.166114,919.314598,-1480.411884,8956.491898
2492.166443,995.924147,-1480.411884,9178.553681
2492.166772,1149.143247,-1258.350101,9770.718434
2492.167102,1149.143247,-592.164754,9474.636058
2492.167431,1072.533697,-370.102971,9474.636058
2492.167760,919.314598,370.102971,9326.594869
2492.168089,842.705048,1110.308913,9030.512492
2492.168418,383.047749,1480.411884,8808.450710
2492.168747,-612.876398,1110.308913,8882.471304
2492.169076,-612.876398,666.185348,8808.450710
2492.169405,0.000000,-222.061783,9178.553681
2492.169734,-842.705048,-1184.329507,8882.471304
2492.170063,-1378.971896,-1702.473667,9696.697840
2492.170392,-995.924147,-2368.659014,9622.677246
2492.170721,-1225.752797,-1480.411884,8882.471304
2492.171050,-995.924147,-888.247130,9030.512492
2492.171379,0.000000,-74.020594,9474.636058
2492.171708,153.219100,-0.000000,9178.553681
2492.172037,689.485948,1258.350101,9178.553681
2492.172366,1915.238745,1258.350101,8364.327145
2492.172695,2298.286494,1258.350101,8142.265362
2492.173024,2451.505594,1036.288319,8438.347739
2492.173353,2528.115143,1110.308913,8438.347739
2492.173682,1838.629195,222.061783,8734.430116
2492.174011,2681.334243,-74.020594,9104.533087
2492.174340,1608.800546,-592.164754,9104.533087
2492.174669,383.047749,-444.123565,9548.656652
2492.174998,-229.828649,-518.144159,9474.636058
2492.175327,-459.657299,-888.247130,9622.677246
2492.175657,-919.314598,-592.164754,9548.656652
2492.175986,-995.924147,-444.123565,9474.636058
2492.176315,-2298.286494,-814.226536,9844.739029
2492.176644,-842.705048,-962.267725,9844.739029
2492.176973,-766.095498,-962.267725,9696.697840
2492.177302,-689.485948,-1184.329507,9474.636058
2492.177631,-766.095498,-888.247130,9696.697840
2492.177960,-306.438199,-444.123565,9622.677246
2492.178289,-612.876398,-0.000000,9252.574275
2492.178618,383.047749,296.082377,9178.553681
2492.178947,536.266849,814.226536,9326.594869
2492.179276,229.828649,1480.411884,8438.347739
2492.179605,612.876398,1406.391290,8290.306550
2492.179934,689.485948,1110.308913,7846.182985
2492.180263,689.485948,888.247130,8068.244768
2492.180592,1302.362347,-74.020594,7994.224174
2492.180921,689.485948,-814.226536,8438.347739
2492.181250,306.438199,-1332.370696,9252.574275
2492.181579,536.266849,-1628.453072,8956.491898
2492.181908,536.266849,-1554.432478,9252.574275
2492.182237,766.095498,-1332.370696,9474.636058
2492.182566,919.314598,-222.061783,9400.615463
2492.182895,612.876398,222.061783,9474.636058
2492.183224,1762.019645,814.226536,9326.594869
2492.183553,1455.581446,814.226536,8882.471304
2492.183882,459.657299,1258.350101,8882.471304
2492.184212,153.219100,888.247130,8808.450710
2492.184541,0.000000,-0.000000,8882.471304
2492.184870,-612.876398,-740.205942,8808.450710
2492.185199,-612.876398,-1924.535449,9400.615463
2492.185528,-1225.752797,-1184.329507,9548.656652
2492.185857,-1685.410096,-1776.494261,9178.553681
2492.186186,-1072.533697,-1776.494261,9622.677246
2492.186515,-459.657299,-1036.288319,9548.656652
2492.186844,-229.828649,-518.144159,9326.594869
2492.187173,536.266849,148.041188,9474.636058
2492.187502,1378.971896,592.164754,8586.388927
2492.187831,2374.896044,1036.288319,8512.368333
2492.188160,2681.334243,1406.391290,8142.265362
2492.188489,2451.505594,1036.288319,8512.368333
2492.188818,2451.505594,444.123565,8290.306550
2492.189147,2068.457845,296.082377,8808.450710
2492.189476,1685.410096,-592.164754,8956.491898
2492.189805,842.705048,-592.164754,8660.409521
2492.190134,919.314598,-740.205942,9474.636058
2492.190463,0.000000,-962.267725,9400.615463
2492.190792,0.000000,-666.185348,9252.574275
2492.191121,-383.047749,-74.020594,9104.533087
2492.191450,0.000000,-0.000000,8808.450710
2492.191779,0.000000,-74.020594,8882.471304
2492.192108,0.000000,-296.082377,9178.553681
2492.192437,76.609550,-888.247130,9326.594869
2492.192767,0.000000,-666.185348,9252.574275
2492.193096,-306.438199,-814.226536,9474.636058
2492.193425,-459.657299,-444.123565,9252.574275
2492.193754,-612.876398,-0.000000,9474.636058
2492.194083,-459.657299,222.061783,9474.636058
2492.194412,0.000000,370.102971,9178.553681
2492.194741,229.828649,1184.329507,8882.471304
2492.195070,306.438199,740.205942,8734.430116
2492.195399,689.485948,592.164754,7402.059420
2492.195728,766.095498,370.102971,8290.306550
2492.196057,1149.143247,-74.020594,8216.285956
2492.196386,1532.190996,-666.185348,8142.265362
2492.196715,1532.190996,-1258.350101,9252.574275
2492.197044,1455.581446,-888.247130,8882.471304
2492.197373,1608.800546,-1110.308913,9178.553681
2492.197702,919.314598,-444.123565,9474.636058
2492.198031,612.876398,-148.041188,9844.739029
2492.198360,612.876398,-0.000000,9844.739029
2492.198689,459.657299,370.102971,9548.656652
2492.199018,0.000000,740.205942,9474.636058
2492.199347,0.000000,888.247130,9474.636058
2492.199676,-689.485948,-0.000000,9400.615463
2492.200005,-919.314598,-0.000000,9104.533087
2492.200334,-1072.533697,-1036.288319,9104.533087
2492.200663,-1685.410096,-1776.494261,9326.594869
2492.200992,-1378.971896,-1998.556043,9400.615463
2492.201322,-919.314598,-1924.535449,9400.615463
2492.201651,-919.314598,-1406.391290,9474.636058
2492.201980,306.438199,-296.082377,9326.594869
2492.202309,383.047749,370.102971,9252.574275
2492.202638,1149.143247,962.267725,8882.471304
2492.202967,1838.629195,1628.453072,8142.265362
2492.203296,2221.676944,1628.453072,7920.203579
2492.203625,2681.334243,1036.288319,8142.265362
2492.203954,2221.676944,592.164754,8068.244768
2492.204283,1455.581446,148.041188,8660.409521
2492.204612,1608.800546,-740.205942,8364.327145
2492.204941,919.314598,-666.185348,8808.450710
2492.205270,383.047749,-1036.288319,8956.491898
2492.205599,459.657299,-740.205942,9326.594869
2492.205928,0.000000,-1036.288319,9326.594869
2492.206257,0.000000,-444.123565,9030.512492
2492.206586,76.609550,-148.041188,9030.512492
2492.206915,306.438199,-0.000000,9178.553681
2492.207244,0.000000,-0.000000,9104.533087
2492.207573,306.438199,-370.102971,9474.636058
2492.207902,0.000000,-222.061783,9178.553681
2492.208231,76.609550,-592.164754,9622.677246
2492.208560,-1149.143247,-518.144159,10214.842000
2492.208889,-383.047749,-518.144159,9844.739029
2492.209218,-306.438199,-518.144159,9474.636058
2492.209547,-229.828649,-0.000000,9474.636058
2492.209877,-229.828649,666.185348,9252.574275
2492.210206,153.219100,1184.329507,8660.409521
2492.210535,919.314598,814.226536,8512.368333
2492.210864,536.266849,370.102971,8290.306550
2492.211193,1302.362347,370.102971,8290.306550
2492.211522,1608.800546,-0.000000,8956.491898
2492.211851,1532.190996,-740.205942,8586.388927
2492.212180,1302.362347,-740.205942,8660.409521
2492.212509,1455.581446,-740.205942,9178.553681
2492.212838,1762.019645,-1184.329507,9400.615463
2492.213167,1149.143247,-518.144159,9474.636058
2492.213496,306.438199,-148.041188,9104.533087
2492.213825,153.219100,-0.000000,9178.553681
2492.214154,-383.047749,222.061783,9252.574275
2492.214483,-766.095498,370.102971,9104.533087
2492.214812,-1149.143247,-0.000000,8808.450710
2492.215141,-766.095498,-148.041188,9030.512492
2492.215470,-689.485948,-888.247130,9178.553681
2492.215799,-842.705048,-962.267725,9326.594869
2492.216128,-842.705048,-1554.432478,9400.615463
2492.216457,-1072.533697,-1628.453072,9178.553681
2492.216786,-919.314598,-1480.411884,9178.553681
2492.217115,-689.485948,-518.144159,9474.636058
2492.217444,-306.438199,-74.020594,8956.491898
2492.217773,1378.971896,518.144159,8882.471304
2492.218102,995.924147,1110.308913,8364.327145
2492.218432,995.924147,1480.411884,8290.306550
2492.218761,1302.362347,962.267725,8216.285956
2492.219090,995.924147,666.185348,8586.388927
2492.219419,1072.533697,-0.000000,8808.450710
2492.219748,995.924147,-962.267725,9104.533087
2492.220077,536.266849,-1258.350101,9474.636058
2492.220406,0.000000,-1406.391290,9548.656652
2492.220735,0.000000,-1258.350101,9474.636058
2492.221064,153.219100,-592.164754,9326.594869
2492.221393,383.047749,-222.061783,9104.533087
2492.221722,689.485948,370.102971,8956.491898
2492.222051,995.924147,444.123565,8734.430116
2492.222380,536.266849,444.123565,8512.368333
2492.222709,1072.533697,-74.020594,8660.409521
2492.223038,229.828649,-74.020594,9178.553681
2492.223367,-459.657299,-444.123565,9474.636058
2492.223696,-689.485948,-1036.288319,9992.780217
2492.224025,-842.705048,-888.247130,9696.697840
2492.224354,-689.485948,-888.247130,9992.780217
2492.224683,-612.876398,-888.247130,9696.697840
2492.225012,-1225.752797,-148.041188,9622.677246
2492.225341,-306.438199,518.144159,9474.636058
2492.225670,459.657299,1036.288319,8882.471304
2492.225999,995.924147,1258.350101,8438.347739
2492.226328,1608.800546,1184.329507,8142.265362
2492.226657,2145.067394,962.267725,7698.141797
2492.226987,2757.943793,370.102971,8068.244768
2492.227316,2451.505594,370.102971,8290.306550
2492.227645,2451.505594,-518.144159,8512.368333
2492.227974,1685.410096,-666.185348,8956.491898
2492.228303,1225.752797,-888.247130,9400.615463
2492.228632,919.314598,-814.226536,9548.656652
2492.228961,229.828649,-962.267725,9844.739029
2492.229290,536.266849,-296.082377,9548.656652
2492.229619,76.609550,-74.020594,9548.656652
2492.229948,0.000000,148.041188,9400.615463
2492.230277,-306.438199,518.144159,9178.553681
2492.230606,-383.047749,-0.000000,9104.533087
2492.230935,-612.876398,-148.041188,9030.512492
2492.231264,-229.828649,-1110.308913,9178.553681
2492.231593,-689.485948,-1924.535449,9400.615463
2492.231922,-459.657299,-1998.556043,9474.636058
2492.232251,-612.876398,-1406.391290,9622.677246
2492.232580,-459.657299,-666.185348,9474.636058
2492.232909,76.609550,-296.082377,9178.553681
2492.233238,536.266849,296.082377,8956.491898
2492.233567,842.705048,888.247130,8586.388927
2492.233896,1455.581446,888.247130,8808.450710
2492.234225,1685.410096,592.164754,8808.450710
2492.234554,1302.362347,370.102971,8734.430116
2492.234883,1378.971896,-0.000000,8512.368333
2492.235212,919.314598,-148.041188,8512.368333
2492.235542,1149.143247,-518.144159,8660.409521
2492.235871,1302.362347,-592.164754,8882.471304
2492.236200,689.485948,-666.185348,9104.533087
2492.236529,229.828649,-592.164754,8882.471304
2492.236858,0.000000,-370.102971,8808.450710
2492.237187,-306.438199,-0.000000,8734.430116
2492.237516,0.000000,148.041188,8956.491898
2492.237845,-306.438199,-74.020594,8808.450710
2492.238174,-536.266849,-370.102971,9400.615463
2492.238503,-612.876398,-1036.288319,9622.677246
2492.238832,0.000000,-1036.288319,9622.677246
2492.239161,-612.876398,-1480.411884,9844.739029
2492.239490,-842.705048,-1036.288319,9696.697840
2492.239819,-766.095498,-666.185348,9474.636058
2492.240148,-459.657299,-74.020594,9400.615463
2492.240477,0.000000,740.205942,9104.533087
2492.240806,0.000000,1406.391290,8808.450710
2492.241135,459.657299,1036.288319,8142.265362
2492.241464,995.924147,1110.308913,8364.327145
2492.241793,1378.971896,962.267725,8142.265362
2492.242122,1302.362347,-0.000000,8216.285956
2492.242451,1225.752797,-444.123565,8660.409521
2492.242780,1072.533697,-814.226536,9326.594869
2492.243109,1149.143247,-1776.494261,9474.636058
2492.243438,919.314598,-1628.453072,9770.718434
2492.243767,536.266849,-1184.329507,9992.780217
2492.244097,0.000000,-592.164754,10214.842000
2492.244426,995.924147,-74.020594,9696.697840
2492.244755,459.657299,592.164754,9326.594869
2492.245084,459.657299,1184.329507,9326.594869
2492.245413,383.047749,1184.329507,8660.409521
2492.245742,76.609550,1036.288319,8734.430116
2492.246071,0.000000,370.102971,9104.533087
2492.246400,-306.438199,-740.205942,8734.430116
2492.246729,-1225.752797,-1776.494261,9474.636058
2492.247058,-1302.362347,-2220.617826,9548.656652
2492.247387,-766.095498,-1850.514855,9548.656652
2492.247716,-766.095498,-1406.391290,9030.512492
2492.248045,-459.657299,-518.144159,9252.574275
2492.248374,-306.438199,-0.000000,9400.615463
2492.248703,306.438199,592.164754,9178.553681
2492.249032,766.095498,1258.350101,9178.553681
2492.249361,1378.971896,1406.391290,8216.285956
2492.249690,2145.067394,1258.350101,8364.327145
2492.250019,2298.286494,1184.329507,7920.203579
2492.250348,2528.115143,814.226536,7994.224174
2492.250677,2451.505594,-0.000000,8216.285956
2492.251006,2298.286494,444.123565,8808.450710
2492.251335,1838.629195,-814.226536,8660.409521
2492.251664,612.876398,-518.144159,9326.594869
2492.251993,76.609550,-592.164754,9104.533087
2492.252322,0.000000,-666.185348,9104.533087
2492.252652,-612.876398,-444.123565,9474.636058
2492.252981,-536.266849,-814.226536,9548.656652
2492.253310,-383.047749,-740.205942,9770.718434
2492.253639,-766.095498,-888.247130,9770.718434
2492.253968,-766.095498,-740.205942,9696.697840
2492.254297,-1072.533697,-888.247130,9696.697840
2492.254626,-995.924147,-740.205942,10140.821405
2492.254955,-919.314598,-518.144159,9474.636058
2492.255284,-919.314598,-370.102971,9622.677246
2492.255613,-383.047749,296.082377,9400.615463
2492.255942,76.609550,592.164754,8660.409521
2492.256271,306.438199,888.247130,8364.327145
2492.256600,383.047749,1036.288319,7920.203579
2492.256929,842.705048,740.205942,8142.265362
2492.257258,689.485948,-0.000000,8512.368333
2492.257587,1608.800546,-0.000000,8438.347739
2492.257916,0.000000,-666.185348,8660.409521
2492.258245,919.314598,-1258.350101,8660.409521
2492.258574,919.314598,-1702.473667,9030.512492
2492.258903,995.924147,-962.267725,9252.574275
2492.259232,1072.533697,-592.164754,9400.615463
2492.259561,842.705048,-0.000000,9400.615463
2492.259890,995.924147,-0.000000,9104.533087
2492.260219,306.438199,814.226536,9326.594869
2492.260548,306.438199,518.144159,9252.574275
2492.260877,229.828649,962.267725,9104.533087
2492.261207,-383.047749,222.061783,9104.533087
2492.261536,-459.657299,-148.041188,9104.533087
2492.261865,-689.485948,-666.185348,9178.553681
2492.262194,-995.924147,-1480.411884,9400.615463
2492.262523,-1072.533697,-1924.535449,9326.594869
2492.262852,-1072.533697,-1184.329507,9474.636058
2492.263181,-459.657299,-962.267725,9622.677246
2492.263510,0.000000,-148.041188,9622.677246
2492.263839,536.266849,148.041188,9030.512492
2492.264168,1225.752797,814.226536,9030.512492
2492.264497,1915.238745,1258.350101,8734.430116
2492.264826,1991.848295,1406.391290,8512.368333
2492.265155,2374.896044,1332.370696,8586.388927
2492.265484,2221.676944,1184.329507,8660.409521
2492.265813,1838.629195,518.144159,8734.430116
2492.266142,1455.581446,-296.082377,9178.553681
2492.266471,842.705048,-814.226536,9178.553681
2492.266800,766.095498,-962.267725,9400.615463
2492.267130,536.266849,-518.144159,9844.739029
2492.267459,-306.438199,-740.205942,9326.594869
2492.267788,536.266849,-148.041188,9548.656652
2492.268117,306.438199,-0.000000,9178.553681
2492.268446,306.438199,-0.000000,9030.512492
2492.268775,76.609550,-74.020594,8956.491898
2492.269104,153.219100,-74.020594,8586.388927
2492.269433,0.000000,-74.020594,9030.512492
2492.269763,153.219100,-592.164754,9474.636058
2492.270092,-153.219100,-518.144159,9178.553681
2492.270421,-383.047749,-666.185348,9326.594869
2492.270750,-919.314598,-74.020594,9622.677246
2492.271079,-536.266849,-148.041188,9104.533087
2492.271408,0.000000,370.102971,8882.471304
2492.271737,0.000000,1036.288319,8364.327145
2492.272066,229.828649,888.247130,8216.285956
2492.272396,536.266849,444.123565,8142.265362
2492.272725,1072.533697,-0.000000,8512.368333
2492.273054,1608.800546,-222.061783,8512.368333
2492.273383,1149.143247,-592.164754,8586.388927
2492.273712,1302.362347,-1184.329507,9030.512492
2492.274041,842.705048,-1184.329507,9030.512492
2492.274370,842.705048,-888.247130,9474.636058
2492.274699,689.485948,-518.144159,9622.677246
2492.275029,76.609550,-518.144159,9696.697840
2492.275358,306.438199,-0.000000,9474.636058
2492.275687,76.609550,296.082377,9104.533087
2492.276016,-459.657299,592.164754,9178.553681
2492.276345,-612.876398,-0.000000,9178.553681
2492.276674,-766.095498,-0.000000,8956.491898
2492.277003,-612.876398,-740.205942,8956.491898
2492.277332,-766.095498,-1036.288319,9104.533087
2492.277662,-2145.067394,-1628.453072,9622.677246
2492.277991,-1532.190996,-1776.494261,9474.636058
2492.278320,-1302.362347,-1628.453072,9474.636058
2492.278649,-766.095498,-814.226536,9474.636058
2492.278978,-229.828649,-0.000000,9474.636058
2492.279307,459.657299,296.082377,9548.656652
2492.279636,612.876398,814.226536,9178.553681
2492.279965,1225.752797,1480.411884,8734.430116
2492.280295,1608.800546,1332.370696,8364.327145
2492.280624,1915.238745,1036.288319,8290.306550
2492.280953,1608.800546,518.144159,8364.327145
2492.281282,1455.581446,-296.082377,8290.306550
2492.281611,1302.362347,-518.144159,8808.450710
2492.281940,1225.752797,-1036.288319,8882.471304
2492.282269,919.314598,-1110.308913,9030.512492
2492.282599,383.047749,-592.164754,9400.615463
2492.282928,229.828649,-444.123565,9400.615463
2492.283257,153.219100,-0.000000,9252.574275
2492.283586,153.219100,148.041188,9104.533087
2492.283915,0.000000,740.205942,9400.615463
2492.284244,229.828649,-0.000000,9474.636058
2492.284573,-153.219100,-0.000000,9104.533087
2492.284902,0.000000,-518.144159,9474.636058
2492.285232,-383.047749,-1036.288319,9918.759623
2492.285561,-612.876398,-888.247130,9474.636058
2492.285890,-766.095498,-962.267725,9696.697840
2492.286219,-383.047749,-814.226536,9104.533087
2492.286548,0.000000,-222.061783,9252.574275
2492.286877,-229.828649,444.123565,8808.450710
2492.287206,766.095498,1480.411884,8882.471304
2492.287535,919.314598,1110.308913,8216.285956
2492.287865,1149.143247,814.226536,8586.388927
2492.288194,1532.190996,518.144159,8586.388927
2492.288523,1838.629195,-0.000000,8734.430116
2492.288852,2145.067394,-296.082377,8586.388927
2492.289181,1762.019645,-518.144159,9178.553681
2492.289510,1378.971896,-666.185348,9400.615463
2492.289839,1072.533697,-666.185348,9548.656652
2492.290168,612.876398,-296.082377,9474.636058
2492.290498,383.047749,-0.000000,9548.656652
2492.290827,612.876398,-0.000000,9252.574275
2492.291156,0.000000,-0.000000,9474.636058
2492.291485,-995.924147,296.082377,8882.471304
2492.291814,-459.657299,148.041188,8882.471304
2492.292143,-306.438199,-148.041188,8808.450710
2492.292472,-689.485948,-444.123565,8734.430116
2492.292801,-689.485948,-1110.308913,9178.553681
2492.293131,-612.876398,-1702.473667,9104.533087
2492.293460,-459.657299,-1554.432478,9622.677246
2492.293789,-459.657299,-962.267725,9474.636058
2492.294118,-995.924147,-0.000000,9400.615463
2492.294447,0.000000,296.082377,9178.553681
2492.294776,0.000000,814.226536,8660.409521
2492.295105,383.047749,740.205942,9400.615463
2492.295434,1455.581446,518.144159,8512.368333
2492.295764,919.314598,962.267725,8586.388927
2492.296093,1149.143247,-444.123565,9030.512492
2492.296422,689.485948,-518.144159,7920.203579
2492.296751,1378.971896,-740.205942,9252.574275
2492.297080,842.705048,-1332.370696,8882.471304
2492.297409,919.314598,-1110.308913,8586.388927
2492.297738,919.314598,-962.267725,9400.615463
2492.298067,536.266849,-74.020594,9030.512492
2492.298397,459.657299,-0.000000,9770.718434
2492.298726,76.609550,222.061783,9400.615463
2492.299055,-229.828649,370.102971,9178.553681
2492.299384,0.000000,222.061783,9400.615463
2492.299713,-459.657299,-148.041188,9326.594869
2492.300042,-766.095498,-296.082377,9474.636058
2492.300371,-612.876398,-1258.350101,9696.697840
2492.300700,-1072.533697,-1184.329507,9474.636058
2492.301030,-1149.143247,-1110.308913,9696.697840
2492.301359,-919.314598,-1036.288319,9400.615463
2492.301688,-459.657299,-296.082377,9474.636058
2492.302017,76.609550,148.041188,8956.491898
2492.302346,919.314598,592.164754,8586.388927
2492.302675,1608.800546,1554.432478,8142.265362
2492.303004,1378.971896,1332.370696,7994.224174
2492.303333,1608.800546,1702.473667,8438.347739
2492.303663,2298.286494,1258.350101,8068.244768
2492.303992,2221.676944,370.102971,8142.265362
2492.304321,1762.019645,-222.061783,8882.471304
2492.304650,1532.190996,-444.123565,8808.450710
2492.304979,1072.533697,-1110.308913,9400.615463
2492.305308,0.000000,-1036.288319,9918.759623
2492.305637,0.000000,-814.226536,9696.697840
2492.305967,229.828649,-666.185348,9548.656652
2492.306296,383.047749,-0.000000,9252.574275
2492.306625,383.047749,222.061783,8956.491898
2492.306954,459.657299,518.144159,8956.491898
2492.307283,229.828649,-0.000000,8512.368333
2492.307612,306.438199,148.041188,9178.553681
2492.307941,0.000000,-0.000000,8734.430116
2492.308270,-306.438199,-666.185348,9030.512492
2492.308600,-536.266849,-1184.329507,9474.636058
2492.308929,-766.095498,-1036.288319,9696.697840
2492.309258,-689.485948,-1110.308913,10140.821405
2492.309587,-612.876398,-518.144159,9918.759623
2492.309916,0.000000,-296.082377,9400.615463
2492.310245,76.609550,962.267725,9400.615463
2492.310574,536.266849,888.247130,8882.471304
2492.310903,1149.143247,1110.308913,8660.409521
2492.311233,1532.190996,592.164754,8438.347739
2492.311562,1225.752797,222.061783,8660.409521
2492.311891,1378.971896,-444.123565,9030.512492
2492.312220,1532.190996,-814.226536,8882.471304
2492.312549,995.924147,-740.205942,8660.409521
2492.312878,689.485948,-888.247130,9104.533087
2492.313207,459.657299,-666.185348,9326.594869
2492.313536,536.266849,-148.041188,9252.574275
2492.313866,76.609550,-0.000000,8956.491898
2492.314195,612.876398,-0.000000,8882.471304
2492.314524,383.047749,-74.020594,8808.450710
2492.314853,-536.266849,148.041188,8882.471304
2492.315182,0.000000,-222.061783,9400.615463
2492.315511,-689.485948,-222.061783,8660.409521
2492.315840,-1072.533697,-1258.350101,9548.656652
2492.316169,-689.485948,-1554.432478,9622.677246
2492.316499,-1072.533697,-1036.288319,9104.533087
2492.316828,-995.924147,-1258.350101,9400.615463
2492.317157,-766.095498,-666.185348,9178.553681
2492.317486,-383.047749,-148.041188,9252.574275
2492.317815,0.000000,1184.329507,8660.409521
2492.318144,689.485948,814.226536,8586.388927
2492.318473,689.485948,962.267725,8142.265362
2492.318802,1532.190996,148.041188,8290.306550
2492.319132,2145.067394,-0.000000,8364.327145
2492.319461,1302.362347,-444.123565,8512.368333
2492.319790,1838.629195,-592.164754,9104.533087
2492.320119,1302.362347,-888.247130,9326.594869
2492.320448,842.705048,-888.247130,9400.615463
2492.320777,689.485948,-1110.308913,9622.677246
2492.321106,459.657299,-518.144159,9918.759623
2492.321435,842.705048,-0.000000,9844.739029
2492.321765,612.876398,296.082377,9326.594869
2492.322094,153.219100,814.226536,8808.450710
2492.322423,76.609550,444.123565,9178.553681
2492.322752,0.000000,518.144159,8956.491898
2492.323081,-766.095498,-222.061783,9030.512492
2492.323410,-612.876398,-1184.329507,9104.533087
2492.323739,-766.095498,-2220.617826,9474.636058
2492.324068,-1302.362347,-1776.494261,9844.739029
2492.324398,-919.314598,-1554.432478,9548.656652
2492.324727,-229.828649,-1110.308913,9548.656652
2492.325056,-229.828649,-0.000000,9548.656652
2492.325385,383.047749,740.205942,9178.553681
2492.325714,995.924147,888.247130,8586.388927
2492.326043,1991.848295,1258.350101,8364.327145
2492.326372,2068.457845,1554.432478,7920.203579
2492.326701,2451.505594,1332.370696,7772.162391
2492.327031,2451.505594,1036.288319,7624.121203
2492.327360,2374.896044,666.185348,7920.203579
2492.327689,1838.629195,-74.020594,8438.347739
2492.328018,1149.143247,-666.185348,8808.450710
2492.328347,383.047749,-1332.370696,9178.553681
2492.328676,-229.828649,-962.267725,9474.636058
2492.329005,-536.266849,-888.247130,9770.718434
2492.329335,-766.095498,-814.226536,9548.656652
2492.329664,-1149.143247,-444.123565,9474.636058
2492.329993,-919.314598,-740.205942,9844.739029
2492.330322,-612.876398,-592.164754,9474.636058
2492.330651,-995.924147,-370.102971,8956.491898
2492.330980,-306.438199,-740.205942,9474.636058
2492.331309,-229.828649,-222.061783,9178.553681
2492.331638,-306.438199,-444.123565,9326.594869
2492.331968,0.000000,-444.123565,8882.471304
2492.332297,153.219100,-0.000000,8956.491898
2492.332626,0.000000,-0.000000,9104.533087
2492.332955,-766.095498,444.123565,9104.533087
2492.333284,0.000000,-0.000000,8290.306550
2492.333613,0.000000,666.185348,8512.368333
2492.333942,0.000000,518.144159,8808.450710
2492.334271,0.000000,-0.000000,8956.491898
2492.334601,229.828649,-444.123565,9030.512492
2492.334930,459.657299,-666.185348,9252.574275
2492.335259,459.657299,-1480.411884,9400.615463
2492.335588,689.485948,-1480.411884,9252.574275
2492.335917,766.095498,-962.267725,9326.594869
2492.336246,1302.362347,-74.020594,9178.553681
2492.336575,1378.971896,296.082377,9030.512492
2492.336904,1838.629195,1110.308913,8882.471304
2492.337234,1838.629195,740.205942,8660.409521
2492.337563,919.314598,740.205942,8586.388927
2492.337892,229.828649,370.102971,8734.430116
2492.338221,0.000000,-0.000000,8734.430116
2492.338550,-689.485948,-518.144159,8808.450710
2492.338879,-1225.752797,-1406.391290,9104.533087
2492.339208,-1762.019645,-2146.597232,9622.677246
2492.339537,-1225.752797,-1998.556043,9844.739029
2492.339867,-766.095498,-1924.535449,9326.594869
2492.340196,-459.657299,-814.226536,9844.739029
2492.340525,-842.705048,-296.082377,9622.677246
2492.340854,-306.438199,222.061783,9548.656652
2492.341183,766.095498,888.247130,9474.636058
2492.341512,1608.800546,1406.391290,8216.285956
2492.341841,2374.896044,1110.308913,8290.306550
2492.342170,2298.286494,1184.329507,8142.265362
2492.342500,2834.553343,666.185348,8142.265362
2492.342829,2757.943793,518.144159,8142.265362
2492.343158,2528.115143,-296.082377,8216.285956
2492.343487,1762.019645,-518.144159,8734.430116
2492.343816,766.095498,-814.226536,9252.574275
2492.344145,306.438199,-962.267725,9622.677246
2492.344474,0.000000,-1036.288319,9326.594869
2492.344803,-306.438199,-296.082377,9548.656652
2492.345133,-766.095498,-148.041188,9770.718434
2492.345462,-612.876398,-74.020594,9474.636058
2492.345791,-459.657299,-0.000000,9326.594869
2492.346120,-459.657299,-222.061783,9548.656652
2492.346449,0.000000,-666.185348,8734.430116
2492.346778,153.219100,-666.185348,9178.553681
2492.347107,536.266849,-592.164754,9326.594869
2492.347436,0.000000,-74.020594,9104.533087
2492.347766,459.657299,-222.061783,8734.430116
2492.348095,306.438199,-0.000000,8586.388927
2492.348424,536.266849,592.164754,8364.327145
2492.348753,153.219100,1110.308913,8956.491898
2492.349082,1302.362347,740.205942,8290.306550
2492.349411,766.095498,962.267725,8438.347739
2492.349740,1149.143247,444.123565,8586.388927
2492.350069,1149.143247,-0.000000,8586.388927
2492.350399,995.924147,-666.185348,9030.512492
2492.350728,995.924147,-962.267725,8956.491898
2492.351057,1302.362347,-1184.329507,9252.574275
2492.351386,689.485948,-370.102971,9696.697840
2492.351715,919.314598,-666.185348,9622.677246
2492.352044,612.876398,-0.000000,9622.677246
2492.352373,536.266849,222.061783,9178.553681
2492.352703,229.828649,444.123565,9178.553681
2492.353032,-459.657299,296.082377,9030.512492
2492.353361,-612.876398,-444.123565,9326.594869
2492.353690,-306.438199,-592.164754,9400.615463
2492.354019,-919.314598,-666.185348,9918.759623
2492.354348,-1072.533697,-1184.329507,9548.656652
2492.354677,-1532.190996,-1628.453072,9770.718434
2492.355006,-1302.362347,-1406.391290,9918.759623
2492.355336,-919.314598,-1258.350101,9474.636058
2492.355665,-383.047749,-518.144159,9474.636058
2492.355994,76.609550,296.082377,9030.512492
2492.356323,766.095498,962.267725,8734.430116
2492.356652,1072.533697,1332.370696,8438.347739
2492.356981,1455.581446,1628.453072,7994.224174
2492.357310,1608.800546,1332.370696,8364.327145
2492.357639,1608.800546,666.185348,8068.244768
2492.357969,1225.752797,-296.082377,8660.409521
2492.358298,1302.362347,-740.205942,9252.574275
2492.358627,766.095498,-1554.432478,8808.450710
2492.358956,229.828649,-1554.432478,9326.594869
2492.359285,0.000000,-1258.350101,9400.615463
2492.359614,459.657299,-666.185348,9474.636058
2492.359943,459.657299,-148.041188,9104.533087
2492.360272,612.876398,666.185348,9030.512492
2492.360602,1072.533697,666.185348,8956.491898
2492.360931,536.266849,888.247130,8438.347739
2492.361260,689.485948,666.185348,8734.430116
2492.361589,383.047749,-0.000000,8660.409521
2492.361918,-153.219100,-814.226536,9178.553681
2492.362247,-766.095498,-1258.350101,9548.656652
2492.362576,-766.095498,-1628.453072,9770.718434
2492.362905,-1072.533697,-1628.453072,9326.594869
2492.363235,-306.438199,-1184.329507,9474.636058
2492.363564,-459.657299,-148.041188,9400.615463
2492.363893,0.000000,592.164754,8956.491898
2492.364222,612.876398,888.247130,9030.512492
2492.364551,1455.581446,1184.329507,8364.327145
2492.364880,1838.629195,1110.308913,8364.327145
2492.365209,2451.505594,1184.329507,8438.347739
2492.365538,2221.676944,296.082377,7994.224174
2492.365868,2374.896044,-0.000000,8438.347739
2492.366197,1915.238745,-518.144159,8882.471304
2492.366526,1225.752797,-444.123565,9474.636058
2492.366855,766.095498,-518.144159,9474.636058
2492.367184,459.657299,-296.082377,9622.677246
2492.367513,-229.828649,-296.082377,9548.656652
2492.367842,-459.657299,-148.041188,9844.739029
2492.368171,-536.266849,-370.102971,9548.656652
2492.368501,-612.876398,-0.000000,9474.636058
2492.368830,-995.924147,-0.000000,9400.615463
2492.369159,-842.705048,-296.082377,9178.553681
2492.369488,-689.485948,-370.102971,9400.615463
2492.369817,-919.314598,-962.267725,9030.512492
2492.370146,-383.047749,-1258.350101,9252.574275
2492.370475,-612.876398,-740.205942,9400.615463
2492.370804,-383.047749,-592.164754,9178.553681
2492.371133,0.000000,-74.020594,9252.574275
2492.371462,153.219100,962.267725,8882.471304
2492.371791,612.876398,1036.288319,8808.450710
2492.372120,766.095498,1110.308913,8438.347739
2492.372450,842.705048,962.267725,8290.306550
2492.372779,919.314598,592.164754,8512.368333
2492.373108,1378.971896,-296.082377,8734.430116
2492.373437,1378.971896,-1332.370696,8364.327145
2492.373766,766.095498,-1258.350101,9030.512492
2492.374095,689.485948,-1258.350101,9178.553681
2492.374424,383.047749,-1258.350101,9104.533087
2492.374753,383.047749,-814.226536,9400.615463
2492.375082,689.485948,-740.205942,9400.615463
2492.375411,612.876398,-444.123565,9474.636058
2492.375740,306.438199,-148.041188,9252.574275
2492.376070,153.219100,222.061783,9178.553681
2492.376399,0.000000,222.061783,9178.553681
2492.376728,-536.266849,-148.041188,9030.512492
2492.377057,-766.095498,-666.185348,9326.594869
2492.377386,-919.314598,-814.226536,9326.594869
2492.377715,-919.314598,-1850.514855,9474.636058
2492.378044,-1149.143247,-1480.411884,9474.636058
2492.378373,-995.924147,-888.247130,9400.615463
2492.378702,-689.485948,-296.082377,9474.636058
2492.379031,0.000000,-0.000000,9252.574275
2492.379360,383.047749,592.164754,8882.471304
2492.379689,1225.752797,888.247130,8512.368333
2492.380019,1608.800546,1258.350101,8216.285956
2492.380348,1915.238745,1406.391290,7920.203579
2492.380677,2068.457845,1184.329507,7994.224174
2492.381006,2068.457845,296.082377,8068.244768
2492.381335,1838.629195,-444.123565,8734.430116
2492.381664,1378.971896,-888.247130,8734.430116
2492.381993,1149.143247,-1332.370696,9030.512492
2492.382322,612.876398,-740.205942,9548.656652
2492.382651,612.876398,-962.267725,9622.677246
2492.382980,536.266849,-222.061783,9474.636058
2492.383309,459.657299,-0.000000,8882.471304
2492.383638,229.828649,444.123565,9104.533087
2492.383968,153.219100,592.164754,8512.368333
2492.384297,-229.828649,444.123565,8882.471304
2492.384626,229.828649,-0.000000,9326.594869
2492.384955,153.219100,-222.061783,9030.512492
2492.385284,-766.095498,-962.267725,9400.615463
2492.385613,-766.095498,-1332.370696,9474.636058
2492.385942,-536.266849,-1036.288319,9770.718434
2492.386271,-689.485948,-740.205942,9844.739029
2492.386600,0.000000,-222.061783,9844.739029
2492.386929,306.438199,-0.000000,9770.718434
2492.387258,612.876398,518.144159,9474.636058
2492.387588,689.485948,1184.329507,8882.471304
2492.387917,1378.971896,1258.350101,8956.491898
2492.388246,1991.848295,1184.329507,9474.636058
2492.388575,1838.629195,370.102971,8364.327145
2492.388904,2451.505594,-370.102971,8956.491898
2492.389233,2145.067394,-74.020594,8882.471304
2492.389562,1532.190996,-814.226536,9400.615463
2492.389891,919.314598,-518.144159,9474.636058
2492.390220,383.047749,-444.123565,9770.718434
2492.390549,76.609550,-518.144159,9474.636058
2492.390878,-459.657299,-0.000000,9474.636058
2492.391207,-536.266849,-74.020594,9400.615463
2492.391537,-689.485948,-518.144159,8734.430116
2492.391866,-842.705048,-74.020594,9400.615463
2492.392195,-1225.752797,-518.144159,9474.636058
2492.392524,-1302.362347,-740.205942,9104.533087
2492.392853,-995.924147,-888.247130,9178.553681
2492.393182,-766.095498,-1258.350101,9326.594869
2492.393511,-306.438199,-888.247130,9252.574275
2492.393840,0.000000,-814.226536,9400.615463
2492.394169,153.219100,-296.082377,8734.430116
2492.394498,383.047749,592.164754,8586.388927
2492.394827,536.266849,814.226536,8364.327145
2492.395157,1072.533697,1184.329507,7772.162391
2492.395486,995.924147,888.247130,7920.203579
2492.395815,1838.629195,518.144159,7920.203579
2492.396144,1378.971896,-148.041188,8068.244768
2492.396473,995.924147,-666.185348,8734.430116
2492.396802,766.095498,-1110.308913,8956.491898
2492.397131,383.047749,-1258.350101,9178.553681
2492.397460,383.047749,-1406.391290,9474.636058
2492.397789,306.438199,-1184.329507,9474.636058
2492.398118,0.000000,-814.226536,9696.697840
2492.398447,766.095498,-296.082377,9548.656652
2492.398776,612.876398,592.164754,9178.553681
2492.399106,536.266849,814.226536,9030.512492
2492.399435,459.657299,1036.288319,8734.430116
2492.399764,229.828649,592.164754,8882.471304
2492.400093,0.000000,-0.000000,8808.450710
2492.400422,0.000000,-592.164754,9400.615463
2492.400751,-306.438199,-1480.411884,9474.636058
2492.401080,-842.705048,-1702.473667,9622.677246
2492.401409,-1072.533697,-1184.329507,9622.677246
2492.401738,-1225.752797,-592.164754,9696.697840
2492.402067,-306.438199,-148.041188,9696.697840
2492.402396,0.000000,1036.288319,8734.430116
2492.402726,0.000000,814.226536,9252.574275
2492.403055,1378.971896,1258.350101,8956.491898
2492.403384,2221.676944,1406.391290,8438.347739
2492.403713,1762.019645,518.144159,8216.285956
2492.404042,2221.676944,814.226536,8438.347739
2492.404371,1838.629195,-444.123565,8882.471304
2492.404700,1685.410096,518.144159,8808.450710
2492.405029,2068.457845,-888.247130,9326.594869
2492.405358,919.314598,444.123565,9548.656652
2492.405687,689.485948,-592.164754,9474.636058
2492.406016,383.047749,-518.144159,9326.594869
2492.406345,-383.047749,-370.102971,9030.512492
2492.406675,-459.657299,-0.000000,9326.594869
2492.407004,-842.705048,-222.061783,9326.594869
2492.407333,-1072.533697,-518.144159,9548.656652
2492.407662,-842.705048,-666.185348,9474.636058
2492.407991,-689.485948,-1036.288319,9252.574275
2492.408320,-919.314598,-1702.473667,9696.697840
2492.408649,-1225.752797,-1554.432478,9400.615463
2492.408978,-995.924147,-962.267725,9548.656652
2492.409307,-766.095498,-814.226536,9474.636058
2492.409636,-306.438199,-0.000000,9400.615463
2492.409965,459.657299,296.082377,9104.533087
2492.410295,995.924147,814.226536,8512.368333
2492.410624,766.095498,1258.350101,8216.285956
2492.410953,1072.533697,1036.288319,8290.306550
2492.411282,1072.533697,370.102971,7920.203579
2492.411611,995.924147,-0.000000,8216.285956
2492.411940,1838.629195,-740.205942,8586.388927
2492.412269,612.876398,-1332.370696,8512.368333
2492.412598,842.705048,-1480.411884,9252.574275
2492.412927,612.876398,-1406.391290,9474.636058
2492.413256,689.485948,-666.185348,9326.594869
2492.413585,459.657299,-222.061783,9252.574275
2492.413914,766.095498,222.061783,9178.553681
2492.414244,612.876398,518.144159,8734.430116
2492.414573,689.485948,370.102971,8438.347739
2492.414902,383.047749,-0.000000,8512.368333
2492.415231,76.609550,518.144159,8882.471304
2492.415560,-383.047749,-222.061783,8586.388927
2492.415889,-306.438199,-592.164754,9030.512492
2492.416218,-842.705048,-1258.350101,9474.636058
2492.416547,-842.705048,-1628.453072,9474.636058
2492.416876,-536.266849,-1480.411884,9696.697840
2492.417205,-689.485948,-666.185348,9548.656652
2492.417534,0.000000,-222.061783,9474.636058
2492.417864,459.657299,444.123565,9178.553681
2492.418193,1149.143247,814.226536,8808.450710
2492.418522,1915.238745,1406.391290,8586.388927
2492.418851,2298.286494,1258.350101,8586.388927
2492.419180,4060.306139,740.205942,8068.244768
2492.419509,2987.772442,518.144159,8142.265362
2492.419838,2221.676944,-370.102971,8734.430116
2492.420167,1915.238745,-370.102971,8956.491898
2492.420496,1225.752797,-740.205942,9252.574275
2492.420825,536.266849,-962.267725,9622.677246
2492.421154,229.828649,-1258.350101,9770.718434
2492.421483,-229.828649,-888.247130,9918.759623
2492.421813,-306.438199,-444.123565,9770.718434
2492.422142,-306.438199,-74.020594,9918.759623
2492.422471,-689.485948,-148.041188,9474.636058
2492.422800,0.000000,-0.000000,9326.594869
2492.423129,-306.438199,-222.061783,9178.553681
2492.423458,0.000000,-814.226536,9326.594869
2492.423787,0.000000,-444.123565,9178.553681
2492.424116,-1149.143247,-814.226536,9252.574275
2492.424445,0.000000,-592.164754,9400.615463
2492.424774,-153.219100,-148.041188,9104.533087
2492.425103,0.000000,296.082377,9104.533087
2492.425433,0.000000,814.226536,8882.471304
2492.425762,153.219100,296.082377,8660.409521
2492.426091,536.266849,1184.329507,8068.244768
2492.426420,1149.143247,518.144159,8290.306550
2492.426749,919.314598,-0.000000,7698.141797
2492.427078,919.314598,-222.061783,8142.265362
2492.427407,1302.362347,-666.185348,8734.430116
2492.427736,1072.533697,-1184.329507,8586.388927
2492.428065,1149.143247,-1110.308913,9178.553681
2492.428394,1455.581446,-888.247130,9178.553681
2492.428723,229.828649,-370.102971,9178.553681
2492.429052,1225.752797,-0.000000,9178.553681
2492.429382,842.705048,370.102971,9030.512492
2492.429711,383.047749,592.164754,8808.450710
2492.430040,0.000000,666.185348,8586.388927
2492.430369,-459.657299,370.102971,9474.636058
2492.430698,0.000000,-740.205942,9696.697840
2492.431027,-995.924147,-1110.308913,9104.533087
2492.431356,-1532.190996,-1406.391290,9696.697840
2492.431685,-1685.410096,-1998.556043,9622.677246
2492.432014,-1455.581446,-1480.411884,9696.697840
2492.432343,-995.924147,-1036.288319,9400.615463
2492.432672,-612.876398,-370.102971,10288.862594
2492.433002,-842.705048,-0.000000,9696.697840
2492.433331,1149.143247,1110.308913,9104.533087
2492.433660,1455.581446,1184.329507,8956.491898
2492.433989,1838.629195,1702.473667,8216.285956
2492.434318,2528.115143,962.267725,8364.327145
2492.434647,2374.896044,888.247130,8364.327145
2492.434976,1532.190996,222.061783,8660.409521
2492.435305,1762.019645,-444.123565,8956.491898
2492.435634,612.876398,-592.164754,9400.615463
2492.435963,612.876398,-518.144159,9918.759623
2492.436292,153.219100,-888.247130,9474.636058
2492.436621,0.000000,-518.144159,9474.636058
2492.436951,-153.219100,-222.061783,9474.636058
2492.437280,153.219100,296.082377,9252.574275
2492.437609,76.609550,148.041188,8882.471304
2492.437938,153.219100,444.123565,8808.450710
2492.438267,0.000000,-0.000000,8586.388927
2492.438596,0.000000,-518.144159,8882.471304
2492.438925,0.000000,-888.247130,9030.512492
2492.439254,-766.095498,-888.247130,9178.553681
2492.439583,-766.095498,-1850.514855,9696.697840
2492.439912,153.219100,-1332.370696,9918.759623
2492.440241,-306.438199,-1036.288319,9252.574275
2492.440571,-306.438199,-0.000000,9178.553681
2492.440900,0.000000,518.144159,8956.491898
2492.441229,76.609550,1110.308913,8438.347739
2492.441558,459.657299,1036.288319,8068.244768
2492.441887,1225.752797,814.226536,8586.388927
2492.442216,1762.019645,222.061783,8290.306550
2492.442545,1149.143247,-0.000000,8882.471304
2492.442874,1378.971896,-888.247130,8660.409521
2492.443203,1072.533697,-814.226536,9178.553681
2492.443532,1302.362347,-888.247130,9104.533087
2492.443861,1072.533697,-666.185348,9178.553681
2492.444190,1072.533697,-518.144159,9474.636058
2492.444520,383.047749,-296.082377,9696.697840
2492.444849,229.828649,222.061783,9474.636058
2492.445178,153.219100,518.144159,9474.636058
2492.445507,0.000000,148.041188,9178.553681
2492.445836,0.000000,370.102971,9178.553681
2492.446165,-306.438199,-0.000000,8882.471304
2492.446494,-689.485948,-74.020594,8808.450710
2492.446823,-919.314598,-962.267725,9252.574275
2492.447152,-919.314598,-1110.308913,9400.615463
2492.447481,-689.485948,-1258.350101,9252.574275
2492.447810,-766.095498,-962.267725,9548.656652
2492.448140,-153.219100,-0.000000,9326.594869
2492.448469,0.000000,518.144159,8808.450710
2492.448798,459.657299,1258.350101,8586.388927
2492.449127,995.924147,1184.329507,8364.327145
2492.449456,1532.190996,814.226536,7994.224174
2492.449785,2145.067394,592.164754,8586.388927
2492.450114,1608.800546,-0.000000,8660.409521
2492.450443,1378.971896,-666.185348,9400.615463
2492.450772,1149.143247,-888.247130,9178.553681
2492.451101,995.924147,-962.267725,9104.533087
2492.451430,536.266849,-962.267725,9400.615463
2492.451759,459.657299,-592.164754,9622.677246
2492.452089,612.876398,-222.061783,9400.615463
2492.452418,229.828649,-0.000000,9400.615463
2492.452747,76.609550,-0.000000,8808.450710
2492.453076,-153.219100,148.041188,9326.594869
2492.453405,-383.047749,-0.000000,9104.533087
2492.453734,-536.266849,-518.144159,9252.574275
2492.454063,-612.876398,-1110.308913,9400.615463
2492.454392,-612.876398,-1406.391290,9474.636058
2492.454721,-536.266849,-1554.432478,9918.759623
2492.455050,-689.485948,-1480.411884,9622.677246
2492.455379,-995.924147,-1110.308913,9548.656652
2492.455709,-459.657299,-444.123565,9400.615463
2492.456038,229.828649,222.061783,9178.553681
2492.456367,842.705048,962.267725,8586.388927
2492.456696,919.314598,1110.308913,8364.327145
2492.457025,1608.800546,1332.370696,7994.224174
2492.457354,1915.238745,1258.350101,7772.162391
2492.457683,2145.067394,814.226536,7772.162391
2492.458012,1838.629195,-74.020594,8068.244768
2492.458341,1532.190996,-592.164754,8660.409521
2492.458670,1302.362347,-1406.391290,8882.471304
2492.458999,995.924147,-1480.411884,9326.594869
2492.459328,1072.533697,-962.267725,9178.553681
2492.459658,383.047749,-444.123565,9696.697840
2492.459987,536.266849,-74.020594,9474.636058
2492.460316,459.657299,370.102971,9326.594869
2492.460645,612.876398,444.123565,8882.471304
2492.460974,153.219100,740.205942,8882.471304
2492.461303,0.000000,296.082377,9252.574275
2492.461632,306.438199,-0.000000,8956.491898
2492.461961,-153.219100,-444.123565,9178.553681
2492.462290,-612.876398,-1184.329507,9178.553681
2492.462619,-689.485948,-1110.308913,9622.677246
2492.462948,-766.095498,-1184.329507,9474.636058
2492.463277,-612.876398,-592.164754,9474.636058
2492.463607,-153.219100,-222.061783,9474.636058
2492.463936,306.438199,-0.000000,9548.656652
2492.464265,766.095498,592.164754,9104.533087
2492.464594,1072.533697,962.267725,8956.491898
2492.464923,1455.581446,666.185348,8586.388927
2492.465252,1838.629195,370.102971,8512.368333
2492.465581,1838.629195,148.041188,8808.450710
2492.465910,2145.067394,-296.082377,8882.471304
2492.466239,1762.019645,-888.247130,9400.615463
2492.466568,919.314598,-592.164754,9622.677246
2492.466897,536.266849,-222.061783,9474.636058
2492.467227,536.266849,-518.144159,9474.636058
2492.467556,383.047749,-0.000000,9400.615463
2492.467885,0.000000,296.082377,9400.615463
2492.468214,76.609550,-0.000000,9178.553681
2492.468543,-383.047749,-148.041188,8290.306550
2492.468872,-766.095498,-0.000000,9030.512492
2492.469201,-689.485948,-74.020594,8882.471304
2492.469530,-919.314598,-888.247130,9104.533087
2492.469859,-1072.533697,-1332.370696,9400.615463
2492.470188,-995.924147,-1258.350101,9548.656652
2492.470518,-842.705048,-1406.391290,9178.553681
2492.470847,-842.705048,-1110.308913,8660.409521
2492.471176,-383.047749,-148.041188,9252.574275
2492.471505,229.828649,592.164754,8808.450710
2492.471834,536.266849,1184.329507,8586.388927
2492.472163,995.924147,1406.391290,8216.285956
2492.472493,1149.143247,1406.391290,7772.162391
2492.472822,1302.362347,814.226536,7920.203579
2492.473151,1455.581446,222.061783,8512.368333
2492.473480,1608.800546,-444.123565,8660.409521
2492.473809,766.095498,-1110.308913,9030.512492
2492.474138,842.705048,-1184.329507,9326.594869
2492.474467,383.047749,-1332.370696,9400.615463
2492.474797,459.657299,-962.267725,9474.636058
2492.475126,229.828649,-888.247130,9696.697840
2492.475455,306.438199,-518.144159,9474.636058
2492.475784,842.705048,148.041188,9326.594869
2492.476113,459.657299,592.164754,9178.553681
2492.476442,153.219100,962.267725,9326.594869
2492.476772,0.000000,518.144159,9104.533087
2492.477101,0.000000,-0.000000,9104.533087
2492.477430,-919.314598,-592.164754,9400.615463
2492.477759,-1149.143247,-1332.370696,9770.718434
2492.478088,-995.924147,-1628.453072,9918.759623
2492.478417,-766.095498,-1406.391290,9696.697840
2492.478747,-536.266849,-370.102971,9474.636058
2492.479076,0.000000,-0.000000,9178.553681
2492.479405,229.828649,888.247130,9030.512492
2492.479734,1302.362347,1258.350101,8734.430116
2492.480063,1762.019645,1332.370696,8586.388927
2492.480392,2298.286494,1036.288319,8216.285956
2492.480722,2145.067394,962.267725,8290.306550
2492.481051,1991.848295,518.144159,8586.388927
2492.481380,1685.410096,-0.000000,8660.409521
2492.481709,1455.581446,-296.082377,8808.450710
2492.482038,842.705048,-666.185348,9252.574275
2492.482367,459.657299,-740.205942,9474.636058
2492.482697,-459.657299,-148.041188,9918.759623
2492.483026,-229.828649,-296.082377,9400.615463
2492.483355,-229.828649,-74.020594,9030.512492
2492.483684,-306.438199,370.102971,9178.553681
2492.484013,-383.047749,-0.000000,9030.512492
2492.484342,0.000000,-0.000000,9400.615463
2492.484671,-459.657299,-296.082377,9104.533087
2492.485001,-153.219100,-1036.288319,9474.636058
2492.485330,-689.485948,-1184.329507,9400.615463
2492.485659,-842.705048,-1184.329507,9178.553681
2492.485988,-995.924147,-814.226536,9548.656652
2492.486317,-766.095498,-666.185348,9548.656652
2492.486646,-766.095498,-0.000000,9622.677246
2492.486976,-229.828649,296.082377,9474.636058
2492.487305,0.000000,666.185348,8660.409521
2492.487634,153.219100,740.205942,8512.368333
2492.487963,383.047749,518.144159,8438.347739
2492.488292,536.266849,-0.000000,8586.388927
2492.488621,995.924147,-444.123565,8438.347739
2492.488951,1149.143247,-1036.288319,8882.471304
2492.489280,766.095498,-1110.308913,9104.533087
2492.489609,1608.800546,-1702.473667,9178.553681
2492.489938,995.924147,-1036.288319,8956.491898
2492.490267,842.705048,-370.102971,9104.533087
2492.490596,689.485948,-148.041188,9252.574275
2492.490926,612.876398,296.082377,8882.471304
2492.491255,0.000000,592.164754,9104.533087
2492.491584,-612.876398,518.144159,8882.471304
2492.491913,-459.657299,222.061783,8956.491898
2492.492242,-842.705048,370.102971,9104.533087
2492.492571,-229.828649,-592.164754,9474.636058
2492.492901,-1225.752797,-1184.329507,9474.636058
2492.493230,-1149.143247,-1332.370696,9474.636058
2492.493559,-689.485948,-962.267725,9474.636058
2492.493888,-306.438199,-888.247130,9474.636058
2492.494217,76.609550,-222.061783,9178.553681
2492.494546,76.609550,-0.000000,8882.471304
2492.494875,1378.971896,962.267725,9104.533087
2492.495205,1915.238745,1406.391290,8364.327145
2492.495534,2145.067394,1110.308913,7920.203579
2492.495863,2298.286494,1036.288319,8290.306550
2492.496192,2298.286494,814.226536,8512.368333
2492.496521,1915.238745,-0.000000,8660.409521
2492.496850,1915.238745,-888.247130,9252.574275
2492.497180,1225.752797,-888.247130,9252.574275
2492.497509,995.924147,-1332.370696,9474.636058
2492.497838,306.438199,-592.164754,9918.759623
2492.498167,459.657299,-592.164754,9474.636058
2492.498496,306.438199,-0.000000,9474.636058
2492.498825,306.438199,518.144159,9326.594869
2492.499155,536.266849,592.164754,9252.574275
2492.499484,919.314598,296.082377,9474.636058
2492.499813,919.314598,-222.061783,9252.574275
2492.500142,153.219100,-222.061783,9252.574275
2492.500471,0.000000,-814.226536,9474.636058
2492.500800,-689.485948,-1036.288319,9622.677246
2492.501130,-842.705048,-1184.329507,9696.697840
2492.501459,-1149.143247,-888.247130,9992.780217
2492.501788,-689.485948,-370.102971,9622.677246
2492.502117,-383.047749,-0.000000,8956.491898
2492.502446,-153.219100,740.205942,9178.553681
2492.502775,76.609550,888.247130,8734.430116
2492.503105,689.485948,1258.350101,8290.306550
2492.503434,1072.533697,1036.288319,8290.306550
2492.503763,1302.362347,444.123565,8142.265362
2492.504092,1608.800546,-0.000000,8142.265362
2492.504421,1608.800546,-962.267725,8512.368333
2492.504750,1991.848295,-1184.329507,8586.388927
2492.505079,919.314598,-370.102971,8068.244768
2492.505409,689.485948,-1184.329507,9326.594869
2492.505738,536.266849,-296.082377,9326.594869
2492.506067,536.266849,370.102971,10066.800811
2492.506396,-306.438199,-222.061783,9178.553681
2492.506725,76.609550,666.185348,8882.471304
2492.507054,-919.314598,-0.000000,9030.512492
2492.507384,-766.095498,666.185348,9104.533087
2492.507713,-995.924147,-740.205942,9178.553681
2492.508042,-1225.752797,-962.267725,9030.512492
2492.508371,-919.314598,-1554.432478,8956.491898
2492.508700,-1302.362347,-1998.556043,9548.656652
2492.509029,-1225.752797,-2220.617826,9252.574275
2492.509359,-306.438199,-888.247130,9474.636058
2492.509688,0.000000,-370.102971,9474.636058
2492.510017,229.828649,370.102971,8882.471304
2492.510346,1149.143247,1110.308913,8734.430116
2492.510675,1608.800546,1554.432478,8734.430116
2492.511004,1838.629195,740.205942,8660.409521
2492.511334,2221.676944,740.205942,8216.285956
2492.511663,1378.971896,444.123565,8734.430116
2492.511992,1302.362347,-74.020594,8808.450710
2492.512321,995.924147,-444.123565,9030.512492
2492.512650,689.485948,-1110.308913,9474.636058
2492.512979,536.266849,-1332.370696,9474.636058
2492.513309,153.219100,-1258.350101,9474.636058
2492.513638,-383.047749,-444.123565,9474.636058
2492.513967,229.828649,222.061783,8956.491898
2492.514296,383.047749,740.205942,8956.491898
2492.514625,459.657299,592.164754,8734.430116
2492.514954,689.485948,666.185348,8808.450710
2492.515284,306.438199,592.164754,9030.512492
2492.515613,383.047749,-0.000000,9030.512492
2492.515942,76.609550,-740.205942,9252.574275
2492.516271,-766.095498,-1036.288319,9474.636058
2492.516600,-995.924147,-1258.350101,9918.759623
2492.516929,-1149.143247,-888.247130,9844.739029
2492.517258,-1149.143247,-518.144159,9622.677246
2492.517588,-153.219100,-0.000000,9474.636058
2492.517917,-383.047749,740.205942,9252.574275
2492.518246,612.876398,666.185348,8512.368333
2492.518575,919.314598,740.205942,8512.368333
2492.518904,1838.629195,814.226536,8290.306550
2492.519233,2145.067394,444.123565,7846.182985
2492.519563,2298.286494,-74.020594,7920.203579
2492.519892,2068.457845,-444.123565,8364.327145
2492.520221,1685.410096,-592.164754,8586.388927
2492.520550,1378.971896,-666.185348,9030.512492
2492.520879,995.924147,-444.123565,9252.574275
2492.521208,0.000000,-222.061783,9918.759623
2492.521538,-153.219100,-444.123565,9622.677246
2492.521867,-766.095498,-296.082377,9918.759623
2492.522196,-689.485948,-370.102971,9474.636058
2492.522525,-766.095498,-0.000000,9696.697840
2492.522854,-995.924147,148.041188,9622.677246
2492.523183,-919.314598,-370.102971,9030.512492
2492.523513,-766.095498,-814.226536,9030.512492
2492.523842,-689.485948,-888.247130,8734.430116
2492.524171,-612.876398,-1110.308913,8808.450710
2492.524500,-383.047749,-888.247130,9326.594869
2492.524829,689.485948,-740.205942,8734.430116
2492.525158,536.266849,148.041188,8734.430116
2492.525488,919.314598,666.185348,8660.409521
2492.525817,1149.143247,1332.370696,8290.306550
2492.526146,1225.752797,1110.308913,8142.265362
2492.526475,1149.143247,1332.370696,8142.265362
2492.526804,689.485948,296.082377,9326.594869
2492.527133,1532.190996,-444.123565,9104.533087
2492.527462,1072.533697,-740.205942,8586.388927
2492.527792,0.000000,-1480.411884,9252.574275
2492.528121,0.000000,-1480.411884,9696.697840
2492.528450,0.000000,-814.226536,9474.636058
2492.528779,229.828649,-814.226536,9104.533087
2492.529108,919.314598,296.082377,9030.512492
2492.529437,919.314598,-148.041188,8808.450710
2492.529767,689.485948,962.267725,8438.347739
2492.530096,383.047749,518.144159,8660.409521
2492.530425,229.828649,296.082377,8734.430116
2492.530754,383.047749,-148.041188,8956.491898
2492.531083,-383.047749,-518.144159,9474.636058
2492.531412,-1072.533697,-1776.494261,10066.800811
2492.531742,-919.314598,-1406.391290,10362.883188
2492.532071,-1915.238745,-1406.391290,10732.986159
2492.532400,-1302.362347,-962.267725,10066.800811
2492.532729,-1225.752797,-518.144159,9844.739029
2492.533058,-919.314598,222.061783,9548.656652
2492.533387,153.219100,666.185348,9326.594869
2492.533717,766.095498,1184.329507,8660.409521
2492.534046,1225.752797,1480.411884,8438.347739
2492.534375,2298.286494,962.267725,8068.244768
2492.534704,2604.724693,888.247130,7772.162391
2492.535033,2528.115143,-0.000000,7994.224174
2492.535362,2834.553343,-148.041188,8068.244768
2492.535692,2221.676944,-814.226536,8734.430116
2492.536021,1532.190996,-740.205942,9104.533087
2492.536350,1072.533697,-592.164754,9326.594869
2492.536679,612.876398,-518.144159,9992.780217
2492.537008,306.438199,-740.205942,9770.718434
2492.537337,-383.047749,-222.061783,9918.759623
2492.537666,-306.438199,-0.000000,9474.636058
2492.537996,-536.266849,592.164754,9030.512492
2492.538325,-383.047749,296.082377,9178.553681
2492.538654,-306.438199,-0.000000,8956.491898
2492.538983,0.000000,-1036.288319,8808.450710
2492.539312,0.000000,-888.247130,8660.409521
2492.539641,0.000000,-1036.288319,9104.533087
2492.539971,153.219100,-592.164754,9104.533087
2492.540300,153.219100,-222.061783,8808.450710
2492.540629,536.266849,-74.020594,8882.471304
2492.540958,766.095498,148.041188,8956.491898
2492.541287,919.314598,740.205942,8734.430116
2492.541616,1149.143247,888.247130,8660.409521
2492.541946,1455.581446,666.185348,9178.553681
2492.542275,1685.410096,-0.000000,8586.388927
2492.542604,1149.143247,-0.000000,8956.491898
2492.542933,1149.143247,-740.205942,9104.533087
2492.543262,766.095498,-740.205942,9400.615463
2492.543591,306.438199,-740.205942,9400.615463
2492.543921,383.047749,-592.164754,9400.615463
2492.544250,383.047749,-444.123565,9252.574275
2492.544579,536.266849,370.102971,9252.574275
2492.544908,76.609550,148.041188,8808.450710
2492.545237,76.609550,-0.000000,9030.512492
2492.545566,-306.438199,-74.020594,8956.491898
2492.545896,-229.828649,-740.205942,9178.553681
2492.546225,-842.705048,-962.267725,9474.636058
2492.546554,-1302.362347,-888.247130,9474.636058
2492.546883,-1455.581446,-1258.350101,10140.821405
2492.547212,-1378.971896,-888.247130,9548.656652
2492.547541,-995.924147,-666.185348,9474.636058
2492.547870,-689.485948,-222.061783,9474.636058
2492.548200,-229.828649,-0.000000,9030.512492
2492.548529,76.609550,1110.308913,8586.388927
2492.548858,919.314598,1184.329507,8660.409521
2492.549187,1149.143247,1036.288319,7994.224174
2492.549516,1302.362347,962.267725,7698.141797
2492.549845,1455.581446,296.082377,7624.121203
2492.550175,1225.752797,-296.082377,7994.224174
2492.550504,1532.190996,-1332.370696,8586.388927
2492.550833,919.314598,-1702.473667,8956.491898
2492.551162,76.609550,-1628.453072,9992.780217
2492.551491,153.219100,-1480.411884,9622.677246
2492.551820,153.219100,-666.185348,9548.656652
2492.552150,383.047749,-222.061783,9992.780217
2492.552479,459.657299,592.164754,9696.697840
2492.552808,919.314598,370.102971,9178.553681
2492.553137,459.657299,1036.288319,8882.471304
2492.553466,459.657299,1184.329507,9400.615463
2492.553795,612.876398,296.082377,8734.430116
2492.554125,-306.438199,-0.000000,8882.471304
2492.554454,-689.485948,-740.205942,9326.594869
2492.554783,-995.924147,-1332.370696,9400.615463
2492.555112,-919.314598,-1702.473667,9622.677246
2492.555441,-919.314598,-1924.535449,9548.656652
2492.555770,-229.828649,-962.267725,9770.718434
2492.556100,-459.657299,-444.123565,9474.636058
2492.556429,612.876398,518.144159,9252.574275
2492.556758,1455.581446,1480.411884,8882.471304
2492.557087,2068.457845,1702.473667,8364.327145
2492.557416,2604.724693,1702.473667,8660.409521
2492.557745,2834.553343,1110.308913,8364.327145
2492.558074,2528.115143,962.267725,8216.285956
2492.558404,1915.238745,370.102971,8586.388927
2492.558733,1455.581446,-444.123565,9030.512492
2492.559062,842.705048,-666.185348,9178.553681
2492.559391,153.219100,-814.226536,9400.615463
2492.559720,229.828649,-888.247130,9474.636058
2492.560049,-229.828649,-1036.288319,9178.553681
2492.560379,-766.095498,-0.000000,9178.553681
2492.560708,-383.047749,-296.082377,9104.533087
2492.561037,0.000000,-0.000000,9104.533087
2492.561366,-383.047749,-148.041188,8956.491898
2492.561695,-306.438199,-222.061783,8882.471304
2492.562024,-612.876398,-1184.329507,9326.594869
2492.562354,-306.438199,-1332.370696,9252.574275
2492.562683,-459.657299,-1332.370696,8956.491898
2492.563012,-689.485948,-962.267725,9770.718434
2492.563341,-919.314598,-444.123565,9548.656652
2492.563670,-306.438199,444.123565,9326.594869
2492.563999,0.000000,666.185348,8808.450710
2492.564329,689.485948,1110.308913,8364.327145
2492.564658,842.705048,740.205942,8068.244768
2492.564987,612.876398,-0.000000,8364.327145
2492.565316,1225.752797,-444.123565,8438.347739
2492.565645,919.314598,-814.226536,8364.327145
2492.565974,919.314598,-1480.411884,8586.388927
2492.566304,612.876398,-1628.453072,9474.636058
2492.566633,766.095498,-1480.411884,9474.636058
2492.566962,459.657299,-1110.308913,9474.636058
2492.567291,459.657299,-888.247130,9770.718434
2492.567620,536.266849,-296.082377,9548.656652
2492.567949,0.000000,296.082377,9400.615463
2492.568278,76.609550,666.185348,9326.594869
2492.568608,0.000000,740.205942,8882.471304
2492.568937,-459.657299,370.102971,9030.512492
2492.569266,-459.657299,-0.000000,8882.471304
2492.569595,-306.438199,-666.185348,8734.430116
2492.569924,-153.219100,-1406.391290,9252.574275
2492.570253,-766.095498,-1332.370696,8882.471304
2492.570582,-612.876398,-1036.288319,9104.533087
2492.570911,-536.266849,-740.205942,9178.553681
2492.571240,229.828649,-222.061783,9252.574275
2492.571569,459.657299,370.102971,9104.533087
2492.571899,1378.971896,518.144159,8882.471304
2492.572228,1685.410096,1110.308913,8586.388927
2492.572557,2068.457845,1036.288319,7994.224174
2492.572886,1991.848295,962.267725,8734.430116
2492.573215,1762.019645,444.123565,8512.368333
2492.573544,2068.457845,-148.041188,8734.430116
2492.573873,1455.581446,-518.144159,9104.533087
2492.574202,1302.362347,-1036.288319,9400.615463
2492.574531,1072.533697,-888.247130,9104.533087
2492.574860,689.485948,-666.185348,9252.574275
2492.575190,919.314598,-370.102971,9104.533087
2492.575519,1149.143247,222.061783,8882.471304
2492.575848,842.705048,370.102971,8808.450710
2492.576177,995.924147,-0.000000,8142.265362
2492.576506,459.657299,370.102971,8882.471304
2492.576835,842.705048,222.061783,9030.512492
2492.577164,0.000000,-444.123565,9326.594869
2492.577493,-766.095498,-666.185348,9696.697840
2492.577822,-1149.143247,-1036.288319,9992.780217
2492.578151,-1378.971896,-888.247130,10214.842000
2492.578480,-1378.971896,-518.144159,9992.780217
2492.578810,-612.876398,-444.123565,9918.759623
2492.579139,-536.266849,-74.020594,9252.574275
2492.579468,0.000000,1036.288319,9178.553681
2492.579797,459.657299,962.267725,8512.368333
2492.580126,1072.533697,1036.288319,8290.306550
2492.580455,1685.410096,814.226536,7994.224174
2492.580784,2451.505594,-74.020594,7846.182985
2492.581113,2298.286494,-222.061783,8216.285956
2492.581442,1608.800546,-740.205942,8512.368333
2492.581771,1838.629195,-370.102971,8364.327145
2492.582100,1149.143247,-592.164754,9104.533087
2492.582430,766.095498,-222.061783,9400.615463
2492.582759,306.438199,-296.082377,9474.636058
2492.583088,-229.828649,-592.164754,9992.780217
2492.583417,-612.876398,-296.082377,9696.697840
2492.583746,-1072.533697,-0.000000,9326.594869
2492.584075,-1225.752797,-0.000000,9326.594869
2492.584404,-1072.533697,-148.041188,9252.574275
2492.584733,-1455.581446,-370.102971,9178.553681
2492.585062,-1149.143247,-1258.350101,9326.594869
2492.585391,-766.095498,-1554.432478,9474.636058
2492.585720,-842.705048,-1480.411884,9326.594869
2492.586050,-536.266849,-1628.453072,9252.574275
2492.586379,-383.047749,-740.205942,9030.512492
2492.586708,153.219100,-148.041188,8882.471304
2492.587037,842.705048,518.144159,8734.430116
2492.587366,1072.533697,1110.308913,8586.388927
2492.587695,1608.800546,1332.370696,8660.409521
2492.588024,1455.581446,1110.308913,8882.471304
2492.588353,1378.971896,296.082377,8438.347739
2492.588682,1149.143247,-74.020594,8734.430116
2492.589011,612.876398,-444.123565,9104.533087
2492.589341,536.266849,-1184.329507,9178.553681
2492.589670,383.047749,-1258.350101,9178.553681
2492.589999,612.876398,-1258.350101,9326.594869
2492.590328,76.609550,-740.205942,9400.615463
2492.590657,383.047749,-518.144159,8882.471304
2492.590986,689.485948,222.061783,9178.553681
2492.591315,459.657299,592.164754,8512.368333
2492.591644,536.266849,592.164754,8586.388927
2492.591973,459.657299,370.102971,8660.409521
2492.592302,76.609550,296.082377,8882.471304
2492.592631,306.438199,-592.164754,9326.594869
2492.592961,-536.266849,-888.247130,9326.594869
2492.593290,-612.876398,-1036.288319,9548.656652
2492.593619,-995.924147,-1036.288319,9696.697840
2492.593948,-612.876398,-592.164754,9844.739029
2492.594277,-306.438199,-148.041188,9400.615463
2492.594606,0.000000,296.082377,9326.594869
2492.594935,766.095498,814.226536,8956.491898
2492.595264,1455.581446,1036.288319,8068.244768
2492.595593,1838.629195,1258.350101,8216.285956
2492.595922,2374.896044,1258.350101,7920.203579
2492.596251,2451.505594,592.164754,8068.244768
2492.596581,2451.505594,-0.000000,8586.388927
2492.596910,2145.067394,-666.185348,8808.450710
2492.597239,1762.019645,-740.205942,9252.574275
2492.597568,459.657299,-814.226536,9770.718434
2492.597897,0.000000,-1036.288319,9992.780217
2492.598226,0.000000,-740.205942,10214.842000
2492.598555,-536.266849,-444.123565,10214.842000
2492.598884,-766.095498,-222.061783,10066.800811
2492.599213,-536.266849,222.061783,9696.697840
2492.599542,-306.438199,222.061783,9474.636058
2492.599871,-612.876398,-0.000000,9326.594869
2492.600201,-1225.752797,-0.000000,9104.533087
2492.600530,-919.314598,-592.164754,9400.615463
2492.600859,-766.095498,-962.267725,8956.491898
2492.601188,-689.485948,-1036.288319,9104.533087
2492.601517,0.000000,-888.247130,9030.512492
2492.601846,-459.657299,296.082377,9104.533087
2492.602175,0.000000,-222.061783,9400.615463
2492.602504,76.609550,296.082377,8882.471304
2492.602833,383.047749,888.247130,8290.306550
2492.603162,306.438199,814.226536,9104.533087
2492.603492,766.095498,148.041188,8660.409521
2492.603821,919.314598,666.185348,8734.430116
2492.604150,842.705048,-666.185348,8808.450710
2492.604479,1149.143247,-740.205942,8660.409521
2492.604808,1149.143247,-592.164754,9548.656652
2492.605137,766.095498,-1110.308913,8882.471304
2492.605466,1378.971896,-370.102971,8512.368333
2492.605795,1072.533697,-296.082377,8734.430116
2492.606124,1608.800546,222.061783,7698.141797
2492.606453,1378.971896,296.082377,8364.327145
2492.606782,459.657299,296.082377,8512.368333
2492.607112,153.219100,-0.000000,8290.306550
2492.607441,-383.047749,-444.123565,9474.636058
2492.607770,-1149.143247,-1036.288319,9474.636058
2492.608099,-1455.581446,-1332.370696,9918.759623
2492.608428,-2145.067394,-1480.411884,11103.089130
2492.608757,-1532.190996,-1406.391290,10436.903782
2492.609086,-919.314598,-1258.350101,10214.842000
2492.609415,-919.314598,-444.123565,10288.862594
2492.609744,0.000000,370.102971,9770.718434
2492.610073,995.924147,740.205942,9030.512492
2492.610402,1608.800546,1406.391290,8290.306550
2492.610732,2145.067394,1776.494261,8216.285956
2492.611061,2911.162892,2368.659014,7772.162391
2492.611390,2757.943793,740.205942,7772.162391
2492.611719,2604.724693,-0.000000,7624.121203
2492.612048,1915.238745,-592.164754,8364.327145
2492.612377,1149.143247,-1480.411884,9030.512492
2492.612706,459.657299,-1776.494261,9474.636058
2492.613035,-229.828649,-1258.350101,9696.697840
2492.613364,-459.657299,-1702.473667,10214.842000
2492.613693,-306.438199,-1036.288319,10140.821405
2492.614022,-306.438199,-0.000000,9918.759623
2492.614352,0.000000,370.102971,9548.656652
2492.614681,459.657299,814.226536,8882.471304
2492.615010,459.657299,1036.288319,8734.430116
2492.615339,1072.533697,1110.308913,8290.306550
2492.615668,612.876398,-0.000000,8364.327145
2492.615997,229.828649,-740.205942,8290.306550
2492.616326,153.219100,-888.247130,8512.368333
2492.616655,0.000000,-666.185348,8882.471304
2492.616984,-459.657299,-888.247130,9104.533087
2492.617313,-612.876398,-444.123565,9252.574275
2492.617643,-689.485948,-518.144159,9400.615463
2492.617972,-306.438199,-888.247130,9178.553681
2492.618301,-383.047749,-0.000000,9178.553681
2492.618630,0.000000,444.123565,9104.533087
2492.618959,689.485948,518.144159,8808.450710
2492.619288,1225.752797,-0.000000,9252.574275
2492.619617,1685.410096,-74.020594,8882.471304
2492.619946,2298.286494,-148.041188,8882.471304
2492.620275,2145.067394,-370.102971,8808.450710
2492.620604,2451.505594,-444.123565,8364.327145
2492.620933,2068.457845,-0.000000,8660.409521
2492.621263,1072.533697,-0.000000,8660.409521
2492.621592,1225.752797,296.082377,8956.491898
2492.621921,689.485948,-0.000000,8808.450710
2492.622250,-536.266849,-0.000000,8734.430116
2492.622579,-306.438199,-518.144159,9474.636058
2492.622908,-1608.800546,-888.247130,9474.636058
