#time,accel_x,accel_y,accel_z
2370.531976,229.828649,-222.061783,9030.512492
2370.532305,229.828649,-0.000000,9030.512492
2370.532634,229.828649,-222.061783,8956.491898
2370.532963,383.047749,-222.061783,9104.533087
2370.533292,306.438199,-370.102971,8882.471304
2370.533621,229.828649,-74.020594,9178.553681
2370.533950,612.876398,-222.061783,9104.533087
2370.534280,306.438199,-222.061783,9178.553681
2370.534609,459.657299,-148.041188,9104.533087
2370.534938,229.828649,-222.061783,9178.553681
2370.535267,-153.219100,-0.000000,9474.636058
2370.535596,689.485948,-222.061783,9474.636058
2370.535925,612.876398,-74.020594,9104.533087
2370.536254,153.219100,-148.041188,9326.594869
2370.536584,153.219100,-222.061783,9252.574275
2370.536913,306.438199,-222.061783,9030.512492
2370.537242,306.438199,-222.061783,9104.533087
2370.537571,459.657299,-370.102971,9252.574275
2370.537900,306.438199,296.082377,9400.615463
2370.538229,229.828649,-370.102971,9178.553681
2370.538558,536.266849,-222.061783,9104.533087
2370.538888,459.657299,-0.000000,9030.512492
2370.539217,229.828649,-0.000000,8882.471304
2370.539546,306.438199,-0.000000,8882.471304
2370.539875,306.438199,148.041188,9178.553681
2370.540204,459.657299,-74.020594,9178.553681
2370.540533,459.657299,-296.082377,8882.471304
2370.540862,306.438199,-74.020594,8956.491898
2370.541192,229.828649,-0.000000,9030.512492
2370.541521,306.438199,-0.000000,8882.471304
2370.541850,229.828649,-0.000000,8956.491898
2370.542179,229.828649,-666.185348,8882.471304
2370.542508,0.000000,-370.102971,8882.471304
2370.542837,306.438199,-222.061783,9104.533087
2370.543167,153.219100,-296.082377,9326.594869
2370.543496,76.609550,-148.041188,9104.533087
2370.543825,76.609550,-148.041188,9178.553681
2370.544154,153.219100,-296.082377,9030.512492
2370.544483,229.828649,-148.041188,9178.553681
2370.544812,536.266849,-444.123565,9030.512492
2370.545141,-153.219100,-296.082377,9326.594869
2370.545471,306.438199,-148.041188,9178.553681
2370.545800,153.219100,-74.020594,9104.533087
2370.546129,612.876398,-222.061783,9178.553681
2370.546458,383.047749,-222.061783,9326.594869
2370.546787,612.876398,-0.000000,9104.533087
2370.547116,459.657299,-370.102971,9326.594869
2370.547445,766.095498,-518.144159,9178.553681
2370.547775,383.047749,-296.082377,8734.430116
2370.548104,536.266849,-74.020594,9178.553681
2370.548433,306.438199,-74.020594,9104.533087
2370.548762,229.828649,-148.041188,9104.533087
2370.549091,229.828649,-148.041188,9030.512492
2370.549420,536.266849,-0.000000,9252.574275
2370.549749,-153.219100,-0.000000,9474.636058
2370.550079,459.657299,-148.041188,8956.491898
2370.550408,306.438199,-0.000000,8956.491898
2370.550737,76.609550,-0.000000,8956.491898
2370.551066,383.047749,-148.041188,8734.430116
2370.551395,229.828649,-0.000000,8882.471304
2370.551724,995.924147,-592.164754,9030.512492
2370.552053,306.438199,-444.123565,8956.491898
2370.552383,153.219100,-0.000000,8956.491898
2370.552712,229.828649,-148.041188,8808.450710
2370.553041,459.657299,-222.061783,8734.430116
2370.553370,306.438199,-222.061783,8734.430116
2370.553699,536.266849,-222.061783,8956.491898
2370.554028,919.314598,-296.082377,9178.553681
2370.554357,383.047749,-296.082377,9400.615463
2370.554687,153.219100,-222.061783,9252.574275
2370.555016,153.219100,-222.061783,9030.512492
2370.555345,0.000000,-370.102971,9104.533087
2370.555674,383.047749,-222.061783,9252.574275
2370.556003,766.095498,-444.123565,9400.615463
2370.556332,459.657299,-148.041188,9252.574275
2370.556661,459.657299,-222.061783,9252.574275
2370.556991,459.657299,-444.123565,9104.533087
2370.557320,306.438199,-222.061783,8882.471304
2370.557649,383.047749,-148.041188,9400.615463
2370.557978,459.657299,-0.000000,9178.553681
2370.558307,383.047749,-444.123565,9030.512492
2370.558636,689.485948,-444.123565,9400.615463
2370.558965,0.000000,-148.041188,9104.533087
2370.559295,689.485948,-518.144159,9178.553681
2370.559624,536.266849,-74.020594,9326.594869
2370.559953,612.876398,-148.041188,9104.533087
2370.560282,229.828649,-74.020594,9178.553681
2370.560611,919.314598,-666.185348,9622.677246
2370.560940,1302.362347,-962.267725,9178.553681
2370.561270,1608.800546,-814.226536,9252.574275
2370.561599,1991.848295,-518.144159,9030.512492
2370.561928,2145.067394,-74.020594,8290.306550
2370.562257,3447.429741,370.102971,8882.471304
2370.562586,3753.867940,-148.041188,8660.409521
2370.562915,3830.477490,148.041188,8290.306550
2370.563244,2911.162892,592.164754,8586.388927
2370.563574,3524.039291,740.205942,8438.347739
2370.563903,3447.429741,-740.205942,9178.553681
2370.564232,3064.381992,-592.164754,9178.553681
2370.564561,1685.410096,-518.144159,8808.450710
2370.564890,1685.410096,-1258.350101,9992.780217
2370.565219,2221.676944,-1628.453072,9400.615463
2370.565548,2834.553343,-0.000000,9030.512492
2370.565878,2451.505594,-962.267725,9696.697840
2370.566207,2987.772442,-1258.350101,9622.677246
2370.566536,3753.867940,-148.041188,9030.512492
2370.566865,4979.620737,592.164754,7846.182985
2370.567194,4749.792088,592.164754,7994.224174
2370.567523,3524.039291,1776.494261,8512.368333
2370.567852,4060.306139,1184.329507,8512.368333
2370.568182,3677.258390,592.164754,7476.080014
2370.568511,1762.019645,666.185348,8956.491898
2370.568840,1685.410096,-222.061783,9474.636058
2370.569169,229.828649,-444.123565,9252.574275
2370.569498,-1608.800546,-1110.308913,10066.800811
2370.569827,-383.047749,-1850.514855,10066.800811
2370.570156,-1838.629195,-1258.350101,9474.636058
2370.570486,-1455.581446,-1628.453072,10584.944971
2370.570815,-229.828649,-1110.308913,9178.553681
2370.571144,0.000000,-222.061783,9400.615463
2370.571473,689.485948,-296.082377,8660.409521
2370.571802,1225.752797,666.185348,9696.697840
2370.572131,1838.629195,1406.391290,8512.368333
2370.572460,1532.190996,1480.411884,7402.059420
2370.572790,2604.724693,1332.370696,8734.430116
2370.573119,1149.143247,888.247130,8290.306550
2370.573448,1991.848295,222.061783,7994.224174
2370.573777,0.000000,-962.267725,9548.656652
2370.574106,0.000000,-296.082377,9178.553681
2370.574435,-1225.752797,-2294.638420,9400.615463
2370.574764,-919.314598,-1628.453072,10214.842000
2370.575094,-1225.752797,-2368.659014,9400.615463
2370.575423,-383.047749,-1258.350101,10436.903782
2370.575752,-306.438199,-1628.453072,8882.471304
2370.576081,1072.533697,-444.123565,9918.759623
2370.576410,1225.752797,-148.041188,8956.491898
2370.576739,2528.115143,740.205942,8216.285956
2370.577069,2145.067394,888.247130,8290.306550
2370.577398,2145.067394,1480.411884,7698.141797
2370.577727,2374.896044,1258.350101,8660.409521
2370.578056,766.095498,518.144159,8068.244768
2370.578385,306.438199,444.123565,9844.739029
2370.578714,-536.266849,-1480.411884,8734.430116
2370.579043,-842.705048,-740.205942,9030.512492
2370.579373,-1685.410096,-1776.494261,9992.780217
2370.579702,-1225.752797,-740.205942,9400.615463
2370.580031,-995.924147,-666.185348,9474.636058
2370.580360,-383.047749,-518.144159,9474.636058
2370.580689,-306.438199,-0.000000,9474.636058
2370.581018,0.000000,518.144159,8882.471304
2370.581347,76.609550,1110.308913,8882.471304
2370.581677,306.438199,222.061783,9474.636058
2370.582006,612.876398,1332.370696,8364.327145
2370.582335,919.314598,814.226536,9030.512492
2370.582664,229.828649,888.247130,9030.512492
2370.582993,766.095498,148.041188,9474.636058
2370.583322,0.000000,-444.123565,9400.615463
2370.583651,153.219100,-0.000000,9104.533087
2370.583981,0.000000,-814.226536,9770.718434
2370.584310,-229.828649,-592.164754,9178.553681
2370.584639,383.047749,-888.247130,10288.862594
2370.584968,0.000000,-592.164754,9474.636058
2370.585297,1072.533697,444.123565,9400.615463
2370.585626,1608.800546,-148.041188,9622.677246
2370.585955,2298.286494,1258.350101,8290.306550
2370.586285,2681.334243,814.226536,9252.574275
2370.586614,2681.334243,888.247130,8364.327145
2370.586943,2834.553343,1554.432478,9030.512492
2370.587272,2528.115143,296.082377,9104.533087
2370.587601,2298.286494,740.205942,8364.327145
2370.587930,1762.019645,-148.041188,9178.553681
2370.588259,1072.533697,-370.102971,8364.327145
2370.588589,766.095498,-814.226536,9474.636058
2370.588918,0.000000,-1258.350101,8882.471304
2370.589247,229.828649,-1258.350101,9252.574275
2370.589576,-229.828649,-1332.370696,9844.739029
2370.589905,-612.876398,-444.123565,9030.512492
2370.590234,-689.485948,-666.185348,9548.656652
2370.590563,-1225.752797,-740.205942,8660.409521
2370.590893,-766.095498,-444.123565,9400.615463
2370.591222,-612.876398,-814.226536,9326.594869
2370.591551,-842.705048,-740.205942,9178.553681
2370.591880,-995.924147,-1480.411884,9918.759623
2370.592209,-1149.143247,-1184.329507,8808.450710
2370.592538,-995.924147,-1406.391290,9844.739029
2370.592868,-1302.362347,-1480.411884,8734.430116
2370.593197,-612.876398,-1110.308913,9474.636058
2370.593526,-1072.533697,-1184.329507,9252.574275
2370.593855,-306.438199,-518.144159,8882.471304
2370.594184,-229.828649,-1258.350101,9548.656652
2370.594513,-306.438199,-370.102971,8734.430116
2370.594842,76.609550,-0.000000,8956.491898
2370.595172,-229.828649,-148.041188,8512.368333
2370.595501,0.000000,296.082377,8808.450710
2370.595830,0.000000,-0.000000,8734.430116
2370.596159,306.438199,-0.000000,8142.265362
2370.596488,229.828649,-148.041188,9252.574275
2370.596817,76.609550,-74.020594,8290.306550
2370.597146,459.657299,444.123565,9030.512492
2370.597476,76.609550,-0.000000,8512.368333
2370.597805,995.924147,888.247130,8512.368333
2370.598134,1302.362347,-0.000000,8808.450710
2370.598463,1455.581446,814.226536,7994.224174
2370.598792,1608.800546,518.144159,8512.368333
2370.599121,1685.410096,814.226536,7994.224174
2370.599450,1762.019645,1702.473667,8290.306550
2370.599780,1149.143247,888.247130,8660.409521
2370.600109,612.876398,1258.350101,8364.327145
2370.600438,459.657299,-0.000000,9548.656652
2370.600767,153.219100,-0.000000,9104.533087
2370.601096,0.000000,-666.185348,10214.842000
2370.601425,-919.314598,-962.267725,9696.697840
2370.601754,-536.266849,-370.102971,9918.759623
2370.602084,-383.047749,-1332.370696,10584.944971
2370.602413,0.000000,-666.185348,9992.780217
2370.602742,536.266849,-444.123565,11029.068536
2370.603071,766.095498,-740.205942,9178.553681
2370.603400,2374.896044,-148.041188,10584.944971
2370.603729,1991.848295,444.123565,9622.677246
2370.604058,2528.115143,1258.350101,8734.430116
2370.604388,3140.991542,740.205942,9474.636058
2370.604717,2834.553343,1332.370696,8142.265362
2370.605046,2911.162892,1184.329507,9474.636058
2370.605375,1915.238745,148.041188,8216.285956
2370.605704,1685.410096,740.205942,9474.636058
2370.606033,842.705048,-444.123565,9252.574275
2370.606362,153.219100,-0.000000,8734.430116
2370.606692,-383.047749,-888.247130,9844.739029
2370.607021,-459.657299,-444.123565,8808.450710
2370.607350,-306.438199,-444.123565,9474.636058
2370.607679,-1149.143247,-1036.288319,9252.574275
2370.608008,229.828649,-148.041188,8882.471304
2370.608337,-229.828649,-888.247130,9252.574275
2370.608666,0.000000,-0.000000,8068.244768
2370.608995,0.000000,-0.000000,9178.553681
2370.609325,0.000000,-296.082377,7772.162391
2370.609654,-536.266849,-148.041188,8734.430116
2370.609983,-383.047749,-962.267725,8956.491898
2370.610312,-383.047749,-518.144159,8290.306550
2370.610641,-536.266849,-1628.453072,9104.533087
2370.610970,-689.485948,-1332.370696,8142.265362
2370.611299,-612.876398,-1554.432478,9474.636058
2370.611628,-1302.362347,-1702.473667,8512.368333
2370.611957,-995.924147,-1406.391290,9030.512492
2370.612287,-842.705048,-1332.370696,9252.574275
2370.612616,-383.047749,-1184.329507,8512.368333
2370.612945,-153.219100,-1110.308913,9548.656652
2370.613274,-306.438199,-888.247130,8882.471304
2370.613603,0.000000,-518.144159,9474.636058
2370.613932,0.000000,-666.185348,8512.368333
2370.614261,229.828649,-0.000000,8956.491898
2370.614590,689.485948,-222.061783,9104.533087
2370.614919,383.047749,-148.041188,8216.285956
2370.615249,229.828649,-148.041188,9178.553681
2370.615578,383.047749,-0.000000,8216.285956
2370.615907,1072.533697,518.144159,8808.450710
2370.616236,76.609550,148.041188,8512.368333
2370.616565,766.095498,962.267725,8438.347739
2370.616894,689.485948,592.164754,9178.553681
2370.617223,229.828649,962.267725,8512.368333
2370.617552,536.266849,740.205942,9770.718434
2370.617881,0.000000,592.164754,8660.409521
2370.618211,306.438199,1036.288319,9178.553681
2370.618540,0.000000,518.144159,9400.615463
2370.618869,0.000000,962.267725,9400.615463
2370.619198,153.219100,-74.020594,9992.780217
2370.619527,536.266849,-0.000000,9178.553681
2370.619856,689.485948,-74.020594,10066.800811
2370.620185,612.876398,-74.020594,9918.759623
2370.620514,842.705048,370.102971,9696.697840
2370.620843,1149.143247,-148.041188,9918.759623
2370.621173,1378.971896,592.164754,9474.636058
2370.621502,2451.505594,148.041188,10066.800811
2370.621831,2221.676944,370.102971,8660.409521
2370.622160,2834.553343,666.185348,9474.636058
2370.622489,2068.457845,-0.000000,9474.636058
2370.622818,2221.676944,666.185348,9104.533087
2370.623147,1838.629195,-0.000000,9622.677246
2370.623476,1532.190996,518.144159,9030.512492
2370.623805,1762.019645,-0.000000,9918.759623
2370.624135,919.314598,-740.205942,9030.512492
2370.624464,612.876398,-222.061783,9252.574275
2370.624793,766.095498,-518.144159,8956.491898
2370.625122,919.314598,-0.000000,8734.430116
2370.625451,612.876398,-296.082377,9474.636058
2370.625780,229.828649,-296.082377,8364.327145
2370.626109,0.000000,-148.041188,8808.450710
2370.626438,0.000000,-592.164754,8068.244768
2370.626767,0.000000,-222.061783,8512.368333
2370.627097,-536.266849,-740.205942,8808.450710
2370.627426,-766.095498,-444.123565,8290.306550
2370.627755,-842.705048,-1036.288319,9252.574275
2370.628084,-1532.190996,-1406.391290,7994.224174
2370.628413,-995.924147,-1480.411884,9326.594869
2370.628742,-1225.752797,-1776.494261,8808.450710
2370.629071,-1532.190996,-1184.329507,8660.409521
2370.629400,-842.705048,-1776.494261,9400.615463
2370.629729,-766.095498,-1184.329507,8216.285956
2370.630059,-383.047749,-1184.329507,9178.553681
2370.630388,-689.485948,-1110.308913,8438.347739
2370.630717,0.000000,-888.247130,8734.430116
2370.631046,-383.047749,-370.102971,8956.491898
2370.631375,76.609550,-444.123565,8364.327145
2370.631704,-229.828649,-666.185348,9252.574275
2370.632033,-383.047749,-444.123565,8142.265362
2370.632362,0.000000,-370.102971,9104.533087
2370.632691,0.000000,-592.164754,8364.327145
2370.633021,0.000000,-0.000000,8734.430116
2370.633350,0.000000,-666.185348,9252.574275
2370.633679,459.657299,-0.000000,8660.409521
2370.634008,306.438199,370.102971,9400.615463
2370.634337,383.047749,222.061783,8734.430116
2370.634666,383.047749,592.164754,9104.533087
2370.634995,459.657299,518.144159,8956.491898
2370.635324,995.924147,1258.350101,8586.388927
2370.635653,459.657299,740.205942,9474.636058
2370.635983,919.314598,1332.370696,8586.388927
2370.636312,766.095498,666.185348,9622.677246
2370.636641,0.000000,444.123565,9178.553681
2370.636970,0.000000,592.164754,9622.677246
2370.637299,-536.266849,-222.061783,9918.759623
2370.637628,-612.876398,370.102971,9992.780217
2370.637957,0.000000,-592.164754,10288.862594
2370.638286,0.000000,-0.000000,9326.594869
2370.638615,459.657299,-0.000000,10732.986159
2370.638945,229.828649,-148.041188,10140.821405
2370.639274,612.876398,296.082377,10066.800811
2370.639603,689.485948,-296.082377,10362.883188
2370.639932,1302.362347,296.082377,10288.862594
2370.640261,1838.629195,370.102971,10362.883188
2370.640590,2757.943793,592.164754,8660.409521
2370.640919,3217.601092,1332.370696,9178.553681
2370.641248,3217.601092,1258.350101,8290.306550
2370.641577,3294.210641,1480.411884,8142.265362
2370.641906,2681.334243,592.164754,8512.368333
2370.642236,2374.896044,-0.000000,7994.224174
2370.642565,1838.629195,-74.020594,8956.491898
2370.642894,689.485948,-740.205942,8216.285956
2370.643223,383.047749,-444.123565,9474.636058
2370.643552,0.000000,-1258.350101,9252.574275
2370.643881,-153.219100,-444.123565,8882.471304
2370.644210,0.000000,-592.164754,9474.636058
2370.644539,383.047749,-518.144159,8512.368333
2370.644868,153.219100,-592.164754,8734.430116
2370.645198,-612.876398,-222.061783,9030.512492
2370.645527,0.000000,-296.082377,8734.430116
2370.645856,-536.266849,-888.247130,8068.244768
2370.646185,-383.047749,-518.144159,8068.244768
2370.646514,-229.828649,-1258.350101,9400.615463
2370.646843,-536.266849,-1702.473667,8438.347739
2370.647172,0.000000,-1480.411884,9548.656652
2370.647501,0.000000,-2146.597232,8882.471304
2370.647830,-536.266849,-1406.391290,8660.409521
2370.648160,-612.876398,-1776.494261,9104.533087
2370.648489,-766.095498,-1036.288319,8586.388927
2370.648818,-383.047749,-1258.350101,9622.677246
2370.649147,-536.266849,-962.267725,8660.409521
2370.649476,-612.876398,-666.185348,9474.636058
2370.649805,-612.876398,-1110.308913,9252.574275
2370.650134,-229.828649,-0.000000,8808.450710
2370.650463,-229.828649,-222.061783,9252.574275
2370.650792,-383.047749,-0.000000,8216.285956
2370.651122,0.000000,-0.000000,9104.533087
2370.651451,0.000000,-518.144159,8438.347739
2370.651780,229.828649,148.041188,8512.368333
2370.652109,383.047749,-0.000000,8808.450710
2370.652438,306.438199,296.082377,8142.265362
2370.652767,306.438199,222.061783,9104.533087
2370.653096,0.000000,518.144159,8586.388927
2370.653425,76.609550,888.247130,8956.491898
2370.653754,0.000000,444.123565,9252.574275
2370.654084,459.657299,814.226536,8734.430116
2370.654413,0.000000,444.123565,9400.615463
2370.654742,306.438199,592.164754,8660.409521
2370.655071,229.828649,666.185348,9474.636058
2370.655400,0.000000,740.205942,9178.553681
2370.655729,383.047749,666.185348,9622.677246
2370.656058,536.266849,-444.123565,9770.718434
2370.656387,459.657299,222.061783,9474.636058
2370.656716,919.314598,-74.020594,10362.883188
2370.657046,689.485948,-370.102971,9770.718434
2370.657375,842.705048,-0.000000,10436.903782
2370.657704,1149.143247,-296.082377,9918.759623
2370.658033,1532.190996,370.102971,9992.780217
2370.658362,1838.629195,-0.000000,10510.924376
2370.658691,2298.286494,740.205942,9178.553681
2370.659020,2528.115143,592.164754,10362.883188
2370.659349,2451.505594,740.205942,9030.512492
2370.659678,2834.553343,1332.370696,9400.615463
2370.660008,2374.896044,888.247130,8808.450710
2370.660337,2298.286494,888.247130,8660.409521
2370.660666,1991.848295,-0.000000,9252.574275
2370.660995,1608.800546,-444.123565,8660.409521
2370.661324,995.924147,-518.144159,9326.594869
2370.661653,536.266849,-740.205942,8512.368333
2370.661982,76.609550,-370.102971,8956.491898
2370.662311,0.000000,-814.226536,8956.491898
2370.662640,-153.219100,-296.082377,8512.368333
2370.662970,0.000000,-666.185348,8734.430116
2370.663299,-153.219100,-444.123565,7920.203579
2370.663628,0.000000,-148.041188,8882.471304
2370.663957,-612.876398,-592.164754,8586.388927
2370.664286,-689.485948,-296.082377,8290.306550
2370.664615,-766.095498,-1036.288319,8586.388927
2370.664944,-536.266849,-1036.288319,8216.285956
2370.665273,-229.828649,-1776.494261,8734.430116
2370.665602,-1225.752797,-1924.535449,8290.306550
2370.665932,-1072.533697,-1776.494261,9178.553681
2370.666261,-689.485948,-2294.638420,9104.533087
2370.666590,-689.485948,-1554.432478,8586.388927
2370.666919,-689.485948,-1998.556043,9400.615463
2370.667248,-766.095498,-1332.370696,8512.368333
2370.667577,0.000000,-1110.308913,9474.636058
2370.667906,-229.828649,-1184.329507,8808.450710
2370.668235,0.000000,-518.144159,9178.553681
2370.668564,-306.438199,-518.144159,9104.533087
2370.668894,0.000000,-0.000000,8512.368333
2370.669223,153.219100,-222.061783,8882.471304
2370.669552,0.000000,-0.000000,8290.306550
2370.669881,153.219100,-0.000000,9178.553681
2370.670210,229.828649,-148.041188,8586.388927
2370.670539,459.657299,444.123565,8882.471304
2370.670868,536.266849,-74.020594,8808.450710
2370.671197,306.438199,592.164754,8290.306550
2370.671526,153.219100,370.102971,9474.636058
2370.671856,383.047749,444.123565,8512.368333
2370.672185,383.047749,962.267725,9474.636058
2370.672514,0.000000,888.247130,9178.553681
2370.672843,919.314598,1184.329507,9030.512492
2370.673172,153.219100,814.226536,9474.636058
2370.673501,-153.219100,740.205942,8808.450710
2370.673830,-229.828649,592.164754,9918.759623
2370.674159,-689.485948,-0.000000,9474.636058
2370.674488,-536.266849,-74.020594,10066.800811
2370.674818,-153.219100,-740.205942,10214.842000
2370.675147,-229.828649,-0.000000,9992.780217
2370.675476,229.828649,-0.000000,10510.924376
2370.675805,306.438199,-148.041188,9696.697840
2370.676134,995.924147,-222.061783,10436.903782
2370.676463,1838.629195,-222.061783,9548.656652
2370.676792,2681.334243,740.205942,9326.594869
2370.677121,2987.772442,222.061783,9326.594869
2370.677450,3140.991542,1480.411884,7920.203579
2370.677780,3524.039291,1554.432478,9400.615463
2370.678109,2987.772442,1184.329507,8068.244768
2370.678438,2604.724693,1184.329507,8882.471304
2370.678767,1991.848295,-0.000000,8808.450710
2370.679096,1378.971896,-0.000000,8660.409521
2370.679425,0.000000,-592.164754,9770.718434
2370.679754,-229.828649,-1332.370696,9030.512492
2370.680083,153.219100,-1036.288319,9992.780217
2370.680412,-766.095498,-1184.329507,9326.594869
2370.680742,-306.438199,-814.226536,9400.615463
2370.681071,-612.876398,-1036.288319,9178.553681
2370.681400,0.000000,-814.226536,8438.347739
2370.681729,153.219100,-888.247130,9104.533087
2370.682058,153.219100,-444.123565,7994.224174
2370.682387,766.095498,-370.102971,8734.430116
2370.682716,0.000000,-518.144159,8216.285956
2370.683045,76.609550,-0.000000,8290.306550
2370.683374,0.000000,-1184.329507,8586.388927
2370.683704,-229.828649,-1258.350101,8142.265362
2370.684033,-153.219100,-1776.494261,9400.615463
2370.684362,-612.876398,-1702.473667,8438.347739
2370.684691,-536.266849,-1036.288319,8808.450710
2370.685020,-689.485948,-1480.411884,8586.388927
2370.685349,-459.657299,-814.226536,8512.368333
2370.685678,-306.438199,-1332.370696,9104.533087
2370.686007,-766.095498,-740.205942,8438.347739
2370.686336,-229.828649,-666.185348,9104.533087
2370.686666,-153.219100,-592.164754,8512.368333
2370.686995,0.000000,-296.082377,9030.512492
2370.687324,-306.438199,-592.164754,8956.491898
2370.687653,0.000000,148.041188,8660.409521
2370.687982,0.000000,-0.000000,9030.512492
2370.688311,-459.657299,444.123565,8512.368333
2370.688640,0.000000,296.082377,9030.512492
2370.688969,76.609550,-0.000000,8290.306550
2370.689298,0.000000,518.144159,9030.512492
2370.689628,0.000000,-0.000000,9104.533087
2370.689957,76.609550,814.226536,8586.388927
2370.690286,306.438199,666.185348,9548.656652
2370.690615,153.219100,814.226536,8586.388927
2370.690944,153.219100,814.226536,9622.677246
2370.691273,383.047749,222.061783,9400.615463
2370.691602,459.657299,888.247130,9252.574275
2370.691931,153.219100,370.102971,10362.883188
2370.692260,0.000000,222.061783,9474.636058
2370.692589,153.219100,-0.000000,10362.883188
2370.692919,76.609550,-222.061783,10066.800811
2370.693248,1149.143247,-0.000000,10214.842000
2370.693577,612.876398,-666.185348,10066.800811
2370.693906,1149.143247,666.185348,10140.821405
2370.694235,1302.362347,-0.000000,10288.862594
2370.694564,1532.190996,-0.000000,9400.615463
2370.694893,2068.457845,592.164754,9622.677246
2370.695222,2145.067394,370.102971,9104.533087
2370.695551,2298.286494,666.185348,9400.615463
2370.695881,2911.162892,296.082377,9400.615463
2370.696210,2757.943793,666.185348,8068.244768
2370.696539,2604.724693,740.205942,9400.615463
2370.696868,2298.286494,296.082377,8438.347739
2370.697197,2221.676944,518.144159,8882.471304
2370.697526,1532.190996,-74.020594,8734.430116
2370.697855,1072.533697,-74.020594,8512.368333
2370.698184,919.314598,-222.061783,9178.553681
2370.698513,536.266849,-518.144159,8734.430116
2370.698843,0.000000,-666.185348,9178.553681
2370.699172,-306.438199,-888.247130,8142.265362
2370.699501,0.000000,-370.102971,8586.388927
2370.699830,-612.876398,-1036.288319,8586.388927
2370.700159,-459.657299,-814.226536,8290.306550
2370.700488,0.000000,-592.164754,9548.656652
2370.700817,-612.876398,-1332.370696,8512.368333
2370.701146,-689.485948,-1184.329507,9326.594869
2370.701475,-689.485948,-1628.453072,8512.368333
2370.701805,-612.876398,-1184.329507,9030.512492
2370.702134,-842.705048,-1924.535449,9326.594869
2370.702463,-612.876398,-1480.411884,9030.512492
2370.702792,-459.657299,-1554.432478,9474.636058
2370.703121,0.000000,-1554.432478,8586.388927
2370.703450,-459.657299,-962.267725,9104.533087
2370.703779,-612.876398,-1184.329507,8882.471304
2370.704108,-229.828649,-444.123565,8438.347739
2370.704437,-459.657299,-666.185348,9030.512492
2370.704767,-536.266849,-444.123565,8734.430116
2370.705096,-919.314598,-296.082377,9030.512492
2370.705425,-153.219100,-370.102971,8438.347739
2370.705754,0.000000,-0.000000,8956.491898
2370.706083,0.000000,-222.061783,8882.471304
2370.706412,0.000000,592.164754,8438.347739
2370.706741,0.000000,222.061783,9178.553681
2370.707070,0.000000,370.102971,8734.430116
2370.707399,-612.876398,666.185348,9474.636058
2370.707729,306.438199,518.144159,8438.347739
2370.708058,229.828649,1110.308913,9030.512492
2370.708387,536.266849,666.185348,9030.512492
2370.708716,383.047749,1480.411884,8290.306550
2370.709045,459.657299,1258.350101,9252.574275
2370.709374,229.828649,1036.288319,8586.388927
2370.709703,153.219100,1258.350101,9178.553681
2370.710032,0.000000,-0.000000,9548.656652
2370.710361,-383.047749,518.144159,9474.636058
2370.710689,-459.657299,-148.041188,10214.842000
2370.711018,-459.657299,-370.102971,9622.677246
2370.711347,0.000000,-444.123565,10807.006753
2370.711676,306.438199,-888.247130,10288.862594
2370.712005,612.876398,296.082377,10510.924376
2370.712333,1072.533697,-888.247130,10584.944971
2370.712662,1685.410096,370.102971,9770.718434
2370.712991,2298.286494,296.082377,10066.800811
2370.713320,2298.286494,740.205942,8882.471304
2370.713649,3217.601092,962.267725,9622.677246
2370.713977,2451.505594,1184.329507,8734.430116
2370.714306,2757.943793,962.267725,8734.430116
2370.714635,2757.943793,222.061783,9178.553681
2370.714964,1991.848295,370.102971,8660.409521
2370.715293,1532.190996,-0.000000,9474.636058
2370.715621,689.485948,-296.082377,8438.347739
2370.715950,536.266849,-74.020594,9474.636058
2370.716279,612.876398,-888.247130,9030.512492
2370.716608,383.047749,-666.185348,8734.430116
2370.716937,306.438199,-888.247130,9326.594869
2370.717266,0.000000,-592.164754,8438.347739
2370.717594,229.828649,-148.041188,9030.512492
2370.717923,76.609550,-370.102971,7994.224174
2370.718252,383.047749,370.102971,8438.347739
2370.718581,-76.609550,-518.144159,8586.388927
2370.718910,153.219100,-1110.308913,7772.162391
2370.719238,-383.047749,-1258.350101,8882.471304
2370.719567,-536.266849,-1332.370696,7920.203579
2370.719896,-459.657299,-1554.432478,8882.471304
2370.720225,-612.876398,-1850.514855,8512.368333
2370.720554,-383.047749,-1332.370696,8512.368333
2370.720882,0.000000,-2220.617826,8734.430116
2370.721211,-383.047749,-1554.432478,7846.182985
2370.721540,-459.657299,-1184.329507,9474.636058
2370.721869,-689.485948,-1628.453072,8068.244768
2370.722198,-306.438199,-962.267725,9030.512492
2370.722526,-536.266849,-1406.391290,9104.533087
2370.722855,-459.657299,-444.123565,8882.471304
2370.723184,-459.657299,-962.267725,9474.636058
2370.723513,-153.219100,-296.082377,8808.450710
2370.723842,0.000000,-370.102971,9400.615463
2370.724170,-612.876398,-518.144159,8438.347739
2370.724499,0.000000,444.123565,8882.471304
2370.724828,0.000000,-0.000000,9178.553681
2370.725157,0.000000,518.144159,8512.368333
2370.725486,76.609550,222.061783,9474.636058
2370.725815,76.609550,518.144159,8734.430116
2370.726143,76.609550,740.205942,9030.512492
2370.726472,0.000000,740.205942,9104.533087
2370.726801,383.047749,1184.329507,8512.368333
2370.727130,383.047749,666.185348,9252.574275
2370.727459,153.219100,962.267725,8808.450710
2370.727787,536.266849,962.267725,9622.677246
2370.728116,0.000000,370.102971,9252.574275
2370.728445,0.000000,740.205942,9992.780217
2370.728774,-842.705048,-74.020594,10288.862594
2370.729103,-306.438199,518.144159,9770.718434
2370.729431,383.047749,-296.082377,10584.944971
2370.729760,229.828649,222.061783,9696.697840
2370.730089,842.705048,-0.000000,10510.924376
2370.730418,612.876398,-0.000000,9622.677246
2370.730747,1455.581446,518.144159,9992.780217
2370.731075,1762.019645,148.041188,9770.718434
2370.731404,2145.067394,444.123565,9104.533087
2370.731733,2681.334243,296.082377,10066.800811
2370.732062,2757.943793,592.164754,8586.388927
2370.732391,2911.162892,740.205942,9104.533087
2370.732719,2451.505594,296.082377,8438.347739
2370.733048,2145.067394,518.144159,8660.409521
2370.733377,1762.019645,-0.000000,9104.533087
2370.733706,1149.143247,222.061783,8882.471304
2370.734035,1685.410096,-518.144159,9400.615463
2370.734363,689.485948,-592.164754,8438.347739
2370.734692,229.828649,-74.020594,9474.636058
2370.735021,-229.828649,-962.267725,9104.533087
2370.735350,0.000000,-370.102971,8660.409521
2370.735679,-229.828649,-888.247130,9400.615463
2370.736008,-229.828649,-962.267725,8290.306550
2370.736336,0.000000,-962.267725,9178.553681
2370.736665,-766.095498,-1036.288319,8734.430116
2370.736994,-383.047749,-814.226536,8660.409521
2370.737323,-842.705048,-1406.391290,8808.450710
2370.737652,-766.095498,-1702.473667,8956.491898
2370.737980,-536.266849,-1480.411884,9326.594869
2370.738309,-536.266849,-1702.473667,8660.409521
2370.738638,-842.705048,-1406.391290,9252.574275
2370.738967,-689.485948,-1480.411884,8512.368333
2370.739296,-306.438199,-592.164754,8438.347739
2370.739624,-536.266849,-962.267725,9030.512492
2370.739953,-383.047749,-740.205942,8290.306550
2370.740282,0.000000,-666.185348,9104.533087
2370.740611,-612.876398,-888.247130,8364.327145
2370.740940,-536.266849,-592.164754,8882.471304
2370.741268,-612.876398,-666.185348,8808.450710
2370.741597,-229.828649,-0.000000,8438.347739
2370.741926,0.000000,-666.185348,9178.553681
2370.742255,0.000000,-74.020594,8438.347739
2370.742584,383.047749,-0.000000,8956.491898
2370.742912,76.609550,296.082377,8660.409521
2370.743241,229.828649,740.205942,9326.594869
2370.743570,459.657299,444.123565,8882.471304
2370.743899,229.828649,1036.288319,8586.388927
2370.744228,459.657299,814.226536,9400.615463
2370.744557,229.828649,962.267725,8512.368333
2370.744885,689.485948,888.247130,9474.636058
2370.745214,383.047749,666.185348,8956.491898
2370.745543,383.047749,740.205942,9252.574275
2370.745872,-306.438199,296.082377,9770.718434
2370.746201,-306.438199,370.102971,9252.574275
2370.746529,-383.047749,-0.000000,9992.780217
2370.746858,-689.485948,-296.082377,9548.656652
2370.747187,0.000000,-148.041188,10214.842000
2370.747516,-842.705048,-370.102971,10362.883188
2370.747845,383.047749,-148.041188,10140.821405
2370.748173,842.705048,-0.000000,10436.903782
2370.748502,1149.143247,296.082377,9326.594869
2370.748831,1838.629195,518.144159,9918.759623
2370.749160,2068.457845,518.144159,9178.553681
2370.749489,2451.505594,1184.329507,9474.636058
2370.749817,2068.457845,-0.000000,9474.636058
2370.750146,2451.505594,1036.288319,8734.430116
2370.750475,1991.848295,666.185348,9622.677246
2370.750804,1608.800546,222.061783,8512.368333
2370.751133,1532.190996,222.061783,9252.574275
2370.751461,919.314598,-370.102971,9178.553681
2370.751790,1072.533697,-0.000000,8734.430116
2370.752119,842.705048,-666.185348,8512.368333
2370.752448,1149.143247,-296.082377,8660.409521
2370.752777,766.095498,-222.061783,8956.491898
2370.753106,306.438199,-370.102971,8290.306550
2370.753434,612.876398,-0.000000,8364.327145
2370.753763,612.876398,-592.164754,8216.285956
2370.754092,0.000000,-444.123565,7920.203579
2370.754421,459.657299,-814.226536,9178.553681
2370.754750,0.000000,-888.247130,8068.244768
2370.755078,0.000000,-1110.308913,8734.430116
2370.755407,-995.924147,-1406.391290,8586.388927
2370.755736,-995.924147,-1554.432478,8956.491898
2370.756065,-1149.143247,-1998.556043,9400.615463
2370.756394,-842.705048,-1924.535449,8956.491898
2370.756722,-766.095498,-1998.556043,9326.594869
2370.757051,-919.314598,-1702.473667,8734.430116
2370.757380,-766.095498,-1406.391290,9474.636058
2370.757709,-766.095498,-1480.411884,8956.491898
2370.758038,-536.266849,-740.205942,8956.491898
2370.758366,-689.485948,-1480.411884,9252.574275
2370.758695,-766.095498,-814.226536,8660.409521
2370.759024,919.314598,-740.205942,9400.615463
2370.759353,0.000000,-592.164754,8734.430116
2370.759682,0.000000,-370.102971,8586.388927
2370.760010,0.000000,-444.123565,8808.450710
2370.760339,306.438199,296.082377,8142.265362
2370.760668,76.609550,-0.000000,8956.491898
2370.760997,536.266849,370.102971,8734.430116
2370.761326,459.657299,370.102971,9474.636058
2370.761655,459.657299,296.082377,8290.306550
2370.761983,0.000000,962.267725,8808.450710
2370.762312,0.000000,518.144159,9326.594869
2370.762641,0.000000,814.226536,8586.388927
2370.762970,0.000000,740.205942,9326.594869
2370.763299,153.219100,592.164754,8808.450710
2370.763627,229.828649,962.267725,9474.636058
2370.763956,306.438199,518.144159,9474.636058
2370.764285,459.657299,444.123565,9474.636058
2370.764614,383.047749,444.123565,9844.739029
2370.764943,76.609550,370.102971,9104.533087
2370.765271,766.095498,222.061783,9992.780217
2370.765600,459.657299,-148.041188,9622.677246
2370.765929,459.657299,222.061783,10140.821405
2370.766258,1302.362347,-370.102971,9548.656652
2370.766587,1455.581446,962.267725,9770.718434
2370.766915,1838.629195,-0.000000,9992.780217
2370.767244,1762.019645,296.082377,9178.553681
2370.767573,1915.238745,370.102971,9844.739029
2370.767902,2298.286494,-0.000000,9178.553681
2370.768231,2451.505594,592.164754,9474.636058
2370.768559,2145.067394,444.123565,9474.636058
2370.768888,1685.410096,592.164754,9030.512492
2370.769217,1915.238745,222.061783,9474.636058
2370.769546,1608.800546,-148.041188,8734.430116
2370.769875,1685.410096,-0.000000,9178.553681
2370.770204,1532.190996,-518.144159,9178.553681
2370.770532,766.095498,-0.000000,8808.450710
2370.770861,612.876398,-592.164754,9030.512492
2370.771190,536.266849,-0.000000,8586.388927
2370.771519,306.438199,-74.020594,8956.491898
2370.771848,-229.828649,-296.082377,8142.265362
2370.772176,0.000000,-0.000000,8512.368333
2370.772505,-766.095498,-962.267725,8882.471304
2370.772834,-766.095498,-444.123565,8290.306550
2370.773163,-1149.143247,-1480.411884,9400.615463
2370.773492,-766.095498,-1554.432478,8808.450710
2370.773820,-842.705048,-1776.494261,8290.306550
2370.774149,-536.266849,-1998.556043,8290.306550
2370.774478,-1072.533697,-1110.308913,8512.368333
2370.774807,-1225.752797,-1850.514855,9178.553681
2370.775136,-919.314598,-1110.308913,8364.327145
2370.775464,-459.657299,-1110.308913,9178.553681
2370.775793,-766.095498,-1406.391290,8512.368333
2370.776122,-536.266849,-1110.308913,8438.347739
2370.776451,-612.876398,-962.267725,8882.471304
2370.776780,-229.828649,-592.164754,8808.450710
2370.777108,-612.876398,-888.247130,9178.553681
2370.777437,-459.657299,-592.164754,8438.347739
2370.777766,0.000000,-666.185348,8808.450710
2370.778095,0.000000,-370.102971,8142.265362
2370.778424,229.828649,-222.061783,9104.533087
2370.778753,153.219100,-518.144159,8808.450710
2370.779081,306.438199,296.082377,7994.224174
2370.779410,612.876398,296.082377,9104.533087
2370.779739,612.876398,666.185348,8290.306550
2370.780068,766.095498,740.205942,9104.533087
2370.780397,842.705048,518.144159,8882.471304
2370.780725,1072.533697,740.205942,8734.430116
2370.781054,383.047749,518.144159,9400.615463
2370.781383,229.828649,1184.329507,8882.471304
2370.781712,153.219100,666.185348,9696.697840
2370.782041,-612.876398,444.123565,9252.574275
2370.782369,-153.219100,592.164754,9622.677246
2370.782698,-689.485948,370.102971,9844.739029
2370.783027,-153.219100,-0.000000,9548.656652
2370.783356,0.000000,-518.144159,10436.903782
2370.783685,0.000000,-0.000000,9400.615463
2370.784013,612.876398,-0.000000,10288.862594
2370.784342,842.705048,-0.000000,9474.636058
2370.784671,1532.190996,666.185348,9548.656652
2370.785000,1838.629195,-0.000000,9474.636058
2370.785329,2604.724693,592.164754,8290.306550
2370.785657,2681.334243,518.144159,9622.677246
2370.785986,2451.505594,592.164754,8512.368333
2370.786315,2604.724693,740.205942,9548.656652
2370.786644,1991.848295,222.061783,8586.388927
2370.786973,2145.067394,592.164754,8956.491898
2370.787302,2145.067394,-666.185348,9400.615463
2370.787630,1762.019645,-0.000000,8142.265362
2370.787959,995.924147,-148.041188,10066.800811
2370.788288,383.047749,-666.185348,8734.430116
2370.788617,842.705048,-148.041188,9252.574275
2370.788946,536.266849,-592.164754,9030.512492
2370.789274,536.266849,-74.020594,8734.430116
2370.789603,689.485948,-592.164754,8808.450710
2370.789932,766.095498,-0.000000,8512.368333
2370.790261,995.924147,-444.123565,8882.471304
2370.790590,0.000000,-518.144159,8290.306550
2370.790918,0.000000,-0.000000,8586.388927
2370.791247,-612.876398,-1036.288319,8734.430116
2370.791576,-383.047749,-740.205942,8660.409521
2370.791905,-1685.410096,-1554.432478,9326.594869
2370.792234,-1225.752797,-1702.473667,8586.388927
2370.792562,-995.924147,-1998.556043,9474.636058
2370.792891,-1225.752797,-2146.597232,8882.471304
2370.793220,-919.314598,-1480.411884,8734.430116
2370.793549,-995.924147,-1554.432478,9104.533087
2370.793878,-1149.143247,-1110.308913,8438.347739
2370.794206,-306.438199,-1406.391290,9326.594869
2370.794535,-306.438199,-1036.288319,8808.450710
2370.794864,153.219100,-814.226536,9474.636058
2370.795193,-766.095498,-740.205942,8734.430116
2370.795522,-612.876398,-74.020594,8660.409521
2370.795850,-459.657299,-444.123565,9104.533087
2370.796179,-459.657299,-0.000000,8142.265362
2370.796508,306.438199,-518.144159,8956.491898
2370.796837,-153.219100,296.082377,8734.430116
2370.797166,229.828649,592.164754,9178.553681
2370.797495,0.000000,-0.000000,8734.430116
2370.797823,229.828649,592.164754,8068.244768
2370.798152,229.828649,370.102971,9252.574275
2370.798481,153.219100,814.226536,8512.368333
2370.798810,306.438199,814.226536,9326.594869
2370.799139,76.609550,740.205942,9178.553681
2370.799467,919.314598,740.205942,9178.553681
2370.799796,459.657299,740.205942,9622.677246
2370.800125,383.047749,740.205942,8956.491898
2370.800454,76.609550,592.164754,10140.821405
2370.800783,229.828649,370.102971,9326.594869
2370.801111,383.047749,370.102971,10066.800811
2370.801440,612.876398,-444.123565,9696.697840
2370.801769,612.876398,-0.000000,9474.636058
2370.802098,612.876398,-0.000000,10288.862594
2370.802427,842.705048,222.061783,9474.636058
2370.802755,1149.143247,-0.000000,10362.883188
2370.803084,1225.752797,-0.000000,9474.636058
2370.803413,1838.629195,296.082377,9844.739029
2370.803742,1608.800546,-296.082377,9918.759623
2370.804071,2451.505594,148.041188,9326.594869
2370.804399,2451.505594,296.082377,9992.780217
2370.804728,2068.457845,592.164754,8882.471304
2370.805057,2528.115143,592.164754,9548.656652
2370.805386,2298.286494,296.082377,8734.430116
2370.805715,2451.505594,666.185348,8734.430116
2370.806044,1532.190996,-370.102971,9400.615463
2370.806372,1532.190996,296.082377,8068.244768
2370.806701,1608.800546,-0.000000,9178.553681
2370.807030,766.095498,-0.000000,7994.224174
2370.807359,919.314598,-0.000000,8660.409521
2370.807688,229.828649,-370.102971,8364.327145
2370.808016,153.219100,-74.020594,8290.306550
2370.808345,76.609550,-666.185348,8586.388927
2370.808674,-306.438199,-592.164754,7994.224174
2370.809003,-766.095498,-740.205942,9104.533087
2370.809332,-1072.533697,-1258.350101,8142.265362
2370.809660,-842.705048,-814.226536,8882.471304
2370.809989,-1149.143247,-1776.494261,8882.471304
2370.810318,-919.314598,-1628.453072,8586.388927
2370.810647,-612.876398,-1850.514855,9326.594869
2370.810976,-766.095498,-1776.494261,8512.368333
2370.811304,-689.485948,-1480.411884,9326.594869
2370.811633,-995.924147,-1628.453072,8882.471304
2370.811962,-612.876398,-1184.329507,8660.409521
2370.812291,-995.924147,-1184.329507,9104.533087
2370.812620,-536.266849,-1110.308913,8512.368333
2370.812949,-229.828649,-962.267725,9178.553681
2370.813278,0.000000,-518.144159,9104.533087
2370.813607,0.000000,-370.102971,9104.533087
2370.813936,-306.438199,-666.185348,8956.491898
2370.814265,0.000000,-74.020594,8512.368333
2370.814594,0.000000,-222.061783,9104.533087
2370.814924,0.000000,-0.000000,8512.368333
2370.815253,229.828649,-148.041188,9326.594869
2370.815582,0.000000,-0.000000,8660.409521
2370.815911,383.047749,518.144159,9030.512492
2370.816240,0.000000,222.061783,9178.553681
2370.816569,383.047749,592.164754,8512.368333
2370.816898,536.266849,740.205942,9178.553681
2370.817227,229.828649,1184.329507,8512.368333
2370.817556,612.876398,1480.411884,9104.533087
2370.817885,229.828649,1110.308913,8586.388927
2370.818214,383.047749,1480.411884,9326.594869
2370.818543,76.609550,592.164754,9400.615463
2370.818872,-153.219100,518.144159,8882.471304
2370.819201,-153.219100,-148.041188,9992.780217
2370.819530,-459.657299,-222.061783,9474.636058
2370.819859,0.000000,-0.000000,10066.800811
2370.820188,-383.047749,-666.185348,10066.800811
2370.820517,229.828649,-222.061783,10288.862594
2370.820846,229.828649,-222.061783,10362.883188
2370.821175,1225.752797,-74.020594,9622.677246
2370.821504,1762.019645,296.082377,10362.883188
2370.821833,1991.848295,370.102971,9104.533087
2370.822162,2757.943793,962.267725,9178.553681
2370.822491,2834.553343,370.102971,9104.533087
2370.822820,3140.991542,888.247130,8660.409521
2370.823149,2834.553343,296.082377,8882.471304
2370.823478,2451.505594,296.082377,8364.327145
2370.823807,2068.457845,-0.000000,9252.574275
2370.824136,1149.143247,-370.102971,9104.533087
2370.824465,995.924147,-296.082377,9104.533087
2370.824794,612.876398,-814.226536,9474.636058
2370.825123,766.095498,-222.061783,9178.553681
2370.825452,766.095498,-1110.308913,8734.430116
2370.825781,612.876398,-0.000000,8956.491898
2370.826110,995.924147,-0.000000,8882.471304
2370.826439,383.047749,-444.123565,8438.347739
2370.826768,689.485948,-0.000000,8290.306550
2370.827098,306.438199,-296.082377,8808.450710
2370.827427,689.485948,-74.020594,7994.224174
2370.827756,0.000000,-1036.288319,9104.533087
2370.828085,-766.095498,-1554.432478,8216.285956
2370.828414,-919.314598,-1258.350101,8660.409521
2370.828743,-1302.362347,-2072.576638,9104.533087
2370.829072,-1072.533697,-1406.391290,8734.430116
2370.829401,-1149.143247,-1850.514855,9178.553681
2370.829730,-1225.752797,-1480.411884,8438.347739
2370.830059,-842.705048,-1480.411884,9104.533087
2370.830388,-689.485948,-1554.432478,8734.430116
2370.830717,-229.828649,-962.267725,8734.430116
2370.831046,-536.266849,-1110.308913,8956.491898
2370.831375,-383.047749,-740.205942,8364.327145
2370.831704,-383.047749,-518.144159,9178.553681
2370.832033,-536.266849,-444.123565,8364.327145
2370.832362,0.000000,-814.226536,8660.409521
2370.832691,-459.657299,-666.185348,8956.491898
2370.833020,-306.438199,-0.000000,8512.368333
2370.833349,-229.828649,-296.082377,8956.491898
2370.833678,-306.438199,-0.000000,8364.327145
2370.834007,0.000000,-74.020594,9252.574275
2370.834336,0.000000,-0.000000,8660.409521
2370.834665,229.828649,370.102971,8660.409521
2370.834994,229.828649,296.082377,9252.574275
2370.835323,76.609550,888.247130,8808.450710
2370.835652,689.485948,666.185348,9474.636058
2370.835981,536.266849,1110.308913,8808.450710
2370.836310,842.705048,1110.308913,9622.677246
2370.836639,612.876398,518.144159,9178.553681
2370.836968,689.485948,1110.308913,9400.615463
2370.837297,0.000000,296.082377,10066.800811
2370.837626,-383.047749,222.061783,9474.636058
2370.837955,0.000000,-74.020594,10362.883188
2370.838284,0.000000,-74.020594,9770.718434
2370.838613,383.047749,148.041188,10362.883188
2370.838943,689.485948,-222.061783,9770.718434
2370.839272,1225.752797,592.164754,9992.780217
2370.839601,1532.190996,-370.102971,10214.842000
2370.839930,1532.190996,296.082377,9400.615463
2370.840259,2374.896044,666.185348,9548.656652
2370.840588,2604.724693,666.185348,8734.430116
2370.840917,2987.772442,1184.329507,9104.533087
2370.841246,2604.724693,666.185348,9104.533087
2370.841575,4060.306139,1480.411884,8660.409521
2370.841904,3370.820191,222.061783,9178.553681
2370.842233,2068.457845,518.144159,8512.368333
2370.842562,1685.410096,222.061783,9030.512492
2370.842891,612.876398,-444.123565,8808.450710
2370.843220,459.657299,-296.082377,8808.450710
2370.843549,306.438199,-962.267725,9474.636058
2370.843878,-306.438199,-0.000000,8808.450710
2370.844207,-229.828649,-1036.288319,9474.636058
2370.844536,-459.657299,-1036.288319,8734.430116
2370.844865,-229.828649,-518.144159,8956.491898
2370.845194,-383.047749,-814.226536,8586.388927
2370.845523,-229.828649,-296.082377,8512.368333
2370.845852,-306.438199,-222.061783,9104.533087
2370.846181,-306.438199,-740.205942,8438.347739
2370.846510,-306.438199,-1258.350101,8956.491898
2370.846839,-919.314598,-1480.411884,8882.471304
2370.847168,-766.095498,-1258.350101,8808.450710
2370.847497,-1072.533697,-1924.535449,9252.574275
2370.847826,-919.314598,-1480.411884,8956.491898
2370.848155,-383.047749,-1628.453072,9400.615463
2370.848484,-919.314598,-1776.494261,8808.450710
2370.848813,-383.047749,-1554.432478,9178.553681
2370.849142,-612.876398,-1406.391290,8956.491898
2370.849471,-536.266849,-518.144159,8586.388927
2370.849800,-612.876398,-888.247130,9030.512492
2370.850129,-383.047749,-518.144159,8512.368333
2370.850458,0.000000,-370.102971,9178.553681
2370.850787,0.000000,-592.164754,8438.347739
2370.851117,0.000000,-0.000000,9104.533087
2370.851446,0.000000,-74.020594,8438.347739
2370.851775,153.219100,666.185348,8364.327145
2370.852104,459.657299,444.123565,8808.450710
2370.852433,459.657299,814.226536,7994.224174
2370.852762,383.047749,740.205942,8512.368333
2370.853091,766.095498,518.144159,8660.409521
2370.853420,306.438199,1036.288319,8586.388927
2370.853749,383.047749,666.185348,9178.553681
2370.854078,0.000000,962.267725,8734.430116
2370.854407,0.000000,444.123565,9548.656652
2370.854736,-306.438199,592.164754,9252.574275
2370.855065,0.000000,-0.000000,9622.677246
2370.855394,-229.828649,-0.000000,9474.636058
2370.855723,76.609550,222.061783,9548.656652
2370.856052,0.000000,-222.061783,10140.821405
2370.856381,0.000000,-0.000000,9548.656652
2370.856710,383.047749,-148.041188,10658.965565
2370.857039,842.705048,-0.000000,9770.718434
2370.857368,1072.533697,222.061783,10214.842000
2370.857697,1455.581446,-0.000000,9918.759623
2370.858026,2298.286494,518.144159,9474.636058
2370.858355,2604.724693,296.082377,9696.697840
2370.858684,2145.067394,666.185348,8586.388927
2370.859013,2681.334243,592.164754,9770.718434
2370.859342,2145.067394,592.164754,9030.512492
2370.859671,2145.067394,740.205942,9104.533087
2370.860000,1915.238745,-0.000000,9400.615463
2370.860329,1838.629195,-74.020594,9178.553681
2370.860658,1378.971896,-222.061783,9548.656652
2370.860987,1072.533697,-296.082377,8882.471304
2370.861316,1149.143247,296.082377,9474.636058
2370.861645,842.705048,-222.061783,8882.471304
2370.861974,842.705048,148.041188,8808.450710
2370.862303,689.485948,-370.102971,8956.491898
2370.862632,459.657299,-74.020594,8142.265362
2370.862962,459.657299,-592.164754,8882.471304
2370.863291,-229.828649,-444.123565,8512.368333
2370.863620,-689.485948,-222.061783,9178.553681
2370.863949,-536.266849,-814.226536,8512.368333
2370.864278,-459.657299,-814.226536,8438.347739
2370.864607,-842.705048,-962.267725,9030.512492
2370.864936,-842.705048,-1332.370696,8290.306550
2370.865265,-536.266849,-1258.350101,9104.533087
2370.865594,-1149.143247,-2368.659014,8734.430116
2370.865923,-612.876398,-1776.494261,9104.533087
2370.866252,-1225.752797,-2072.576638,8808.450710
2370.866581,-766.095498,-1332.370696,8734.430116
2370.866910,-766.095498,-1554.432478,9400.615463
2370.867239,-766.095498,-1480.411884,8438.347739
2370.867568,0.000000,-1332.370696,9178.553681
2370.867897,-306.438199,-1406.391290,8586.388927
2370.868226,-229.828649,-592.164754,8586.388927
2370.868555,-383.047749,-666.185348,8956.491898
2370.868884,-383.047749,-370.102971,8364.327145
2370.869213,-153.219100,-296.082377,9400.615463
2370.869542,-306.438199,-518.144159,8660.409521
2370.869871,229.828649,296.082377,8882.471304
2370.870200,76.609550,-0.000000,8882.471304
2370.870529,153.219100,370.102971,8512.368333
2370.870858,383.047749,518.144159,9178.553681
2370.871187,229.828649,888.247130,8364.327145
2370.871516,536.266849,962.267725,8956.491898
2370.871845,306.438199,666.185348,8660.409521
2370.872174,459.657299,1036.288319,9104.533087
2370.872503,229.828649,518.144159,9252.574275
2370.872832,0.000000,740.205942,9178.553681
2370.873161,76.609550,518.144159,9844.739029
2370.873490,76.609550,666.185348,9474.636058
2370.873819,0.000000,444.123565,9918.759623
2370.874148,-383.047749,296.082377,10288.862594
2370.874477,153.219100,148.041188,10066.800811
2370.874806,842.705048,-0.000000,10362.883188
2370.875136,842.705048,-0.000000,9918.759623
2370.875465,1072.533697,148.041188,10066.800811
2370.875794,1455.581446,-0.000000,9474.636058
2370.876123,2068.457845,740.205942,9918.759623
2370.876452,1762.019645,-0.000000,9326.594869
2370.876781,2604.724693,888.247130,8956.491898
2370.877110,2911.162892,962.267725,10362.883188
2370.877439,2298.286494,666.185348,9030.512492
2370.877768,2757.943793,666.185348,9400.615463
2370.878097,2145.067394,148.041188,8882.471304
2370.878426,1991.848295,592.164754,9104.533087
2370.878755,1302.362347,-296.082377,9178.553681
2370.879084,1455.581446,-0.000000,8808.450710
2370.879413,1225.752797,-518.144159,9548.656652
2370.879742,612.876398,-444.123565,8808.450710
2370.880071,459.657299,-518.144159,9326.594869
2370.880400,76.609550,-814.226536,8956.491898
2370.880729,153.219100,-444.123565,8808.450710
2370.881058,153.219100,-740.205942,9030.512492
2370.881387,0.000000,-740.205942,8142.265362
2370.881716,0.000000,-740.205942,9178.553681
2370.882045,-229.828649,-1184.329507,8586.388927
2370.882374,0.000000,-518.144159,8734.430116
2370.882703,-689.485948,-1184.329507,8586.388927
2370.883032,-536.266849,-1110.308913,8586.388927
2370.883361,-689.485948,-1406.391290,9252.574275
2370.883690,-842.705048,-1406.391290,8438.347739
2370.884019,-1149.143247,-1554.432478,9548.656652
2370.884348,-689.485948,-1480.411884,8586.388927
2370.884677,-766.095498,-740.205942,8734.430116
2370.885006,-919.314598,-1332.370696,8882.471304
2370.885335,-689.485948,-962.267725,8364.327145
2370.885664,-459.657299,-888.247130,9030.512492
2370.885993,-306.438199,-666.185348,8142.265362
2370.886322,0.000000,-1110.308913,8734.430116
2370.886651,-536.266849,-1184.329507,8438.347739
2370.886981,-229.828649,-222.061783,8290.306550
2370.887310,0.000000,-444.123565,8808.450710
2370.887639,0.000000,-0.000000,7994.224174
2370.887968,0.000000,-148.041188,8956.491898
2370.888297,153.219100,148.041188,8068.244768
2370.888626,383.047749,444.123565,8586.388927
2370.888955,689.485948,222.061783,8808.450710
2370.889284,306.438199,888.247130,8512.368333
2370.889613,229.828649,518.144159,9030.512492
2370.889942,153.219100,814.226536,8364.327145
2370.890271,0.000000,1184.329507,9474.636058
2370.890600,0.000000,-0.000000,9178.553681
2370.890929,0.000000,518.144159,9400.615463
2370.891258,-306.438199,-0.000000,9992.780217
2370.891587,-689.485948,222.061783,9252.574275
2370.891916,-459.657299,-222.061783,10362.883188
2370.892245,-536.266849,-148.041188,9696.697840
2370.892574,0.000000,-370.102971,10288.862594
2370.892903,459.657299,-296.082377,10510.924376
2370.893232,689.485948,-0.000000,10436.903782
2370.893561,919.314598,-296.082377,10362.883188
2370.893890,1225.752797,444.123565,9548.656652
2370.894219,2145.067394,592.164754,10584.944971
2370.894548,2298.286494,666.185348,9326.594869
2370.894877,3370.820191,1036.288319,9400.615463
2370.895206,2451.505594,888.247130,9104.533087
2370.895535,2757.943793,1036.288319,7698.141797
2370.895864,3064.381992,740.205942,9178.553681
2370.896193,2451.505594,740.205942,8512.368333
2370.896522,1838.629195,518.144159,9326.594869
2370.896851,1149.143247,-222.061783,8882.471304
2370.897180,1225.752797,222.061783,9030.512492
2370.897509,1072.533697,-888.247130,9178.553681
2370.897838,306.438199,-0.000000,8364.327145
2370.898167,536.266849,-296.082377,9622.677246
2370.898496,536.266849,-370.102971,8512.368333
2370.898825,536.266849,-0.000000,8956.491898
2370.899155,383.047749,-222.061783,8512.368333
2370.899484,383.047749,-0.000000,8290.306550
2370.899813,0.000000,-444.123565,9030.512492
2370.900142,0.000000,-444.123565,8216.285956
2370.900471,0.000000,-962.267725,8734.430116
2370.900800,-689.485948,-1110.308913,7994.224174
2370.901129,-689.485948,-1184.329507,8956.491898
2370.901458,-1225.752797,-1998.556043,8882.471304
2370.901787,-1149.143247,-1702.473667,8586.388927
2370.902116,-689.485948,-2072.576638,9474.636058
2370.902445,-1072.533697,-1850.514855,9030.512492
2370.902774,-1149.143247,-1332.370696,9696.697840
2370.903103,-1072.533697,-1554.432478,8734.430116
2370.903432,-459.657299,-1036.288319,8956.491898
2370.903761,-612.876398,-1184.329507,8956.491898
2370.904090,-383.047749,-518.144159,8290.306550
2370.904419,0.000000,-592.164754,9326.594869
2370.904748,0.000000,-1110.308913,8290.306550
2370.905077,-383.047749,-296.082377,8808.450710
2370.905406,-383.047749,-148.041188,8808.450710
2370.905735,-153.219100,296.082377,8438.347739
2370.906064,-229.828649,-74.020594,8660.409521
2370.906393,0.000000,370.102971,8068.244768
2370.906722,383.047749,-0.000000,9104.533087
2370.907051,0.000000,296.082377,7920.203579
2370.907380,153.219100,740.205942,9178.553681
2370.907709,0.000000,222.061783,8882.471304
2370.908038,153.219100,1258.350101,8438.347739
2370.908367,76.609550,740.205942,9104.533087
2370.908696,153.219100,962.267725,8660.409521
2370.909025,383.047749,888.247130,9400.615463
2370.909354,459.657299,592.164754,9474.636058
2370.909683,76.609550,962.267725,9400.615463
2370.910012,229.828649,296.082377,9918.759623
2370.910341,0.000000,518.144159,9474.636058
2370.910670,76.609550,-74.020594,10362.883188
2370.910999,0.000000,-0.000000,9770.718434
2370.911328,536.266849,-0.000000,10658.965565
2370.911657,1072.533697,-74.020594,9992.780217
2370.911986,1149.143247,-0.000000,10140.821405
2370.912315,1532.190996,-74.020594,10658.965565
2370.912644,1685.410096,148.041188,9400.615463
2370.912973,2298.286494,148.041188,9918.759623
2370.913302,2298.286494,370.102971,9326.594869
2370.913631,2681.334243,814.226536,9474.636058
2370.913960,2604.724693,296.082377,9326.594869
2370.914289,2604.724693,592.164754,9030.512492
2370.914618,2451.505594,296.082377,9474.636058
2370.914947,1838.629195,296.082377,8734.430116
2370.915276,1762.019645,-0.000000,9474.636058
2370.915605,1072.533697,-518.144159,8808.450710
2370.915934,1149.143247,-148.041188,8882.471304
2370.916263,536.266849,-370.102971,9030.512492
2370.916592,383.047749,-74.020594,8734.430116
2370.916921,0.000000,-444.123565,9178.553681
2370.917250,0.000000,-518.144159,8216.285956
2370.917579,0.000000,-222.061783,8438.347739
2370.917908,0.000000,-518.144159,8364.327145
2370.918237,-306.438199,-148.041188,8068.244768
2370.918566,-306.438199,-1184.329507,8808.450710
2370.918895,-612.876398,-1110.308913,7994.224174
2370.919224,-306.438199,-1406.391290,8956.491898
2370.919553,-766.095498,-1702.473667,8142.265362
2370.919882,-766.095498,-1480.411884,8808.450710
2370.920211,-1072.533697,-1998.556043,8734.430116
2370.920539,76.609550,-1332.370696,8290.306550
2370.920868,-612.876398,-1776.494261,9104.533087
2370.921197,-919.314598,-1406.391290,8290.306550
2370.921526,-689.485948,-1110.308913,9178.553681
2370.921855,-612.876398,-1406.391290,8512.368333
2370.922184,-229.828649,-592.164754,8586.388927
2370.922513,-383.047749,-1036.288319,8956.491898
2370.922842,-459.657299,-518.144159,8512.368333
2370.923171,0.000000,-1332.370696,8956.491898
2370.923500,-459.657299,-740.205942,8216.285956
2370.923829,0.000000,-0.000000,9178.553681
2370.924158,0.000000,-444.123565,8882.471304
2370.924487,-306.438199,370.102971,8808.450710
2370.924816,-229.828649,148.041188,9252.574275
2370.925145,0.000000,296.082377,8586.388927
2370.925474,842.705048,444.123565,9400.615463
2370.925803,0.000000,518.144159,8660.409521
2370.926132,459.657299,1628.453072,9178.553681
2370.926461,229.828649,666.185348,9030.512492
2370.926790,459.657299,1554.432478,8660.409521
2370.927119,153.219100,1036.288319,9474.636058
2370.927448,0.000000,666.185348,9030.512492
2370.927777,153.219100,444.123565,9326.594869
2370.928106,-306.438199,-148.041188,9474.636058
2370.928435,-306.438199,222.061783,9474.636058
2370.928764,-229.828649,-222.061783,10288.862594
2370.929093,0.000000,-74.020594,9992.780217
2370.929422,76.609550,-370.102971,10584.944971
2370.929751,383.047749,-592.164754,10140.821405
2370.930080,1072.533697,222.061783,10362.883188
2370.930409,1532.190996,-74.020594,9474.636058
2370.930738,2145.067394,666.185348,9474.636058
2370.931067,2604.724693,370.102971,9548.656652
2370.931396,2987.772442,1110.308913,8512.368333
2370.931724,2834.553343,1258.350101,9252.574275
2370.932053,2604.724693,592.164754,8882.471304
2370.932382,2451.505594,962.267725,8882.471304
2370.932711,2221.676944,296.082377,9104.533087
2370.933040,1149.143247,370.102971,8882.471304
2370.933369,1149.143247,-370.102971,9548.656652
2370.933698,612.876398,-444.123565,8882.471304
2370.934027,229.828649,-666.185348,9622.677246
2370.934356,612.876398,-1480.411884,9104.533087
2370.934685,76.609550,-518.144159,8956.491898
2370.935014,1072.533697,-666.185348,9400.615463
2370.935343,612.876398,-74.020594,8586.388927
2370.935672,842.705048,-222.061783,9030.512492
2370.936001,536.266849,-0.000000,8068.244768
2370.936330,689.485948,-0.000000,8586.388927
2370.936659,153.219100,-592.164754,7772.162391
2370.936988,229.828649,-1036.288319,8438.347739
2370.937317,-536.266849,-1554.432478,8660.409521
2370.937646,-995.924147,-1628.453072,7994.224174
2370.937975,-995.924147,-1702.473667,9326.594869
2370.938304,-995.924147,-2072.576638,8364.327145
2370.938633,-689.485948,-1554.432478,8956.491898
2370.938962,-842.705048,-2294.638420,8808.450710
2370.939291,-536.266849,-1406.391290,8660.409521
2370.939620,-612.876398,-1554.432478,9474.636058
2370.939949,-612.876398,-1184.329507,8290.306550
2370.940278,-536.266849,-814.226536,8882.471304
2370.940607,-612.876398,-814.226536,8734.430116
2370.940936,-459.657299,-0.000000,8808.450710
2370.941265,-689.485948,-370.102971,8956.491898
2370.941594,-459.657299,-74.020594,8586.388927
2370.941923,0.000000,-444.123565,9104.533087
2370.942252,-689.485948,-148.041188,8808.450710
2370.942581,0.000000,-0.000000,9178.553681
2370.942909,-306.438199,-74.020594,8956.491898
2370.943238,-153.219100,370.102971,8734.430116
2370.943567,0.000000,222.061783,9178.553681
2370.943896,-229.828649,740.205942,8660.409521
2370.944225,0.000000,444.123565,9474.636058
2370.944554,306.438199,666.185348,8586.388927
2370.944883,229.828649,592.164754,8956.491898
2370.945212,0.000000,666.185348,9104.533087
2370.945541,306.438199,1258.350101,8808.450710
2370.945870,536.266849,666.185348,9770.718434
2370.946199,0.000000,592.164754,9178.553681
2370.946528,383.047749,-0.000000,9918.759623
2370.946857,76.609550,-666.185348,9474.636058
2370.947186,229.828649,-74.020594,9918.759623
2370.947515,153.219100,-814.226536,10510.924376
2370.947844,229.828649,-0.000000,9844.739029
2370.948173,766.095498,-74.020594,10955.047942
2370.948502,919.314598,-0.000000,9696.697840
2370.948831,1915.238745,222.061783,9918.759623
2370.949160,1608.800546,-0.000000,9918.759623
2370.949489,2374.896044,740.205942,9548.656652
2370.949818,2681.334243,814.226536,9622.677246
2370.950147,2451.505594,888.247130,8512.368333
2370.950476,2681.334243,1036.288319,9178.553681
2370.950805,2374.896044,592.164754,8660.409521
2370.951134,1608.800546,444.123565,8734.430116
2370.951463,1532.190996,-148.041188,9104.533087
2370.951792,1225.752797,222.061783,9326.594869
2370.952121,919.314598,-592.164754,9548.656652
2370.952450,383.047749,-370.102971,8734.430116
2370.952779,459.657299,-296.082377,9104.533087
2370.953108,306.438199,-518.144159,8586.388927
2370.953437,459.657299,-0.000000,8512.368333
2370.953766,306.438199,-666.185348,9178.553681
2370.954094,229.828649,-0.000000,7698.141797
2370.954423,536.266849,-592.164754,8956.491898
2370.954752,-153.219100,-666.185348,8216.285956
2370.955081,-383.047749,-814.226536,8956.491898
2370.955410,-1072.533697,-1554.432478,8660.409521
2370.955739,-1378.971896,-1332.370696,8882.471304
2370.956068,-766.095498,-2220.617826,9400.615463
2370.956397,-1378.971896,-2146.597232,8882.471304
2370.956726,-1225.752797,-2220.617826,9548.656652
2370.957055,-1072.533697,-1998.556043,8882.471304
2370.957384,-689.485948,-962.267725,9030.512492
2370.957713,-842.705048,-1480.411884,8808.450710
2370.958042,-383.047749,-1036.288319,9030.512492
2370.958371,-229.828649,-296.082377,9474.636058
2370.958700,0.000000,-814.226536,8068.244768
2370.959029,689.485948,-296.082377,8956.491898
2370.959358,76.609550,-148.041188,8512.368333
2370.959687,229.828649,148.041188,8512.368333
2370.960016,76.609550,-148.041188,8808.450710
2370.960345,76.609550,222.061783,8364.327145
2370.960674,0.000000,-0.000000,9252.574275
2370.961003,-459.657299,-0.000000,8216.285956
2370.961332,0.000000,370.102971,9400.615463
2370.961661,-306.438199,222.061783,9104.533087
2370.961990,0.000000,592.164754,8660.409521
2370.962319,0.000000,444.123565,9252.574275
2370.962648,76.609550,888.247130,8290.306550
2370.962977,689.485948,1036.288319,9326.594869
2370.963306,0.000000,888.247130,8734.430116
2370.963635,0.000000,962.267725,9326.594869
2370.963964,153.219100,518.144159,9326.594869
2370.964293,76.609550,962.267725,8808.450710
2370.964622,306.438199,-0.000000,9992.780217
2370.964951,0.000000,-222.061783,9252.574275
2370.965279,0.000000,-74.020594,10066.800811
2370.965608,0.000000,-370.102971,9770.718434
2370.965937,766.095498,-148.041188,10066.800811
2370.966266,612.876398,-370.102971,10140.821405
2370.966595,1072.533697,296.082377,9474.636058
2370.966924,1685.410096,-0.000000,10362.883188
2370.967253,1838.629195,-0.000000,9104.533087
2370.967582,2451.505594,296.082377,9252.574275
2370.967911,2451.505594,-0.000000,9474.636058
2370.968240,2451.505594,592.164754,9326.594869
2370.968569,2451.505594,444.123565,9400.615463
2370.968898,2298.286494,666.185348,8808.450710
2370.969227,2145.067394,296.082377,9622.677246
2370.969556,1302.362347,-518.144159,9104.533087
2370.969885,1455.581446,-0.000000,9474.636058
2370.970214,995.924147,-592.164754,9326.594869
2370.970543,1072.533697,-0.000000,8808.450710
2370.970872,766.095498,-518.144159,9252.574275
2370.971201,459.657299,-370.102971,8438.347739
2370.971530,612.876398,-0.000000,8956.491898
2370.971859,536.266849,-370.102971,8438.347739
2370.972188,459.657299,-222.061783,8290.306550
2370.972517,76.609550,-296.082377,9030.512492
2370.972846,0.000000,-518.144159,8364.327145
2370.973175,-229.828649,-814.226536,8956.491898
2370.973504,-842.705048,-1110.308913,8290.306550
2370.973833,-612.876398,-1110.308913,9104.533087
2370.974162,-1149.143247,-1776.494261,8586.388927
2370.974491,-919.314598,-1332.370696,8512.368333
2370.974820,-689.485948,-2146.597232,9400.615463
2370.975149,-1149.143247,-1554.432478,8364.327145
2370.975478,-612.876398,-1480.411884,9178.553681
2370.975807,-612.876398,-1406.391290,8660.409521
2370.976136,-306.438199,-888.247130,8734.430116
2370.976464,-459.657299,-1258.350101,8882.471304
2370.976793,76.609550,-592.164754,8438.347739
2370.977122,0.000000,-1110.308913,9104.533087
2370.977451,76.609550,-370.102971,7994.224174
2370.977780,229.828649,-148.041188,8882.471304
2370.978109,0.000000,-296.082377,8512.368333
2370.978438,0.000000,-0.000000,8586.388927
2370.978767,-459.657299,-296.082377,9400.615463
2370.979096,-536.266849,-148.041188,8586.388927
2370.979425,0.000000,-74.020594,9696.697840
2370.979754,-229.828649,-0.000000,8734.430116
2370.980083,76.609550,666.185348,9400.615463
2370.980412,76.609550,148.041188,9104.533087
2370.980741,383.047749,962.267725,8734.430116
2370.981070,306.438199,666.185348,9548.656652
2370.981399,612.876398,888.247130,8808.450710
2370.981728,689.485948,1332.370696,9548.656652
2370.982057,536.266849,666.185348,8660.409521
2370.982386,306.438199,1258.350101,9622.677246
2370.982715,229.828649,370.102971,9770.718434
2370.983044,229.828649,814.226536,9400.615463
2370.983373,229.828649,-0.000000,10288.862594
2370.983702,76.609550,-0.000000,9696.697840
2370.984031,612.876398,296.082377,10436.903782
2370.984360,689.485948,-148.041188,9770.718434
2370.984689,0.000000,518.144159,10362.883188
2370.985018,689.485948,-296.082377,10214.842000
2370.985347,1762.019645,444.123565,9252.574275
2370.985676,2374.896044,444.123565,9622.677246
2370.986005,2451.505594,592.164754,8808.450710
2370.986334,2451.505594,962.267725,9252.574275
2370.986663,2681.334243,222.061783,9474.636058
2370.986992,2451.505594,740.205942,8882.471304
2370.987320,2451.505594,-0.000000,9030.512492
2370.987649,2068.457845,296.082377,8660.409521
2370.987978,1685.410096,-370.102971,9326.594869
2370.988307,766.095498,-592.164754,8882.471304
2370.988636,842.705048,-444.123565,8882.471304
2370.988965,459.657299,-814.226536,9178.553681
2370.989294,229.828649,222.061783,8882.471304
2370.989623,0.000000,-592.164754,9400.615463
2370.989952,-153.219100,-814.226536,8142.265362
2370.990281,76.609550,-370.102971,8808.450710
2370.990610,-229.828649,-888.247130,8290.306550
2370.990939,-383.047749,-740.205942,8512.368333
2370.991268,-612.876398,-1258.350101,9030.512492
2370.991597,-766.095498,-518.144159,8882.471304
2370.991926,-229.828649,-1480.411884,9252.574275
2370.992255,-919.314598,-1776.494261,8660.409521
2370.992584,-766.095498,-1184.329507,9178.553681
2370.992913,-995.924147,-1702.473667,9178.553681
2370.993242,-689.485948,-1258.350101,8808.450710
2370.993571,-383.047749,-1406.391290,9178.553681
2370.993900,-612.876398,-1258.350101,8364.327145
2370.994229,-153.219100,-1036.288319,9400.615463
2370.994558,-536.266849,-1258.350101,8586.388927
2370.994887,76.609550,-148.041188,8438.347739
2370.995216,-383.047749,-666.185348,8586.388927
2370.995545,-229.828649,-74.020594,8364.327145
2370.995874,-306.438199,-444.123565,8808.450710
2370.996203,-306.438199,-518.144159,8290.306550
2370.996532,229.828649,-0.000000,9030.512492
2370.996861,0.000000,-222.061783,8808.450710
2370.997190,-229.828649,296.082377,8734.430116
2370.997519,0.000000,-0.000000,9178.553681
2370.997848,229.828649,370.102971,8512.368333
2370.998177,842.705048,296.082377,8882.471304
2370.998505,459.657299,666.185348,8512.368333
2370.998834,842.705048,814.226536,8882.471304
2370.999163,536.266849,740.205942,8808.450710
2370.999492,459.657299,1480.411884,8882.471304
2370.999821,229.828649,888.247130,9474.636058
2371.000150,0.000000,888.247130,8808.450710
2371.000479,-536.266849,592.164754,9770.718434
2371.000808,-536.266849,-74.020594,9474.636058
2371.001137,-459.657299,518.144159,9992.780217
2371.001466,-306.438199,-592.164754,10288.862594
2371.001795,-229.828649,-0.000000,9548.656652
2371.002124,229.828649,-370.102971,10732.986159
2371.002453,459.657299,-0.000000,9992.780217
2371.002782,842.705048,-0.000000,10362.883188
2371.003111,1838.629195,-0.000000,9770.718434
2371.003440,2604.724693,814.226536,9252.574275
2371.003769,2528.115143,222.061783,9548.656652
2371.004098,2681.334243,740.205942,8734.430116
2371.004427,2681.334243,666.185348,9474.636058
2371.004756,2374.896044,518.144159,8660.409521
2371.005085,2451.505594,444.123565,9326.594869
2371.005414,2451.505594,-370.102971,9178.553681
2371.005743,1762.019645,-0.000000,9104.533087
2371.006072,1378.971896,-444.123565,9474.636058
2371.006401,766.095498,-74.020594,8586.388927
2371.006730,919.314598,-148.041188,9400.615463
2371.007059,842.705048,-592.164754,8438.347739
2371.007388,1225.752797,-0.000000,8364.327145
2371.007717,995.924147,-148.041188,8364.327145
2371.008046,1302.362347,-0.000000,7920.203579
2371.008375,995.924147,-74.020594,8512.368333
2371.008704,0.000000,-0.000000,7846.182985
2371.009033,0.000000,-296.082377,8734.430116
2371.009362,-459.657299,-962.267725,8290.306550
2371.009690,-919.314598,-1184.329507,8586.388927
2371.010019,-842.705048,-1702.473667,9252.574275
2371.010348,-1378.971896,-2072.576638,8734.430116
2371.010677,-1225.752797,-2294.638420,9252.574275
2371.011006,-1532.190996,-2146.597232,8660.409521
2371.011335,-919.314598,-1480.411884,9104.533087
2371.011664,-1455.581446,-1924.535449,8956.491898
2371.011993,-1072.533697,-888.247130,8882.471304
2371.012322,-689.485948,-1480.411884,9252.574275
2371.012651,-689.485948,-1036.288319,8586.388927
2371.012980,-153.219100,-1110.308913,9178.553681
2371.013309,-459.657299,-888.247130,8586.388927
2371.013638,153.219100,-222.061783,8660.409521
2371.013967,0.000000,-592.164754,8660.409521
2371.014296,459.657299,-296.082377,8290.306550
2371.014625,76.609550,-148.041188,9252.574275
2371.014954,76.609550,-444.123565,8734.430116
2371.015283,-383.047749,-74.020594,9178.553681
2371.015612,-306.438199,-148.041188,9252.574275
2371.015941,0.000000,518.144159,9178.553681
2371.016270,0.000000,-0.000000,9326.594869
2371.016599,229.828649,740.205942,9400.615463
2371.016928,459.657299,666.185348,9548.656652
2371.017257,536.266849,592.164754,8586.388927
2371.017586,689.485948,1702.473667,9104.533087
2371.017915,229.828649,1332.370696,8956.491898
2371.018244,536.266849,1480.411884,8882.471304
2371.018573,383.047749,1036.288319,9696.697840
2371.018902,459.657299,888.247130,9030.512492
2371.019231,0.000000,-296.082377,9696.697840
2371.019560,-459.657299,-370.102971,9622.677246
2371.019889,0.000000,-0.000000,10066.800811
2371.020218,76.609550,-518.144159,10066.800811
2371.020547,689.485948,-0.000000,9844.739029
2371.020876,995.924147,-74.020594,10584.944971
2371.021205,1302.362347,-0.000000,9326.594869
2371.021533,2068.457845,148.041188,9918.759623
2371.021862,2451.505594,-0.000000,8882.471304
2371.022191,1838.629195,814.226536,9178.553681
2371.022520,2681.334243,296.082377,9474.636058
2371.022849,2528.115143,814.226536,8734.430116
2371.023178,2451.505594,518.144159,9326.594869
2371.023507,1915.238745,-0.000000,8586.388927
2371.023836,2068.457845,-148.041188,9104.533087
2371.024165,842.705048,-1110.308913,9178.553681
2371.024494,995.924147,-518.144159,8586.388927
2371.024823,536.266849,-962.267725,9474.636058
2371.025152,76.609550,-592.164754,8586.388927
2371.025481,153.219100,-444.123565,9178.553681
2371.025810,0.000000,-518.144159,8364.327145
2371.026139,0.000000,-74.020594,8586.388927
2371.026468,0.000000,-740.205942,8808.450710
2371.026797,-383.047749,222.061783,7994.224174
2371.027126,-459.657299,-370.102971,9030.512492
2371.027455,-766.095498,-888.247130,8290.306550
2371.027784,-766.095498,-1036.288319,8956.491898
2371.028113,-1072.533697,-1480.411884,8586.388927
2371.028442,-689.485948,-1406.391290,8882.471304
2371.028771,-1762.019645,-1628.453072,9178.553681
2371.029100,-1225.752797,-1406.391290,8512.368333
2371.029429,-766.095498,-1480.411884,9252.574275
2371.029758,-919.314598,-1480.411884,8512.368333
2371.030087,-153.219100,-814.226536,8438.347739
2371.030416,-459.657299,-1258.350101,8586.388927
2371.030745,-229.828649,-814.226536,8290.306550
2371.031074,229.828649,-1110.308913,9104.533087
2371.031403,536.266849,-296.082377,8290.306550
2371.031732,229.828649,-444.123565,8808.450710
2371.032061,0.000000,-518.144159,8660.409521
2371.032390,76.609550,-0.000000,8808.450710
2371.032719,0.000000,-296.082377,8734.430116
2371.033048,-306.438199,-0.000000,8734.430116
2371.033377,76.609550,-0.000000,9548.656652
2371.033705,76.609550,-370.102971,8660.409521
2371.034034,-153.219100,-0.000000,9474.636058
2371.034363,0.000000,-0.000000,8882.471304
2371.034692,0.000000,666.185348,8956.491898
2371.035021,0.000000,296.082377,9400.615463
2371.035350,229.828649,518.144159,8734.430116
2371.035679,1685.410096,962.267725,9474.636058
2371.036008,689.485948,962.267725,8808.450710
2371.036337,383.047749,1480.411884,9474.636058
2371.036666,0.000000,518.144159,9474.636058
2371.036995,0.000000,962.267725,9474.636058
2371.037324,-306.438199,-0.000000,10288.862594
2371.037653,0.000000,-0.000000,9474.636058
2371.037982,0.000000,-0.000000,10510.924376
2371.038311,-229.828649,-370.102971,9918.759623
2371.038640,459.657299,148.041188,10214.842000
2371.038969,919.314598,-74.020594,10362.883188
2371.039298,1455.581446,592.164754,9252.574275
2371.039627,1915.238745,518.144159,10140.821405
2371.039956,2145.067394,666.185348,8734.430116
2371.040285,2757.943793,1036.288319,9400.615463
2371.040614,2911.162892,444.123565,8808.450710
2371.040943,2987.772442,1110.308913,8586.388927
2371.041272,2604.724693,296.082377,9252.574275
2371.041601,2374.896044,518.144159,8142.265362
2371.041930,1915.238745,-0.000000,9252.574275
2371.042259,1302.362347,-296.082377,8586.388927
2371.042588,1072.533697,-74.020594,9252.574275
2371.042917,383.047749,-444.123565,8882.471304
2371.043246,459.657299,-370.102971,8734.430116
2371.043575,536.266849,-814.226536,9474.636058
2371.043904,689.485948,-518.144159,8290.306550
2371.044233,919.314598,-296.082377,8660.409521
2371.044562,383.047749,-444.123565,8364.327145
2371.044891,383.047749,-148.041188,8142.265362
2371.045220,459.657299,-592.164754,8882.471304
2371.045548,0.000000,-518.144159,8290.306550
2371.045877,-383.047749,-1258.350101,9178.553681
2371.046206,-919.314598,-1702.473667,8660.409521
2371.046535,-1225.752797,-1628.453072,9474.636058
2371.046864,-1608.800546,-2220.617826,9104.533087
2371.047193,-1532.190996,-1702.473667,9104.533087
2371.047522,-1685.410096,-2146.597232,9400.615463
2371.047851,-995.924147,-1628.453072,8808.450710
2371.048180,-842.705048,-1184.329507,9548.656652
2371.048509,-1378.971896,-1406.391290,8660.409521
2371.048838,-766.095498,-814.226536,8956.491898
2371.049167,-306.438199,-888.247130,8808.450710
2371.049496,-536.266849,-518.144159,8512.368333
2371.049825,-306.438199,-888.247130,9474.636058
2371.050154,-536.266849,-222.061783,8290.306550
2371.050483,0.000000,-592.164754,8882.471304
2371.050812,-153.219100,-518.144159,8734.430116
2371.051141,0.000000,-0.000000,8586.388927
2371.051470,0.000000,-222.061783,8882.471304
2371.051799,0.000000,296.082377,8512.368333
2371.052128,229.828649,148.041188,8882.471304
2371.052457,383.047749,666.185348,8364.327145
2371.052786,612.876398,1110.308913,8956.491898
2371.053115,919.314598,888.247130,8512.368333
2371.053444,842.705048,1554.432478,8364.327145
2371.053773,842.705048,1110.308913,9252.574275
2371.054102,306.438199,1406.391290,8660.409521
2371.054431,689.485948,1258.350101,9474.636058
2371.054760,76.609550,148.041188,9104.533087
2371.055089,383.047749,444.123565,9474.636058
2371.055418,-536.266849,-222.061783,9844.739029
2371.055747,-306.438199,-0.000000,9622.677246
2371.056076,0.000000,-666.185348,10584.944971
2371.056405,0.000000,-296.082377,9622.677246
2371.056734,919.314598,-0.000000,10510.924376
2371.057063,1149.143247,-518.144159,9992.780217
2371.057391,1302.362347,592.164754,9992.780217
2371.057720,2145.067394,-0.000000,9696.697840
2371.058049,2374.896044,1036.288319,9178.553681
2371.058378,2528.115143,814.226536,9918.759623
2371.058707,2451.505594,814.226536,8808.450710
2371.059036,2681.334243,814.226536,9474.636058
2371.059365,2451.505594,-0.000000,9252.574275
2371.059694,1302.362347,592.164754,9178.553681
2371.060023,1302.362347,-222.061783,9326.594869
2371.060352,919.314598,-0.000000,9178.553681
2371.060681,919.314598,-518.144159,9474.636058
2371.061010,536.266849,-592.164754,8956.491898
2371.061339,612.876398,-74.020594,9178.553681
2371.061668,612.876398,-592.164754,9104.533087
2371.061997,383.047749,148.041188,8438.347739
2371.062326,1149.143247,-222.061783,8734.430116
2371.062655,383.047749,-0.000000,7846.182985
2371.062984,536.266849,-0.000000,8438.347739
2371.063313,0.000000,-370.102971,7920.203579
2371.063642,0.000000,-0.000000,8512.368333
2371.063971,-612.876398,-1110.308913,8734.430116
2371.064300,-1455.581446,-1184.329507,8734.430116
2371.064629,-995.924147,-1702.473667,9326.594869
2371.064958,-1225.752797,-1850.514855,8734.430116
2371.065287,-1072.533697,-1628.453072,8882.471304
2371.065616,-1149.143247,-1998.556043,8956.491898
2371.065945,-612.876398,-1406.391290,8808.450710
2371.066274,-1149.143247,-1628.453072,9104.533087
2371.066603,-306.438199,-1110.308913,8216.285956
2371.066932,0.000000,-962.267725,9104.533087
2371.067261,-612.876398,-1110.308913,8882.471304
2371.067590,-229.828649,-740.205942,8882.471304
2371.067919,-612.876398,-962.267725,8956.491898
2371.068248,-153.219100,-370.102971,8808.450710
2371.068577,76.609550,-740.205942,9326.594869
2371.068906,153.219100,-592.164754,7920.203579
2371.069234,76.609550,-74.020594,9030.512492
2371.069563,0.000000,-148.041188,8734.430116
2371.069892,76.609550,518.144159,8808.450710
2371.070221,0.000000,148.041188,9178.553681
2371.070550,153.219100,444.123565,8734.430116
2371.070879,229.828649,222.061783,9252.574275
2371.071208,-383.047749,592.164754,8808.450710
2371.071537,536.266849,1110.308913,9326.594869
2371.071866,306.438199,814.226536,9030.512492
2371.072195,229.828649,1480.411884,8660.409521
2371.072524,0.000000,1036.288319,9474.636058
2371.072853,-153.219100,1184.329507,9030.512492
2371.073182,0.000000,740.205942,9622.677246
2371.073511,153.219100,370.102971,9178.553681
2371.073840,76.609550,592.164754,9474.636058
2371.074169,0.000000,-148.041188,9918.759623
2371.074498,153.219100,296.082377,9474.636058
2371.074827,459.657299,-74.020594,10066.800811
2371.075156,536.266849,-0.000000,9474.636058
2371.075485,995.924147,370.102971,9992.780217
2371.075814,1225.752797,-0.000000,9474.636058
2371.076143,2145.067394,740.205942,9548.656652
2371.076472,2298.286494,-148.041188,9844.739029
2371.076801,2604.724693,666.185348,8956.491898
2371.077130,3064.381992,-0.000000,9844.739029
2371.077459,2298.286494,370.102971,8734.430116
2371.077788,2451.505594,444.123565,9178.553681
2371.078117,2145.067394,-74.020594,9178.553681
2371.078446,2145.067394,148.041188,8438.347739
2371.078775,1378.971896,-740.205942,9400.615463
2371.079104,1378.971896,-592.164754,8586.388927
2371.079433,1149.143247,-296.082377,9474.636058
2371.079762,689.485948,-296.082377,8586.388927
2371.080091,612.876398,-0.000000,9030.512492
2371.080420,459.657299,-666.185348,9104.533087
2371.080749,229.828649,-518.144159,8364.327145
2371.081077,383.047749,-888.247130,9178.553681
2371.081406,-153.219100,-740.205942,7698.141797
2371.081735,76.609550,-370.102971,9326.594869
2371.082064,-766.095498,-814.226536,8512.368333
2371.082393,-383.047749,-740.205942,8660.409521
2371.082722,-1072.533697,-1628.453072,9178.553681
2371.083051,-766.095498,-1480.411884,8586.388927
2371.083380,-995.924147,-1924.535449,9104.533087
2371.083709,-1685.410096,-2072.576638,8438.347739
2371.084038,-689.485948,-1332.370696,9474.636058
2371.084367,-1149.143247,-1776.494261,8438.347739
2371.084696,-995.924147,-888.247130,8438.347739
2371.085025,-689.485948,-1184.329507,9030.512492
2371.085354,-306.438199,-666.185348,8142.265362
2371.085683,153.219100,-814.226536,8586.388927
2371.086012,-153.219100,-1184.329507,8438.347739
2371.086341,76.609550,-592.164754,8512.368333
2371.086670,-229.828649,-592.164754,8734.430116
2371.086999,-306.438199,-74.020594,8290.306550
2371.087328,0.000000,-222.061783,8956.491898
2371.087657,-306.438199,-74.020594,8586.388927
2371.087986,76.609550,-0.000000,8586.388927
2371.088315,0.000000,-0.000000,8512.368333
2371.088644,0.000000,592.164754,9178.553681
2371.088973,0.000000,222.061783,9104.533087
2371.089302,229.828649,814.226536,8808.450710
2371.089631,153.219100,666.185348,9474.636058
2371.089960,306.438199,740.205942,8882.471304
2371.090289,689.485948,1036.288319,9474.636058
2371.090618,306.438199,370.102971,9474.636058
2371.090947,612.876398,1184.329507,9474.636058
2371.091276,76.609550,444.123565,9770.718434
2371.091605,0.000000,666.185348,9400.615463
2371.091934,306.438199,370.102971,10214.842000
2371.092263,0.000000,296.082377,9992.780217
2371.092592,0.000000,222.061783,10584.944971
2371.092920,306.438199,-148.041188,10732.986159
2371.093249,459.657299,370.102971,9844.739029
2371.093578,919.314598,-0.000000,10658.965565
2371.093907,1072.533697,444.123565,9770.718434
2371.094236,1762.019645,666.185348,10214.842000
2371.094565,2681.334243,518.144159,9474.636058
2371.094894,3064.381992,518.144159,9326.594869
2371.095223,2528.115143,518.144159,9474.636058
2371.095552,2374.896044,296.082377,8808.450710
2371.095881,2451.505594,444.123565,9326.594869
2371.096210,1915.238745,592.164754,8364.327145
2371.096539,2221.676944,222.061783,9178.553681
2371.096868,1455.581446,-74.020594,8586.388927
2371.097197,1838.629195,444.123565,9104.533087
2371.097526,1149.143247,-740.205942,9400.615463
2371.097855,1149.143247,-0.000000,8512.368333
2371.098184,383.047749,-370.102971,9104.533087
2371.098513,153.219100,-370.102971,8290.306550
2371.098842,306.438199,-148.041188,8734.430116
2371.099171,383.047749,-518.144159,8512.368333
2371.099500,-306.438199,296.082377,8142.265362
2371.099829,153.219100,-370.102971,9030.512492
2371.100158,0.000000,-1184.329507,8142.265362
2371.100487,-383.047749,-888.247130,8956.491898
2371.100816,-995.924147,-1480.411884,8660.409521
2371.101145,-995.924147,-1258.350101,8734.430116
2371.101474,-1225.752797,-2072.576638,9030.512492
2371.101803,-1302.362347,-1776.494261,8734.430116
2371.102132,-1072.533697,-1850.514855,9622.677246
2371.102461,-919.314598,-1554.432478,8882.471304
2371.102790,-536.266849,-1110.308913,9326.594869
2371.103119,-689.485948,-1258.350101,8808.450710
2371.103448,-383.047749,-444.123565,8734.430116
2371.103777,0.000000,-518.144159,9104.533087
2371.104106,0.000000,-592.164754,8216.285956
2371.104435,229.828649,-518.144159,9030.512492
2371.104763,-383.047749,-370.102971,8586.388927
2371.105092,0.000000,-0.000000,8734.430116
2371.105421,0.000000,-222.061783,8882.471304
2371.105750,-383.047749,-74.020594,8512.368333
2371.106079,76.609550,-444.123565,9474.636058
2371.106408,-306.438199,222.061783,8512.368333
2371.106737,-306.438199,-0.000000,9400.615463
2371.107066,-306.438199,-148.041188,8956.491898
2371.107395,-153.219100,592.164754,9104.533087
2371.107724,0.000000,444.123565,9326.594869
2371.108053,0.000000,1036.288319,8660.409521
2371.108382,459.657299,1036.288319,9474.636058
2371.108711,76.609550,1184.329507,8882.471304
2371.109040,229.828649,1332.370696,9252.574275
2371.109369,306.438199,814.226536,9178.553681
2371.109698,306.438199,1184.329507,9178.553681
2371.110027,306.438199,518.144159,9844.739029
2371.110356,0.000000,370.102971,9178.553681
2371.110685,229.828649,222.061783,9992.780217
2371.111014,0.000000,-0.000000,9844.739029
2371.111343,383.047749,-370.102971,10214.842000
2371.111672,459.657299,-518.144159,10066.800811
2371.112001,766.095498,-0.000000,9992.780217
2371.112330,1378.971896,-148.041188,10510.924376
2371.112659,1685.410096,-0.000000,9474.636058
2371.112988,2221.676944,370.102971,10140.821405
2371.113317,2221.676944,222.061783,9696.697840
2371.113646,2681.334243,1036.288319,9474.636058
2371.113975,2681.334243,666.185348,9474.636058
2371.114304,2911.162892,592.164754,8068.244768
2371.114634,2374.896044,444.123565,9474.636058
2371.114963,1838.629195,-0.000000,8364.327145
2371.115292,1915.238745,518.144159,8808.450710
2371.115621,1225.752797,-148.041188,8808.450710
2371.115950,1225.752797,222.061783,8512.368333
2371.116279,536.266849,-592.164754,9104.533087
2371.116608,-153.219100,-444.123565,8660.409521
2371.116937,536.266849,-666.185348,9252.574275
2371.117266,0.000000,-1036.288319,8364.327145
2371.117595,0.000000,-370.102971,8808.450710
2371.117924,-459.657299,-1036.288319,9030.512492
2371.118253,-459.657299,-444.123565,8364.327145
2371.118582,-689.485948,-1036.288319,8660.409521
2371.118911,-689.485948,-1110.308913,8142.265362
2371.119240,0.000000,-296.082377,9400.615463
2371.119569,-995.924147,-1258.350101,8660.409521
2371.119898,-766.095498,-1184.329507,8586.388927
2371.120227,-766.095498,-1628.453072,8882.471304
2371.120556,-995.924147,-1406.391290,8364.327145
2371.120885,-689.485948,-1332.370696,9178.553681
2371.121214,-612.876398,-1258.350101,8438.347739
2371.121543,-306.438199,-814.226536,9326.594869
2371.121872,0.000000,-1702.473667,8734.430116
2371.122201,-306.438199,-592.164754,8512.368333
2371.122531,-383.047749,-592.164754,8956.491898
2371.122860,-153.219100,-370.102971,8290.306550
2371.123189,0.000000,-444.123565,9104.533087
2371.123518,0.000000,-518.144159,8734.430116
2371.123847,-383.047749,-74.020594,9178.553681
2371.124176,-536.266849,-370.102971,9474.636058
2371.124505,-306.438199,-0.000000,8734.430116
2371.124834,0.000000,-0.000000,9400.615463
2371.125163,-229.828649,370.102971,8882.471304
2371.125492,0.000000,222.061783,9474.636058
2371.125821,0.000000,592.164754,9030.512492
2371.126150,0.000000,962.267725,8956.491898
2371.126479,612.876398,-0.000000,9326.594869
2371.126808,153.219100,1258.350101,9030.512492
2371.127137,536.266849,1110.308913,9474.636058
2371.127466,306.438199,814.226536,9104.533087
2371.127795,459.657299,814.226536,9474.636058
2371.128124,0.000000,-0.000000,9474.636058
2371.128453,-306.438199,296.082377,9474.636058
2371.128782,229.828649,-74.020594,9918.759623
2371.129111,383.047749,-0.000000,9474.636058
2371.129440,612.876398,-0.000000,10584.944971
2371.129769,536.266849,-148.041188,9622.677246
2371.130099,1072.533697,222.061783,9918.759623
2371.130428,1225.752797,-0.000000,10140.821405
2371.130757,1762.019645,888.247130,9844.739029
2371.131086,1915.238745,148.041188,9918.759623
2371.131415,2298.286494,666.185348,8882.471304
2371.131744,2681.334243,814.226536,9326.594869
2371.132073,2298.286494,370.102971,8956.491898
2371.132402,2451.505594,962.267725,8734.430116
2371.132731,2451.505594,-370.102971,9104.533087
2371.133060,2374.896044,-0.000000,8438.347739
2371.133389,1838.629195,-370.102971,9326.594869
2371.133718,919.314598,-518.144159,8808.450710
2371.134047,766.095498,-296.082377,9326.594869
2371.134376,612.876398,-888.247130,8956.491898
2371.134705,383.047749,-518.144159,8808.450710
2371.135034,153.219100,-740.205942,9400.615463
2371.135363,536.266849,-148.041188,8512.368333
2371.135692,306.438199,-592.164754,8956.491898
2371.136021,-306.438199,-518.144159,8290.306550
2371.136350,0.000000,-296.082377,8660.409521
2371.136679,-459.657299,-888.247130,8734.430116
2371.137008,-766.095498,-592.164754,8364.327145
2371.137337,-536.266849,-962.267725,9104.533087
2371.137667,-689.485948,-1406.391290,8734.430116
2371.137996,-536.266849,-1702.473667,9326.594869
2371.138325,-1072.533697,-1776.494261,8956.491898
2371.138654,-919.314598,-1332.370696,9030.512492
2371.138983,-766.095498,-1480.411884,9104.533087
2371.139312,-919.314598,-814.226536,8586.388927
2371.139641,-689.485948,-1258.350101,9400.615463
2371.139970,-536.266849,-814.226536,8512.368333
2371.140299,0.000000,-888.247130,8882.471304
2371.140628,0.000000,-888.247130,8438.347739
2371.140957,0.000000,-74.020594,8364.327145
2371.141286,0.000000,-296.082377,8882.471304
2371.141615,0.000000,-0.000000,7772.162391
2371.141944,229.828649,370.102971,8660.409521
2371.142273,76.609550,-222.061783,8290.306550
2371.142602,229.828649,-0.000000,8364.327145
2371.142931,0.000000,-74.020594,8956.491898
2371.143260,0.000000,370.102971,8512.368333
2371.143589,0.000000,370.102971,9252.574275
2371.143918,-153.219100,444.123565,8882.471304
2371.144247,229.828649,444.123565,9252.574275
2371.144576,-229.828649,222.061783,9104.533087
2371.144905,0.000000,740.205942,9400.615463
2371.145234,0.000000,370.102971,9844.739029
2371.145564,0.000000,962.267725,8882.471304
2371.145893,229.828649,740.205942,9918.759623
2371.146222,0.000000,296.082377,9400.615463
2371.146551,0.000000,592.164754,9696.697840
2371.146880,153.219100,-888.247130,9844.739029
2371.147209,229.828649,-148.041188,9918.759623
2371.147538,306.438199,-666.185348,10584.944971
2371.147867,536.266849,-0.000000,9770.718434
2371.148196,919.314598,-0.000000,10510.924376
2371.148525,919.314598,-0.000000,9622.677246
2371.148854,1378.971896,592.164754,9992.780217
2371.149183,2374.896044,-0.000000,9770.718434
2371.149512,2374.896044,814.226536,9030.512492
2371.149841,2834.553343,740.205942,9844.739029
2371.150170,2374.896044,740.205942,8512.368333
2371.150499,2911.162892,888.247130,9178.553681
2371.150828,2451.505594,518.144159,8660.409521
2371.151157,2528.115143,666.185348,8808.450710
2371.151486,2374.896044,-0.000000,8808.450710
2371.151815,1532.190996,-74.020594,8068.244768
2371.152144,1608.800546,-0.000000,9178.553681
2371.152473,842.705048,-518.144159,8438.347739
2371.152802,1149.143247,-74.020594,8808.450710
2371.153132,229.828649,-592.164754,8660.409521
2371.153461,229.828649,-518.144159,8512.368333
2371.153790,0.000000,-1110.308913,8956.491898
2371.154119,-536.266849,-962.267725,8512.368333
2371.154448,0.000000,-666.185348,9030.512492
2371.154777,-459.657299,-1110.308913,8364.327145
2371.155106,-612.876398,-888.247130,8808.450710
2371.155435,-919.314598,-1628.453072,9030.512492
2371.155764,-612.876398,-1110.308913,8660.409521
2371.156093,-1455.581446,-1776.494261,9178.553681
2371.156422,-766.095498,-1998.556043,8734.430116
2371.156751,-689.485948,-1702.473667,9548.656652
2371.157080,-919.314598,-1776.494261,8882.471304
2371.157409,-536.266849,-888.247130,8734.430116
2371.157738,-459.657299,-1184.329507,9252.574275
2371.158067,-919.314598,-444.123565,8660.409521
2371.158396,-306.438199,-518.144159,9104.533087
2371.158725,-229.828649,-518.144159,8586.388927
2371.159054,-229.828649,148.041188,9474.636058
2371.159383,-612.876398,-518.144159,8882.471304
2371.159712,-459.657299,-74.020594,8586.388927
2371.160041,-383.047749,-518.144159,9178.553681
2371.160370,-536.266849,-444.123565,8956.491898
2371.160700,-153.219100,-296.082377,9474.636058
2371.161029,-229.828649,444.123565,9326.594869
2371.161358,0.000000,888.247130,9400.615463
2371.161687,0.000000,444.123565,9104.533087
2371.162016,229.828649,1110.308913,8882.471304
2371.162345,612.876398,1258.350101,9178.553681
2371.162674,842.705048,1332.370696,8364.327145
2371.163003,995.924147,1332.370696,9178.553681
2371.163332,1072.533697,962.267725,8660.409521
2371.163661,689.485948,1406.391290,8512.368333
2371.163990,229.828649,666.185348,9252.574275
2371.164319,229.828649,814.226536,9030.512492
2371.164648,153.219100,222.061783,9770.718434
2371.164977,0.000000,-222.061783,9474.636058
2371.165306,229.828649,-296.082377,10510.924376
2371.165635,0.000000,-1258.350101,10140.821405
2371.165964,-383.047749,-222.061783,10288.862594
2371.166293,383.047749,-814.226536,10584.944971
2371.166622,766.095498,-0.000000,9622.677246
2371.166951,1838.629195,296.082377,10140.821405
2371.167280,1915.238745,-0.000000,9178.553681
2371.167609,2681.334243,814.226536,9326.594869
2371.167938,2221.676944,370.102971,9252.574275
2371.168268,2834.553343,740.205942,8364.327145
2371.168597,2451.505594,296.082377,9474.636058
2371.168926,2221.676944,370.102971,8586.388927
2371.169255,1685.410096,-0.000000,9178.553681
2371.169584,1608.800546,-518.144159,9474.636058
2371.169913,1455.581446,-370.102971,9326.594869
2371.170242,1072.533697,-814.226536,9474.636058
2371.170571,459.657299,-74.020594,8660.409521
2371.170900,459.657299,-370.102971,9474.636058
2371.171229,153.219100,-296.082377,8586.388927
2371.171558,383.047749,-0.000000,8734.430116
2371.171887,0.000000,-518.144159,8660.409521
2371.172216,0.000000,-0.000000,8068.244768
2371.172545,-459.657299,-74.020594,9030.512492
2371.172874,-383.047749,-222.061783,8290.306550
2371.173203,-229.828649,-592.164754,8660.409521
2371.173532,-766.095498,-1332.370696,8364.327145
2371.173861,-766.095498,-1406.391290,8734.430116
2371.174190,-919.314598,-1924.535449,9104.533087
2371.174519,-766.095498,-1628.453072,8882.471304
2371.174848,-536.266849,-1924.535449,9400.615463
2371.175177,-1225.752797,-1258.350101,8734.430116
2371.175506,-459.657299,-962.267725,8808.450710
2371.175835,-612.876398,-1184.329507,8512.368333
2371.176165,0.000000,-592.164754,8438.347739
2371.176494,76.609550,-740.205942,8956.491898
2371.176823,536.266849,-444.123565,8290.306550
2371.177152,0.000000,-666.185348,8956.491898
2371.177481,0.000000,-666.185348,8438.347739
2371.177810,76.609550,-444.123565,8882.471304
2371.178139,0.000000,-666.185348,9104.533087
2371.178468,0.000000,-296.082377,8882.471304
2371.178797,0.000000,-740.205942,9400.615463
2371.179126,-306.438199,-222.061783,8660.409521
2371.179455,0.000000,-0.000000,9474.636058
2371.179784,0.000000,-74.020594,9030.512492
2371.180113,76.609550,592.164754,8882.471304
2371.180442,76.609550,518.144159,8882.471304
2371.180771,306.438199,962.267725,8882.471304
2371.181100,612.876398,592.164754,9252.574275
2371.181429,306.438199,888.247130,8808.450710
2371.181758,229.828649,1110.308913,9400.615463
2371.182087,0.000000,666.185348,9178.553681
2371.182416,0.000000,888.247130,9326.594869
2371.182745,-383.047749,148.041188,9770.718434
2371.183074,-306.438199,370.102971,9548.656652
2371.183403,0.000000,-370.102971,10288.862594
2371.183733,-383.047749,-296.082377,9548.656652
2371.184062,229.828649,-0.000000,10362.883188
2371.184391,612.876398,-148.041188,9992.780217
2371.184720,842.705048,444.123565,9474.636058
2371.185049,1532.190996,222.061783,9918.759623
2371.185378,1685.410096,740.205942,9104.533087
2371.185707,2987.772442,666.185348,9400.615463
2371.186036,2604.724693,370.102971,8660.409521
2371.186365,2834.553343,666.185348,9104.533087
2371.186694,2298.286494,370.102971,8956.491898
2371.187023,2374.896044,888.247130,8512.368333
2371.187352,2374.896044,296.082377,9326.594869
2371.187681,1455.581446,-74.020594,8808.450710
2371.188010,1532.190996,-148.041188,9326.594869
2371.188339,1072.533697,-592.164754,8882.471304
2371.188668,919.314598,-0.000000,8660.409521
2371.188997,459.657299,-888.247130,9178.553681
2371.189326,459.657299,-444.123565,8660.409521
2371.189655,229.828649,-518.144159,9252.574275
2371.189984,0.000000,-518.144159,8290.306550
2371.190313,153.219100,-370.102971,8808.450710
2371.190642,0.000000,-740.205942,8882.471304
2371.190971,0.000000,-740.205942,8142.265362
2371.191301,-383.047749,-962.267725,9252.574275
2371.191630,-919.314598,-1110.308913,8438.347739
2371.191959,-842.705048,-1258.350101,9326.594869
2371.192288,-1072.533697,-1776.494261,8808.450710
2371.192617,-766.095498,-1332.370696,9326.594869
2371.192946,-1225.752797,-2294.638420,9474.636058
2371.193275,-1149.143247,-1258.350101,9178.553681
2371.193604,-612.876398,-1628.453072,9474.636058
2371.193933,-995.924147,-888.247130,8438.347739
2371.194262,-306.438199,-740.205942,9178.553681
2371.194591,0.000000,-1036.288319,8438.347739
2371.194920,0.000000,-296.082377,8216.285956
2371.195249,306.438199,-740.205942,8734.430116
2371.195578,0.000000,-444.123565,7994.224174
2371.195907,0.000000,-444.123565,8882.471304
2371.196236,-306.438199,-370.102971,8290.306550
2371.196565,0.000000,-0.000000,8734.430116
2371.196894,-306.438199,-222.061783,8882.471304
2371.197223,153.219100,-0.000000,8586.388927
2371.197552,76.609550,-222.061783,8882.471304
2371.197881,153.219100,296.082377,8734.430116
2371.198210,459.657299,444.123565,9178.553681
2371.198539,612.876398,740.205942,8660.409521
2371.198869,689.485948,1332.370696,8586.388927
2371.199198,766.095498,962.267725,9178.553681
2371.199527,1072.533697,1406.391290,8956.491898
2371.199856,1455.581446,888.247130,9104.533087
2371.200185,459.657299,666.185348,8956.491898
2371.200514,383.047749,962.267725,9474.636058
2371.200843,0.000000,-0.000000,9474.636058
2371.201172,0.000000,-0.000000,9770.718434
2371.201501,0.000000,-592.164754,10510.924376
2371.201830,0.000000,-222.061783,9770.718434
2371.202159,536.266849,-592.164754,10510.924376
2371.202488,306.438199,-444.123565,10214.842000
2371.202817,536.266849,-0.000000,9992.780217
2371.203146,1378.971896,-148.041188,10140.821405
2371.203475,1762.019645,592.164754,9400.615463
2371.203804,2145.067394,444.123565,9844.739029
2371.204133,2221.676944,592.164754,8882.471304
2371.204462,2451.505594,370.102971,9400.615463
2371.204791,2068.457845,-0.000000,9104.533087
2371.205120,2298.286494,370.102971,8660.409521
2371.205449,2068.457845,-0.000000,9326.594869
2371.205778,1378.971896,-0.000000,8734.430116
2371.206107,1302.362347,-296.082377,9178.553681
2371.206436,536.266849,-296.082377,8660.409521
2371.206766,612.876398,-74.020594,9104.533087
2371.207095,459.657299,-592.164754,8734.430116
2371.207424,459.657299,-296.082377,8438.347739
2371.207753,-153.219100,-814.226536,9030.512492
2371.208082,0.000000,-0.000000,8216.285956
2371.208411,76.609550,-0.000000,8882.471304
2371.208740,0.000000,-222.061783,8142.265362
2371.209069,-229.828649,-74.020594,8586.388927
2371.209398,-383.047749,-1184.329507,9104.533087
2371.209727,-383.047749,-888.247130,8438.347739
2371.210056,-536.266849,-1480.411884,9030.512492
2371.210385,-995.924147,-1406.391290,8586.388927
2371.210714,-1072.533697,-1406.391290,9104.533087
2371.211043,-1378.971896,-1702.473667,9178.553681
2371.211372,-842.705048,-1776.494261,9178.553681
2371.211700,-459.657299,-1850.514855,8956.491898
2371.212029,-842.705048,-1036.288319,8956.491898
2371.212358,-612.876398,-1332.370696,9474.636058
2371.212687,-306.438199,-888.247130,8808.450710
2371.213016,229.828649,-740.205942,8882.471304
2371.213345,76.609550,-592.164754,8734.430116
2371.213674,76.609550,-296.082377,8660.409521
2371.214003,229.828649,-666.185348,9178.553681
2371.214332,153.219100,-74.020594,8808.450710
2371.214661,0.000000,-814.226536,9326.594869
2371.214990,153.219100,-444.123565,8660.409521
2371.215319,0.000000,-0.000000,8882.471304
2371.215648,-383.047749,-148.041188,9030.512492
2371.215977,0.000000,444.123565,8734.430116
2371.216306,0.000000,-0.000000,9326.594869
2371.216635,153.219100,296.082377,8438.347739
2371.216964,383.047749,518.144159,9178.553681
2371.217293,-536.266849,592.164754,8882.471304
2371.217622,306.438199,1258.350101,8734.430116
2371.217950,229.828649,888.247130,9326.594869
2371.218279,0.000000,1406.391290,8882.471304
2371.218608,229.828649,962.267725,9474.636058
2371.218937,0.000000,222.061783,9252.574275
2371.219266,-459.657299,518.144159,10066.800811
2371.219595,0.000000,-296.082377,9474.636058
2371.219924,229.828649,222.061783,9474.636058
2371.220253,153.219100,-148.041188,10140.821405
2371.220582,459.657299,-0.000000,9548.656652
2371.220911,995.924147,592.164754,10436.903782
2371.221240,1072.533697,-0.000000,9696.697840
2371.221569,2145.067394,814.226536,9992.780217
2371.221898,2068.457845,296.082377,9474.636058
2371.222227,2374.896044,740.205942,9178.553681
2371.222556,2528.115143,296.082377,9622.677246
2371.222885,2374.896044,592.164754,8956.491898
2371.223214,2604.724693,518.144159,9548.656652
2371.223543,1838.629195,-0.000000,9030.512492
2371.223871,1915.238745,148.041188,9030.512492
2371.224200,1302.362347,-296.082377,9622.677246
2371.224529,1149.143247,-0.000000,8956.491898
2371.224858,995.924147,-444.123565,9474.636058
2371.225187,459.657299,-518.144159,8734.430116
2371.225516,689.485948,-0.000000,9474.636058
2371.225845,76.609550,-740.205942,8956.491898
2371.226174,766.095498,-296.082377,8586.388927
2371.226503,459.657299,-592.164754,8956.491898
2371.226832,76.609550,-444.123565,8068.244768
2371.227161,0.000000,-296.082377,9030.512492
2371.227490,-383.047749,-666.185348,8216.285956
2371.227819,-459.657299,-740.205942,8586.388927
2371.228148,-842.705048,-1406.391290,8882.471304
2371.228477,-1149.143247,-1110.308913,8512.368333
2371.228806,-1149.143247,-1998.556043,9252.574275
2371.229135,-1455.581446,-1480.411884,8586.388927
2371.229464,-1225.752797,-1480.411884,9104.533087
2371.229792,-1532.190996,-1850.514855,8512.368333
2371.230121,-1302.362347,-1332.370696,8734.430116
2371.230450,-842.705048,-1924.535449,8808.450710
2371.230779,-842.705048,-888.247130,8364.327145
2371.231108,-383.047749,-962.267725,8808.450710
2371.231437,-383.047749,-666.185348,8364.327145
2371.231766,76.609550,-370.102971,8882.471304
2371.232095,76.609550,-444.123565,8142.265362
2371.232424,383.047749,222.061783,8586.388927
2371.232753,383.047749,-148.041188,9178.553681
2371.233082,459.657299,-0.000000,8290.306550
2371.233411,459.657299,444.123565,8808.450710
2371.233740,229.828649,-0.000000,8512.368333
2371.234069,383.047749,518.144159,8956.491898
2371.234398,76.609550,-0.000000,9178.553681
2371.234727,229.828649,592.164754,9326.594869
2371.235056,459.657299,148.041188,9548.656652
2371.235385,-153.219100,666.185348,9104.533087
2371.235713,229.828649,962.267725,9918.759623
2371.236042,153.219100,518.144159,9326.594869
2371.236371,459.657299,1110.308913,9400.615463
2371.236700,536.266849,296.082377,9696.697840
2371.237029,1149.143247,888.247130,9474.636058
2371.237358,766.095498,518.144159,10140.821405
2371.237687,1149.143247,-148.041188,9252.574275
2371.238016,995.924147,444.123565,9992.780217
2371.238345,612.876398,-0.000000,9992.780217
2371.238674,919.314598,518.144159,9844.739029
2371.239003,919.314598,-74.020594,9992.780217
2371.239332,689.485948,-0.000000,9400.615463
2371.239661,1378.971896,-0.000000,10140.821405
2371.239990,1991.848295,-296.082377,9548.656652
2371.240319,1685.410096,592.164754,9474.636058
2371.240648,2068.457845,-0.000000,9474.636058
2371.240977,1991.848295,592.164754,8808.450710
2371.241306,2145.067394,296.082377,9252.574275
2371.241634,2145.067394,370.102971,8586.388927
2371.241963,2451.505594,518.144159,9030.512492
2371.242292,1455.581446,-0.000000,8808.450710
2371.242621,1685.410096,296.082377,8660.409521
2371.242950,1149.143247,-222.061783,9030.512492
2371.243279,842.705048,-0.000000,8512.368333
2371.243608,536.266849,-222.061783,9030.512492
2371.243937,689.485948,-592.164754,8216.285956
2371.244266,229.828649,-962.267725,8660.409521
2371.244595,0.000000,-666.185348,9030.512492
2371.244924,-306.438199,-222.061783,8512.368333
2371.245253,-229.828649,-740.205942,9326.594869
2371.245582,-766.095498,-1110.308913,8512.368333
2371.245911,-766.095498,-1184.329507,9178.553681
2371.246240,-1302.362347,-1480.411884,8660.409521
2371.246569,-1072.533697,-1258.350101,8808.450710
2371.246898,-995.924147,-1554.432478,9104.533087
2371.247227,-842.705048,-1406.391290,8882.471304
2371.247556,-536.266849,-1406.391290,9326.594869
2371.247884,-842.705048,-1554.432478,8586.388927
2371.248213,-536.266849,-1110.308913,9104.533087
2371.248542,-383.047749,-962.267725,8586.388927
2371.248871,-306.438199,-444.123565,8808.450710
2371.249200,-383.047749,-1036.288319,8956.491898
2371.249529,0.000000,-518.144159,8438.347739
2371.249858,-306.438199,-666.185348,9030.512492
2371.250187,-306.438199,-592.164754,8364.327145
2371.250516,-306.438199,-222.061783,8734.430116
2371.250845,-689.485948,-592.164754,8660.409521
2371.251174,-306.438199,-0.000000,8512.368333
2371.251503,-383.047749,-222.061783,9178.553681
2371.251832,-459.657299,-0.000000,8734.430116
2371.252161,0.000000,-0.000000,8882.471304
2371.252490,76.609550,-0.000000,8808.450710
2371.252819,153.219100,444.123565,8808.450710
2371.253148,459.657299,370.102971,8956.491898
2371.253477,459.657299,888.247130,8512.368333
2371.253805,995.924147,888.247130,9104.533087
2371.254134,536.266849,814.226536,8142.265362
2371.254463,536.266849,962.267725,9252.574275
2371.254792,536.266849,1036.288319,9252.574275
2371.255121,229.828649,1110.308913,9326.594869
2371.255450,0.000000,370.102971,9844.739029
2371.255779,76.609550,370.102971,9474.636058
2371.256108,153.219100,-222.061783,10510.924376
2371.256437,76.609550,-592.164754,9770.718434
2371.256766,383.047749,-370.102971,10732.986159
2371.257095,383.047749,-1036.288319,9992.780217
2371.257424,995.924147,148.041188,9918.759623
2371.257753,1762.019645,-0.000000,10214.842000
2371.258082,1991.848295,518.144159,9326.594869
2371.258411,2451.505594,666.185348,10066.800811
2371.258740,2757.943793,666.185348,9178.553681
2371.259069,2374.896044,962.267725,9622.677246
2371.259398,2681.334243,666.185348,9474.636058
2371.259726,2528.115143,888.247130,8660.409521
2371.260055,2374.896044,592.164754,9548.656652
2371.260384,1685.410096,296.082377,8586.388927
2371.260713,1455.581446,148.041188,9400.615463
2371.261042,689.485948,-444.123565,8882.471304
2371.261371,1302.362347,-296.082377,8734.430116
2371.261700,689.485948,-814.226536,9030.512492
2371.262029,76.609550,-370.102971,8586.388927
2371.262358,306.438199,-222.061783,9030.512492
2371.262687,0.000000,-370.102971,7920.203579
2371.263016,0.000000,-222.061783,8586.388927
2371.263345,-153.219100,-666.185348,8216.285956
2371.263674,153.219100,-444.123565,8068.244768
2371.264003,-536.266849,-592.164754,8734.430116
2371.264332,-766.095498,-1406.391290,8068.244768
2371.264661,-842.705048,-1184.329507,9104.533087
2371.264990,-1225.752797,-1702.473667,8512.368333
2371.265319,-1072.533697,-1406.391290,8734.430116
2371.265647,-1072.533697,-2072.576638,9104.533087
2371.265976,-766.095498,-1628.453072,8734.430116
2371.266305,-689.485948,-1554.432478,9178.553681
2371.266634,-1072.533697,-1036.288319,8364.327145
2371.266963,-612.876398,-962.267725,8956.491898
2371.267292,-459.657299,-1184.329507,8808.450710
2371.267621,-459.657299,-592.164754,8586.388927
2371.267950,-229.828649,-1036.288319,8956.491898
2371.268279,306.438199,-592.164754,8734.430116
2371.268608,383.047749,-740.205942,9326.594869
2371.268937,-153.219100,-592.164754,8586.388927
2371.269266,76.609550,-148.041188,8956.491898
2371.269595,0.000000,-222.061783,9104.533087
2371.269924,229.828649,296.082377,9104.533087
2371.270253,0.000000,-222.061783,9326.594869
2371.270582,0.000000,888.247130,8956.491898
2371.270911,0.000000,666.185348,9622.677246
2371.271240,689.485948,518.144159,8586.388927
2371.271568,919.314598,1332.370696,8882.471304
2371.271897,689.485948,962.267725,8882.471304
2371.272226,459.657299,1258.350101,8734.430116
2371.272555,995.924147,1110.308913,9474.636058
2371.272884,306.438199,1924.535449,9104.533087
2371.273213,766.095498,370.102971,9696.697840
2371.273542,-229.828649,222.061783,9696.697840
2371.273871,0.000000,444.123565,9992.780217
2371.274200,0.000000,-296.082377,10362.883188
2371.274529,0.000000,-0.000000,9918.759623
2371.274858,76.609550,-666.185348,10732.986159
2371.275187,229.828649,-74.020594,9918.759623
2371.275516,1378.971896,444.123565,9918.759623
2371.275845,1149.143247,222.061783,9622.677246
2371.276174,1991.848295,592.164754,9326.594869
2371.276503,2221.676944,666.185348,9622.677246
2371.276832,2221.676944,666.185348,8734.430116
2371.277161,2528.115143,444.123565,9178.553681
2371.277490,1608.800546,296.082377,9178.553681
2371.277818,1991.848295,370.102971,8882.471304
2371.278147,2068.457845,-148.041188,9252.574275
2371.278476,1838.629195,-74.020594,8808.450710
2371.278805,1455.581446,-296.082377,9400.615463
2371.279134,995.924147,-444.123565,8734.430116
2371.279463,1149.143247,-666.185348,9844.739029
2371.279792,459.657299,-814.226536,9030.512492
2371.280121,536.266849,-296.082377,8734.430116
2371.280450,689.485948,-592.164754,9178.553681
2371.280779,153.219100,-0.000000,8438.347739
2371.281108,229.828649,-74.020594,9030.512492
2371.281437,0.000000,-370.102971,7994.224174
2371.281766,-153.219100,-518.144159,8734.430116
2371.282095,-612.876398,-1332.370696,8512.368333
2371.282424,-536.266849,-888.247130,8660.409521
2371.282753,-766.095498,-1554.432478,8882.471304
2371.283082,-995.924147,-1480.411884,8364.327145
2371.283411,-1072.533697,-1406.391290,9178.553681
2371.283739,-1455.581446,-1554.432478,8808.450710
2371.284068,-842.705048,-1184.329507,9178.553681
2371.284397,-536.266849,-1480.411884,9104.533087
2371.284726,-842.705048,-888.247130,8808.450710
2371.285055,-459.657299,-962.267725,9104.533087
2371.285384,-612.876398,-888.247130,8586.388927
2371.285713,-229.828649,-666.185348,8808.450710
2371.286042,-306.438199,-740.205942,8512.368333
2371.286371,-306.438199,-444.123565,8882.471304
2371.286700,-306.438199,-592.164754,8882.471304
2371.287029,229.828649,-370.102971,8290.306550
2371.287358,306.438199,-296.082377,8956.491898
2371.287687,0.000000,-296.082377,8364.327145
2371.288016,0.000000,296.082377,8734.430116
2371.288345,-306.438199,-222.061783,8956.491898
2371.288674,0.000000,-0.000000,8586.388927
2371.289003,76.609550,-148.041188,9252.574275
2371.289332,76.609550,296.082377,9104.533087
2371.289660,0.000000,666.185348,9474.636058
2371.289989,0.000000,444.123565,8956.491898
2371.290318,383.047749,1110.308913,9178.553681
2371.290647,383.047749,814.226536,9400.615463
2371.290976,229.828649,1184.329507,9252.574275
2371.291305,306.438199,1184.329507,9844.739029
2371.291634,0.000000,740.205942,9474.636058
2371.291963,0.000000,444.123565,10214.842000
2371.292292,0.000000,-148.041188,9770.718434
2371.292621,0.000000,148.041188,9696.697840
2371.292950,76.609550,-592.164754,10436.903782
2371.293279,689.485948,-74.020594,9622.677246
2371.293608,1378.971896,-74.020594,10066.800811
2371.293937,842.705048,-148.041188,9918.759623
2371.294266,1991.848295,370.102971,9992.780217
2371.294595,2221.676944,296.082377,9474.636058
2371.294924,2604.724693,888.247130,9030.512492
2371.295253,3140.991542,444.123565,9474.636058
2371.295581,2911.162892,740.205942,8660.409521
2371.295910,2834.553343,888.247130,9326.594869
2371.296239,2987.772442,370.102971,8660.409521
2371.296568,1608.800546,962.267725,9252.574275
2371.296897,1685.410096,-74.020594,9030.512492
2371.297226,1149.143247,74.020594,8586.388927
2371.297555,919.314598,-74.020594,9252.574275
2371.297884,383.047749,-296.082377,8438.347739
2371.298213,0.000000,-518.144159,8956.491898
2371.298542,-995.924147,-962.267725,9178.553681
2371.298871,76.609550,-370.102971,8438.347739
2371.299200,0.000000,-1036.288319,8660.409521
2371.299529,-383.047749,-592.164754,7994.224174
2371.299858,-229.828649,-444.123565,9178.553681
2371.300187,-612.876398,-666.185348,8512.368333
2371.300516,-383.047749,-888.247130,8882.471304
2371.300845,-919.314598,-1776.494261,8734.430116
2371.301174,-689.485948,-1258.350101,8956.491898
2371.301502,-1072.533697,-1776.494261,9178.553681
2371.301831,-1225.752797,-1776.494261,8660.409521
2371.302160,-995.924147,-1850.514855,9326.594869
2371.302489,-1225.752797,-2072.576638,9030.512492
2371.302818,-995.924147,-1850.514855,9030.512492
2371.303147,-1072.533697,-1702.473667,8882.471304
2371.303476,-383.047749,-740.205942,8956.491898
2371.303805,-229.828649,-666.185348,9178.553681
2371.304134,-536.266849,-518.144159,8586.388927
2371.304463,-229.828649,-148.041188,8882.471304
2371.304792,76.609550,-296.082377,8364.327145
2371.305121,383.047749,-222.061783,8512.368333
2371.305450,0.000000,-592.164754,9326.594869
2371.305779,0.000000,-0.000000,8512.368333
2371.306108,76.609550,-0.000000,9104.533087
2371.306437,0.000000,148.041188,8512.368333
2371.306766,0.000000,370.102971,9030.512492
2371.307095,0.000000,-0.000000,8808.450710
2371.307424,0.000000,592.164754,8808.450710
2371.307752,459.657299,444.123565,9178.553681
2371.308081,229.828649,1036.288319,8734.430116
2371.308410,229.828649,962.267725,9030.512492
2371.308739,153.219100,1110.308913,8882.471304
2371.309068,459.657299,1184.329507,9104.533087
2371.309397,612.876398,296.082377,9474.636058
2371.309726,536.266849,592.164754,9030.512492
2371.310055,383.047749,148.041188,10066.800811
2371.310384,612.876398,-370.102971,9548.656652
2371.310713,306.438199,-74.020594,10214.842000
2371.311042,229.828649,-444.123565,9918.759623
2371.311371,766.095498,-0.000000,9992.780217
2371.311700,1455.581446,-74.020594,10362.883188
2371.312029,1685.410096,-0.000000,9400.615463
2371.312358,1455.581446,-0.000000,10288.862594
2371.312687,1532.190996,-0.000000,9400.615463
2371.313016,1991.848295,740.205942,9770.718434
2371.313345,2374.896044,-0.000000,9178.553681
2371.313674,2374.896044,740.205942,9030.512492
2371.314003,2757.943793,444.123565,9548.656652
2371.314332,2451.505594,592.164754,9030.512492
2371.314661,2757.943793,296.082377,9548.656652
2371.314990,1378.971896,-0.000000,8734.430116
2371.315319,1608.800546,148.041188,8808.450710
2371.315648,1072.533697,-370.102971,9326.594869
2371.315977,842.705048,148.041188,8512.368333
2371.316306,919.314598,-0.000000,9326.594869
2371.316635,536.266849,-74.020594,8512.368333
2371.316964,0.000000,-296.082377,9104.533087
2371.317293,0.000000,-0.000000,8882.471304
2371.317622,-459.657299,-74.020594,8290.306550
2371.317951,-689.485948,-592.164754,8808.450710
2371.318280,-536.266849,-592.164754,8290.306550
2371.318609,-766.095498,-888.247130,9178.553681
2371.318938,-919.314598,-1110.308913,8586.388927
2371.319267,-689.485948,-1776.494261,8808.450710
2371.319596,-1225.752797,-1776.494261,9104.533087
2371.319925,-919.314598,-1036.288319,8956.491898
2371.320254,-919.314598,-1850.514855,9252.574275
2371.320583,-689.485948,-1628.453072,8512.368333
2371.320912,-459.657299,-1258.350101,9030.512492
2371.321241,-536.266849,-1776.494261,8512.368333
2371.321570,0.000000,-888.247130,8586.388927
2371.321899,-76.609550,-666.185348,9178.553681
2371.322228,-306.438199,-444.123565,7994.224174
2371.322557,0.000000,-518.144159,8734.430116
2371.322886,-383.047749,-518.144159,8216.285956
2371.323215,-153.219100,-222.061783,8808.450710
2371.323544,0.000000,-666.185348,8512.368333
2371.323873,-229.828649,-370.102971,9178.553681
2371.324202,-459.657299,-592.164754,9178.553681
2371.324531,-766.095498,-148.041188,8882.471304
2371.324860,-459.657299,-74.020594,9474.636058
2371.325189,-459.657299,-148.041188,8956.491898
2371.325518,-153.219100,222.061783,9326.594869
2371.325847,0.000000,-0.000000,9252.574275
2371.326176,383.047749,888.247130,8956.491898
2371.326505,459.657299,888.247130,9474.636058
2371.326834,229.828649,1406.391290,8438.347739
2371.327163,919.314598,1776.494261,9326.594869
2371.327492,229.828649,962.267725,8882.471304
2371.327821,306.438199,1258.350101,9104.533087
2371.328150,153.219100,-0.000000,9992.780217
2371.328479,0.000000,-0.000000,9326.594869
2371.328808,-612.876398,-0.000000,10066.800811
2371.329137,-229.828649,-296.082377,9548.656652
2371.329466,0.000000,-222.061783,10584.944971
2371.329795,306.438199,-518.144159,9918.759623
2371.330124,919.314598,296.082377,9918.759623
2371.330454,1378.971896,-222.061783,10066.800811
2371.330783,2068.457845,444.123565,9326.594869
2371.331112,2834.553343,444.123565,9770.718434
2371.331441,2834.553343,592.164754,8512.368333
2371.331770,3370.820191,1110.308913,9178.553681
2371.332099,3064.381992,666.185348,8660.409521
2371.332428,3140.991542,1332.370696,8586.388927
2371.332757,2451.505594,148.041188,9400.615463
2371.333086,2145.067394,-0.000000,8882.471304
2371.333415,1608.800546,-296.082377,9178.553681
2371.333744,766.095498,-296.082377,9252.574275
2371.334073,842.705048,-370.102971,9400.615463
2371.334402,0.000000,-1036.288319,9400.615463
2371.334731,-229.828649,-666.185348,8882.471304
2371.335060,536.266849,-962.267725,9474.636058
2371.335389,76.609550,-666.185348,8734.430116
2371.335718,0.000000,-74.020594,9252.574275
2371.336047,76.609550,-666.185348,8586.388927
2371.336376,229.828649,-148.041188,8512.368333
2371.336705,0.000000,-592.164754,8882.471304
2371.337034,-383.047749,-518.144159,8290.306550
2371.337363,-612.876398,-1110.308913,9030.512492
2371.337692,-612.876398,-1702.473667,8660.409521
2371.338021,-306.438199,-1702.473667,8882.471304
2371.338350,-1302.362347,-2072.576638,8660.409521
2371.338679,-995.924147,-1480.411884,8882.471304
2371.339008,-1455.581446,-1554.432478,9030.512492
2371.339337,-1302.362347,-1258.350101,8290.306550
2371.339666,-459.657299,-962.267725,9178.553681
2371.339995,-536.266849,-1110.308913,8734.430116
2371.340324,-383.047749,-592.164754,8364.327145
2371.340653,-919.314598,-814.226536,8882.471304
2371.340982,-536.266849,-0.000000,8512.368333
2371.341311,-383.047749,-518.144159,8956.491898
2371.341640,-306.438199,-74.020594,8364.327145
2371.341969,76.609550,148.041188,8956.491898
2371.342298,229.828649,-148.041188,8512.368333
2371.342627,0.000000,-0.000000,8512.368333
2371.342956,306.438199,740.205942,9400.615463
2371.343285,229.828649,666.185348,8142.265362
2371.343614,536.266849,518.144159,8956.491898
2371.343943,229.828649,740.205942,8438.347739
2371.344272,536.266849,814.226536,8956.491898
2371.344601,229.828649,370.102971,8808.450710
2371.344930,76.609550,1110.308913,8586.388927
2371.345259,0.000000,592.164754,9474.636058
2371.345588,0.000000,592.164754,8956.491898
2371.345917,76.609550,370.102971,9844.739029
2371.346246,0.000000,-0.000000,9844.739029
2371.346575,306.438199,296.082377,9992.780217
2371.346904,153.219100,-148.041188,10214.842000
2371.347233,76.609550,-0.000000,9918.759623
2371.347562,842.705048,-222.061783,10658.965565
2371.347891,766.095498,148.041188,9696.697840
2371.348220,1149.143247,370.102971,10214.842000
2371.348549,1302.362347,-0.000000,9770.718434
2371.348878,1838.629195,518.144159,9548.656652
2371.349207,2374.896044,666.185348,9474.636058
2371.349536,2145.067394,666.185348,9178.553681
2371.349865,2451.505594,592.164754,9622.677246
2371.350194,2221.676944,222.061783,8734.430116
2371.350523,2451.505594,888.247130,9178.553681
2371.350852,2298.286494,370.102971,9178.553681
2371.351181,1685.410096,296.082377,8586.388927
2371.351510,1762.019645,-518.144159,9474.636058
2371.351839,1302.362347,-74.020594,8660.409521
2371.352168,1455.581446,-370.102971,8882.471304
2371.352497,536.266849,-296.082377,8512.368333
2371.352826,536.266849,-0.000000,8734.430116
2371.353155,229.828649,-444.123565,8882.471304
2371.353484,76.609550,-296.082377,8142.265362
2371.353813,76.609550,-444.123565,8734.430116
2371.354142,0.000000,-666.185348,7846.182985
2371.354471,-229.828649,-518.144159,8734.430116
2371.354800,-689.485948,-1332.370696,8586.388927
2371.355129,-766.095498,-814.226536,8586.388927
2371.355458,-766.095498,-1480.411884,9400.615463
2371.355787,-689.485948,-1702.473667,8586.388927
2371.356116,-842.705048,-1776.494261,9252.574275
2371.356445,-1455.581446,-1628.453072,9104.533087
2371.356774,-536.266849,-1628.453072,9030.512492
2371.357103,-612.876398,-1850.514855,8808.450710
2371.357432,-612.876398,-1110.308913,8660.409521
2371.357761,-536.266849,-1110.308913,9252.574275
2371.358090,-153.219100,-1110.308913,8734.430116
2371.358419,-306.438199,-666.185348,8882.471304
2371.358748,-536.266849,-962.267725,8660.409521
2371.359077,229.828649,-592.164754,8956.491898
2371.359406,-383.047749,-666.185348,9030.512492
2371.359736,-536.266849,-222.061783,8364.327145
2371.360065,-306.438199,-444.123565,9104.533087
2371.360394,-536.266849,-370.102971,8364.327145
2371.360723,0.000000,-0.000000,9104.533087
2371.361052,-536.266849,-296.082377,8808.450710
2371.361381,0.000000,666.185348,8734.430116
2371.361710,306.438199,-0.000000,9178.553681
2371.362039,0.000000,370.102971,8438.347739
2371.362368,153.219100,888.247130,9252.574275
2371.362697,229.828649,518.144159,8734.430116
2371.363026,306.438199,814.226536,8808.450710
2371.363355,689.485948,740.205942,9178.553681
2371.363684,153.219100,1332.370696,8956.491898
2371.364013,229.828649,740.205942,9252.574275
2371.364342,153.219100,666.185348,8956.491898
2371.364671,76.609550,666.185348,9696.697840
2371.365000,229.828649,-296.082377,9622.677246
2371.365329,306.438199,-0.000000,9770.718434
2371.365658,383.047749,-592.164754,9992.780217
2371.365987,459.657299,-0.000000,10066.800811
2371.366316,689.485948,-148.041188,10288.862594
2371.366645,995.924147,-0.000000,9474.636058
2371.366974,1838.629195,148.041188,10140.821405
2371.367303,1455.581446,-0.000000,9548.656652
2371.367632,2681.334243,592.164754,9548.656652
2371.367961,2911.162892,-0.000000,9844.739029
2371.368290,2987.772442,814.226536,9104.533087
2371.368619,2911.162892,962.267725,9474.636058
2371.368948,2528.115143,666.185348,8882.471304
2371.369277,2528.115143,888.247130,9104.533087
2371.369606,2145.067394,-518.144159,9030.512492
2371.369935,1302.362347,-74.020594,8660.409521
2371.370264,1225.752797,-296.082377,9474.636058
2371.370593,153.219100,-444.123565,8512.368333
2371.370922,306.438199,-444.123565,9400.615463
2371.371251,0.000000,-592.164754,9030.512492
2371.371580,0.000000,-370.102971,9030.512492
2371.371909,76.609550,-740.205942,9400.615463
2371.372238,-229.828649,-518.144159,8808.450710
2371.372567,-612.876398,-1036.288319,9178.553681
2371.372896,-229.828649,-666.185348,8438.347739
