#time,accel_x,accel_y,accel_z
2589.305118,229.828649,-148.041188,9252.574275
2589.305447,229.828649,-74.020594,9030.512492
2589.305775,689.485948,-222.061783,8808.450710
2589.306104,919.314598,-222.061783,9030.512492
2589.306433,766.095498,-296.082377,9104.533087
2589.306762,689.485948,-296.082377,9030.512492
2589.307091,459.657299,-148.041188,9326.594869
2589.307420,612.876398,-148.041188,9030.512492
2589.307749,306.438199,-74.020594,8882.471304
2589.308078,612.876398,-222.061783,8734.430116
2589.308407,459.657299,-222.061783,9252.574275
2589.308736,306.438199,-296.082377,9104.533087
2589.309065,306.438199,-222.061783,9178.553681
2589.309394,229.828649,-0.000000,8882.471304
2589.309723,0.000000,-148.041188,8956.491898
2589.310052,229.828649,-222.061783,8882.471304
2589.310381,383.047749,-0.000000,8808.450710
2589.310710,306.438199,-296.082377,8660.409521
2589.311038,459.657299,-0.000000,9104.533087
2589.311367,306.438199,-222.061783,9030.512492
2589.311696,306.438199,-0.000000,8956.491898
2589.312025,383.047749,-0.000000,8956.491898
2589.312354,229.828649,-148.041188,9178.553681
2589.312683,306.438199,-222.061783,9104.533087
2589.313012,306.438199,-370.102971,9104.533087
2589.313341,919.314598,-370.102971,9474.636058
2589.313670,76.609550,-592.164754,9178.553681
2589.313999,76.609550,-370.102971,9178.553681
2589.314328,306.438199,-222.061783,9178.553681
2589.314657,536.266849,-444.123565,8956.491898
2589.314986,0.000000,-148.041188,9030.512492
2589.315315,766.095498,-148.041188,9474.636058
2589.315644,536.266849,-0.000000,9474.636058
2589.315973,766.095498,-222.061783,9474.636058
2589.316302,229.828649,-74.020594,9104.533087
2589.316630,229.828649,-74.020594,9104.533087
2589.316959,536.266849,-148.041188,9252.574275
2589.317288,306.438199,-0.000000,9400.615463
2589.317617,229.828649,-518.144159,9104.533087
2589.317946,76.609550,-444.123565,8956.491898
2589.318275,306.438199,-148.041188,9178.553681
2589.318604,229.828649,-222.061783,8956.491898
2589.318933,306.438199,-0.000000,8956.491898
2589.319262,229.828649,-0.000000,9030.512492
2589.319591,842.705048,-0.000000,9030.512492
2589.319920,459.657299,-0.000000,8882.471304
2589.320249,229.828649,-296.082377,8956.491898
2589.320578,0.000000,-74.020594,9178.553681
2589.320907,153.219100,-148.041188,8956.491898
2589.321236,229.828649,-74.020594,8808.450710
2589.321565,306.438199,-74.020594,8882.471304
2589.321894,306.438199,-222.061783,8882.471304
2589.322222,306.438199,-370.102971,9104.533087
2589.322551,459.657299,-148.041188,8660.409521
2589.322880,306.438199,-592.164754,8808.450710
2589.323209,306.438199,-74.020594,9104.533087
2589.323538,306.438199,-222.061783,9178.553681
2589.323867,383.047749,-148.041188,8956.491898
2589.324196,383.047749,-148.041188,9030.512492
2589.324525,229.828649,-370.102971,9104.533087
2589.324854,306.438199,-444.123565,9400.615463
2589.325183,76.609550,-518.144159,9326.594869
2589.325512,229.828649,-222.061783,9326.594869
2589.325841,0.000000,-148.041188,8956.491898
2589.326170,306.438199,-296.082377,9104.533087
2589.326499,689.485948,-74.020594,9252.574275
2589.326828,306.438199,-148.041188,9400.615463
2589.327157,383.047749,-222.061783,9252.574275
2589.327486,612.876398,-0.000000,9400.615463
2589.327814,995.924147,-370.102971,9326.594869
2589.328143,1072.533697,-518.144159,9178.553681
2589.328472,459.657299,-148.041188,9030.512492
2589.328801,383.047749,148.041188,9252.574275
2589.329130,76.609550,-0.000000,9104.533087
2589.329459,229.828649,-74.020594,8882.471304
2589.329788,306.438199,-74.020594,9030.512492
2589.330117,229.828649,-0.000000,9030.512492
2589.330446,306.438199,-296.082377,9104.533087
2589.330775,76.609550,-74.020594,9178.553681
2589.331104,306.438199,-0.000000,9104.533087
2589.331433,459.657299,-0.000000,9030.512492
2589.331762,383.047749,-74.020594,8808.450710
2589.332091,459.657299,-0.000000,8808.450710
2589.332420,536.266849,74.020594,8956.491898
2589.332749,459.657299,-0.000000,9178.553681
2589.333078,229.828649,-222.061783,8808.450710
2589.333406,153.219100,-74.020594,8956.491898
2589.333735,0.000000,-222.061783,8956.491898
2589.334064,229.828649,-222.061783,9178.553681
2589.334393,0.000000,-1110.308913,10140.821405
2589.334722,1532.190996,-1554.432478,9400.615463
2589.335051,1532.190996,-740.205942,9474.636058
2589.335380,2145.067394,-444.123565,9548.656652
2589.335709,2451.505594,-222.061783,9104.533087
2589.336038,3140.991542,592.164754,9030.512492
2589.336367,3830.477490,222.061783,8882.471304
2589.336696,4826.401637,-0.000000,8734.430116
2589.337025,3677.258390,888.247130,8808.450710
2589.337354,3524.039291,370.102971,8660.409521
2589.337683,2757.943793,-0.000000,8882.471304
2589.338012,3217.601092,-370.102971,9548.656652
2589.338341,2145.067394,-740.205942,9104.533087
2589.338670,1072.533697,-1184.329507,10140.821405
2589.338998,1532.190996,-2072.576638,10140.821405
2589.339327,2298.286494,-1110.308913,9548.656652
2589.339656,2374.896044,-222.061783,9844.739029
2589.339985,2757.943793,-1406.391290,9992.780217
2589.340314,3217.601092,-0.000000,8734.430116
2589.340643,4903.011187,1184.329507,9178.553681
2589.340972,5592.497135,1110.308913,6957.935855
2589.341301,4826.401637,1702.473667,8512.368333
2589.341630,5362.668486,1406.391290,9178.553681
2589.341959,4443.353888,1036.288319,7105.977043
2589.342288,4136.915689,370.102971,8512.368333
2589.342617,2911.162892,-0.000000,8512.368333
2589.342946,2451.505594,-0.000000,9104.533087
2589.343275,1149.143247,-1406.391290,9844.739029
2589.343604,1072.533697,-962.267725,9548.656652
2589.343933,1455.581446,-1480.411884,10066.800811
2589.344262,766.095498,-1406.391290,9474.636058
2589.344590,1532.190996,-518.144159,9622.677246
2589.344919,1915.238745,-74.020594,9844.739029
2589.345248,2604.724693,666.185348,7550.100608
2589.345577,4060.306139,592.164754,9474.636058
2589.345906,4749.792088,1406.391290,8364.327145
2589.346235,4519.963438,1924.535449,8438.347739
2589.346564,4366.744339,888.247130,8808.450710
2589.346893,4290.134789,-0.000000,8956.491898
2589.347222,3677.258390,-0.000000,9030.512492
2589.347551,2911.162892,-1480.411884,9548.656652
2589.347880,2374.896044,-1406.391290,9918.759623
2589.348209,2068.457845,-1776.494261,9992.780217
2589.348538,1762.019645,-1924.535449,9844.739029
2589.348867,2451.505594,-1702.473667,10436.903782
2589.349196,2834.553343,-518.144159,9918.759623
2589.349525,3370.820191,296.082377,9104.533087
2589.349853,4060.306139,1184.329507,8586.388927
2589.350182,4443.353888,1850.514855,8364.327145
2589.350511,4749.792088,2294.638420,7698.141797
2589.350840,4060.306139,2146.597232,7624.121203
2589.351169,3907.087040,1924.535449,7772.162391
2589.351498,3217.601092,1702.473667,7994.224174
2589.351827,3140.991542,222.061783,8364.327145
2589.352156,2987.772442,-1036.288319,9474.636058
2589.352485,2451.505594,-2294.638420,9770.718434
2589.352814,2528.115143,-3034.844362,10436.903782
2589.353143,2298.286494,-3034.844362,11029.068536
2589.353472,2528.115143,-2590.720797,10807.006753
2589.353801,3983.696590,-1184.329507,9992.780217
2589.354130,5132.839837,370.102971,9474.636058
2589.354459,5669.106685,1184.329507,8956.491898
2589.354788,5592.497135,2146.597232,8438.347739
2589.355117,4979.620737,2442.679609,7994.224174
2589.355445,4519.963438,3627.009116,6883.915261
2589.355774,4290.134789,2590.720797,7031.956449
2589.356103,3753.867940,2664.741391,6809.894666
2589.356432,3524.039291,1480.411884,7624.121203
2589.356761,1225.752797,-2294.638420,9400.615463
2589.357090,-306.438199,-4737.318029,10658.965565
2589.357419,-536.266849,-3997.112087,11399.171507
2589.357748,-459.657299,-6143.709319,12065.356855
2589.358077,-1072.533697,-2664.741391,10362.883188
2589.358406,153.219100,-1702.473667,11473.192101
2589.358735,1149.143247,-222.061783,10288.862594
2589.359064,3753.867940,1332.370696,11325.150913
2589.359393,6358.592633,1554.432478,8364.327145
2589.359722,7890.783629,1554.432478,8808.450710
2589.360051,6052.154434,-0.000000,8290.306550
2589.360380,5745.716235,1480.411884,6883.915261
2589.360709,5209.449386,2738.761985,6883.915261
2589.361037,5209.449386,1628.453072,7031.956449
2589.361366,4903.011187,3034.844362,5329.482782
2589.361695,4903.011187,2664.741391,6513.812290
2589.362024,4826.401637,962.267725,5921.647536
2589.362353,3907.087040,-2368.659014,8808.450710
2589.362682,459.657299,-6883.915261,12065.356855
2589.363011,-689.485948,-5255.462188,11103.089130
2589.363340,-1762.019645,-3775.050304,13545.768739
2589.363669,-1378.971896,-6143.709319,13249.686362
2589.363998,-536.266849,740.205942,10362.883188
2589.364327,2451.505594,-0.000000,12287.418637
2589.364656,4136.915689,1480.411884,9178.553681
2589.364985,6971.469032,1998.556043,8660.409521
2589.365314,7201.297681,1998.556043,8660.409521
2589.365643,7277.907231,3997.112087,5847.626942
2589.365972,7354.516781,5033.400406,5403.503377
2589.366301,6665.030833,1406.391290,5255.462188
2589.366629,5822.325785,2146.597232,5033.400406
2589.366958,4979.620737,1702.473667,6513.812290
2589.367287,4443.353888,1776.494261,5255.462188
2589.367616,2987.772442,444.123565,6587.832884
2589.367945,-1991.848295,-5181.441594,13693.809927
2589.368274,-3064.381992,-6365.771101,13767.830521
2589.368603,-3983.696590,-148.041188,10881.027347
2589.368932,-3524.039291,-7179.997637,12065.356855
2589.369261,-5975.544884,-444.123565,10510.924376
2589.369590,-2451.505594,-1332.370696,15026.180623
2589.369919,-1762.019645,-0.000000,11695.253884
2589.370248,-1838.629195,2072.576638,10066.800811
2589.370577,1915.238745,148.041188,7031.956449
2589.370906,2145.067394,1480.411884,10658.965565
2589.371235,3753.867940,1702.473667,7994.224174
2589.371564,5132.839837,1184.329507,3701.029710
2589.371893,5132.839837,-444.123565,6291.750507
2589.372221,3907.087040,1332.370696,4737.318029
2589.372550,3677.258390,222.061783,8586.388927
2589.372879,-919.314598,1850.514855,7402.059420
2589.373208,-1608.800546,-2738.761985,9474.636058
2589.373537,-306.438199,-3330.926739,14211.954086
2589.373866,-2221.676944,1036.288319,6291.750507
2589.374195,-1302.362347,-2664.741391,13471.748144
2589.374524,-2757.943793,-518.144159,9326.594869
2589.374853,689.485948,-0.000000,11843.295072
2589.375182,-153.219100,-148.041188,10066.800811
2589.375511,766.095498,1332.370696,8808.450710
2589.375840,0.000000,-1480.411884,11843.295072
2589.376169,2374.896044,-74.020594,9400.615463
2589.376498,1838.629195,3627.009116,4145.153275
2589.376827,2298.286494,1406.391290,6735.874072
2589.377156,2451.505594,2738.761985,5625.565159
2589.377485,2221.676944,1332.370696,8734.430116
2589.377813,-689.485948,-592.164754,7254.018232
2589.378142,-2298.286494,-2072.576638,8808.450710
2589.378471,-2068.457845,-4293.194464,10658.965565
2589.378800,-3064.381992,-1110.308913,9548.656652
2589.379129,-3600.648841,-1480.411884,11251.130318
2589.379458,-3677.258390,-740.205942,10288.862594
2589.379787,0.000000,-888.247130,11769.274478
2589.380116,-459.657299,296.082377,10362.883188
2589.380445,-1608.800546,814.226536,8734.430116
2589.380775,-1685.410096,-444.123565,10288.862594
2589.381104,-76.609550,-1184.329507,11325.150913
2589.381433,1149.143247,1850.514855,8142.265362
2589.381762,1991.848295,1184.329507,7105.977043
2589.382091,2068.457845,-296.082377,7105.977043
2589.382420,1838.629195,370.102971,7994.224174
2589.382749,1225.752797,740.205942,7328.038826
2589.383079,842.705048,-740.205942,7179.997637
2589.383408,459.657299,-2220.617826,9770.718434
2589.383737,0.000000,-1184.329507,10584.944971
2589.384066,-689.485948,-1480.411884,9918.759623
2589.384395,-766.095498,-1776.494261,10140.821405
2589.384724,536.266849,-148.041188,9770.718434
2589.385053,842.705048,1850.514855,9696.697840
2589.385383,1072.533697,2072.576638,8808.450710
2589.385712,995.924147,1554.432478,9178.553681
2589.386041,1762.019645,666.185348,9178.553681
2589.386370,1762.019645,1184.329507,9178.553681
2589.386699,1532.190996,518.144159,8438.347739
2589.387028,919.314598,-814.226536,8290.306550
2589.387358,766.095498,-1406.391290,9104.533087
2589.387687,1225.752797,-814.226536,8808.450710
2589.388016,995.924147,-2220.617826,8512.368333
2589.388345,1072.533697,-1998.556043,9104.533087
2589.388674,1532.190996,-740.205942,9104.533087
2589.389003,1302.362347,-0.000000,8734.430116
2589.389332,536.266849,296.082377,8808.450710
2589.389662,689.485948,296.082377,9400.615463
2589.389991,-229.828649,1332.370696,10066.800811
2589.390320,842.705048,1184.329507,9622.677246
2589.390649,1149.143247,148.041188,9030.512492
2589.390978,1532.190996,-0.000000,8808.450710
2589.391307,1149.143247,666.185348,8734.430116
2589.391636,689.485948,-148.041188,9178.553681
2589.391966,612.876398,-740.205942,9252.574275
2589.392295,919.314598,-1406.391290,8882.471304
2589.392624,383.047749,-740.205942,9030.512492
2589.392953,229.828649,-444.123565,8734.430116
2589.393282,0.000000,-444.123565,8438.347739
2589.393611,-459.657299,296.082377,9178.553681
2589.393940,-689.485948,444.123565,9548.656652
2589.394270,-766.095498,370.102971,9770.718434
2589.394599,-766.095498,-0.000000,9548.656652
2589.394928,-612.876398,518.144159,9400.615463
2589.395257,-1149.143247,-0.000000,8956.491898
2589.395586,-842.705048,-74.020594,9400.615463
2589.395915,-459.657299,-444.123565,9844.739029
2589.396245,76.609550,-296.082377,9252.574275
2589.396574,-229.828649,-814.226536,9252.574275
2589.396903,-689.485948,-1036.288319,9104.533087
2589.397232,-536.266849,-1110.308913,8216.285956
2589.397561,-306.438199,-592.164754,8734.430116
2589.397890,-76.609550,-0.000000,8364.327145
2589.398219,76.609550,-0.000000,8142.265362
2589.398549,0.000000,-0.000000,8734.430116
2589.398878,0.000000,1036.288319,8882.471304
2589.399207,0.000000,518.144159,8734.430116
2589.399536,-229.828649,-0.000000,8956.491898
2589.399865,-306.438199,-0.000000,9030.512492
2589.400194,0.000000,-74.020594,9252.574275
2589.400523,0.000000,-518.144159,9030.512492
2589.400853,0.000000,-740.205942,9030.512492
2589.401182,383.047749,-666.185348,9030.512492
2589.401511,0.000000,-370.102971,8808.450710
2589.401840,0.000000,74.020594,8882.471304
2589.402169,0.000000,222.061783,8882.471304
2589.402498,-383.047749,-74.020594,8586.388927
2589.402827,0.000000,-740.205942,9400.615463
2589.403157,-153.219100,-222.061783,8734.430116
2589.403486,76.609550,-962.267725,9326.594869
2589.403815,153.219100,-888.247130,9326.594869
2589.404144,0.000000,-0.000000,9326.594869
2589.404473,1149.143247,-1332.370696,9474.636058
2589.404802,1762.019645,-0.000000,8216.285956
2589.405132,1915.238745,740.205942,9178.553681
2589.405461,2145.067394,-74.020594,8956.491898
2589.405790,2451.505594,592.164754,8512.368333
2589.406119,1378.971896,666.185348,8068.244768
2589.406448,2374.896044,1406.391290,8956.491898
2589.406777,1455.581446,-222.061783,9252.574275
2589.407106,1302.362347,296.082377,9326.594869
2589.407436,1149.143247,-296.082377,9326.594869
2589.407765,306.438199,-740.205942,9474.636058
2589.408094,306.438199,-888.247130,9474.636058
2589.408423,766.095498,-222.061783,10140.821405
2589.408752,1302.362347,-222.061783,9400.615463
2589.409081,1762.019645,-74.020594,9030.512492
2589.409410,1838.629195,-0.000000,8956.491898
2589.409740,1455.581446,592.164754,8808.450710
2589.410069,1302.362347,1554.432478,8364.327145
2589.410398,1302.362347,1332.370696,8882.471304
2589.410727,1225.752797,1110.308913,8734.430116
2589.411056,766.095498,-0.000000,9178.553681
2589.411385,0.000000,-0.000000,9474.636058
2589.411714,-536.266849,-962.267725,9400.615463
2589.412044,-536.266849,-1036.288319,9104.533087
2589.412373,-306.438199,-1110.308913,9326.594869
2589.412702,-229.828649,-1258.350101,9696.697840
2589.413031,536.266849,-1554.432478,9474.636058
2589.413360,689.485948,-814.226536,8956.491898
2589.413689,689.485948,-148.041188,8956.491898
2589.414018,766.095498,-0.000000,8068.244768
2589.414348,229.828649,814.226536,8068.244768
2589.414677,306.438199,592.164754,8512.368333
2589.415006,0.000000,222.061783,9252.574275
2589.415335,-459.657299,-74.020594,9474.636058
2589.415664,-995.924147,-888.247130,9104.533087
2589.415993,-919.314598,-740.205942,8882.471304
2589.416323,-995.924147,-444.123565,9104.533087
2589.416652,-919.314598,-888.247130,9178.553681
2589.416981,-612.876398,-740.205942,9474.636058
2589.417310,-612.876398,-1036.288319,9104.533087
2589.417639,-995.924147,-740.205942,9326.594869
2589.417968,-306.438199,-666.185348,9178.553681
2589.418297,-995.924147,-296.082377,9030.512492
2589.418627,-1455.581446,444.123565,8438.347739
2589.418956,-536.266849,-0.000000,8956.491898
2589.419285,-612.876398,-0.000000,8364.327145
2589.419614,-306.438199,-0.000000,9252.574275
2589.419943,0.000000,-888.247130,9326.594869
2589.420272,-459.657299,-370.102971,8808.450710
2589.420601,-459.657299,-370.102971,8882.471304
2589.420931,-383.047749,-370.102971,9622.677246
2589.421260,0.000000,-1184.329507,9474.636058
2589.421589,229.828649,-518.144159,9252.574275
2589.421918,383.047749,-740.205942,9252.574275
2589.422247,-229.828649,-370.102971,9696.697840
2589.422576,1072.533697,-222.061783,8660.409521
2589.422905,1225.752797,1036.288319,8808.450710
2589.423235,1302.362347,370.102971,8290.306550
2589.423564,1532.190996,814.226536,8660.409521
2589.423893,919.314598,296.082377,9030.512492
2589.424222,1225.752797,-0.000000,8734.430116
2589.424551,919.314598,-148.041188,8364.327145
2589.424880,689.485948,-0.000000,9770.718434
2589.425210,536.266849,-1184.329507,9400.615463
2589.425539,919.314598,-1184.329507,9992.780217
2589.425868,1302.362347,-444.123565,9252.574275
2589.426197,1378.971896,-370.102971,9104.533087
2589.426526,1378.971896,-0.000000,9252.574275
2589.426855,1532.190996,-0.000000,8808.450710
2589.427184,1532.190996,-0.000000,8290.306550
2589.427514,1149.143247,-518.144159,9326.594869
2589.427843,919.314598,-0.000000,9326.594869
2589.428172,383.047749,-148.041188,9178.553681
2589.428501,612.876398,-444.123565,9400.615463
2589.428830,536.266849,-148.041188,9252.574275
2589.429159,995.924147,-148.041188,10140.821405
2589.429488,1838.629195,-444.123565,9474.636058
2589.429818,2145.067394,148.041188,8734.430116
2589.430147,2451.505594,518.144159,8882.471304
2589.430476,2221.676944,962.267725,8438.347739
2589.430805,1608.800546,1036.288319,8512.368333
2589.431134,1838.629195,888.247130,8512.368333
2589.431463,766.095498,444.123565,8734.430116
2589.431792,536.266849,-0.000000,9326.594869
2589.432122,229.828649,-1036.288319,9400.615463
2589.432451,0.000000,-1110.308913,9400.615463
2589.432780,-306.438199,-1110.308913,8956.491898
2589.433109,-612.876398,-666.185348,9104.533087
2589.433438,-919.314598,-1184.329507,9622.677246
2589.433767,-229.828649,-1332.370696,9474.636058
2589.434097,-383.047749,-740.205942,9252.574275
2589.434426,76.609550,-518.144159,8808.450710
2589.434755,536.266849,-148.041188,8216.285956
2589.435084,76.609550,518.144159,7994.224174
2589.435413,-306.438199,592.164754,8956.491898
2589.435742,-306.438199,-0.000000,9326.594869
2589.436071,-536.266849,-222.061783,8882.471304
2589.436401,-229.828649,-74.020594,9548.656652
2589.436730,-1225.752797,-592.164754,9474.636058
2589.437059,-1302.362347,-666.185348,9400.615463
2589.437388,-1455.581446,-518.144159,9474.636058
2589.437717,-842.705048,-888.247130,9696.697840
2589.438046,-383.047749,-1184.329507,8586.388927
2589.438375,-459.657299,-1184.329507,9474.636058
2589.438705,-689.485948,-740.205942,9178.553681
2589.439034,-306.438199,-0.000000,8808.450710
2589.439363,0.000000,592.164754,8586.388927
2589.439692,-459.657299,888.247130,8438.347739
2589.440021,-229.828649,666.185348,9400.615463
2589.440350,0.000000,-148.041188,9326.594869
2589.440679,229.828649,-222.061783,9178.553681
2589.441009,-536.266849,-518.144159,9104.533087
2589.441338,-612.876398,-74.020594,9104.533087
2589.441667,-842.705048,-592.164754,9696.697840
2589.441996,0.000000,-518.144159,9622.677246
2589.442325,689.485948,-518.144159,9326.594869
2589.442654,1072.533697,-518.144159,9030.512492
2589.442984,842.705048,-148.041188,9104.533087
2589.443313,689.485948,592.164754,8142.265362
2589.443642,612.876398,666.185348,8734.430116
2589.443971,1072.533697,888.247130,8660.409521
2589.444300,383.047749,222.061783,8882.471304
2589.444629,459.657299,-0.000000,9474.636058
2589.444958,0.000000,-0.000000,9844.739029
2589.445288,153.219100,-666.185348,9548.656652
2589.445617,536.266849,-666.185348,9992.780217
2589.445946,1149.143247,-592.164754,9918.759623
2589.446275,1608.800546,-740.205942,9474.636058
2589.446604,2221.676944,-148.041188,9104.533087
2589.446933,2681.334243,444.123565,8808.450710
2589.447262,2834.553343,888.247130,7994.224174
2589.447592,2528.115143,888.247130,8216.285956
2589.447921,2528.115143,370.102971,8808.450710
2589.448250,1762.019645,666.185348,8734.430116
2589.448579,1149.143247,-0.000000,8956.491898
2589.448908,459.657299,-0.000000,9844.739029
2589.449237,76.609550,-814.226536,9992.780217
2589.449566,-766.095498,-888.247130,9696.697840
2589.449896,-153.219100,-1258.350101,10288.862594
2589.450225,-306.438199,-1110.308913,10510.924376
2589.450554,536.266849,-1036.288319,10140.821405
2589.450883,766.095498,-370.102971,9474.636058
2589.451212,1225.752797,-148.041188,8660.409521
2589.451541,1149.143247,444.123565,7994.224174
2589.451871,1378.971896,1036.288319,7550.100608
2589.452200,1455.581446,1184.329507,7402.059420
2589.452529,536.266849,296.082377,8438.347739
2589.452858,229.828649,-444.123565,9104.533087
2589.453187,-383.047749,-222.061783,8956.491898
2589.453516,-842.705048,-592.164754,8956.491898
2589.453845,-1225.752797,-740.205942,9326.594869
2589.454175,-1072.533697,-518.144159,9474.636058
2589.454504,-383.047749,-1110.308913,9622.677246
2589.454833,-229.828649,-1110.308913,9252.574275
2589.455162,-229.828649,-888.247130,9474.636058
2589.455491,0.000000,-444.123565,9104.533087
2589.455820,0.000000,518.144159,8290.306550
2589.456149,612.876398,1036.288319,8290.306550
2589.456479,0.000000,666.185348,8808.450710
2589.456808,459.657299,-0.000000,9696.697840
2589.457137,0.000000,-148.041188,8586.388927
2589.457466,-919.314598,-0.000000,9104.533087
2589.457795,-766.095498,-1184.329507,9400.615463
2589.458124,-1608.800546,-518.144159,9104.533087
2589.458453,-1225.752797,-1184.329507,9548.656652
2589.458783,-919.314598,-1036.288319,9696.697840
2589.459112,-995.924147,-1702.473667,9474.636058
2589.459441,-766.095498,-666.185348,9696.697840
2589.459770,-612.876398,-444.123565,9548.656652
2589.460099,-1072.533697,222.061783,8586.388927
2589.460428,-842.705048,-0.000000,9400.615463
2589.460758,-842.705048,518.144159,9400.615463
2589.461087,-689.485948,222.061783,9252.574275
2589.461416,-536.266849,-222.061783,9548.656652
2589.461745,0.000000,-518.144159,9252.574275
2589.462074,0.000000,-370.102971,9104.533087
2589.462403,0.000000,-740.205942,9474.636058
2589.462732,612.876398,-814.226536,9400.615463
2589.463062,995.924147,-814.226536,8586.388927
2589.463391,2068.457845,-296.082377,8512.368333
2589.463720,2068.457845,-0.000000,8142.265362
2589.464049,1915.238745,296.082377,7994.224174
2589.464378,1532.190996,444.123565,8290.306550
2589.464707,1149.143247,666.185348,8808.450710
2589.465036,1072.533697,148.041188,8660.409521
2589.465366,612.876398,-296.082377,9400.615463
2589.465695,459.657299,-370.102971,9770.718434
2589.466024,536.266849,-222.061783,9104.533087
2589.466353,689.485948,-444.123565,9104.533087
2589.466682,1072.533697,-444.123565,9326.594869
2589.467011,995.924147,-444.123565,8882.471304
2589.467340,2451.505594,-666.185348,9326.594869
2589.467670,2528.115143,-814.226536,8438.347739
2589.467999,1915.238745,-0.000000,8586.388927
2589.468328,2145.067394,-444.123565,8364.327145
2589.468657,1532.190996,444.123565,7920.203579
2589.468986,1685.410096,592.164754,8808.450710
2589.469315,383.047749,222.061783,9104.533087
2589.469645,1608.800546,-74.020594,9474.636058
2589.469974,76.609550,-0.000000,9770.718434
2589.470303,153.219100,-0.000000,9622.677246
2589.470632,-383.047749,-296.082377,9622.677246
2589.470961,229.828649,-1110.308913,9992.780217
2589.471290,1149.143247,-1480.411884,9474.636058
2589.471619,1302.362347,-814.226536,9992.780217
2589.471949,1455.581446,-296.082377,8882.471304
2589.472278,1991.848295,592.164754,8290.306550
2589.472607,1838.629195,814.226536,8660.409521
2589.472936,995.924147,1110.308913,8290.306550
2589.473265,919.314598,814.226536,8808.450710
2589.473594,-459.657299,-222.061783,9770.718434
2589.473923,536.266849,-518.144159,9326.594869
2589.474253,-536.266849,-962.267725,9474.636058
2589.474582,-1302.362347,-814.226536,9770.718434
2589.474911,-1149.143247,-962.267725,10066.800811
2589.475240,-612.876398,-518.144159,9696.697840
2589.475569,-689.485948,-666.185348,9030.512492
2589.475898,-306.438199,-222.061783,9474.636058
2589.476227,-1302.362347,-518.144159,9696.697840
2589.476557,-459.657299,296.082377,8586.388927
2589.476886,-536.266849,-0.000000,9030.512492
2589.477215,-1455.581446,592.164754,8438.347739
2589.477544,-1149.143247,-74.020594,8956.491898
2589.477873,-1302.362347,370.102971,8734.430116
2589.478202,-995.924147,-148.041188,9104.533087
2589.478532,-689.485948,-444.123565,8734.430116
2589.478861,-1225.752797,-0.000000,9030.512492
2589.479190,-1225.752797,-592.164754,9474.636058
2589.479519,0.000000,-592.164754,9178.553681
2589.479849,536.266849,-666.185348,8808.450710
2589.480178,459.657299,-444.123565,9104.533087
2589.480507,842.705048,-0.000000,8586.388927
2589.480836,766.095498,1036.288319,8512.368333
2589.481166,842.705048,740.205942,8364.327145
2589.481495,536.266849,1184.329507,9178.553681
2589.481824,153.219100,-0.000000,9104.533087
2589.482154,-229.828649,-444.123565,9326.594869
2589.482483,-689.485948,-814.226536,9326.594869
2589.482812,-459.657299,-962.267725,9474.636058
2589.483141,-1149.143247,-1702.473667,9696.697840
2589.483471,0.000000,-1406.391290,10140.821405
2589.483800,842.705048,-1036.288319,9400.615463
2589.484129,842.705048,-814.226536,8882.471304
2589.484459,1838.629195,-148.041188,8660.409521
2589.484788,1685.410096,666.185348,8068.244768
2589.485117,2451.505594,1406.391290,7772.162391
2589.485446,1532.190996,1332.370696,8586.388927
2589.485776,1225.752797,814.226536,8586.388927
2589.486105,689.485948,296.082377,9474.636058
2589.486434,459.657299,-74.020594,9104.533087
2589.486763,0.000000,-592.164754,9400.615463
2589.487093,0.000000,-814.226536,9548.656652
2589.487422,229.828649,-1184.329507,9474.636058
2589.487751,1149.143247,-962.267725,9992.780217
2589.488081,1302.362347,-814.226536,9548.656652
2589.488410,2221.676944,-592.164754,8512.368333
2589.488739,2681.334243,296.082377,8512.368333
2589.489068,2911.162892,888.247130,7772.162391
2589.489398,2451.505594,1110.308913,7846.182985
2589.489727,2528.115143,1184.329507,8882.471304
2589.490056,1455.581446,592.164754,9104.533087
2589.490386,995.924147,-0.000000,9474.636058
2589.490715,306.438199,-296.082377,9548.656652
2589.491044,-306.438199,-666.185348,9474.636058
2589.491373,-612.876398,-1110.308913,9844.739029
2589.491703,-383.047749,-888.247130,9696.697840
2589.492032,0.000000,-1406.391290,9918.759623
2589.492361,612.876398,-962.267725,9326.594869
2589.492691,1072.533697,-444.123565,9178.553681
2589.493020,842.705048,-296.082377,8364.327145
2589.493349,459.657299,444.123565,7994.224174
2589.493678,383.047749,814.226536,8438.347739
2589.494008,459.657299,370.102971,8956.491898
2589.494337,-306.438199,296.082377,8956.491898
2589.494666,-689.485948,-148.041188,9844.739029
2589.494995,-995.924147,-740.205942,10140.821405
2589.495325,-1302.362347,-1406.391290,8808.450710
2589.495654,-1225.752797,-518.144159,9696.697840
2589.495983,-919.314598,-740.205942,9770.718434
2589.496313,-689.485948,-962.267725,8882.471304
2589.496642,-153.219100,-666.185348,8808.450710
2589.496971,689.485948,-1110.308913,8882.471304
2589.497300,383.047749,-0.000000,7920.203579
2589.497630,842.705048,740.205942,7920.203579
2589.497959,766.095498,1036.288319,7698.141797
2589.498288,459.657299,1110.308913,8142.265362
2589.498618,0.000000,444.123565,8512.368333
2589.498947,383.047749,-148.041188,8734.430116
2589.499276,-459.657299,-0.000000,8734.430116
2589.499605,-1072.533697,-740.205942,8882.471304
2589.499935,-1378.971896,-1184.329507,9400.615463
2589.500264,-842.705048,-888.247130,10066.800811
2589.500593,-612.876398,-1184.329507,9696.697840
2589.500923,-842.705048,-1036.288319,9400.615463
2589.501252,-766.095498,-962.267725,9844.739029
2589.501581,-1149.143247,-296.082377,9326.594869
2589.501910,-383.047749,-0.000000,9400.615463
2589.502240,-459.657299,444.123565,9474.636058
2589.502569,-612.876398,518.144159,9252.574275
2589.502898,-306.438199,148.041188,9326.594869
2589.503227,0.000000,222.061783,8956.491898
2589.503557,76.609550,-666.185348,8734.430116
2589.503886,383.047749,-518.144159,9030.512492
2589.504215,842.705048,-666.185348,9400.615463
2589.504545,842.705048,-370.102971,9104.533087
2589.504874,1455.581446,-814.226536,9474.636058
2589.505203,1302.362347,-444.123565,9178.553681
2589.505532,1608.800546,148.041188,8808.450710
2589.505862,1302.362347,518.144159,9104.533087
2589.506191,1225.752797,518.144159,9178.553681
2589.506520,919.314598,740.205942,9474.636058
2589.506850,1149.143247,-0.000000,9844.739029
2589.507179,842.705048,-0.000000,9326.594869
2589.507508,1072.533697,-296.082377,9326.594869
2589.507837,995.924147,-74.020594,9252.574275
2589.508167,995.924147,-0.000000,9030.512492
2589.508496,1302.362347,-148.041188,9178.553681
2589.508825,2145.067394,-148.041188,9030.512492
2589.509154,2604.724693,-370.102971,8512.368333
2589.509484,1991.848295,-0.000000,8216.285956
2589.509813,1991.848295,-296.082377,7920.203579
2589.510142,1685.410096,740.205942,7624.121203
2589.510472,459.657299,296.082377,9104.533087
2589.510801,383.047749,-0.000000,9992.780217
2589.511130,-153.219100,-222.061783,9992.780217
2589.511459,-1225.752797,-666.185348,9030.512492
2589.511789,1149.143247,-74.020594,9326.594869
2589.512118,-229.828649,-1702.473667,9474.636058
2589.512447,-153.219100,-74.020594,9548.656652
2589.512777,919.314598,-1036.288319,9178.553681
2589.513106,1149.143247,-740.205942,8512.368333
2589.513435,1762.019645,-888.247130,8438.347739
2589.513764,1991.848295,-0.000000,8512.368333
2589.514094,919.314598,-0.000000,7994.224174
2589.514423,1915.238745,814.226536,8808.450710
2589.514752,919.314598,370.102971,8586.388927
2589.515082,153.219100,-0.000000,9326.594869
2589.515411,-229.828649,-518.144159,9474.636058
2589.515740,-459.657299,-444.123565,9770.718434
2589.516069,-459.657299,-962.267725,9622.677246
2589.516399,-612.876398,-518.144159,9178.553681
2589.516728,0.000000,-666.185348,9918.759623
2589.517057,0.000000,-370.102971,9548.656652
2589.517386,0.000000,-962.267725,9326.594869
2589.517716,76.609550,-888.247130,9474.636058
2589.518045,76.609550,-148.041188,8216.285956
2589.518374,229.828649,296.082377,7994.224174
2589.518704,0.000000,888.247130,7920.203579
2589.519033,-229.828649,1036.288319,8882.471304
2589.519362,-383.047749,-0.000000,8808.450710
2589.519691,-919.314598,-222.061783,8956.491898
2589.520021,-612.876398,-444.123565,8734.430116
2589.520350,-842.705048,-296.082377,8660.409521
2589.520679,-1378.971896,-518.144159,9326.594869
2589.521009,0.000000,-740.205942,9992.780217
2589.521338,-229.828649,-814.226536,9548.656652
2589.521667,-612.876398,-666.185348,9548.656652
2589.521996,-612.876398,-0.000000,9474.636058
2589.522326,-1225.752797,-0.000000,9474.636058
2589.522655,-1225.752797,-0.000000,9252.574275
2589.522984,-383.047749,296.082377,9548.656652
2589.523313,76.609550,666.185348,9474.636058
2589.523643,76.609550,296.082377,8586.388927
2589.523972,-459.657299,148.041188,8586.388927
2589.524301,0.000000,-444.123565,9178.553681
2589.524631,0.000000,-666.185348,8586.388927
2589.524960,-229.828649,-370.102971,9178.553681
2589.525289,689.485948,-1110.308913,9400.615463
2589.525618,919.314598,-1258.350101,7920.203579
2589.525948,1302.362347,296.082377,9326.594869
2589.526277,1149.143247,-370.102971,9030.512492
2589.526606,612.876398,444.123565,8882.471304
2589.526936,383.047749,-0.000000,9400.615463
2589.527265,383.047749,1036.288319,9104.533087
2589.527594,0.000000,-0.000000,9770.718434
2589.527923,76.609550,-0.000000,9548.656652
2589.528253,76.609550,-222.061783,9400.615463
2589.528582,153.219100,-592.164754,9548.656652
2589.528911,0.000000,-1184.329507,9252.574275
2589.529241,536.266849,-444.123565,9474.636058
2589.529570,1302.362347,-740.205942,9400.615463
2589.529899,2451.505594,-222.061783,8808.450710
2589.530228,2528.115143,962.267725,8956.491898
2589.530558,2757.943793,814.226536,8290.306550
2589.530887,2451.505594,1110.308913,8364.327145
2589.531216,2451.505594,1184.329507,8290.306550
2589.531545,2145.067394,1184.329507,8586.388927
2589.531875,1915.238745,370.102971,8808.450710
2589.532204,1532.190996,-0.000000,8882.471304
2589.532533,842.705048,518.144159,9770.718434
2589.532863,919.314598,-444.123565,9178.553681
2589.533192,459.657299,-370.102971,8956.491898
2589.533521,536.266849,-592.164754,9474.636058
2589.533850,919.314598,-592.164754,9474.636058
2589.534180,919.314598,-1184.329507,8882.471304
2589.534509,1378.971896,-518.144159,9104.533087
2589.534838,1149.143247,-74.020594,9104.533087
2589.535168,766.095498,-148.041188,8216.285956
2589.535497,383.047749,222.061783,8882.471304
2589.535826,229.828649,296.082377,9178.553681
2589.536155,-459.657299,-0.000000,9548.656652
2589.536485,-612.876398,-518.144159,9400.615463
2589.536814,-229.828649,-666.185348,9696.697840
2589.537143,-842.705048,-814.226536,9400.615463
2589.537472,-842.705048,-592.164754,9770.718434
2589.537802,0.000000,-740.205942,9770.718434
2589.538131,306.438199,-444.123565,9104.533087
2589.538460,689.485948,-518.144159,9030.512492
2589.538790,766.095498,-74.020594,8290.306550
2589.539119,766.095498,740.205942,8068.244768
2589.539448,919.314598,444.123565,8512.368333
2589.539777,306.438199,592.164754,8290.306550
2589.540107,-383.047749,-222.061783,9030.512492
2589.540436,-612.876398,-518.144159,9474.636058
2589.540765,-766.095498,-518.144159,9400.615463
2589.541095,-1072.533697,-370.102971,9104.533087
2589.541424,-842.705048,-814.226536,9178.553681
2589.541753,-459.657299,-592.164754,9474.636058
2589.542082,-842.705048,-592.164754,9400.615463
2589.542412,-229.828649,-814.226536,8586.388927
2589.542741,0.000000,-518.144159,8882.471304
2589.543070,0.000000,-0.000000,8290.306550
2589.543400,0.000000,518.144159,7846.182985
2589.543729,0.000000,962.267725,8808.450710
2589.544058,-612.876398,-0.000000,8808.450710
2589.544387,-766.095498,-0.000000,8956.491898
2589.544717,-995.924147,-592.164754,9400.615463
2589.545046,-1225.752797,-148.041188,9326.594869
2589.545375,-1532.190996,-1036.288319,9400.615463
2589.545704,-995.924147,-888.247130,9326.594869
2589.546034,-459.657299,-814.226536,9400.615463
2589.546363,229.828649,-1110.308913,9252.574275
2589.546692,995.924147,-1110.308913,9400.615463
2589.547022,1149.143247,-666.185348,8734.430116
2589.547351,1838.629195,370.102971,8364.327145
2589.547680,1762.019645,814.226536,8512.368333
2589.548009,1532.190996,888.247130,8512.368333
2589.548339,995.924147,666.185348,8882.471304
2589.548668,1225.752797,-222.061783,9326.594869
2589.548997,1072.533697,-370.102971,9474.636058
2589.549327,612.876398,-0.000000,9326.594869
2589.549656,153.219100,-444.123565,9252.574275
2589.549985,153.219100,-1110.308913,9622.677246
2589.550314,1149.143247,-740.205942,9918.759623
2589.550644,1838.629195,-814.226536,9400.615463
2589.550973,2068.457845,-148.041188,8734.430116
2589.551302,1915.238745,444.123565,8882.471304
2589.551631,1149.143247,592.164754,8882.471304
2589.551961,1608.800546,1036.288319,8290.306550
2589.552290,689.485948,1406.391290,9178.553681
2589.552619,459.657299,-0.000000,9474.636058
2589.552949,76.609550,-74.020594,9918.759623
2589.553278,0.000000,-518.144159,9474.636058
2589.553607,459.657299,-1110.308913,9400.615463
2589.553936,0.000000,-1036.288319,9252.574275
2589.554266,459.657299,148.041188,9696.697840
2589.554595,919.314598,-370.102971,9400.615463
2589.554924,1991.848295,-444.123565,8808.450710
2589.555254,2451.505594,-0.000000,8364.327145
2589.555583,2451.505594,740.205942,8068.244768
2589.555912,1991.848295,962.267725,8290.306550
2589.556241,1608.800546,666.185348,8290.306550
2589.556571,1225.752797,592.164754,8808.450710
2589.556900,306.438199,-370.102971,9474.636058
2589.557229,-459.657299,-592.164754,9030.512492
2589.557559,-689.485948,-518.144159,9030.512492
2589.557888,-766.095498,-1332.370696,9400.615463
2589.558217,-919.314598,-1480.411884,9770.718434
2589.558546,-689.485948,-1184.329507,9992.780217
2589.558876,0.000000,-1332.370696,10510.924376
2589.559205,612.876398,-962.267725,9178.553681
2589.559534,995.924147,-0.000000,8734.430116
2589.559863,1072.533697,666.185348,8512.368333
2589.560193,842.705048,1184.329507,8438.347739
2589.560522,536.266849,1406.391290,8586.388927
2589.560851,0.000000,1110.308913,7994.224174
2589.561181,0.000000,370.102971,8734.430116
2589.561510,-995.924147,-0.000000,9400.615463
2589.561839,-1072.533697,-666.185348,9400.615463
2589.562168,-1838.629195,-1332.370696,9696.697840
2589.562498,-1838.629195,-1258.350101,9622.677246
2589.562827,-1378.971896,-1036.288319,9474.636058
2589.563156,-1072.533697,-1184.329507,9400.615463
2589.563486,-766.095498,-666.185348,9326.594869
2589.563815,-995.924147,-740.205942,9474.636058
2589.564144,-919.314598,-296.082377,8956.491898
2589.564473,-612.876398,592.164754,8660.409521
2589.564803,-153.219100,814.226536,8660.409521
2589.565132,-229.828649,444.123565,8882.471304
2589.565461,0.000000,666.185348,9178.553681
2589.565791,229.828649,-0.000000,8808.450710
2589.566120,0.000000,-0.000000,8586.388927
2589.566449,153.219100,-74.020594,8956.491898
2589.566778,153.219100,-444.123565,9474.636058
2589.567108,536.266849,-666.185348,8808.450710
2589.567437,766.095498,-1110.308913,9030.512492
2589.567766,536.266849,-592.164754,8808.450710
2589.568095,1532.190996,-444.123565,8586.388927
2589.568425,536.266849,-0.000000,8216.285956
2589.568754,306.438199,370.102971,8808.450710
2589.569083,383.047749,-0.000000,9104.533087
2589.569413,76.609550,-222.061783,9474.636058
2589.569742,-229.828649,-370.102971,9770.718434
2589.570071,0.000000,-592.164754,10214.842000
2589.570400,-842.705048,-370.102971,9992.780217
2589.570730,153.219100,-518.144159,9696.697840
2589.571059,766.095498,-444.123565,9992.780217
2589.571388,1762.019645,-296.082377,9104.533087
2589.571718,2451.505594,-0.000000,8808.450710
2589.572047,2757.943793,888.247130,9104.533087
2589.572376,1532.190996,592.164754,8734.430116
2589.572705,2604.724693,1036.288319,8586.388927
2589.573035,2068.457845,740.205942,8512.368333
2589.573364,995.924147,370.102971,9030.512492
2589.573693,995.924147,-518.144159,9474.636058
2589.574022,459.657299,-740.205942,9474.636058
2589.574352,306.438199,-740.205942,9622.677246
2589.574681,229.828649,-666.185348,9548.656652
2589.575010,0.000000,-1258.350101,9992.780217
2589.575340,919.314598,-592.164754,9770.718434
2589.575669,1685.410096,-814.226536,9326.594869
2589.575998,1302.362347,-222.061783,8734.430116
2589.576327,1762.019645,-148.041188,8808.450710
2589.576657,1378.971896,666.185348,7994.224174
2589.576986,1608.800546,592.164754,8364.327145
2589.577315,1225.752797,814.226536,8216.285956
2589.577645,153.219100,222.061783,8512.368333
2589.577974,-536.266849,148.041188,9400.615463
2589.578303,-459.657299,-518.144159,9030.512492
2589.578632,-1072.533697,-444.123565,8956.491898
2589.578962,-1149.143247,-814.226536,9696.697840
2589.579291,-1455.581446,-1110.308913,9918.759623
2589.579620,-306.438199,-962.267725,9474.636058
2589.579950,0.000000,-1628.453072,9474.636058
2589.580279,536.266849,-222.061783,9252.574275
2589.580608,766.095498,296.082377,8364.327145
2589.580937,689.485948,666.185348,8290.306550
2589.581266,1532.190996,1110.308913,8512.368333
2589.581596,306.438199,1184.329507,8512.368333
2589.581925,0.000000,370.102971,9030.512492
2589.582254,-612.876398,-370.102971,9326.594869
2589.582583,-1302.362347,-370.102971,9474.636058
2589.582913,-1455.581446,-888.247130,9548.656652
2589.583242,-1838.629195,-1184.329507,9548.656652
2589.583571,-842.705048,-1406.391290,9918.759623
2589.583900,-1149.143247,-1406.391290,9474.636058
2589.584229,-153.219100,-888.247130,9400.615463
2589.584559,-536.266849,-370.102971,9252.574275
2589.584888,1072.533697,740.205942,7328.038826
2589.585217,536.266849,1110.308913,7772.162391
2589.585546,-229.828649,2146.597232,9178.553681
2589.585875,76.609550,444.123565,9326.594869
2589.586205,-383.047749,-0.000000,8660.409521
2589.586534,-842.705048,-0.000000,7994.224174
2589.586863,-459.657299,-222.061783,8882.471304
2589.587192,-1072.533697,-1406.391290,9770.718434
2589.587522,-842.705048,-1110.308913,9918.759623
2589.587851,0.000000,-1184.329507,9474.636058
2589.588180,229.828649,-814.226536,8882.471304
2589.588509,689.485948,-518.144159,9252.574275
2589.588838,1378.971896,-0.000000,8808.450710
2589.589168,1302.362347,-0.000000,7994.224174
2589.589497,1838.629195,962.267725,8586.388927
2589.589826,1608.800546,888.247130,8438.347739
2589.590155,1072.533697,666.185348,9104.533087
2589.590484,842.705048,-148.041188,9030.512492
2589.590814,689.485948,-222.061783,9252.574275
2589.591143,383.047749,-666.185348,9474.636058
2589.591472,306.438199,-740.205942,9548.656652
2589.591801,612.876398,-1332.370696,9326.594869
2589.592131,1149.143247,-1258.350101,9474.636058
2589.592460,1991.848295,-1110.308913,8956.491898
2589.592789,2145.067394,-666.185348,8808.450710
2589.593118,1685.410096,222.061783,8364.327145
2589.593447,1915.238745,814.226536,8216.285956
2589.593777,1838.629195,1036.288319,8586.388927
2589.594106,1455.581446,444.123565,8956.491898
2589.594435,1072.533697,-222.061783,9326.594869
2589.594764,76.609550,-444.123565,9622.677246
2589.595093,0.000000,-666.185348,9326.594869
2589.595423,0.000000,-518.144159,9474.636058
2589.595752,-229.828649,-592.164754,9696.697840
2589.596081,459.657299,-740.205942,9696.697840
2589.596410,1455.581446,-148.041188,9474.636058
2589.596739,1378.971896,-518.144159,8956.491898
2589.597069,1762.019645,-0.000000,8586.388927
2589.597398,1455.581446,592.164754,7994.224174
2589.597727,1378.971896,1184.329507,8216.285956
2589.598056,1225.752797,1036.288319,8364.327145
2589.598386,612.876398,740.205942,8956.491898
2589.598715,-306.438199,74.020594,9104.533087
2589.599044,306.438199,-444.123565,9696.697840
2589.599373,-612.876398,-1110.308913,9326.594869
2589.599702,-1225.752797,-888.247130,9622.677246
2589.600032,-995.924147,-1702.473667,9844.739029
2589.600361,-842.705048,-1332.370696,9326.594869
2589.600690,229.828649,-962.267725,8808.450710
2589.601019,0.000000,-740.205942,8956.491898
2589.601348,76.609550,-74.020594,8364.327145
2589.601678,536.266849,666.185348,8068.244768
2589.602007,459.657299,1258.350101,8216.285956
2589.602336,0.000000,888.247130,9104.533087
2589.602665,-306.438199,518.144159,8660.409521
2589.602995,-459.657299,-296.082377,9326.594869
2589.603324,-995.924147,-1184.329507,9104.533087
2589.603653,-1225.752797,-962.267725,9696.697840
2589.603982,-1532.190996,-1036.288319,9474.636058
2589.604311,-1302.362347,-1184.329507,9844.739029
2589.604641,-612.876398,-1110.308913,9548.656652
2589.604970,-766.095498,-888.247130,9400.615463
2589.605299,-689.485948,-962.267725,10140.821405
2589.605628,0.000000,-370.102971,9400.615463
2589.605957,536.266849,814.226536,8438.347739
2589.606287,229.828649,666.185348,8364.327145
2589.606616,306.438199,1110.308913,8808.450710
2589.606945,383.047749,296.082377,9104.533087
2589.607274,0.000000,-0.000000,8882.471304
2589.607603,153.219100,-0.000000,9178.553681
2589.607933,-229.828649,-370.102971,8956.491898
2589.608262,-766.095498,-444.123565,9178.553681
2589.608591,-612.876398,-1110.308913,9400.615463
2589.608920,-229.828649,-1406.391290,9548.656652
2589.609250,383.047749,-1110.308913,9178.553681
2589.609579,306.438199,-222.061783,8882.471304
2589.609908,612.876398,-74.020594,8956.491898
2589.610237,0.000000,666.185348,8438.347739
2589.610566,1378.971896,1110.308913,8956.491898
2589.610896,1149.143247,962.267725,8586.388927
2589.611225,1225.752797,-0.000000,8882.471304
2589.611554,1072.533697,-0.000000,9104.533087
2589.611883,1149.143247,-222.061783,8586.388927
2589.612212,536.266849,-666.185348,9474.636058
2589.612542,1072.533697,-666.185348,9400.615463
2589.612871,1685.410096,-296.082377,9326.594869
2589.613200,1762.019645,-296.082377,9326.594869
2589.613529,2145.067394,-296.082377,8734.430116
2589.613859,2298.286494,-0.000000,8660.409521
2589.614188,2068.457845,-74.020594,8660.409521
2589.614517,1838.629195,370.102971,8808.450710
2589.614846,1762.019645,296.082377,9104.533087
2589.615175,1149.143247,-0.000000,9178.553681
2589.615505,842.705048,-0.000000,9696.697840
2589.615834,306.438199,-222.061783,9548.656652
2589.616163,229.828649,-222.061783,9178.553681
2589.616492,76.609550,-592.164754,9770.718434
2589.616821,612.876398,-814.226536,10140.821405
2589.617151,1149.143247,-888.247130,9474.636058
2589.617480,1302.362347,-888.247130,9104.533087
2589.617809,1762.019645,-0.000000,8290.306550
2589.618138,1608.800546,518.144159,8216.285956
2589.618467,1302.362347,814.226536,7550.100608
2589.618797,1149.143247,1332.370696,8512.368333
2589.619126,383.047749,666.185348,8882.471304
2589.619455,459.657299,-74.020594,9178.553681
2589.619784,-689.485948,-814.226536,9474.636058
2589.620114,-1378.971896,-888.247130,9622.677246
2589.620443,-1455.581446,-740.205942,9474.636058
2589.620772,-1149.143247,-666.185348,9474.636058
2589.621101,-842.705048,-1184.329507,9696.697840
2589.621430,-229.828649,-1258.350101,9178.553681
2589.621760,-612.876398,-888.247130,9400.615463
2589.622089,-306.438199,-592.164754,9474.636058
2589.622418,-153.219100,-0.000000,9474.636058
2589.622747,689.485948,370.102971,8068.244768
2589.623076,76.609550,1110.308913,8512.368333
2589.623406,536.266849,814.226536,8586.388927
2589.623735,0.000000,148.041188,8956.491898
2589.624064,0.000000,296.082377,8734.430116
2589.624393,-536.266849,-0.000000,8290.306550
2589.624723,0.000000,-444.123565,8586.388927
2589.625052,-1378.971896,-740.205942,9400.615463
2589.625381,-459.657299,-888.247130,9326.594869
2589.625710,-842.705048,-1776.494261,9400.615463
2589.626039,-536.266849,-1850.514855,9770.718434
2589.626369,-1225.752797,-1036.288319,9474.636058
2589.626698,-459.657299,-74.020594,9400.615463
2589.627027,-1072.533697,-0.000000,8882.471304
2589.627356,-229.828649,592.164754,9252.574275
2589.627685,0.000000,962.267725,9474.636058
2589.628015,0.000000,592.164754,9104.533087
2589.628344,153.219100,-74.020594,9548.656652
2589.628673,-306.438199,-74.020594,9400.615463
2589.629002,0.000000,-370.102971,8882.471304
2589.629331,229.828649,-222.061783,9400.615463
2589.629661,689.485948,-666.185348,9178.553681
2589.629990,1685.410096,-740.205942,8512.368333
2589.630319,1685.410096,-0.000000,8586.388927
2589.630648,1149.143247,222.061783,7994.224174
2589.630978,689.485948,-0.000000,8586.388927
2589.631307,306.438199,222.061783,9104.533087
2589.631636,536.266849,-74.020594,9252.574275
2589.631965,919.314598,-740.205942,9400.615463
2589.632294,459.657299,-1036.288319,9326.594869
2589.632624,536.266849,-222.061783,9474.636058
2589.632953,842.705048,148.041188,9030.512492
2589.633282,766.095498,-222.061783,9104.533087
2589.633611,1685.410096,-74.020594,9770.718434
2589.633940,2451.505594,-0.000000,8956.491898
2589.634270,2374.896044,-74.020594,8586.388927
2589.634599,2298.286494,-0.000000,7994.224174
2589.634928,2221.676944,518.144159,7920.203579
2589.635257,1685.410096,518.144159,8290.306550
2589.635587,1225.752797,222.061783,8660.409521
2589.635916,536.266849,-222.061783,9326.594869
2589.636245,0.000000,-1036.288319,9548.656652
2589.636574,-536.266849,-1184.329507,9770.718434
2589.636903,-229.828649,-1110.308913,9844.739029
2589.637233,-612.876398,-888.247130,9844.739029
2589.637562,0.000000,-592.164754,10140.821405
2589.637891,766.095498,-370.102971,9918.759623
2589.638220,1838.629195,-296.082377,9252.574275
2589.638549,2298.286494,-0.000000,8882.471304
2589.638879,2911.162892,814.226536,8290.306550
2589.639208,2451.505594,888.247130,7994.224174
2589.639537,1838.629195,1184.329507,7994.224174
2589.639866,919.314598,888.247130,8660.409521
2589.640196,76.609550,-74.020594,9326.594869
2589.640525,-995.924147,-296.082377,9696.697840
2589.640854,-612.876398,-888.247130,10510.924376
2589.641183,-1455.581446,-1776.494261,9548.656652
2589.641512,-1915.238745,-962.267725,10658.965565
2589.641842,-1072.533697,-1184.329507,10288.862594
2589.642171,-995.924147,-1036.288319,8216.285956
2589.642500,-229.828649,-666.185348,8734.430116
2589.642829,229.828649,-296.082377,9252.574275
2589.643158,459.657299,-0.000000,7772.162391
2589.643488,919.314598,1184.329507,7624.121203
2589.643817,842.705048,1184.329507,9178.553681
2589.644146,153.219100,1110.308913,8216.285956
2589.644475,229.828649,-0.000000,8512.368333
2589.644804,0.000000,814.226536,8364.327145
2589.645134,-536.266849,-444.123565,8586.388927
2589.645463,-1149.143247,-1110.308913,9548.656652
2589.645792,-1455.581446,-1406.391290,9548.656652
2589.646121,-842.705048,-2072.576638,9770.718434
2589.646451,-306.438199,-1776.494261,9326.594869
2589.646780,-459.657299,-1184.329507,9252.574275
2589.647109,-536.266849,-592.164754,9400.615463
2589.647438,229.828649,444.123565,8438.347739
2589.647767,153.219100,666.185348,8438.347739
2589.648097,1072.533697,1184.329507,8734.430116
2589.648426,612.876398,740.205942,8734.430116
2589.648755,0.000000,-74.020594,9178.553681
2589.649084,-306.438199,-296.082377,9104.533087
2589.649413,-153.219100,-444.123565,9400.615463
2589.649743,-612.876398,-814.226536,9252.574275
2589.650072,-536.266849,-1332.370696,9474.636058
2589.650401,0.000000,-1258.350101,9918.759623
2589.650730,229.828649,-1036.288319,9178.553681
2589.651060,689.485948,-370.102971,9178.553681
2589.651389,689.485948,-0.000000,8808.450710
2589.651718,766.095498,666.185348,8512.368333
2589.652047,536.266849,1110.308913,8512.368333
2589.652376,612.876398,1332.370696,9252.574275
2589.652706,153.219100,370.102971,9252.574275
2589.653035,306.438199,-0.000000,9844.739029
2589.653364,536.266849,-0.000000,9548.656652
2589.653693,229.828649,-222.061783,9548.656652
2589.654022,229.828649,-444.123565,9918.759623
2589.654352,842.705048,-74.020594,9696.697840
2589.654681,1532.190996,-222.061783,9400.615463
2589.655010,2987.772442,-0.000000,9104.533087
2589.655339,2374.896044,592.164754,8068.244768
2589.655668,2451.505594,370.102971,8290.306550
2589.655998,2068.457845,444.123565,7920.203579
2589.656327,1149.143247,1332.370696,8956.491898
2589.656656,842.705048,-370.102971,9548.656652
2589.656985,153.219100,-0.000000,9178.553681
2589.657315,536.266849,-222.061783,9622.677246
2589.657644,0.000000,-1184.329507,9178.553681
2589.657973,-383.047749,-1036.288319,9696.697840
2589.658302,-459.657299,-888.247130,10362.883188
2589.658631,383.047749,-962.267725,9474.636058
2589.658961,919.314598,-1036.288319,9474.636058
2589.659290,1915.238745,-888.247130,9178.553681
2589.659619,1378.971896,-0.000000,8142.265362
2589.659948,1532.190996,444.123565,8364.327145
2589.660277,1302.362347,962.267725,7550.100608
2589.660607,919.314598,1480.411884,7994.224174
2589.660936,383.047749,444.123565,9030.512492
2589.661265,-153.219100,-370.102971,9252.574275
2589.661594,-1072.533697,-814.226536,9326.594869
2589.661924,-1225.752797,-1332.370696,9030.512492
2589.662253,-1302.362347,-1332.370696,9474.636058
2589.662582,-1378.971896,-1036.288319,9696.697840
2589.662911,-766.095498,-1036.288319,9622.677246
2589.663240,-306.438199,-1110.308913,9400.615463
2589.663570,459.657299,-666.185348,9252.574275
2589.663899,995.924147,-74.020594,7846.182985
2589.664228,1455.581446,814.226536,7402.059420
2589.664557,1915.238745,1628.453072,7772.162391
2589.664886,1532.190996,1628.453072,8142.265362
2589.665216,842.705048,888.247130,8364.327145
2589.665545,536.266849,370.102971,8586.388927
2589.665874,-536.266849,-0.000000,9252.574275
2589.666203,-612.876398,-814.226536,8734.430116
2589.666532,-1455.581446,-1184.329507,9474.636058
2589.666862,-1915.238745,-1184.329507,10066.800811
2589.667191,-995.924147,-1258.350101,9474.636058
2589.667520,-919.314598,-1184.329507,9400.615463
2589.667849,-1225.752797,-962.267725,9400.615463
2589.668179,-842.705048,-370.102971,9178.553681
2589.668508,-1302.362347,-222.061783,8882.471304
2589.668837,-229.828649,666.185348,9178.553681
2589.669166,-536.266849,222.061783,9326.594869
2589.669495,-229.828649,444.123565,9548.656652
2589.669825,-153.219100,-0.000000,9474.636058
2589.670154,383.047749,370.102971,9030.512492
2589.670483,-536.266849,-0.000000,8808.450710
2589.670812,459.657299,-518.144159,9252.574275
2589.671141,689.485948,-666.185348,9992.780217
2589.671471,306.438199,-592.164754,9696.697840
2589.671800,842.705048,-1332.370696,9326.594869
2589.672129,919.314598,-0.000000,9474.636058
2589.672458,689.485948,-0.000000,8734.430116
2589.672788,383.047749,888.247130,9252.574275
2589.673117,0.000000,444.123565,8956.491898
2589.673446,459.657299,-444.123565,9474.636058
2589.673775,383.047749,-148.041188,9622.677246
2589.674104,306.438199,-296.082377,9548.656652
2589.674434,766.095498,-74.020594,9326.594869
2589.674763,383.047749,-0.000000,9400.615463
2589.675092,1455.581446,148.041188,9104.533087
2589.675421,1991.848295,-518.144159,8586.388927
2589.675750,2298.286494,-296.082377,8956.491898
2589.676080,2451.505594,-148.041188,8734.430116
2589.676409,2374.896044,296.082377,7994.224174
2589.676738,1378.971896,592.164754,7920.203579
2589.677067,1072.533697,592.164754,8364.327145
2589.677397,459.657299,444.123565,9400.615463
2589.677726,229.828649,-666.185348,9326.594869
2589.678055,0.000000,-814.226536,9844.739029
2589.678384,76.609550,-1184.329507,9474.636058
2589.678713,-459.657299,-592.164754,9474.636058
2589.679043,0.000000,-666.185348,9622.677246
2589.679372,689.485948,-370.102971,9770.718434
2589.679701,1762.019645,-518.144159,9178.553681
2589.680030,1915.238745,-0.000000,8290.306550
2589.680360,3294.210641,-0.000000,8438.347739
2589.680689,3140.991542,666.185348,7402.059420
2589.681018,2681.334243,1554.432478,7698.141797
2589.681347,2145.067394,1184.329507,8216.285956
2589.681677,1149.143247,814.226536,8734.430116
2589.682006,229.828649,-74.020594,9400.615463
2589.682335,-306.438199,-814.226536,9844.739029
2589.682665,-1532.190996,-1036.288319,10140.821405
2589.682994,-1915.238745,-1554.432478,10066.800811
2589.683323,-1608.800546,-962.267725,10362.883188
2589.683652,-1225.752797,-1110.308913,10140.821405
2589.683982,-766.095498,-592.164754,9474.636058
2589.684311,153.219100,-148.041188,9474.636058
2589.684640,689.485948,-296.082377,9030.512492
2589.684969,689.485948,592.164754,8364.327145
2589.685299,383.047749,740.205942,8068.244768
2589.685628,229.828649,1036.288319,8512.368333
2589.685957,0.000000,814.226536,8734.430116
2589.686287,0.000000,-0.000000,9030.512492
2589.686616,-383.047749,-74.020594,9178.553681
2589.686945,-1072.533697,-962.267725,8956.491898
2589.687274,-306.438199,-888.247130,9474.636058
2589.687604,-1072.533697,-1406.391290,9696.697840
2589.687933,-766.095498,-1332.370696,9696.697840
2589.688262,0.000000,-518.144159,8882.471304
2589.688591,306.438199,-74.020594,8956.491898
2589.688921,536.266849,592.164754,8364.327145
2589.689250,306.438199,888.247130,7920.203579
2589.689579,1225.752797,888.247130,8364.327145
2589.689909,689.485948,518.144159,8808.450710
2589.690238,0.000000,-0.000000,9030.512492
2589.690567,-459.657299,-444.123565,9400.615463
2589.690896,-995.924147,-518.144159,9400.615463
2589.691226,-1302.362347,-518.144159,9178.553681
2589.691555,-1225.752797,-1110.308913,9696.697840
2589.691884,-689.485948,-1184.329507,10510.924376
2589.692213,536.266849,-1110.308913,9548.656652
2589.692543,383.047749,-666.185348,9474.636058
2589.692872,383.047749,-0.000000,9030.512492
2589.693201,689.485948,814.226536,8512.368333
2589.693531,536.266849,1184.329507,8290.306550
2589.693860,1378.971896,1480.411884,8808.450710
2589.694189,459.657299,666.185348,9104.533087
2589.694518,-229.828649,-0.000000,9400.615463
2589.694848,-306.438199,-518.144159,9918.759623
2589.695177,-842.705048,-1628.453072,9474.636058
2589.695506,-1225.752797,-1036.288319,10288.862594
2589.695835,0.000000,-2368.659014,10140.821405
2589.696165,536.266849,-1036.288319,9104.533087
2589.696494,2298.286494,-1110.308913,9104.533087
2589.696823,2451.505594,-0.000000,9474.636058
2589.697153,3370.820191,740.205942,7846.182985
2589.697482,3140.991542,1258.350101,7772.162391
2589.697811,3447.429741,1998.556043,7328.038826
2589.698140,2987.772442,2146.597232,7920.203579
2589.698470,2298.286494,1332.370696,8956.491898
2589.698799,1302.362347,296.082377,8882.471304
2589.699128,1149.143247,-1036.288319,9326.594869
2589.699457,0.000000,-1258.350101,9770.718434
2589.699787,-919.314598,-1406.391290,9548.656652
2589.700116,-766.095498,-1702.473667,10140.821405
2589.700445,-383.047749,-1406.391290,9696.697840
2589.700775,76.609550,-2072.576638,9770.718434
2589.701104,766.095498,-74.020594,9178.553681
2589.701433,919.314598,-0.000000,8512.368333
2589.701762,1762.019645,296.082377,7994.224174
2589.702092,1608.800546,1110.308913,8142.265362
2589.702421,1838.629195,1850.514855,8586.388927
2589.702750,1532.190996,740.205942,8216.285956
2589.703079,612.876398,370.102971,8734.430116
2589.703409,-229.828649,-0.000000,9178.553681
2589.703738,-383.047749,-666.185348,9474.636058
2589.704067,-919.314598,-1184.329507,9992.780217
2589.704397,-1225.752797,-1702.473667,9992.780217
2589.704726,-842.705048,-1998.556043,9992.780217
2589.705055,-383.047749,-1628.453072,9474.636058
2589.705384,0.000000,-666.185348,9474.636058
2589.705714,0.000000,-0.000000,8808.450710
2589.706043,0.000000,296.082377,8660.409521
2589.706372,842.705048,1110.308913,8290.306550
2589.706701,995.924147,1110.308913,8290.306550
2589.707031,459.657299,888.247130,8882.471304
2589.707360,76.609550,518.144159,8808.450710
2589.707689,0.000000,370.102971,9178.553681
2589.708019,-689.485948,-592.164754,8956.491898
2589.708348,-1302.362347,-518.144159,9992.780217
2589.708677,-689.485948,-1332.370696,10066.800811
2589.709006,-919.314598,-1406.391290,9474.636058
2589.709336,-1149.143247,-814.226536,9030.512492
2589.709665,-306.438199,-888.247130,9178.553681
2589.709994,-306.438199,-740.205942,8512.368333
2589.710323,-919.314598,518.144159,9030.512492
2589.710653,-153.219100,-370.102971,8882.471304
2589.710982,-459.657299,370.102971,7624.121203
2589.711311,0.000000,740.205942,8808.450710
2589.711641,-459.657299,296.082377,8734.430116
2589.711970,-612.876398,-148.041188,8734.430116
2589.712299,-612.876398,-592.164754,9400.615463
2589.712628,-842.705048,-518.144159,9178.553681
2589.712958,-153.219100,-1332.370696,9770.718434
2589.713287,229.828649,-1480.411884,9400.615463
2589.713616,459.657299,-592.164754,9326.594869
2589.713945,995.924147,-740.205942,9030.512492
2589.714275,1302.362347,222.061783,8142.265362
2589.714604,1608.800546,518.144159,8364.327145
2589.714933,1378.971896,592.164754,8956.491898
2589.715263,1072.533697,370.102971,9030.512492
2589.715592,842.705048,296.082377,8734.430116
2589.715921,919.314598,-0.000000,9178.553681
2589.716250,612.876398,-0.000000,9178.553681
2589.716580,612.876398,-296.082377,9326.594869
2589.716909,842.705048,-222.061783,9622.677246
2589.717238,1302.362347,-1036.288319,8956.491898
2589.717567,1685.410096,-444.123565,9030.512492
2589.717897,1532.190996,-592.164754,9104.533087
2589.718226,1225.752797,-148.041188,8512.368333
2589.718555,1302.362347,296.082377,8808.450710
2589.718885,1072.533697,296.082377,8956.491898
2589.719214,536.266849,592.164754,9252.574275
2589.719543,306.438199,-0.000000,9844.739029
2589.719872,153.219100,444.123565,9992.780217
2589.720202,842.705048,-296.082377,9474.636058
2589.720531,459.657299,-296.082377,9474.636058
2589.720860,612.876398,-222.061783,9622.677246
2589.721189,612.876398,-0.000000,9400.615463
2589.721519,995.924147,-518.144159,9252.574275
2589.721848,2911.162892,-296.082377,8068.244768
2589.722177,2145.067394,-222.061783,8290.306550
2589.722507,1378.971896,444.123565,8290.306550
2589.722836,1532.190996,296.082377,8512.368333
2589.723165,842.705048,1036.288319,8290.306550
2589.723494,153.219100,370.102971,9104.533087
2589.723824,919.314598,-1036.288319,10066.800811
2589.724153,-842.705048,-518.144159,9548.656652
2589.724482,-383.047749,-666.185348,9548.656652
2589.724811,-766.095498,-1184.329507,9918.759623
2589.725141,-766.095498,-518.144159,10066.800811
2589.725470,-459.657299,-592.164754,9844.739029
2589.725799,383.047749,-370.102971,9474.636058
2589.726129,689.485948,-222.061783,9030.512492
2589.726458,766.095498,-370.102971,8216.285956
2589.726787,536.266849,1110.308913,8142.265362
2589.727116,612.876398,814.226536,8882.471304
2589.727446,0.000000,666.185348,8808.450710
2589.727775,-536.266849,-0.000000,9104.533087
2589.728104,-1072.533697,-518.144159,9770.718434
2589.728433,-1072.533697,-518.144159,9400.615463
2589.728763,-1302.362347,-1036.288319,9474.636058
2589.729092,-2451.505594,-1110.308913,9918.759623
2589.729421,-919.314598,-592.164754,9992.780217
2589.729751,76.609550,-888.247130,8956.491898
2589.730080,459.657299,-518.144159,8882.471304
2589.730409,612.876398,222.061783,8586.388927
2589.730738,995.924147,370.102971,7624.121203
2589.731068,919.314598,1628.453072,7920.203579
2589.731397,1072.533697,962.267725,8586.388927
2589.731726,919.314598,148.041188,8882.471304
2589.732055,0.000000,-740.205942,9178.553681
2589.732385,0.000000,-518.144159,9104.533087
2589.732714,-919.314598,-1110.308913,9030.512492
2589.733043,-995.924147,-666.185348,9326.594869
2589.733373,-612.876398,-814.226536,9696.697840
2589.733702,-459.657299,-1110.308913,9326.594869
2589.734031,459.657299,-1110.308913,8734.430116
2589.734360,766.095498,-370.102971,8956.491898
2589.734690,766.095498,296.082377,8142.265362
2589.735019,842.705048,814.226536,8142.265362
2589.735348,689.485948,1258.350101,8364.327145
2589.735677,459.657299,888.247130,8956.491898
2589.736007,76.609550,-0.000000,9400.615463
2589.736336,229.828649,-814.226536,9474.636058
2589.736665,-612.876398,-888.247130,9548.656652
2589.736995,-842.705048,-1628.453072,9622.677246
2589.737324,-689.485948,-1110.308913,10140.821405
2589.737653,153.219100,-888.247130,9474.636058
2589.737982,1378.971896,-740.205942,9400.615463
2589.738312,2451.505594,-74.020594,8586.388927
2589.738641,3140.991542,222.061783,8512.368333
2589.738970,3294.210641,814.226536,7624.121203
2589.739299,2528.115143,1406.391290,7994.224174
2589.739629,2374.896044,1554.432478,8586.388927
2589.739958,1532.190996,518.144159,9474.636058
2589.740287,1072.533697,370.102971,9918.759623
2589.740617,459.657299,-740.205942,9696.697840
2589.740946,229.828649,-1110.308913,9844.739029
2589.741275,-229.828649,-888.247130,9770.718434
2589.741604,0.000000,-1110.308913,10214.842000
2589.741934,306.438199,-518.144159,9474.636058
2589.742263,1455.581446,-592.164754,9030.512492
2589.742592,2221.676944,-296.082377,8734.430116
2589.742921,2221.676944,370.102971,8142.265362
2589.743251,1991.848295,1184.329507,7624.121203
2589.743580,1838.629195,1406.391290,7772.162391
2589.743909,842.705048,1258.350101,8734.430116
2589.744239,459.657299,1036.288319,8734.430116
2589.744568,-536.266849,-148.041188,9104.533087
2589.744897,-1455.581446,-962.267725,9548.656652
2589.745226,-1762.019645,-1924.535449,9770.718434
2589.745556,-2068.457845,-1998.556043,10066.800811
2589.745885,-1915.238745,-1480.411884,10140.821405
2589.746214,-1149.143247,-888.247130,9992.780217
2589.746543,-306.438199,-740.205942,9474.636058
2589.746873,383.047749,-0.000000,9326.594869
2589.747202,1838.629195,148.041188,8882.471304
2589.747531,1991.848295,1110.308913,7624.121203
2589.747861,2298.286494,1702.473667,7624.121203
2589.748190,1532.190996,2146.597232,8290.306550
2589.748519,1225.752797,1110.308913,8512.368333
2589.748848,229.828649,-74.020594,9178.553681
2589.749178,-383.047749,-740.205942,9548.656652
2589.749507,-1225.752797,-1702.473667,9474.636058
2589.749836,-1991.848295,-1554.432478,9770.718434
2589.750165,-2298.286494,-2146.597232,9992.780217
2589.750495,-1302.362347,-1776.494261,9844.739029
2589.750824,-1225.752797,-1110.308913,9474.636058
2589.751153,-459.657299,-814.226536,8808.450710
2589.751483,-459.657299,-0.000000,8808.450710
2589.751812,459.657299,592.164754,8290.306550
2589.752141,919.314598,1258.350101,8142.265362
2589.752470,842.705048,1258.350101,8438.347739
2589.752800,536.266849,592.164754,9030.512492
2589.753129,0.000000,-0.000000,9030.512492
2589.753458,-383.047749,-444.123565,9104.533087
2589.753787,-689.485948,-1036.288319,8956.491898
2589.754117,-1225.752797,-1628.453072,9696.697840
2589.754446,-612.876398,-2220.617826,10066.800811
2589.754775,-306.438199,-1406.391290,9400.615463
2589.755105,536.266849,-1776.494261,9326.594869
2589.755434,842.705048,-444.123565,8216.285956
2589.755763,995.924147,-0.000000,8142.265362
2589.756092,1072.533697,370.102971,8290.306550
2589.756422,1991.848295,740.205942,8068.244768
2589.756751,919.314598,666.185348,8438.347739
2589.757080,995.924147,-148.041188,9030.512492
2589.757409,919.314598,-74.020594,9474.636058
2589.757739,612.876398,-74.020594,9548.656652
2589.758068,153.219100,-222.061783,9474.636058
2589.758397,383.047749,-740.205942,9474.636058
2589.758727,919.314598,-814.226536,9918.759623
2589.759056,1455.581446,-962.267725,8882.471304
2589.759385,1608.800546,-444.123565,8882.471304
2589.759714,1915.238745,-740.205942,8808.450710
2589.760044,1915.238745,-148.041188,7698.141797
2589.760373,689.485948,1184.329507,8956.491898
2589.760702,995.924147,518.144159,9252.574275
2589.761031,459.657299,740.205942,8808.450710
2589.761361,229.828649,-74.020594,9770.718434
2589.761690,-229.828649,-296.082377,9696.697840
2589.762019,-689.485948,-888.247130,10140.821405
2589.762349,-536.266849,-962.267725,10658.965565
2589.762678,0.000000,-888.247130,10140.821405
2589.763007,612.876398,-666.185348,9696.697840
2589.763336,1838.629195,-740.205942,9030.512492
2589.763666,2145.067394,444.123565,8142.265362
2589.763995,2145.067394,592.164754,8364.327145
2589.764324,2528.115143,962.267725,7772.162391
2589.764653,2604.724693,1110.308913,7698.141797
2589.764983,1149.143247,666.185348,8512.368333
2589.765312,306.438199,370.102971,9030.512492
2589.765641,0.000000,-296.082377,9400.615463
2589.765971,-766.095498,-666.185348,9548.656652
2589.766300,-1302.362347,-1036.288319,9696.697840
2589.766629,-1072.533697,-1110.308913,9400.615463
2589.766958,-1608.800546,-740.205942,9992.780217
2589.767288,0.000000,-888.247130,9844.739029
2589.767617,459.657299,-444.123565,8882.471304
2589.767946,536.266849,-0.000000,8142.265362
2589.768276,612.876398,888.247130,7994.224174
2589.768605,842.705048,1036.288319,7994.224174
2589.768934,459.657299,1110.308913,8512.368333
2589.769263,-306.438199,370.102971,9104.533087
2589.769593,-306.438199,-0.000000,9104.533087
2589.769922,-1149.143247,-296.082377,9400.615463
2589.770251,-1302.362347,-518.144159,9548.656652
2589.770580,-1762.019645,-1258.350101,9696.697840
2589.770910,-1762.019645,-1184.329507,10214.842000
2589.771239,-1225.752797,-1258.350101,9770.718434
2589.771568,-612.876398,-1184.329507,9918.759623
2589.771898,-229.828649,-666.185348,9178.553681
2589.772227,0.000000,-0.000000,8660.409521
2589.772556,536.266849,296.082377,8364.327145
2589.772885,459.657299,1036.288319,8290.306550
2589.773215,0.000000,814.226536,8882.471304
2589.773544,0.000000,-0.000000,9252.574275
2589.773873,76.609550,-592.164754,9400.615463
2589.774202,-306.438199,-962.267725,9400.615463
2589.774532,-459.657299,-888.247130,9400.615463
2589.774861,-995.924147,-888.247130,9548.656652
2589.775190,-842.705048,-1184.329507,9844.739029
2589.775520,229.828649,-666.185348,9400.615463
2589.775849,689.485948,-1332.370696,9252.574275
2589.776178,1915.238745,-0.000000,8734.430116
2589.776507,1762.019645,518.144159,8068.244768
2589.776837,1302.362347,1184.329507,7772.162391
2589.777166,919.314598,1258.350101,8142.265362
2589.777495,919.314598,1184.329507,8882.471304
2589.777824,0.000000,-74.020594,8956.491898
2589.778154,-306.438199,-888.247130,9178.553681
2589.778483,-229.828649,-1332.370696,9622.677246
2589.778812,-612.876398,-1776.494261,9696.697840
2589.779142,-536.266849,-1332.370696,9992.780217
2589.779471,536.266849,-962.267725,9548.656652
2589.779800,1532.190996,-814.226536,9400.615463
2589.780129,2451.505594,-0.000000,8734.430116
2589.780459,3064.381992,370.102971,8142.265362
2589.780788,4366.744339,1480.411884,7994.224174
2589.781117,2911.162892,1406.391290,7920.203579
2589.781446,2374.896044,1406.391290,8290.306550
2589.781776,1762.019645,1184.329507,8956.491898
2589.782105,1302.362347,-148.041188,9474.636058
2589.782434,306.438199,-592.164754,9696.697840
2589.782763,-229.828649,-1184.329507,9992.780217
2589.783092,153.219100,-1184.329507,9992.780217
2589.783421,76.609550,-1332.370696,10066.800811
2589.783750,459.657299,-1184.329507,10214.842000
2589.784079,1302.362347,-518.144159,9252.574275
2589.784408,1838.629195,-0.000000,8956.491898
2589.784738,2145.067394,518.144159,8216.285956
2589.785067,2145.067394,1332.370696,7772.162391
2589.785396,1915.238745,1480.411884,8438.347739
2589.785725,1532.190996,1258.350101,8734.430116
2589.786054,383.047749,666.185348,9104.533087
2589.786383,-306.438199,222.061783,9252.574275
2589.786712,-612.876398,-814.226536,9326.594869
2589.787041,-1532.190996,-1110.308913,9770.718434
2589.787370,-1455.581446,-1406.391290,10362.883188
2589.787700,-612.876398,-1406.391290,10436.903782
2589.788029,-995.924147,-1406.391290,9696.697840
2589.788358,0.000000,-518.144159,9326.594869
2589.788687,612.876398,-222.061783,8438.347739
2589.789016,842.705048,592.164754,7846.182985
2589.789345,919.314598,1480.411884,7698.141797
2589.789674,1149.143247,1036.288319,7846.182985
2589.790003,459.657299,888.247130,8290.306550
2589.790332,229.828649,-74.020594,9030.512492
2589.790661,0.000000,-666.185348,9474.636058
2589.790991,-919.314598,-888.247130,9326.594869
2589.791320,-1378.971896,-962.267725,9178.553681
2589.791649,-1455.581446,-1332.370696,9918.759623
2589.791978,-1302.362347,-1406.391290,9326.594869
2589.792307,-383.047749,-1554.432478,9252.574275
2589.792636,-306.438199,-1184.329507,9178.553681
2589.792965,229.828649,-148.041188,8586.388927
2589.793294,536.266849,814.226536,8438.347739
2589.793623,306.438199,1036.288319,8364.327145
2589.793953,-306.438199,962.267725,8808.450710
2589.794282,-459.657299,-0.000000,9474.636058
2589.794611,-306.438199,-296.082377,9696.697840
2589.794940,-766.095498,-888.247130,10066.800811
2589.795269,-1302.362347,-740.205942,9696.697840
2589.795598,-1532.190996,-1036.288319,9474.636058
2589.795927,-995.924147,-1110.308913,9844.739029
2589.796256,-153.219100,-666.185348,9326.594869
2589.796585,766.095498,-1184.329507,8808.450710
2589.796915,1225.752797,-740.205942,8882.471304
2589.797244,1762.019645,-0.000000,8068.244768
2589.797573,1608.800546,740.205942,7846.182985
2589.797902,1455.581446,1184.329507,8512.368333
2589.798231,995.924147,814.226536,8956.491898
2589.798560,536.266849,296.082377,9474.636058
2589.798889,76.609550,-444.123565,9696.697840
2589.799218,0.000000,-1036.288319,10288.862594
2589.799547,-536.266849,-962.267725,9918.759623
2589.799877,-459.657299,-1110.308913,9622.677246
2589.800206,229.828649,-1036.288319,9622.677246
2589.800535,1072.533697,-814.226536,9474.636058
2589.800864,1608.800546,-518.144159,8808.450710
2589.801193,2757.943793,666.185348,7920.203579
2589.801522,2834.553343,666.185348,7772.162391
2589.801851,612.876398,1184.329507,8438.347739
2589.802180,1532.190996,1258.350101,9252.574275
2589.802509,919.314598,518.144159,8512.368333
2589.802839,383.047749,518.144159,7994.224174
2589.803168,995.924147,-0.000000,10140.821405
2589.803497,153.219100,-1110.308913,9696.697840
2589.803826,-459.657299,-1036.288319,9992.780217
2589.804155,-612.876398,-1850.514855,10288.862594
2589.804484,-229.828649,-1110.308913,9844.739029
2589.804813,995.924147,-962.267725,9400.615463
2589.805142,1608.800546,-222.061783,8734.430116
2589.805471,1225.752797,-0.000000,8142.265362
2589.805801,2221.676944,444.123565,8438.347739
2589.806130,1378.971896,962.267725,7624.121203
2589.806459,1608.800546,962.267725,8142.265362
2589.806788,1225.752797,518.144159,8882.471304
2589.807117,306.438199,-0.000000,9030.512492
2589.807446,-306.438199,-592.164754,9548.656652
2589.807775,-153.219100,-592.164754,9622.677246
2589.808104,-459.657299,-592.164754,9400.615463
2589.808433,-383.047749,-814.226536,10140.821405
2589.808763,-536.266849,-1036.288319,9178.553681
2589.809092,153.219100,-518.144159,9770.718434
2589.809421,536.266849,-296.082377,8438.347739
2589.809750,612.876398,518.144159,8290.306550
2589.810079,612.876398,888.247130,7550.100608
2589.810408,1149.143247,1110.308913,7698.141797
2589.810737,306.438199,1184.329507,7920.203579
2589.811066,0.000000,370.102971,8290.306550
2589.811395,-536.266849,-0.000000,8956.491898
2589.811725,-1225.752797,-1036.288319,9030.512492
2589.812054,-1608.800546,-1184.329507,9474.636058
2589.812383,-1991.848295,-1480.411884,9844.739029
2589.812712,-1915.238745,-1628.453072,10436.903782
2589.813041,-995.924147,-1628.453072,10066.800811
2589.813370,-383.047749,-518.144159,9992.780217
2589.813699,0.000000,-222.061783,9696.697840
2589.814028,459.657299,814.226536,8660.409521
2589.814357,536.266849,1184.329507,8586.388927
2589.814686,612.876398,1702.473667,8438.347739
2589.815016,459.657299,1036.288319,9178.553681
2589.815345,612.876398,-74.020594,9696.697840
2589.815674,76.609550,-222.061783,9178.553681
2589.816003,0.000000,-1036.288319,9326.594869
2589.816332,-919.314598,-1332.370696,9104.533087
2589.816661,-1225.752797,-1184.329507,9696.697840
2589.816990,-995.924147,-1480.411884,9696.697840
2589.817319,0.000000,-1184.329507,9474.636058
2589.817648,76.609550,-1628.453072,9474.636058
2589.817978,459.657299,-74.020594,8808.450710
2589.818307,536.266849,296.082377,8512.368333
2589.818636,536.266849,1184.329507,8216.285956
2589.818965,842.705048,1184.329507,8512.368333
2589.819294,1149.143247,814.226536,8882.471304
2589.819623,1225.752797,-0.000000,9178.553681
2589.819952,612.876398,-888.247130,9252.574275
2589.820281,-153.219100,-1184.329507,9400.615463
2589.820610,-689.485948,-814.226536,9252.574275
2589.820940,229.828649,-740.205942,9104.533087
2589.821269,1072.533697,-814.226536,9178.553681
2589.821598,1455.581446,-592.164754,8586.388927
2589.821927,1915.238745,-0.000000,8808.450710
2589.822256,1991.848295,592.164754,8290.306550
2589.822585,2451.505594,222.061783,8290.306550
2589.822914,2068.457845,1110.308913,7994.224174
2589.823243,1685.410096,1184.329507,8586.388927
2589.823572,1149.143247,222.061783,9474.636058
2589.823902,842.705048,-518.144159,9326.594869
2589.824231,919.314598,-518.144159,9474.636058
2589.824560,612.876398,-1036.288319,9474.636058
2589.824889,306.438199,-1628.453072,9696.697840
2589.825218,766.095498,-1554.432478,10140.821405
2589.825547,1149.143247,-814.226536,9622.677246
2589.825876,1608.800546,-444.123565,9252.574275
2589.826205,1991.848295,-0.000000,8512.368333
2589.826534,2451.505594,1332.370696,8364.327145
2589.826864,1838.629195,1184.329507,8290.306550
2589.827193,1149.143247,592.164754,8586.388927
2589.827522,612.876398,1258.350101,9326.594869
2589.827851,0.000000,370.102971,9326.594869
2589.828180,-995.924147,-518.144159,9770.718434
2589.828509,-1072.533697,-1554.432478,9992.780217
2589.828838,-1608.800546,-1850.514855,9918.759623
2589.829167,-1532.190996,-1332.370696,9992.780217
2589.829496,-536.266849,-1776.494261,9548.656652
2589.829826,689.485948,-1184.329507,9474.636058
2589.830155,919.314598,-296.082377,8734.430116
2589.830484,1608.800546,666.185348,8290.306550
2589.830813,1532.190996,1036.288319,7920.203579
2589.831142,2374.896044,1998.556043,7105.977043
2589.831471,1378.971896,1850.514855,7920.203579
2589.831800,689.485948,666.185348,8734.430116
2589.832129,0.000000,-0.000000,8882.471304
2589.832458,-919.314598,-296.082377,9400.615463
2589.832788,-1378.971896,-888.247130,9548.656652
2589.833117,-1838.629195,-1184.329507,9622.677246
2589.833446,-2374.896044,-1628.453072,10214.842000
2589.833775,-1149.143247,-1332.370696,9918.759623
2589.834104,-689.485948,-962.267725,8956.491898
2589.834433,-612.876398,-740.205942,9474.636058
2589.834762,-153.219100,-0.000000,8882.471304
2589.835091,383.047749,666.185348,8142.265362
2589.835420,689.485948,1480.411884,7550.100608
2589.835750,383.047749,1184.329507,8364.327145
2589.836079,0.000000,296.082377,8808.450710
2589.836408,383.047749,-0.000000,9474.636058
2589.836737,0.000000,-592.164754,9622.677246
2589.837066,-766.095498,-888.247130,9474.636058
2589.837395,-1532.190996,-1110.308913,9696.697840
2589.837724,-995.924147,-1110.308913,10288.862594
2589.838053,-919.314598,-1924.535449,10066.800811
2589.838382,-229.828649,-1480.411884,9696.697840
2589.838711,689.485948,-1406.391290,9178.553681
2589.839041,383.047749,-444.123565,8660.409521
2589.839370,459.657299,592.164754,8290.306550
2589.839699,919.314598,592.164754,8364.327145
2589.840028,1072.533697,222.061783,8882.471304
2589.840357,459.657299,148.041188,9104.533087
2589.840686,459.657299,-370.102971,9400.615463
2589.841015,383.047749,-518.144159,9326.594869
2589.841344,0.000000,-296.082377,9474.636058
2589.841673,766.095498,-592.164754,9400.615463
2589.842003,1072.533697,-370.102971,9252.574275
2589.842332,1608.800546,-518.144159,9030.512492
2589.842661,2528.115143,-148.041188,8734.430116
2589.842990,1915.238745,296.082377,8142.265362
2589.843319,2068.457845,296.082377,8290.306550
2589.843648,1915.238745,962.267725,7624.121203
2589.843977,1302.362347,1332.370696,8364.327145
2589.844306,842.705048,444.123565,9030.512492
2589.844635,306.438199,-296.082377,9104.533087
2589.844965,-306.438199,-1036.288319,9474.636058
2589.845294,-459.657299,-888.247130,9622.677246
2589.845623,0.000000,-1258.350101,9474.636058
2589.845952,229.828649,-1110.308913,9696.697840
2589.846281,842.705048,-1110.308913,9474.636058
2589.846610,1838.629195,-666.185348,9252.574275
2589.846939,2451.505594,-444.123565,8586.388927
2589.847268,2911.162892,666.185348,7920.203579
2589.847597,2681.334243,1258.350101,8068.244768
2589.847927,2681.334243,1628.453072,8216.285956
2589.848256,1915.238745,740.205942,8142.265362
2589.848585,995.924147,222.061783,9474.636058
2589.848914,0.000000,-222.061783,9474.636058
2589.849243,-689.485948,-1110.308913,10140.821405
2589.849572,-1225.752797,-1184.329507,9844.739029
2589.849901,-1991.848295,-962.267725,9770.718434
2589.850230,-1072.533697,-1850.514855,10510.924376
2589.850559,-766.095498,-1702.473667,9326.594869
2589.850889,-536.266849,-518.144159,9474.636058
2589.851218,459.657299,-1258.350101,9400.615463
2589.851547,-153.219100,814.226536,7994.224174
2589.851876,-229.828649,888.247130,8290.306550
2589.852205,383.047749,1184.329507,8956.491898
2589.852534,-459.657299,888.247130,8882.471304
2589.852863,0.000000,1776.494261,9104.533087
2589.853192,383.047749,666.185348,8882.471304
2589.853521,-536.266849,518.144159,9252.574275
2589.853851,-689.485948,-0.000000,8956.491898
2589.854180,-842.705048,-444.123565,9474.636058
2589.854509,-1302.362347,-592.164754,9918.759623
2589.854838,0.000000,-1628.453072,9178.553681
2589.855167,-612.876398,-962.267725,9104.533087
2589.855496,-612.876398,-1110.308913,8512.368333
2589.855825,-229.828649,-74.020594,8290.306550
2589.856154,153.219100,370.102971,8364.327145
2589.856483,0.000000,444.123565,8586.388927
2589.856813,0.000000,222.061783,9178.553681
2589.857142,0.000000,-296.082377,9400.615463
2589.857471,-842.705048,-592.164754,9252.574275
2589.857800,-536.266849,-518.144159,9104.533087
2589.858129,-536.266849,-592.164754,9474.636058
2589.858458,-229.828649,-1110.308913,9696.697840
2589.858787,459.657299,-518.144159,9474.636058
2589.859116,612.876398,-888.247130,8808.450710
2589.859445,1302.362347,-740.205942,8660.409521
2589.859775,536.266849,-0.000000,8364.327145
2589.860104,919.314598,370.102971,7994.224174
2589.860433,919.314598,592.164754,8512.368333
2589.860762,536.266849,-0.000000,8808.450710
2589.861091,229.828649,-296.082377,9030.512492
2589.861420,229.828649,-666.185348,9548.656652
2589.861749,0.000000,-1406.391290,9918.759623
2589.862078,-459.657299,-1998.556043,9030.512492
2589.862407,0.000000,-370.102971,9918.759623
2589.862737,689.485948,-518.144159,9548.656652
2589.863066,1685.410096,-0.000000,8882.471304
2589.863395,2145.067394,148.041188,8660.409521
2589.863724,3064.381992,296.082377,8734.430116
2589.864053,2834.553343,1924.535449,7846.182985
2589.864382,2604.724693,1480.411884,8142.265362
2589.864711,2528.115143,1480.411884,8216.285956
2589.865040,1685.410096,1480.411884,8586.388927
2589.865369,1608.800546,-0.000000,9178.553681
2589.865698,383.047749,-296.082377,9252.574275
2589.866028,689.485948,-1406.391290,10066.800811
2589.866357,0.000000,-1998.556043,8808.450710
2589.866686,-536.266849,-518.144159,9918.759623
2589.867015,-306.438199,-1998.556043,10288.862594
2589.867344,306.438199,-1036.288319,9326.594869
2589.867673,1225.752797,-444.123565,9326.594869
2589.868002,1149.143247,-222.061783,8808.450710
2589.868331,1915.238745,444.123565,7920.203579
2589.868660,1685.410096,1554.432478,8586.388927
2589.868990,1608.800546,1480.411884,8512.368333
2589.869319,995.924147,1332.370696,8734.430116
2589.869648,153.219100,222.061783,9696.697840
2589.869977,-383.047749,-296.082377,9844.739029
2589.870306,-689.485948,-814.226536,9770.718434
2589.870635,-1838.629195,-1258.350101,10288.862594
2589.870964,-689.485948,-1406.391290,10140.821405
2589.871293,-995.924147,-1628.453072,10510.924376
2589.871622,-383.047749,-1110.308913,9548.656652
2589.871952,536.266849,-518.144159,9326.594869
2589.872281,766.095498,518.144159,8512.368333
2589.872610,1072.533697,1110.308913,8290.306550
2589.872939,1225.752797,1924.535449,8438.347739
2589.873268,1072.533697,1776.494261,8364.327145
2589.873597,459.657299,888.247130,9548.656652
2589.873926,229.828649,222.061783,8956.491898
2589.874255,-766.095498,-296.082377,9104.533087
2589.874584,-1302.362347,-296.082377,9104.533087
2589.874914,-1915.238745,-1258.350101,9622.677246
2589.875243,-2374.896044,-1110.308913,10288.862594
2589.875572,-995.924147,-1702.473667,9178.553681
2589.875901,-1149.143247,-888.247130,9104.533087
2589.876230,-612.876398,-518.144159,9030.512492
2589.876559,-612.876398,592.164754,8586.388927
2589.876888,0.000000,814.226536,7698.141797
2589.877217,153.219100,1258.350101,8142.265362
2589.877546,153.219100,1184.329507,8290.306550
2589.877876,229.828649,-74.020594,9030.512492
2589.878205,-459.657299,-0.000000,8956.491898
2589.878534,-306.438199,-370.102971,8956.491898
2589.878863,-612.876398,-666.185348,8808.450710
2589.879192,-995.924147,-1332.370696,9474.636058
2589.879521,-766.095498,-1258.350101,9548.656652
2589.879850,229.828649,-1776.494261,9474.636058
2589.880179,536.266849,-1776.494261,9104.533087
2589.880508,459.657299,-962.267725,8586.388927
2589.880838,842.705048,-0.000000,8216.285956
2589.881167,1302.362347,740.205942,8290.306550
2589.881496,1455.581446,962.267725,8734.430116
2589.881825,1455.581446,740.205942,9178.553681
2589.882154,1302.362347,-148.041188,9474.636058
2589.882483,1149.143247,-148.041188,9252.574275
2589.882812,919.314598,-1036.288319,9252.574275
2589.883141,229.828649,-888.247130,9178.553681
2589.883470,459.657299,-1036.288319,9622.677246
2589.883799,1072.533697,-1258.350101,9474.636058
2589.884129,1149.143247,-888.247130,8882.471304
2589.884458,1838.629195,-1036.288319,9104.533087
2589.884787,2298.286494,-296.082377,8586.388927
2589.885116,1685.410096,1110.308913,7920.203579
2589.885445,1532.190996,666.185348,8512.368333
2589.885774,1149.143247,1036.288319,8808.450710
2589.886103,612.876398,666.185348,9030.512492
2589.886432,536.266849,296.082377,9474.636058
2589.886761,612.876398,-222.061783,9696.697840
2589.887090,76.609550,-666.185348,9918.759623
2589.887419,0.000000,-370.102971,9844.739029
2589.887749,153.219100,-444.123565,9696.697840
2589.888078,766.095498,-518.144159,9696.697840
2589.888407,2145.067394,222.061783,8660.409521
2589.888736,1762.019645,370.102971,8512.368333
2589.889065,2298.286494,962.267725,8216.285956
2589.889394,2145.067394,1332.370696,7698.141797
2589.889723,1762.019645,1406.391290,8290.306550
2589.890052,1378.971896,666.185348,9030.512492
2589.890381,76.609550,888.247130,9918.759623
2589.890710,-306.438199,-740.205942,9844.739029
2589.891039,-842.705048,-814.226536,9992.780217
2589.891368,-1225.752797,-444.123565,9992.780217
2589.891698,-1378.971896,-1036.288319,10140.821405
2589.892027,-919.314598,-740.205942,9844.739029
2589.892356,-153.219100,-888.247130,9696.697840
2589.892685,306.438199,-0.000000,8956.491898
2589.893014,766.095498,-148.041188,8734.430116
2589.893343,153.219100,888.247130,8216.285956
2589.893672,0.000000,814.226536,8364.327145
2589.894001,0.000000,1036.288319,9030.512492
2589.894330,-612.876398,592.164754,8734.430116
2589.894659,-612.876398,-296.082377,9918.759623
2589.894988,-995.924147,-518.144159,9918.759623
2589.895317,-1532.190996,-1554.432478,9548.656652
2589.895647,-1838.629195,-1258.350101,9696.697840
2589.895976,-1149.143247,-962.267725,9326.594869
2589.896305,-1072.533697,-1332.370696,9696.697840
2589.896634,76.609550,-888.247130,9178.553681
2589.896963,612.876398,-74.020594,8512.368333
2589.897292,995.924147,518.144159,7624.121203
2589.897621,1838.629195,1184.329507,7402.059420
2589.897950,229.828649,1036.288319,7846.182985
2589.898279,383.047749,1036.288319,8142.265362
2589.898608,383.047749,-370.102971,8734.430116
2589.898937,-306.438199,-444.123565,8956.491898
2589.899266,-459.657299,-1258.350101,9474.636058
2589.899596,-1225.752797,-1554.432478,9474.636058
2589.899925,-1991.848295,-1258.350101,10140.821405
2589.900254,-689.485948,-888.247130,9548.656652
2589.900583,536.266849,-962.267725,9474.636058
2589.900912,842.705048,-148.041188,9104.533087
2589.901241,1302.362347,-0.000000,8586.388927
2589.901570,1149.143247,148.041188,8660.409521
2589.901899,1149.143247,1332.370696,7994.224174
2589.902228,1532.190996,1332.370696,7772.162391
2589.902557,612.876398,592.164754,9474.636058
2589.902886,-229.828649,-518.144159,8734.430116
2589.903215,-153.219100,-888.247130,10436.903782
2589.903545,-229.828649,-1406.391290,9770.718434
2589.903874,-842.705048,-2072.576638,9696.697840
2589.904203,-383.047749,-1480.411884,10362.883188
2589.904532,-306.438199,-1184.329507,10288.862594
2589.904861,1072.533697,-962.267725,9696.697840
2589.905190,1915.238745,-148.041188,9104.533087
2589.905519,2757.943793,888.247130,8216.285956
2589.905848,2757.943793,1184.329507,8290.306550
2589.906177,2451.505594,1924.535449,7994.224174
2589.906506,2145.067394,1924.535449,8956.491898
2589.906835,2451.505594,888.247130,8956.491898
2589.907164,766.095498,-74.020594,9474.636058
2589.907494,-306.438199,-74.020594,10584.944971
2589.907823,0.000000,-1554.432478,10584.944971
2589.908152,-1455.581446,-1480.411884,8956.491898
2589.908481,-1225.752797,-1406.391290,8956.491898
2589.908810,306.438199,-1184.329507,9696.697840
2589.909139,306.438199,-1110.308913,9104.533087
2589.909468,1685.410096,518.144159,8808.450710
2589.909797,1608.800546,-222.061783,8068.244768
2589.910126,1455.581446,1776.494261,7550.100608
2589.910455,1838.629195,1184.329507,7920.203579
2589.910784,1378.971896,1702.473667,8216.285956
2589.911113,842.705048,888.247130,9104.533087
2589.911443,1149.143247,-0.000000,9326.594869
2589.911772,-536.266849,-666.185348,8956.491898
2589.912101,-1302.362347,-518.144159,9474.636058
2589.912430,-1608.800546,-1628.453072,9918.759623
2589.912759,-766.095498,-1702.473667,9918.759623
2589.913088,-766.095498,-1480.411884,9548.656652
2589.913417,766.095498,-1332.370696,9548.656652
2589.913746,919.314598,-518.144159,8808.450710
2589.914075,1072.533697,740.205942,7402.059420
2589.914404,1302.362347,1702.473667,8068.244768
2589.914733,1608.800546,1628.453072,7624.121203
2589.915062,1072.533697,1036.288319,8512.368333
2589.915392,536.266849,888.247130,9474.636058
2589.915721,919.314598,-296.082377,9474.636058
2589.916050,0.000000,-962.267725,9548.656652
2589.916379,-842.705048,-888.247130,9252.574275
2589.916708,-1225.752797,-1110.308913,9696.697840
2589.917037,-1302.362347,-1850.514855,9770.718434
2589.917366,-995.924147,-1702.473667,9474.636058
2589.917695,-383.047749,-1480.411884,9474.636058
2589.918024,-153.219100,-444.123565,8586.388927
2589.918353,-153.219100,-0.000000,7994.224174
2589.918682,0.000000,592.164754,8438.347739
2589.919011,-153.219100,1184.329507,8956.491898
2589.919341,-229.828649,962.267725,9104.533087
2589.919670,-612.876398,370.102971,9548.656652
2589.919999,-612.876398,-296.082377,9844.739029
2589.920328,-919.314598,-296.082377,9326.594869
2589.920657,-1072.533697,-888.247130,9918.759623
2589.920986,-1302.362347,-740.205942,9918.759623
2589.921315,153.219100,-1258.350101,9992.780217
2589.921644,229.828649,-1110.308913,9178.553681
2589.921973,536.266849,-444.123565,9178.553681
2589.922302,995.924147,-148.041188,8734.430116
2589.922631,1455.581446,444.123565,7476.080014
2589.922961,1838.629195,888.247130,8142.265362
2589.923290,1455.581446,740.205942,8216.285956
2589.923619,995.924147,518.144159,8808.450710
2589.923948,1149.143247,-0.000000,9400.615463
2589.924277,995.924147,-296.082377,9178.553681
2589.924606,0.000000,-740.205942,9104.533087
2589.924935,229.828649,-666.185348,9696.697840
2589.925264,689.485948,-888.247130,9770.718434
2589.925593,995.924147,-1036.288319,9326.594869
2589.925922,1608.800546,-592.164754,9104.533087
2589.926251,1685.410096,-592.164754,8808.450710
2589.926580,1838.629195,222.061783,8660.409521
2589.926910,1685.410096,592.164754,7624.121203
2589.927239,1378.971896,1406.391290,8660.409521
2589.927568,1225.752797,592.164754,8956.491898
2589.927897,0.000000,518.144159,9696.697840
2589.928226,76.609550,-148.041188,9474.636058
2589.928555,-229.828649,-888.247130,9400.615463
2589.928884,-383.047749,-1036.288319,9622.677246
2589.929213,0.000000,-888.247130,9696.697840
2589.929542,0.000000,-1110.308913,9918.759623
2589.929871,766.095498,-1110.308913,9326.594869
2589.930200,1685.410096,-518.144159,8586.388927
2589.930529,1915.238745,370.102971,7846.182985
2589.930859,2221.676944,888.247130,7772.162391
2589.931188,2068.457845,1554.432478,7698.141797
2589.931517,1915.238745,1258.350101,8808.450710
2589.931846,1685.410096,888.247130,9252.574275
2589.932175,153.219100,-296.082377,9474.636058
2589.932504,229.828649,-518.144159,9474.636058
2589.932833,-536.266849,-296.082377,9400.615463
2589.933162,-1072.533697,-740.205942,9326.594869
2589.933491,-1149.143247,-962.267725,9622.677246
2589.933820,229.828649,-888.247130,9992.780217
2589.934149,229.828649,-1480.411884,9474.636058
2589.934478,306.438199,-1332.370696,9178.553681
2589.934808,229.828649,-518.144159,8512.368333
2589.935137,0.000000,592.164754,8290.306550
2589.935466,229.828649,888.247130,8734.430116
2589.935795,0.000000,962.267725,8660.409521
2589.936124,-459.657299,888.247130,9918.759623
2589.936453,-459.657299,-0.000000,9992.780217
2589.936782,-689.485948,-666.185348,9474.636058
2589.937111,-1149.143247,-1036.288319,9548.656652
2589.937440,-1378.971896,-740.205942,9770.718434
2589.937769,-1072.533697,-888.247130,9770.718434
2589.938098,-612.876398,-814.226536,9326.594869
2589.938427,229.828649,-592.164754,9030.512492
2589.938757,766.095498,-370.102971,8882.471304
2589.939086,766.095498,592.164754,8216.285956
2589.939415,459.657299,740.205942,8438.347739
2589.939744,153.219100,666.185348,8660.409521
2589.940073,0.000000,370.102971,9178.553681
2589.940402,-383.047749,-296.082377,9474.636058
2589.940731,-842.705048,-888.247130,9770.718434
2589.941060,-536.266849,-1406.391290,9844.739029
2589.941389,-766.095498,-740.205942,9178.553681
2589.941718,-612.876398,-888.247130,9548.656652
2589.942047,-306.438199,-1036.288319,9252.574275
2589.942376,459.657299,-740.205942,9178.553681
2589.942706,842.705048,-518.144159,8068.244768
2589.943035,1302.362347,222.061783,7698.141797
2589.943364,1302.362347,444.123565,7846.182985
2589.943693,459.657299,740.205942,7698.141797
2589.944022,306.438199,666.185348,9326.594869
2589.944351,-383.047749,-0.000000,9030.512492
2589.944680,-536.266849,-222.061783,9400.615463
2589.945009,-766.095498,-740.205942,9400.615463
2589.945338,-536.266849,-518.144159,10066.800811
2589.945667,-306.438199,-1110.308913,9844.739029
2589.945996,0.000000,-962.267725,9770.718434
2589.946325,1149.143247,-962.267725,9326.594869
2589.946655,2221.676944,-518.144159,8734.430116
2589.946984,2451.505594,444.123565,8216.285956
2589.947313,2528.115143,444.123565,8290.306550
2589.947642,3064.381992,1184.329507,7846.182985
2589.947971,2681.334243,814.226536,8068.244768
2589.948300,2298.286494,888.247130,9326.594869
2589.948629,1685.410096,-0.000000,9400.615463
2589.948958,1072.533697,-444.123565,9548.656652
2589.949287,689.485948,-592.164754,10214.842000
2589.949616,153.219100,-592.164754,9696.697840
2589.949945,612.876398,-1332.370696,10066.800811
2589.950274,1149.143247,-518.144159,9770.718434
2589.950604,1302.362347,-666.185348,8882.471304
2589.950933,1608.800546,-518.144159,9474.636058
2589.951262,2145.067394,-0.000000,8734.430116
2589.951591,1991.848295,296.082377,8142.265362
2589.951920,1378.971896,1406.391290,8216.285956
2589.952249,1838.629195,740.205942,8512.368333
2589.952578,459.657299,666.185348,9030.512492
2589.952907,0.000000,-296.082377,9400.615463
2589.953236,76.609550,-592.164754,9400.615463
2589.953565,-919.314598,-1110.308913,9622.677246
2589.953894,-1072.533697,-888.247130,9696.697840
2589.954224,-1149.143247,-888.247130,9844.739029
2589.954553,0.000000,-1036.288319,9770.718434
2589.954882,153.219100,-592.164754,8882.471304
2589.955211,1225.752797,-222.061783,8808.450710
2589.955540,1608.800546,222.061783,8290.306550
2589.955869,1225.752797,740.205942,7550.100608
2589.956198,1378.971896,1184.329507,7920.203579
2589.956527,536.266849,814.226536,8290.306550
2589.956856,153.219100,-0.000000,8586.388927
2589.957185,-766.095498,-592.164754,9400.615463
2589.957514,-766.095498,-888.247130,9474.636058
2589.957843,-1378.971896,-1258.350101,9178.553681
2589.958173,-1762.019645,-814.226536,9548.656652
2589.958502,-1532.190996,-1258.350101,9622.677246
2589.958831,-1225.752797,-888.247130,9918.759623
2589.959160,-153.219100,-666.185348,9326.594869
2589.959489,-536.266849,-74.020594,8956.491898
2589.959818,-995.924147,740.205942,8364.327145
2589.960147,-1225.752797,2368.659014,8216.285956
2589.960476,-1762.019645,1924.535449,8512.368333
2589.960805,-2528.115143,1184.329507,8734.430116
2589.961134,-2987.772442,370.102971,9474.636058
2589.961463,-3294.210641,-962.267725,9918.759623
2589.961792,-3447.429741,-1110.308913,8734.430116
2589.962122,-3600.648841,-1776.494261,9400.615463
2589.962451,-4366.744339,-1628.453072,9252.574275
2589.962780,-4290.134789,-1480.411884,9696.697840
2589.963109,-3753.867940,-1480.411884,9622.677246
2589.963438,-3294.210641,-1628.453072,9178.553681
2589.963767,-2834.553343,-1480.411884,9696.697840
2589.964096,-2987.772442,-1406.391290,9104.533087
2589.964425,-3064.381992,-666.185348,9326.594869
2589.964754,-3140.991542,222.061783,9548.656652
2589.965083,-2451.505594,1110.308913,8734.430116
2589.965412,-2681.334243,1184.329507,8882.471304
2589.965741,-1762.019645,740.205942,8586.388927
2589.966071,-1072.533697,444.123565,8586.388927
2589.966400,-1608.800546,-962.267725,8438.347739
2589.966729,-1685.410096,-1110.308913,8808.450710
2589.967058,-2298.286494,-814.226536,8808.450710
2589.967387,-1685.410096,-296.082377,8660.409521
2589.967716,-612.876398,-296.082377,8512.368333
2589.968045,153.219100,-222.061783,7698.141797
2589.968374,842.705048,-0.000000,7846.182985
2589.968703,1149.143247,-0.000000,8142.265362
2589.969032,153.219100,-0.000000,8216.285956
2589.969361,-842.705048,1554.432478,8512.368333
2589.969690,-1915.238745,1554.432478,8808.450710
2589.970020,-3064.381992,1480.411884,9400.615463
2589.970349,-3370.820191,444.123565,10214.842000
2589.970678,-3447.429741,-0.000000,9178.553681
2589.971007,-3217.601092,-370.102971,9104.533087
2589.971336,-3907.087040,-1184.329507,9548.656652
2589.971665,-4136.915689,-2294.638420,10214.842000
2589.971994,-3524.039291,-2368.659014,11177.109724
2589.972323,-3370.820191,-2368.659014,10510.924376
2589.972652,-2221.676944,-2072.576638,9696.697840
2589.972981,-1685.410096,-222.061783,8586.388927
2589.973310,-1455.581446,962.267725,9178.553681
2589.973639,-1838.629195,518.144159,9474.636058
2589.973969,-1608.800546,592.164754,9770.718434
2589.974298,0.000000,962.267725,8734.430116
2589.974627,-1225.752797,1998.556043,7328.038826
2589.974956,-2298.286494,814.226536,8586.388927
2589.975285,-3064.381992,-0.000000,8512.368333
2589.975614,-2528.115143,-666.185348,9696.697840
2589.975943,-2757.943793,222.061783,9252.574275
2589.976272,-2681.334243,148.041188,8068.244768
2589.976601,-3753.867940,-666.185348,9252.574275
2589.976930,-5286.058936,-0.000000,8438.347739
2589.977259,-4213.525239,-1036.288319,10140.821405
2589.977588,-4749.792088,-1406.391290,9400.615463
2589.977918,-3370.820191,-1258.350101,9326.594869
2589.978247,-2298.286494,-1110.308913,9548.656652
2589.978576,-1991.848295,-222.061783,8438.347739
2589.978905,-1608.800546,-0.000000,9178.553681
2589.979234,-1685.410096,148.041188,9326.594869
2589.979563,-1685.410096,444.123565,9548.656652
2589.979892,-2068.457845,444.123565,9030.512492
2589.980221,-1991.848295,592.164754,9104.533087
2589.980550,-2451.505594,148.041188,8808.450710
2589.980879,-2145.067394,296.082377,7772.162391
2589.981208,-2221.676944,962.267725,8438.347739
2589.981537,-2681.334243,370.102971,8142.265362
2589.981867,-2604.724693,740.205942,7550.100608
2589.982196,-3064.381992,592.164754,7254.018232
2589.982525,-3753.867940,-666.185348,7550.100608
2589.982854,-4290.134789,-1702.473667,8734.430116
2589.983183,-4903.011187,-2516.700203,9844.739029
2589.983512,-5286.058936,-3256.906145,10732.986159
2589.983841,-5592.497135,-3404.947333,11325.150913
2589.984170,-5056.230287,-2368.659014,11103.089130
2589.984499,-4596.572988,-1850.514855,11251.130318
2589.984828,-3753.867940,-370.102971,10658.965565
2589.985157,-2528.115143,444.123565,9770.718434
2589.985486,-1378.971896,1850.514855,9474.636058
2589.985815,-1915.238745,2664.741391,7994.224174
2589.986145,-1532.190996,2812.782580,7624.121203
2589.986474,-1225.752797,2294.638420,7994.224174
2589.986803,-1532.190996,1332.370696,6809.894666
2589.987132,-1455.581446,1184.329507,7476.080014
2589.987461,-1762.019645,-222.061783,7105.977043
2589.987790,-1378.971896,-222.061783,7328.038826
2589.988119,-2068.457845,-222.061783,7994.224174
2589.988448,-2604.724693,518.144159,8216.285956
2589.988777,-2451.505594,666.185348,9030.512492
2589.989106,-2604.724693,1554.432478,8808.450710
2589.989435,-2528.115143,2072.576638,9178.553681
2589.989764,-2681.334243,1776.494261,9770.718434
2589.990093,-2221.676944,1924.535449,9696.697840
2589.990422,-2374.896044,1998.556043,10066.800811
2589.990752,-2834.553343,814.226536,11325.150913
2589.991081,-2528.115143,296.082377,11399.171507
2589.991410,-2374.896044,-74.020594,10362.883188
2589.991739,-1455.581446,-296.082377,10510.924376
2589.992068,-536.266849,666.185348,9030.512492
2589.992397,-229.828649,370.102971,8660.409521
2589.992726,-536.266849,888.247130,9992.780217
2589.993055,0.000000,592.164754,11103.089130
2589.993384,1915.238745,1998.556043,8438.347739
2589.993713,2911.162892,4071.132681,6883.915261
2589.994042,3294.210641,4811.338623,5995.668130
2589.994371,3524.039291,4959.379811,7550.100608
2589.994700,2987.772442,5699.585753,8660.409521
2589.995029,2145.067394,3997.112087,8216.285956
2589.995359,1991.848295,3701.029710,9696.697840
2589.995688,-459.657299,2368.659014,10436.903782
2589.996017,-1302.362347,2294.638420,9696.697840
2589.996346,-1685.410096,1036.288319,11399.171507
2589.996675,-1225.752797,1036.288319,10584.944971
2589.997004,-536.266849,740.205942,10140.821405
2589.997333,-383.047749,2294.638420,9104.533087
2589.997662,-536.266849,2738.761985,8956.491898
2589.997991,1149.143247,3108.864956,7994.224174
2589.998320,995.924147,3849.070898,6809.894666
2589.998649,1149.143247,5477.523971,7254.018232
2589.998978,383.047749,4515.256246,7920.203579
2589.999307,-383.047749,3775.050304,8734.430116
2589.999636,-1608.800546,2812.782580,8808.450710
2589.999966,-2221.676944,2368.659014,9696.697840
2590.000295,-3294.210641,1036.288319,10881.027347
2590.000624,-2757.943793,1702.473667,9918.759623
2590.000953,-2374.896044,2368.659014,10140.821405
2590.001282,-2374.896044,2960.823768,9252.574275
2590.001611,-1685.410096,2886.803174,9622.677246
2590.001940,-1991.848295,2294.638420,11029.068536
2590.002269,-1532.190996,2442.679609,9400.615463
2590.002598,-766.095498,2590.720797,8290.306550
2590.002927,-919.314598,3330.926739,8956.491898
2590.003256,-1072.533697,2590.720797,9844.739029
2590.003585,612.876398,2368.659014,11843.295072
2590.003914,2298.286494,4293.194464,7550.100608
2590.004243,4519.963438,4737.318029,7772.162391
2590.004573,3217.601092,4737.318029,5477.523971
2590.004902,1991.848295,6513.812290,7105.977043
2590.005231,1838.629195,5921.647536,8512.368333
2590.005560,1149.143247,6069.688724,8216.285956
2590.005889,1302.362347,5329.482782,8290.306550
2590.006218,1072.533697,4219.173869,9252.574275
2590.006547,-689.485948,2812.782580,9918.759623
2590.006876,-1072.533697,-518.144159,12065.356855
2590.007205,-995.924147,1258.350101,10066.800811
2590.007534,0.000000,-0.000000,11547.212695
2590.007863,-689.485948,1702.473667,9844.739029
2590.008192,766.095498,3552.988522,9844.739029
2590.008521,1685.410096,3034.844362,8512.368333
2590.008850,1532.190996,4737.318029,7994.224174
2590.009180,2757.943793,5477.523971,7920.203579
2590.009509,3217.601092,4885.359217,7772.162391
2590.009838,2298.286494,4959.379811,7402.059420
2590.010167,1532.190996,3627.009116,7624.121203
2590.010496,-842.705048,1332.370696,9622.677246
2590.010825,-1762.019645,-74.020594,11547.212695
2590.011154,-1762.019645,-222.061783,11399.171507
2590.011483,-1302.362347,-0.000000,11473.192101
2590.011812,-2298.286494,1702.473667,9548.656652
2590.012141,-1302.362347,2294.638420,10066.800811
2590.012470,-1532.190996,2146.597232,9400.615463
2590.012799,-612.876398,2442.679609,9474.636058
2590.013128,1991.848295,-0.000000,12139.377449
2590.013457,2911.162892,2294.638420,6957.935855
2590.013787,5209.449386,2294.638420,8660.409521
2590.014116,3294.210641,3627.009116,5255.462188
2590.014445,3447.429741,3775.050304,6957.935855
2590.014774,3370.820191,4071.132681,7994.224174
2590.015103,2757.943793,4071.132681,6735.874072
2590.015432,2298.286494,4219.173869,7105.977043
2590.015761,536.266849,2738.761985,9622.677246
2590.016090,-3370.820191,-1332.370696,11399.171507
2590.016419,-4136.915689,-3701.029710,13323.706956
2590.016748,-2528.115143,-74.020594,11029.068536
2590.017077,-2757.943793,-3182.885551,11917.315666
2590.017406,-4136.915689,148.041188,10140.821405
2590.017735,-1378.971896,1702.473667,10214.842000
2590.018064,-689.485948,1924.535449,9178.553681
2590.018394,-229.828649,3034.844362,7994.224174
2590.018723,1455.581446,2368.659014,9178.553681
2590.019052,3753.867940,1702.473667,9030.512492
2590.019381,2757.943793,4737.318029,4441.235652
2590.019710,4136.915689,2220.617826,6957.935855
2590.020039,2987.772442,3478.967927,4885.359217
2590.020368,4749.792088,2368.659014,7920.203579
2590.020697,2681.334243,3256.906145,6439.791695
2590.021026,1532.190996,4219.173869,5625.565159
2590.021355,-1608.800546,-592.164754,9844.739029
2590.021684,-3830.477490,-1184.329507,11843.295072
2590.022013,-4060.306139,-222.061783,11399.171507
2590.022342,-5209.449386,-962.267725,10066.800811
2590.022671,-3447.429741,-2368.659014,11991.336260
2590.023001,-4903.011187,-1776.494261,12953.603985
2590.023330,-536.266849,-740.205942,12139.377449
2590.023659,-1685.410096,1036.288319,9104.533087
2590.023988,-306.438199,296.082377,7031.956449
2590.024317,-459.657299,1110.308913,11399.171507
2590.024646,3524.039291,2146.597232,8808.450710
2590.024975,3983.696590,4219.173869,1702.473667
2590.025304,4136.915689,1480.411884,8142.265362
2590.025633,3217.601092,3849.070898,5551.544565
2590.025962,4596.572988,3034.844362,9474.636058
2590.026291,766.095498,3701.029710,6957.935855
2590.026620,-536.266849,2664.741391,6957.935855
2590.026949,-3830.477490,-3256.906145,15100.201217
2590.027279,-3370.820191,296.082377,9622.677246
2590.027608,-2681.334243,-2590.720797,12509.480420
2590.027937,-2528.115143,-3404.947333,11843.295072
2590.028266,-1378.971896,-1628.453072,10066.800811
2590.028595,-1762.019645,-1850.514855,9992.780217
2590.028924,-1762.019645,222.061783,9696.697840
2590.029253,-1915.238745,-1332.370696,11547.212695
2590.029582,3370.820191,-2368.659014,11251.130318
2590.029911,3983.696590,5033.400406,4441.235652
2590.030240,4366.744339,1406.391290,7476.080014
2590.030569,3600.648841,2442.679609,6143.709319
2590.030898,3830.477490,3923.091493,7550.100608
2590.031227,1455.581446,3849.070898,6217.729913
2590.031556,919.314598,4367.215058,6439.791695
2590.031886,919.314598,-74.020594,11103.089130
2590.032215,-1532.190996,-2886.803174,11399.171507
2590.032544,-2987.772442,-1998.556043,11399.171507
2590.032873,-3370.820191,-2664.741391,10288.862594
2590.033202,-2221.676944,-4589.276840,9622.677246
2590.033531,-1378.971896,-1850.514855,11251.130318
2590.033860,1685.410096,-888.247130,9252.574275
2590.034189,2145.067394,370.102971,6809.894666
2590.034518,3907.087040,-1628.453072,7328.038826
2590.034847,3677.258390,2590.720797,6661.853478
2590.035176,3524.039291,4441.235652,7328.038826
2590.035505,2451.505594,2960.823768,7105.977043
2590.035834,1532.190996,1998.556043,7179.997637
2590.036163,1762.019645,-0.000000,9696.697840
2590.036493,0.000000,-1406.391290,9474.636058
2590.036822,-1302.362347,-3108.864956,11103.089130
2590.037151,-2451.505594,-2886.803174,11547.212695
2590.037480,-2068.457845,-2516.700203,11103.089130
2590.037809,-1915.238745,-1554.432478,10214.842000
2590.038138,-1072.533697,-2442.679609,10436.903782
2590.038467,-229.828649,-1480.411884,9844.739029
2590.038796,995.924147,-814.226536,7994.224174
2590.039125,3140.991542,962.267725,6439.791695
2590.039454,3524.039291,1776.494261,6883.915261
2590.039783,2757.943793,1258.350101,7624.121203
2590.040112,1455.581446,666.185348,8734.430116
2590.040441,383.047749,-592.164754,9844.739029
2590.040770,-153.219100,-1406.391290,10066.800811
2590.041100,-383.047749,-592.164754,10362.883188
2590.041429,-1532.190996,-1036.288319,11177.109724
2590.041758,-2374.896044,-1776.494261,10955.047942
2590.042087,-1991.848295,-1554.432478,10436.903782
2590.042416,-1302.362347,-2072.576638,10584.944971
2590.042745,-766.095498,-592.164754,10214.842000
2590.043074,-153.219100,-370.102971,8734.430116
2590.043403,689.485948,444.123565,7772.162391
2590.043732,1455.581446,1332.370696,7105.977043
2590.044061,2145.067394,1258.350101,7254.018232
2590.044390,1608.800546,148.041188,7550.100608
2590.044719,1072.533697,-0.000000,7846.182985
2590.045048,842.705048,-370.102971,8586.388927
2590.045377,306.438199,-1406.391290,9326.594869
2590.045707,-383.047749,-2812.782580,9696.697840
2590.046036,-153.219100,-2590.720797,10510.924376
2590.046365,0.000000,-1702.473667,10066.800811
2590.046694,-306.438199,-888.247130,10510.924376
2590.047023,-229.828649,296.082377,9696.697840
2590.047352,0.000000,1332.370696,8734.430116
2590.047681,-536.266849,1998.556043,8438.347739
2590.048010,0.000000,1628.453072,9178.553681
2590.048339,612.876398,-296.082377,8142.265362
2590.048668,1149.143247,-666.185348,8290.306550
2590.048997,919.314598,-592.164754,7994.224174
2590.049326,76.609550,-444.123565,7994.224174
2590.049655,229.828649,-518.144159,8438.347739
2590.049984,995.924147,-518.144159,8142.265362
2590.050314,1378.971896,-1184.329507,8882.471304
2590.050643,1149.143247,-1406.391290,8882.471304
2590.050972,1149.143247,-518.144159,9400.615463
2590.051301,612.876398,518.144159,9326.594869
2590.051630,-153.219100,1110.308913,9326.594869
2590.051959,-612.876398,1702.473667,9474.636058
2590.052288,-995.924147,1332.370696,10140.821405
2590.052617,-689.485948,814.226536,10066.800811
2590.052946,-306.438199,-518.144159,9844.739029
2590.053275,-383.047749,-296.082377,9696.697840
2590.053604,-383.047749,-444.123565,8956.491898
2590.053933,0.000000,-592.164754,8512.368333
2590.054262,229.828649,-592.164754,7920.203579
2590.054591,1225.752797,-666.185348,7846.182985
2590.054921,1838.629195,-222.061783,8142.265362
2590.055250,1838.629195,-0.000000,8512.368333
2590.055579,1762.019645,814.226536,8438.347739
2590.055908,459.657299,1776.494261,8808.450710
2590.056237,-229.828649,1258.350101,9770.718434
2590.056566,-383.047749,962.267725,10584.944971
2590.056895,-459.657299,370.102971,10881.027347
2590.057224,153.219100,-148.041188,10288.862594
2590.057553,-229.828649,-370.102971,10214.842000
2590.057882,0.000000,-0.000000,9918.759623
2590.058211,229.828649,-296.082377,9104.533087
2590.058540,919.314598,148.041188,8364.327145
2590.058869,1608.800546,-148.041188,7994.224174
2590.059198,1915.238745,-518.144159,7846.182985
2590.059528,2221.676944,-74.020594,7846.182985
2590.059857,1455.581446,-222.061783,8068.244768
2590.060186,536.266849,-222.061783,7846.182985
2590.060515,-612.876398,-0.000000,9400.615463
2590.060844,-229.828649,-148.041188,10362.883188
2590.061173,-306.438199,-296.082377,10288.862594
2590.061502,0.000000,-296.082377,10140.821405
2590.061831,0.000000,-222.061783,9696.697840
2590.062160,1225.752797,-370.102971,10140.821405
2590.062489,536.266849,-666.185348,9474.636058
2590.062818,1685.410096,-666.185348,8734.430116
2590.063147,2068.457845,-592.164754,8142.265362
2590.063476,2068.457845,-296.082377,7698.141797
2590.063805,1455.581446,-222.061783,7550.100608
2590.064135,536.266849,-0.000000,7994.224174
2590.064464,76.609550,-296.082377,7624.121203
2590.064793,-459.657299,-962.267725,8290.306550
2590.065122,-1072.533697,-1332.370696,9622.677246
2590.065451,-1225.752797,-2368.659014,10066.800811
2590.065780,-1685.410096,-2294.638420,9770.718434
2590.066109,-2068.457845,-1554.432478,9696.697840
2590.066438,-1302.362347,-1628.453072,9770.718434
2590.066767,-612.876398,-962.267725,9548.656652
2590.067096,459.657299,-296.082377,9326.594869
2590.067425,1225.752797,-296.082377,8586.388927
2590.067754,842.705048,-0.000000,7920.203579
2590.068083,1072.533697,592.164754,7550.100608
2590.068412,689.485948,1036.288319,7920.203579
2590.068742,306.438199,592.164754,8216.285956
2590.069071,-459.657299,-444.123565,8290.306550
2590.069400,-383.047749,-1554.432478,9622.677246
2590.069729,-689.485948,-2294.638420,9548.656652
2590.070058,-1302.362347,-1924.535449,9400.615463
2590.070387,-842.705048,-1480.411884,9400.615463
2590.070716,-536.266849,-1110.308913,9178.553681
2590.071045,229.828649,-148.041188,9474.636058
2590.071374,1072.533697,-74.020594,8956.491898
2590.071703,1685.410096,222.061783,8734.430116
2590.072032,1915.238745,888.247130,8734.430116
2590.072361,1685.410096,1110.308913,8216.285956
2590.072690,459.657299,1628.453072,8734.430116
2590.073019,0.000000,1480.411884,9400.615463
2590.073349,-153.219100,222.061783,9326.594869
2590.073678,-306.438199,-444.123565,9844.739029
2590.074007,-383.047749,-1258.350101,9770.718434
2590.074336,-383.047749,-1184.329507,9548.656652
2590.074665,0.000000,-1332.370696,9252.574275
2590.074994,76.609550,-1036.288319,8956.491898
2590.075323,1072.533697,-296.082377,8734.430116
2590.075652,1762.019645,-74.020594,8586.388927
2590.075981,2145.067394,962.267725,8364.327145
2590.076310,1991.848295,1406.391290,8068.244768
2590.076639,1225.752797,1998.556043,8290.306550
2590.076968,1302.362347,1480.411884,9178.553681
2590.077297,76.609550,1258.350101,9844.739029
2590.077627,-383.047749,-0.000000,10214.842000
2590.077956,-153.219100,-296.082377,9918.759623
2590.078285,-536.266849,-518.144159,10214.842000
2590.078614,-536.266849,-666.185348,9696.697840
2590.078943,229.828649,-1036.288319,9400.615463
2590.079272,842.705048,-592.164754,9326.594869
2590.079601,1685.410096,-814.226536,8438.347739
2590.079930,1991.848295,-444.123565,8956.491898
2590.080259,1991.848295,666.185348,8216.285956
2590.080588,1685.410096,740.205942,7698.141797
2590.080917,1072.533697,1332.370696,8290.306550
2590.081246,612.876398,740.205942,9400.615463
2590.081575,-536.266849,-148.041188,9326.594869
2590.081904,-766.095498,-222.061783,10140.821405
2590.082234,-612.876398,-666.185348,10436.903782
2590.082563,-689.485948,-888.247130,9918.759623
2590.082892,-1149.143247,-740.205942,10066.800811
2590.083221,-229.828649,-814.226536,9474.636058
2590.083550,689.485948,-444.123565,8586.388927
2590.083879,1685.410096,-148.041188,8216.285956
2590.084208,2374.896044,296.082377,8364.327145
2590.084537,1991.848295,814.226536,7698.141797
2590.084866,1378.971896,1332.370696,7179.997637
2590.085195,919.314598,1480.411884,7994.224174
2590.085524,76.609550,740.205942,8586.388927
2590.085854,-383.047749,-74.020594,10066.800811
2590.086183,76.609550,-1036.288319,10362.883188
2590.086512,-689.485948,-2072.576638,10140.821405
2590.086841,-1378.971896,-1406.391290,10066.800811
2590.087170,-1378.971896,-1258.350101,9918.759623
2590.087499,-995.924147,-1110.308913,9474.636058
2590.087828,0.000000,-666.185348,9178.553681
2590.088157,1072.533697,-666.185348,8956.491898
2590.088486,1532.190996,-814.226536,8364.327145
2590.088816,2221.676944,222.061783,7402.059420
2590.089145,536.266849,592.164754,7846.182985
2590.089474,306.438199,666.185348,8142.265362
2590.089803,0.000000,222.061783,8438.347739
2590.090132,-153.219100,-518.144159,9474.636058
2590.090461,-229.828649,-1184.329507,9696.697840
2590.090790,-229.828649,-1776.494261,9622.677246
2590.091119,-689.485948,-1776.494261,9622.677246
2590.091449,-536.266849,-1628.453072,9770.718434
2590.091778,76.609550,-1110.308913,9548.656652
2590.092107,689.485948,-1258.350101,9104.533087
2590.092436,1378.971896,-592.164754,8956.491898
2590.092765,1378.971896,-0.000000,8290.306550
2590.093094,1608.800546,444.123565,7994.224174
2590.093423,1072.533697,962.267725,7846.182985
2590.093752,459.657299,666.185348,8660.409521
2590.094081,0.000000,444.123565,9030.512492
2590.094411,-306.438199,-444.123565,9696.697840
2590.094740,-153.219100,-888.247130,10066.800811
2590.095069,-536.266849,-814.226536,9548.656652
2590.095398,-536.266849,-962.267725,9548.656652
2590.095727,-383.047749,-1036.288319,9918.759623
2590.096056,459.657299,-444.123565,9400.615463
2590.096385,1149.143247,-74.020594,8734.430116
2590.096714,1532.190996,148.041188,8438.347739
2590.097044,1378.971896,1184.329507,8882.471304
2590.097373,1608.800546,1110.308913,8808.450710
2590.097702,1225.752797,1554.432478,8586.388927
2590.098031,306.438199,1036.288319,9474.636058
2590.098360,0.000000,370.102971,9844.739029
2590.098689,0.000000,-444.123565,9844.739029
2590.099018,0.000000,-1110.308913,9844.739029
2590.099347,0.000000,-814.226536,9770.718434
2590.099676,76.609550,-740.205942,9474.636058
2590.100006,459.657299,-814.226536,8734.430116
2590.100335,1532.190996,-74.020594,8438.347739
2590.100664,2068.457845,222.061783,7772.162391
2590.100993,1991.848295,296.082377,8068.244768
2590.101322,1762.019645,1406.391290,7846.182985
2590.101651,1225.752797,1554.432478,8216.285956
2590.101980,76.609550,888.247130,8956.491898
2590.102309,-383.047749,222.061783,9474.636058
2590.102638,-229.828649,-74.020594,10732.986159
2590.102968,-536.266849,-444.123565,10288.862594
2590.103297,-612.876398,-518.144159,9844.739029
2590.103626,-995.924147,-814.226536,10066.800811
2590.103955,-612.876398,-222.061783,10066.800811
2590.104284,383.047749,-296.082377,8882.471304
2590.104613,995.924147,-0.000000,8734.430116
2590.104942,1762.019645,592.164754,9030.512492
2590.105271,2068.457845,518.144159,8512.368333
2590.105601,1072.533697,888.247130,8068.244768
2590.105930,919.314598,1628.453072,8364.327145
2590.106259,-383.047749,1036.288319,8882.471304
2590.106588,-919.314598,666.185348,9622.677246
2590.106917,-1072.533697,-370.102971,10658.965565
2590.107246,-306.438199,-1184.329507,10066.800811
2590.107575,-1225.752797,-1110.308913,9548.656652
2590.107904,-995.924147,-592.164754,9992.780217
2590.108233,-383.047749,-518.144159,9696.697840
2590.108563,76.609550,-0.000000,9030.512492
2590.108892,1302.362347,444.123565,8808.450710
2590.109221,2145.067394,-0.000000,8660.409521
2590.109550,1608.800546,222.061783,7624.121203
2590.109879,842.705048,1184.329507,7402.059420
2590.110208,306.438199,814.226536,7994.224174
2590.110537,-459.657299,666.185348,8142.265362
2590.110866,-689.485948,-74.020594,9178.553681
2590.111196,-306.438199,-814.226536,9918.759623
2590.111525,-1225.752797,-962.267725,10066.800811
2590.111854,-1762.019645,-1480.411884,9696.697840
2590.112183,-1762.019645,-1184.329507,9474.636058
2590.112512,-536.266849,-1184.329507,9548.656652
2590.112841,153.219100,-814.226536,9178.553681
2590.113170,1072.533697,-740.205942,8956.491898
2590.113499,1838.629195,-296.082377,8734.430116
2590.113828,1762.019645,370.102971,8142.265362
2590.114158,1302.362347,1184.329507,7920.203579
2590.114487,919.314598,1480.411884,8660.409521
2590.114816,306.438199,740.205942,9104.533087
2590.115145,0.000000,-296.082377,9474.636058
2590.115474,-229.828649,-1184.329507,9844.739029
2590.115803,306.438199,-1702.473667,9844.739029
2590.116132,-383.047749,-1850.514855,10140.821405
2590.116461,76.609550,-1628.453072,9622.677246
2590.116791,383.047749,-740.205942,9474.636058
2590.117120,1608.800546,-518.144159,9178.553681
2590.117449,2145.067394,-0.000000,8512.368333
2590.117778,2374.896044,962.267725,8364.327145
2590.118107,1915.238745,962.267725,8364.327145
2590.118436,1455.581446,1184.329507,8734.430116
2590.118765,1302.362347,814.226536,8586.388927
2590.119094,306.438199,-74.020594,9326.594869
2590.119423,0.000000,-296.082377,9918.759623
2590.119753,0.000000,-1406.391290,10288.862594
2590.120082,-766.095498,-1036.288319,9844.739029
2590.120411,-612.876398,-1036.288319,9770.718434
2590.120740,0.000000,-1110.308913,9030.512492
2590.121069,0.000000,-444.123565,9400.615463
2590.121398,536.266849,-222.061783,9104.533087
2590.121727,1149.143247,-518.144159,8586.388927
2590.122056,1302.362347,370.102971,8290.306550
2590.122386,1072.533697,592.164754,8142.265362
2590.122715,612.876398,370.102971,8660.409521
2590.123044,0.000000,444.123565,8882.471304
2590.123373,-306.438199,-148.041188,9326.594869
2590.123702,153.219100,-740.205942,9918.759623
2590.124031,-229.828649,-814.226536,9474.636058
2590.124360,-383.047749,-740.205942,9326.594869
2590.124689,0.000000,-814.226536,9474.636058
2590.125018,612.876398,-962.267725,8660.409521
2590.125348,1225.752797,-592.164754,8290.306550
2590.125677,1532.190996,-74.020594,8660.409521
2590.126006,1378.971896,222.061783,8586.388927
2590.126335,995.924147,1184.329507,7920.203579
2590.126664,229.828649,1258.350101,7994.224174
2590.126993,0.000000,444.123565,8660.409521
2590.127322,-766.095498,-0.000000,9178.553681
2590.127651,-459.657299,-1184.329507,10362.883188
2590.127981,-842.705048,-1184.329507,10066.800811
2590.128310,-919.314598,-1258.350101,10066.800811
2590.128639,-1302.362347,-1184.329507,9992.780217
2590.128968,-689.485948,-1036.288319,9844.739029
2590.129297,76.609550,-740.205942,9030.512492
2590.129626,689.485948,-296.082377,8586.388927
2590.129955,1915.238745,-148.041188,8216.285956
2590.130284,1762.019645,370.102971,8660.409521
2590.130613,842.705048,592.164754,7994.224174
2590.130943,306.438199,740.205942,7846.182985
2590.131272,-689.485948,592.164754,8734.430116
2590.131601,-1225.752797,222.061783,9474.636058
2590.131930,-766.095498,-962.267725,9992.780217
2590.132259,-766.095498,-1184.329507,9474.636058
2590.132588,-1225.752797,-1036.288319,9622.677246
2590.132917,-689.485948,-1258.350101,9992.780217
2590.133246,-689.485948,-666.185348,9474.636058
2590.133576,383.047749,-222.061783,9326.594869
2590.133905,1608.800546,-370.102971,8364.327145
2590.134234,2298.286494,518.144159,8216.285956
2590.134563,2374.896044,814.226536,8512.368333
2590.134892,2298.286494,1258.350101,7994.224174
2590.135221,612.876398,1554.432478,8142.265362
2590.135550,459.657299,962.267725,8586.388927
2590.135879,76.609550,592.164754,9178.553681
2590.136208,76.609550,-0.000000,9992.780217
2590.136538,153.219100,-444.123565,9548.656652
