#time,accel_x,accel_y,accel_z
2603.340382,536.266849,-148.041188,9252.574275
2603.340711,536.266849,-296.082377,9178.553681
2603.341040,306.438199,-74.020594,8882.471304
2603.341369,306.438199,-74.020594,8956.491898
2603.341698,306.438199,-222.061783,9104.533087
2603.342027,229.828649,-444.123565,9030.512492
2603.342356,0.000000,-296.082377,9030.512492
2603.342685,383.047749,-0.000000,8882.471304
2603.343014,459.657299,-0.000000,8956.491898
2603.343343,536.266849,-0.000000,8882.471304
2603.343672,383.047749,-0.000000,8882.471304
2603.344001,383.047749,-0.000000,8882.471304
2603.344330,459.657299,-74.020594,8956.491898
2603.344659,306.438199,-148.041188,9104.533087
2603.344988,306.438199,296.082377,9030.512492
2603.345317,306.438199,-148.041188,9030.512492
2603.345646,153.219100,-74.020594,9104.533087
2603.345975,229.828649,-74.020594,9104.533087
2603.346304,306.438199,-148.041188,8956.491898
2603.346633,306.438199,-296.082377,9030.512492
2603.346962,612.876398,-518.144159,9326.594869
2603.347291,612.876398,-222.061783,9178.553681
2603.347620,383.047749,-370.102971,9326.594869
2603.347949,229.828649,-222.061783,9252.574275
2603.348278,306.438199,-74.020594,9030.512492
2603.348607,229.828649,-222.061783,9104.533087
2603.348936,766.095498,-0.000000,9178.553681
2603.349265,383.047749,-222.061783,9104.533087
2603.349594,536.266849,-0.000000,9252.574275
2603.349923,383.047749,-592.164754,9030.512492
2603.350252,153.219100,-148.041188,9178.553681
2603.350581,229.828649,-74.020594,9326.594869
2603.350910,229.828649,-222.061783,9104.533087
2603.351239,153.219100,-222.061783,9104.533087
2603.351568,229.828649,-444.123565,9104.533087
2603.351897,383.047749,-0.000000,9548.656652
2603.352226,306.438199,-148.041188,9178.553681
2603.352555,306.438199,-0.000000,8808.450710
2603.352884,536.266849,-74.020594,9030.512492
2603.353213,459.657299,-0.000000,8956.491898
2603.353542,0.000000,-0.000000,9030.512492
2603.353871,229.828649,-0.000000,9104.533087
2603.354200,459.657299,-222.061783,8882.471304
2603.354529,306.438199,-518.144159,8438.347739
2603.354857,306.438199,-0.000000,8956.491898
2603.355186,153.219100,-74.020594,8882.471304
2603.355515,383.047749,-370.102971,8882.471304
2603.355844,383.047749,-666.185348,9030.512492
2603.356173,306.438199,-518.144159,8882.471304
2603.356502,689.485948,-444.123565,8882.471304
2603.356831,459.657299,-148.041188,9252.574275
2603.357160,536.266849,-0.000000,9104.533087
2603.357489,153.219100,-0.000000,8808.450710
2603.357818,383.047749,-148.041188,9178.553681
2603.358147,612.876398,-518.144159,9030.512492
2603.358476,612.876398,-296.082377,9178.553681
2603.358805,383.047749,-296.082377,9400.615463
2603.359134,306.438199,-0.000000,9104.533087
2603.359463,229.828649,-74.020594,9252.574275
2603.359792,306.438199,-148.041188,9178.553681
2603.360121,459.657299,-74.020594,9326.594869
2603.360450,306.438199,-0.000000,9178.553681
2603.360779,306.438199,-222.061783,9178.553681
2603.361108,536.266849,370.102971,9400.615463
2603.361437,383.047749,-74.020594,9474.636058
2603.361766,229.828649,-148.041188,8882.471304
2603.362095,459.657299,-0.000000,9178.553681
2603.362424,306.438199,-0.000000,9252.574275
2603.362753,459.657299,-222.061783,9326.594869
2603.363082,153.219100,-444.123565,9030.512492
2603.363411,153.219100,-148.041188,9252.574275
2603.363740,306.438199,-444.123565,9178.553681
2603.364069,383.047749,-222.061783,8956.491898
2603.364398,153.219100,-148.041188,9030.512492
2603.364727,536.266849,-148.041188,8956.491898
2603.365056,536.266849,-222.061783,8956.491898
2603.365385,689.485948,-0.000000,8808.450710
2603.365714,0.000000,-0.000000,9104.533087
2603.366043,612.876398,-148.041188,8808.450710
2603.366372,306.438199,-148.041188,8882.471304
2603.366701,153.219100,-0.000000,8956.491898
2603.367030,76.609550,-74.020594,8882.471304
2603.367359,536.266849,-296.082377,8882.471304
2603.367688,229.828649,-74.020594,9030.512492
2603.368017,536.266849,-222.061783,8956.491898
2603.368346,536.266849,-148.041188,9104.533087
2603.368675,306.438199,-74.020594,9030.512492
2603.369004,229.828649,-74.020594,9030.512492
2603.369333,229.828649,-148.041188,8956.491898
2603.369661,306.438199,-370.102971,9400.615463
2603.369990,919.314598,-1480.411884,9622.677246
2603.370319,1685.410096,-1184.329507,9400.615463
2603.370648,1685.410096,-740.205942,9252.574275
2603.370977,2221.676944,-592.164754,9474.636058
2603.371306,2451.505594,-74.020594,8882.471304
2603.371635,3524.039291,296.082377,9030.512492
2603.371964,4366.744339,-222.061783,9400.615463
2603.372293,3907.087040,-0.000000,8438.347739
2603.372622,3524.039291,444.123565,8882.471304
2603.372951,2451.505594,592.164754,8586.388927
2603.373280,2681.334243,-222.061783,9400.615463
2603.373609,2834.553343,-518.144159,9400.615463
2603.373938,1378.971896,-666.185348,9326.594869
2603.374267,1991.848295,-1554.432478,10066.800811
2603.374596,2068.457845,-1924.535449,9474.636058
2603.374925,2298.286494,296.082377,9474.636058
2603.375254,2451.505594,-1184.329507,10140.821405
2603.375583,3370.820191,-814.226536,9030.512492
2603.375912,3753.867940,666.185348,9326.594869
2603.376241,5286.058936,962.267725,7994.224174
2603.376570,5362.668486,1332.370696,7994.224174
2603.376899,5132.839837,1406.391290,9400.615463
2603.377228,5132.839837,962.267725,7402.059420
2603.377557,4136.915689,1406.391290,8438.347739
2603.377886,3524.039291,-0.000000,8808.450710
2603.378215,2374.896044,-0.000000,8290.306550
2603.378544,1915.238745,-222.061783,9696.697840
2603.378873,1225.752797,-1332.370696,9474.636058
2603.379202,1455.581446,-888.247130,10140.821405
2603.379531,612.876398,-1702.473667,9918.759623
2603.379860,1685.410096,-888.247130,9252.574275
2603.380189,1378.971896,-666.185348,9844.739029
2603.380518,3217.601092,444.123565,8882.471304
2603.380847,3064.381992,-74.020594,8734.430116
2603.381176,4749.792088,1628.453072,9696.697840
2603.381505,4826.401637,814.226536,7994.224174
2603.381834,4826.401637,1406.391290,8438.347739
2603.382163,4826.401637,222.061783,9104.533087
2603.382492,3753.867940,-0.000000,8512.368333
2603.382821,3294.210641,-666.185348,9252.574275
2603.383150,2528.115143,-1406.391290,9696.697840
2603.383479,2528.115143,-1628.453072,10510.924376
2603.383808,1762.019645,-2072.576638,9770.718434
2603.384137,2451.505594,-1554.432478,10362.883188
2603.384466,2298.286494,-1406.391290,9696.697840
2603.384794,3140.991542,-0.000000,9474.636058
2603.385123,3524.039291,740.205942,8586.388927
2603.385452,4060.306139,1480.411884,8734.430116
2603.385781,3907.087040,2220.617826,7772.162391
2603.386110,4673.182538,2220.617826,7476.080014
2603.386439,4596.572988,2220.617826,7772.162391
2603.386768,3677.258390,1776.494261,7402.059420
2603.387097,3294.210641,888.247130,8142.265362
2603.387426,2528.115143,-296.082377,9030.512492
2603.387755,2298.286494,-1628.453072,9696.697840
2603.388084,1991.848295,-2590.720797,10214.842000
2603.388413,2374.896044,-2738.761985,10807.006753
2603.388742,2451.505594,-2960.823768,10436.903782
2603.389071,3447.429741,-1924.535449,10288.862594
2603.389400,4519.963438,-444.123565,9696.697840
2603.389729,5592.497135,444.123565,9030.512492
2603.390058,6052.154434,1776.494261,8438.347739
2603.390387,6205.373534,2294.638420,7402.059420
2603.390716,4903.011187,2516.700203,7105.977043
2603.391045,4443.353888,3404.947333,6957.935855
2603.391374,3600.648841,2368.659014,7031.956449
2603.391703,2911.162892,962.267725,8142.265362
2603.392032,1072.533697,-1332.370696,9326.594869
2603.392361,-306.438199,-3404.947333,10362.883188
2603.392690,-766.095498,-4219.173869,11399.171507
2603.393019,-459.657299,-4737.318029,11177.109724
2603.393348,-153.219100,-2738.761985,10658.965565
2603.393677,229.828649,-2516.700203,10955.047942
2603.394006,536.266849,-444.123565,10140.821405
2603.394335,2757.943793,-74.020594,11177.109724
2603.394664,5209.449386,1184.329507,9104.533087
2603.394993,7048.078582,1628.453072,8808.450710
2603.395322,6281.983084,1036.288319,8660.409521
2603.395651,5515.887586,1406.391290,7550.100608
2603.395980,6128.763984,2886.803174,7772.162391
2603.396309,5592.497135,2146.597232,6809.894666
2603.396638,5439.278036,3478.967927,5181.441594
2603.396967,4903.011187,2368.659014,7105.977043
2603.397296,3983.696590,1924.535449,6291.750507
2603.397625,4136.915689,-444.123565,7772.162391
2603.397954,1225.752797,-5625.565159,9918.759623
2603.398283,0.000000,-5699.585753,12509.480420
2603.398612,-1302.362347,-2960.823768,11991.336260
2603.398941,-842.705048,-7105.977043,13915.871710
2603.399270,-1455.581446,-1702.473667,10362.883188
2603.399599,1608.800546,370.102971,12435.459826
2603.399927,3677.258390,148.041188,11251.130318
2603.400256,5362.668486,2738.761985,8512.368333
2603.400585,7354.516781,962.267725,9474.636058
2603.400914,7737.564530,2368.659014,7698.141797
2603.401243,8197.221829,4441.235652,5255.462188
2603.401572,7967.393179,2516.700203,5107.421000
2603.401901,8044.002729,1998.556043,4663.297435
2603.402230,7201.297681,2294.638420,6291.750507
2603.402559,5669.106685,-0.000000,6957.935855
2603.402888,3524.039291,1776.494261,5625.565159
2603.403217,4290.134789,-518.144159,7624.121203
2603.403546,153.219100,-3627.009116,11621.233289
2603.403875,-2451.505594,-6365.771101,13027.624579
2603.404204,-2451.505594,-222.061783,11177.109724
2603.404533,-995.924147,-7624.121203,12657.521608
2603.404862,-1991.848295,-518.144159,10584.944971
2603.405191,995.924147,888.247130,13249.686362
2603.405520,383.047749,1924.535449,10066.800811
2603.405849,-1532.190996,1850.514855,11103.089130
2603.406178,4673.182538,-962.267725,10288.862594
2603.406507,6052.154434,3478.967927,5699.585753
2603.406836,5822.325785,3034.844362,7105.977043
2603.407165,4519.963438,1332.370696,3997.112087
2603.407494,4979.620737,962.267725,6809.894666
2603.407823,2834.553343,1036.288319,7698.141797
2603.408152,766.095498,-444.123565,6365.771101
2603.408481,-2451.505594,-1184.329507,10807.006753
2603.408810,-1991.848295,-3478.967927,10658.965565
2603.409139,-1608.800546,-296.082377,7920.203579
2603.409468,-3294.210641,-1554.432478,11621.233289
2603.409797,-3370.820191,-1480.411884,10881.027347
2603.410126,-1762.019645,-1480.411884,12953.603985
2603.410455,-1302.362347,-444.123565,10881.027347
2603.410784,0.000000,888.247130,8216.285956
2603.411113,-766.095498,-1110.308913,9918.759623
2603.411442,-1915.238745,592.164754,10807.006753
2603.411771,-153.219100,-0.000000,9992.780217
2603.412100,1149.143247,1554.432478,6291.750507
2603.412429,3907.087040,962.267725,7550.100608
2603.412758,2145.067394,1258.350101,5847.626942
2603.413087,1838.629195,592.164754,7624.121203
2603.413416,0.000000,-1110.308913,7624.121203
2603.413745,-153.219100,-2368.659014,8808.450710
2603.414074,-229.828649,-1406.391290,10881.027347
2603.414404,-2068.457845,-1332.370696,9992.780217
2603.414733,-2298.286494,-1554.432478,10807.006753
2603.415062,-1991.848295,-444.123565,10881.027347
2603.415391,536.266849,740.205942,9548.656652
2603.415720,919.314598,1554.432478,9104.533087
2603.416050,1608.800546,962.267725,9104.533087
2603.416379,1072.533697,2146.597232,8882.471304
2603.416708,1455.581446,222.061783,9104.533087
2603.417037,842.705048,1702.473667,7476.080014
2603.417366,842.705048,-222.061783,7254.018232
2603.417695,229.828649,-1332.370696,8734.430116
2603.418025,-766.095498,-2368.659014,8882.471304
2603.418354,-1072.533697,-3478.967927,9918.759623
2603.418683,-1149.143247,-3330.926739,9918.759623
2603.419012,-612.876398,-1998.556043,9622.677246
2603.419341,-459.657299,-962.267725,9770.718434
2603.419671,-383.047749,444.123565,9548.656652
2603.420000,383.047749,814.226536,9770.718434
2603.420329,1072.533697,1036.288319,9770.718434
2603.420658,2528.115143,2146.597232,8882.471304
2603.420987,3064.381992,2516.700203,7994.224174
2603.421317,3677.258390,2886.803174,6883.915261
2603.421646,3600.648841,1258.350101,8216.285956
2603.421975,2834.553343,-222.061783,8364.327145
2603.422304,1762.019645,-592.164754,8216.285956
2603.422633,536.266849,-1036.288319,9326.594869
2603.422963,0.000000,-1628.453072,9104.533087
2603.423292,-536.266849,-2220.617826,9400.615463
2603.423621,-689.485948,-2664.741391,9992.780217
2603.423950,-383.047749,-1554.432478,9918.759623
2603.424279,-306.438199,-740.205942,10288.862594
2603.424608,0.000000,-296.082377,10658.965565
2603.424938,1532.190996,1110.308913,10140.821405
2603.425267,1225.752797,1110.308913,8808.450710
2603.425596,2681.334243,1258.350101,9104.533087
2603.425925,3217.601092,1406.391290,7624.121203
2603.426254,3140.991542,1702.473667,7402.059420
2603.426584,3140.991542,1332.370696,7994.224174
2603.426913,1991.848295,1036.288319,7920.203579
2603.427242,919.314598,-518.144159,7994.224174
2603.427571,-766.095498,-1702.473667,9178.553681
2603.427900,-2145.067394,-2220.617826,10584.944971
2603.428230,-2068.457845,-1998.556043,10214.842000
2603.428559,-842.705048,-814.226536,9474.636058
2603.428888,-995.924147,-814.226536,9400.615463
2603.429217,-1532.190996,-592.164754,9696.697840
2603.429546,-1838.629195,-592.164754,10436.903782
2603.429876,-1302.362347,-962.267725,10066.800811
2603.430205,-919.314598,-0.000000,9992.780217
2603.430534,-1149.143247,-0.000000,9696.697840
2603.430863,-1762.019645,592.164754,10658.965565
2603.431192,-1225.752797,-0.000000,9326.594869
2603.431522,-612.876398,296.082377,8956.491898
2603.431851,-383.047749,-814.226536,7994.224174
2603.432180,-459.657299,-518.144159,7550.100608
2603.432509,-306.438199,-0.000000,8734.430116
2603.432838,-383.047749,-592.164754,7772.162391
2603.433167,0.000000,-296.082377,8068.244768
2603.433497,0.000000,-962.267725,8512.368333
2603.433826,-383.047749,-814.226536,8364.327145
2603.434155,-306.438199,-444.123565,9696.697840
2603.434484,-383.047749,666.185348,9178.553681
2603.434813,0.000000,962.267725,7994.224174
2603.435143,-995.924147,370.102971,9178.553681
2603.435472,-919.314598,148.041188,9622.677246
2603.435801,-612.876398,222.061783,8808.450710
2603.436130,-306.438199,-370.102971,9548.656652
2603.436459,306.438199,-222.061783,8734.430116
2603.436789,229.828649,-222.061783,8734.430116
2603.437118,-612.876398,-1480.411884,9400.615463
2603.437447,306.438199,-2220.617826,9400.615463
2603.437776,1072.533697,-1480.411884,9178.553681
2603.438105,1762.019645,-518.144159,9326.594869
2603.438435,2221.676944,444.123565,8142.265362
2603.438764,2681.334243,962.267725,8290.306550
2603.439093,2757.943793,666.185348,8586.388927
2603.439422,2374.896044,222.061783,9104.533087
2603.439751,1838.629195,740.205942,9178.553681
2603.440080,1302.362347,666.185348,9474.636058
2603.440410,1455.581446,370.102971,9474.636058
2603.440739,919.314598,296.082377,8882.471304
2603.441068,1455.581446,-888.247130,9696.697840
2603.441397,1455.581446,-888.247130,9696.697840
2603.441726,1302.362347,-1110.308913,9400.615463
2603.442056,995.924147,-74.020594,9104.533087
2603.442385,919.314598,666.185348,8660.409521
2603.442714,842.705048,518.144159,9104.533087
2603.443043,842.705048,-0.000000,9474.636058
2603.443372,995.924147,-0.000000,9622.677246
2603.443702,383.047749,-74.020594,9696.697840
2603.444031,766.095498,296.082377,9770.718434
2603.444360,919.314598,296.082377,8956.491898
2603.444689,1072.533697,222.061783,9326.594869
2603.445018,1455.581446,-814.226536,9252.574275
2603.445348,1072.533697,-740.205942,8956.491898
2603.445677,842.705048,-444.123565,9326.594869
2603.446006,1149.143247,74.020594,8512.368333
2603.446335,1225.752797,370.102971,7920.203579
2603.446664,0.000000,-222.061783,9104.533087
2603.446993,0.000000,-592.164754,9030.512492
2603.447323,-842.705048,-1184.329507,9178.553681
2603.447652,-689.485948,-444.123565,8956.491898
2603.447981,-612.876398,-0.000000,8882.471304
2603.448310,-1149.143247,296.082377,8882.471304
2603.448639,306.438199,-444.123565,9178.553681
2603.448969,-459.657299,-1184.329507,9622.677246
2603.449298,-1225.752797,-1184.329507,9474.636058
2603.449627,-995.924147,-888.247130,9548.656652
2603.449956,-1149.143247,-74.020594,8956.491898
2603.450285,-766.095498,666.185348,8882.471304
2603.450615,-459.657299,222.061783,8438.347739
2603.450944,-536.266849,-0.000000,8882.471304
2603.451273,-459.657299,-444.123565,9400.615463
2603.451602,-612.876398,-0.000000,8956.491898
2603.451931,-536.266849,-0.000000,8660.409521
2603.452261,-689.485948,-74.020594,8512.368333
2603.452590,-306.438199,-1480.411884,9178.553681
2603.452919,-1072.533697,-1998.556043,9030.512492
2603.453248,-306.438199,-1258.350101,9622.677246
2603.453577,-612.876398,-518.144159,9326.594869
2603.453906,-306.438199,444.123565,8808.450710
2603.454236,76.609550,518.144159,8808.450710
2603.454565,229.828649,296.082377,9252.574275
2603.454894,0.000000,-74.020594,9474.636058
2603.455223,229.828649,-222.061783,9400.615463
2603.455552,689.485948,1258.350101,9696.697840
2603.455882,1378.971896,962.267725,8364.327145
2603.456211,1685.410096,666.185348,8290.306550
2603.456540,1838.629195,-0.000000,8956.491898
2603.456869,2221.676944,-370.102971,8734.430116
2603.457198,1838.629195,222.061783,8734.430116
2603.457528,1762.019645,444.123565,8586.388927
2603.457857,1608.800546,-0.000000,8512.368333
2603.458186,689.485948,-0.000000,9252.574275
2603.458515,536.266849,-1258.350101,9770.718434
2603.458844,0.000000,-1332.370696,10214.842000
2603.459174,0.000000,-814.226536,10288.862594
2603.459503,0.000000,-222.061783,9104.533087
2603.459832,612.876398,-222.061783,9696.697840
2603.460161,1149.143247,-1036.288319,9696.697840
2603.460490,2374.896044,-1332.370696,10140.821405
2603.460819,1532.190996,-1332.370696,9104.533087
2603.461149,2604.724693,-0.000000,8586.388927
2603.461478,3064.381992,1850.514855,7920.203579
2603.461807,2911.162892,1480.411884,7846.182985
2603.462136,2911.162892,1406.391290,8512.368333
2603.462465,1149.143247,296.082377,9252.574275
2603.462795,1455.581446,-74.020594,9548.656652
2603.463124,536.266849,-444.123565,9770.718434
2603.463453,0.000000,-0.000000,9474.636058
2603.463782,-306.438199,-518.144159,9104.533087
2603.464111,-383.047749,-1184.329507,9548.656652
2603.464441,-842.705048,-1850.514855,9992.780217
2603.464770,229.828649,-2072.576638,9178.553681
2603.465099,153.219100,-148.041188,9252.574275
2603.465428,306.438199,222.061783,8586.388927
2603.465757,383.047749,740.205942,7994.224174
2603.466087,306.438199,148.041188,8438.347739
2603.466416,229.828649,-0.000000,8438.347739
2603.466745,689.485948,-0.000000,9030.512492
2603.467074,0.000000,-0.000000,8808.450710
2603.467403,306.438199,296.082377,7476.080014
2603.467732,0.000000,-222.061783,8290.306550
2603.468062,0.000000,-1036.288319,8956.491898
2603.468391,-459.657299,-1554.432478,8882.471304
2603.468720,-612.876398,-814.226536,8956.491898
2603.469049,-612.876398,-222.061783,9178.553681
2603.469378,-383.047749,74.020594,8364.327145
2603.469708,153.219100,222.061783,9178.553681
2603.470037,-766.095498,-666.185348,9178.553681
2603.470366,-689.485948,-296.082377,9104.533087
2603.470695,-1149.143247,-222.061783,9400.615463
2603.471024,-1149.143247,222.061783,9326.594869
2603.471354,-842.705048,-0.000000,8882.471304
2603.471683,-995.924147,-222.061783,9474.636058
2603.472012,-306.438199,-1332.370696,9400.615463
2603.472341,-689.485948,-1406.391290,9770.718434
2603.472670,-1072.533697,-1036.288319,9622.677246
2603.473000,-459.657299,-74.020594,9104.533087
2603.473329,-229.828649,-0.000000,8808.450710
2603.473658,-306.438199,296.082377,9030.512492
2603.473987,153.219100,-0.000000,9474.636058
2603.474316,0.000000,-370.102971,9252.574275
2603.474645,229.828649,-0.000000,9474.636058
2603.474975,536.266849,148.041188,9030.512492
2603.475304,536.266849,148.041188,8660.409521
2603.475633,689.485948,-222.061783,9178.553681
2603.475962,1225.752797,-592.164754,9326.594869
2603.476291,1608.800546,-444.123565,9178.553681
2603.476621,1608.800546,-148.041188,8586.388927
2603.476950,1378.971896,518.144159,8660.409521
2603.477279,1532.190996,740.205942,8364.327145
2603.477608,1302.362347,-0.000000,9030.512492
2603.477937,1685.410096,-222.061783,9178.553681
2603.478267,1072.533697,-370.102971,9252.574275
2603.478596,1072.533697,-74.020594,9474.636058
2603.478925,1838.629195,370.102971,9326.594869
2603.479254,1991.848295,296.082377,8882.471304
2603.479583,1915.238745,-0.000000,8882.471304
2603.479913,2298.286494,-518.144159,9252.574275
2603.480242,2145.067394,-74.020594,9326.594869
2603.480571,2068.457845,444.123565,8660.409521
2603.480900,1608.800546,666.185348,8512.368333
2603.481229,1762.019645,1110.308913,8512.368333
2603.481558,842.705048,-0.000000,9104.533087
2603.481888,76.609550,-370.102971,9770.718434
2603.482217,-229.828649,-666.185348,9696.697840
2603.482546,-306.438199,-370.102971,9474.636058
2603.482875,-306.438199,-444.123565,9030.512492
2603.483204,153.219100,-1110.308913,9252.574275
2603.483534,689.485948,-1184.329507,9696.697840
2603.483863,842.705048,-1628.453072,9400.615463
2603.484192,842.705048,-296.082377,9178.553681
2603.484521,1378.971896,740.205942,8438.347739
2603.484850,1378.971896,1110.308913,7920.203579
2603.485180,842.705048,1332.370696,7624.121203
2603.485509,459.657299,-370.102971,9696.697840
2603.485838,383.047749,-1036.288319,10066.800811
2603.486167,-919.314598,-222.061783,9326.594869
2603.486496,-689.485948,-444.123565,8882.471304
2603.486826,-1455.581446,-518.144159,7772.162391
2603.487155,-1302.362347,-444.123565,9400.615463
2603.487484,-1532.190996,-2294.638420,9844.739029
2603.487813,-1378.971896,-1480.411884,8512.368333
2603.488142,-1838.629195,-962.267725,9326.594869
2603.488471,-1991.848295,-0.000000,8216.285956
2603.488801,-1608.800546,518.144159,8882.471304
2603.489130,-1532.190996,-148.041188,9104.533087
2603.489459,-1532.190996,-0.000000,8660.409521
2603.489788,-1302.362347,-370.102971,9474.636058
2603.490117,0.000000,-0.000000,9400.615463
2603.490447,-306.438199,148.041188,8808.450710
2603.490776,-919.314598,-74.020594,9252.574275
2603.491105,-612.876398,-1036.288319,9252.574275
2603.491434,-383.047749,-1702.473667,9326.594869
2603.491763,-306.438199,-1776.494261,9548.656652
2603.492093,229.828649,-592.164754,9252.574275
2603.492422,919.314598,-0.000000,8142.265362
2603.492751,1455.581446,888.247130,7846.182985
2603.493080,1302.362347,518.144159,8142.265362
2603.493409,1378.971896,444.123565,8808.450710
2603.493739,1455.581446,-370.102971,8882.471304
2603.494068,995.924147,370.102971,9104.533087
2603.494397,919.314598,296.082377,8586.388927
2603.494726,689.485948,-0.000000,9400.615463
2603.495055,536.266849,-1110.308913,9252.574275
2603.495384,766.095498,-1628.453072,9548.656652
2603.495714,842.705048,-814.226536,10362.883188
2603.496043,919.314598,-148.041188,9548.656652
2603.496372,1149.143247,666.185348,8882.471304
2603.496701,919.314598,296.082377,9770.718434
2603.497030,766.095498,148.041188,9178.553681
2603.497360,1532.190996,222.061783,8734.430116
2603.497689,1225.752797,962.267725,9326.594869
2603.498018,919.314598,1776.494261,8586.388927
2603.498347,1685.410096,518.144159,9252.574275
2603.498676,1915.238745,-74.020594,8808.450710
2603.499006,2374.896044,-296.082377,8734.430116
2603.499335,1378.971896,-1036.288319,9252.574275
2603.499664,1608.800546,-296.082377,9474.636058
2603.499993,459.657299,666.185348,9030.512492
2603.500322,1685.410096,518.144159,8586.388927
2603.500652,1991.848295,814.226536,9548.656652
2603.500981,459.657299,-1184.329507,8882.471304
2603.501310,766.095498,-0.000000,9548.656652
2603.501639,1225.752797,666.185348,9918.759623
2603.501968,153.219100,666.185348,8734.430116
2603.502297,1072.533697,-0.000000,9400.615463
2603.502627,1225.752797,-222.061783,8956.491898
2603.502956,1072.533697,-2146.597232,8808.450710
2603.503285,689.485948,-740.205942,9622.677246
2603.503614,-995.924147,-1184.329507,9474.636058
2603.503943,-1149.143247,-222.061783,9252.574275
2603.504273,-766.095498,-0.000000,8364.327145
2603.504602,-1532.190996,-592.164754,9696.697840
2603.504931,-1915.238745,-1258.350101,9252.574275
2603.505260,-1149.143247,-74.020594,9326.594869
2603.505589,-842.705048,-74.020594,8956.491898
2603.505919,-459.657299,-0.000000,8586.388927
2603.506248,153.219100,-296.082377,9104.533087
2603.506577,383.047749,-1110.308913,8734.430116
2603.506906,76.609550,-814.226536,9030.512492
2603.507235,306.438199,-148.041188,8512.368333
2603.507565,153.219100,592.164754,8438.347739
2603.507894,306.438199,1332.370696,8216.285956
2603.508223,0.000000,518.144159,8512.368333
2603.508552,-689.485948,-0.000000,8956.491898
2603.508881,-1225.752797,-962.267725,9326.594869
2603.509210,-1378.971896,-296.082377,9918.759623
2603.509540,-1455.581446,-444.123565,9178.553681
2603.509869,-1072.533697,-444.123565,8882.471304
2603.510198,-919.314598,-1036.288319,9104.533087
2603.510527,-842.705048,-1036.288319,8956.491898
2603.510856,-689.485948,-1480.411884,9696.697840
2603.511186,-229.828649,-592.164754,9770.718434
2603.511515,229.828649,370.102971,8586.388927
2603.511844,919.314598,888.247130,8142.265362
2603.512173,1072.533697,1110.308913,8512.368333
2603.512502,612.876398,666.185348,8808.450710
2603.512832,536.266849,-0.000000,9400.615463
2603.513161,689.485948,-0.000000,9252.574275
2603.513490,383.047749,-0.000000,8808.450710
2603.513819,459.657299,-222.061783,9474.636058
2603.514148,612.876398,-1036.288319,9844.739029
2603.514478,689.485948,-1850.514855,9844.739029
2603.514807,689.485948,-1184.329507,9326.594869
2603.515136,842.705048,-444.123565,8512.368333
2603.515465,995.924147,222.061783,8660.409521
2603.515794,1532.190996,296.082377,8586.388927
2603.516124,2145.067394,-148.041188,8808.450710
2603.516453,1991.848295,-0.000000,9252.574275
2603.516782,1991.848295,-222.061783,9548.656652
2603.517111,2068.457845,666.185348,9400.615463
2603.517440,1685.410096,1110.308913,8290.306550
2603.517769,2298.286494,666.185348,9104.533087
2603.518099,2068.457845,-962.267725,9400.615463
2603.518428,1838.629195,-1036.288319,8882.471304
2603.518757,2068.457845,-592.164754,9474.636058
2603.519086,1532.190996,-370.102971,8808.450710
2603.519415,76.609550,148.041188,8808.450710
2603.519744,383.047749,-0.000000,9474.636058
2603.520073,153.219100,-518.144159,9104.533087
2603.520402,76.609550,-222.061783,9178.553681
2603.520731,153.219100,-222.061783,9474.636058
2603.521060,229.828649,518.144159,9474.636058
2603.521389,76.609550,-0.000000,9400.615463
2603.521718,459.657299,-148.041188,9104.533087
2603.522047,1072.533697,-740.205942,9474.636058
2603.522376,1225.752797,-666.185348,8512.368333
2603.522705,1225.752797,-0.000000,8438.347739
2603.523034,766.095498,740.205942,7994.224174
2603.523363,1149.143247,1110.308913,8290.306550
2603.523691,1455.581446,148.041188,8068.244768
2603.524020,842.705048,-0.000000,8808.450710
2603.524349,-229.828649,-148.041188,8808.450710
2603.524678,-919.314598,-0.000000,9400.615463
2603.525007,-766.095498,148.041188,8734.430116
2603.525336,-842.705048,-444.123565,9030.512492
2603.525665,-995.924147,-1036.288319,9326.594869
2603.525994,-1838.629195,-2220.617826,9844.739029
2603.526323,-1608.800546,-1702.473667,9992.780217
2603.526652,-1915.238745,-888.247130,9474.636058
2603.526981,-1532.190996,-148.041188,9104.533087
2603.527310,-1455.581446,296.082377,9030.512492
2603.527639,-1149.143247,592.164754,9474.636058
2603.527968,-766.095498,-1184.329507,9104.533087
2603.528297,-919.314598,-222.061783,9400.615463
2603.528626,-766.095498,-296.082377,9474.636058
2603.528955,-689.485948,222.061783,8734.430116
2603.529284,-536.266849,-296.082377,9030.512492
2603.529613,-153.219100,-814.226536,9326.594869
2603.529942,306.438199,-814.226536,8808.450710
2603.530271,306.438199,-444.123565,8956.491898
2603.530600,995.924147,740.205942,8660.409521
2603.530929,612.876398,962.267725,8142.265362
2603.531258,995.924147,666.185348,8808.450710
2603.531587,689.485948,-74.020594,8808.450710
2603.531916,229.828649,-148.041188,9178.553681
2603.532245,-689.485948,-222.061783,9622.677246
2603.532574,919.314598,-370.102971,9844.739029
2603.532903,306.438199,-148.041188,8734.430116
2603.533232,153.219100,-0.000000,9622.677246
2603.533561,1532.190996,-1184.329507,9770.718434
2603.533890,1072.533697,-740.205942,8956.491898
2603.534219,1838.629195,-0.000000,9252.574275
2603.534548,1838.629195,518.144159,8438.347739
2603.534877,2068.457845,1110.308913,7920.203579
2603.535206,1225.752797,1184.329507,9178.553681
2603.535535,1532.190996,222.061783,8290.306550
2603.535864,612.876398,-222.061783,9400.615463
2603.536193,229.828649,-0.000000,9474.636058
2603.536522,306.438199,-0.000000,9104.533087
2603.536851,383.047749,-592.164754,9400.615463
2603.537180,612.876398,-1332.370696,9696.697840
2603.537509,995.924147,-2220.617826,9326.594869
2603.537838,919.314598,-1776.494261,9992.780217
2603.538167,1149.143247,-740.205942,9474.636058
2603.538496,1685.410096,-0.000000,8734.430116
2603.538825,2068.457845,592.164754,8586.388927
2603.539154,2451.505594,888.247130,8660.409521
2603.539483,2374.896044,222.061783,7476.080014
2603.539812,1608.800546,222.061783,8808.450710
2603.540141,1608.800546,888.247130,8438.347739
2603.540470,1302.362347,814.226536,8068.244768
2603.540799,536.266849,370.102971,8290.306550
2603.541128,0.000000,-1184.329507,9400.615463
2603.541457,-689.485948,-2294.638420,9844.739029
2603.541786,-1532.190996,-1702.473667,10140.821405
2603.542115,-1149.143247,-1776.494261,9252.574275
2603.542444,-1072.533697,-592.164754,8290.306550
2603.542773,-536.266849,-0.000000,8586.388927
2603.543102,-536.266849,-0.000000,9030.512492
2603.543431,-536.266849,-0.000000,8956.491898
2603.543760,-612.876398,-0.000000,9104.533087
2603.544089,76.609550,740.205942,8956.491898
2603.544418,0.000000,666.185348,9030.512492
2603.544747,-689.485948,-0.000000,9104.533087
2603.545076,0.000000,-592.164754,9326.594869
2603.545405,-153.219100,-518.144159,8956.491898
2603.545734,-689.485948,-222.061783,8660.409521
2603.546063,0.000000,-148.041188,8808.450710
2603.546392,-459.657299,148.041188,7846.182985
2603.546721,-1225.752797,-0.000000,8882.471304
2603.547050,-612.876398,-1406.391290,9474.636058
2603.547379,-1225.752797,-962.267725,9178.553681
2603.547708,-995.924147,-148.041188,9474.636058
2603.548037,-459.657299,370.102971,9104.533087
2603.548366,-459.657299,-370.102971,9326.594869
2603.548695,-153.219100,-444.123565,9474.636058
2603.549024,0.000000,-1332.370696,10140.821405
2603.549353,-842.705048,-1554.432478,10658.965565
2603.549682,0.000000,-666.185348,9400.615463
2603.550011,-383.047749,962.267725,9326.594869
2603.550340,0.000000,962.267725,8438.347739
2603.550669,459.657299,888.247130,8956.491898
2603.550998,383.047749,-370.102971,9030.512492
2603.551327,0.000000,-0.000000,9104.533087
2603.551656,383.047749,-0.000000,9326.594869
2603.551985,-766.095498,-0.000000,9252.574275
2603.552314,0.000000,-296.082377,9326.594869
2603.552643,459.657299,-740.205942,9622.677246
2603.552972,612.876398,-1036.288319,9400.615463
2603.553301,919.314598,-592.164754,9474.636058
2603.553630,1991.848295,-0.000000,9474.636058
2603.553959,1991.848295,888.247130,8734.430116
2603.554288,2298.286494,814.226536,8882.471304
2603.554617,2451.505594,1036.288319,9030.512492
2603.554946,2145.067394,740.205942,8808.450710
2603.555275,1762.019645,962.267725,9030.512492
2603.555604,2145.067394,888.247130,8734.430116
2603.555933,1838.629195,1258.350101,8142.265362
2603.556262,1991.848295,-74.020594,8512.368333
2603.556591,1762.019645,-370.102971,9178.553681
2603.556920,1378.971896,-1628.453072,9474.636058
2603.557249,1149.143247,-1184.329507,9400.615463
2603.557578,842.705048,-740.205942,8660.409521
2603.557907,383.047749,370.102971,8438.347739
2603.558236,229.828649,-296.082377,9030.512492
2603.558565,919.314598,-518.144159,9474.636058
2603.558894,689.485948,-740.205942,9696.697840
2603.559223,536.266849,-666.185348,8882.471304
2603.559552,536.266849,-0.000000,9030.512492
2603.559880,459.657299,148.041188,9178.553681
2603.560209,919.314598,-518.144159,9326.594869
2603.560538,1072.533697,-814.226536,9030.512492
2603.560867,1072.533697,-1036.288319,9400.615463
2603.561196,995.924147,-518.144159,8956.491898
2603.561525,1072.533697,296.082377,9030.512492
2603.561854,229.828649,592.164754,8142.265362
2603.562183,306.438199,-148.041188,8808.450710
2603.562512,-459.657299,-296.082377,9326.594869
2603.562841,-766.095498,-666.185348,9400.615463
2603.563170,0.000000,-0.000000,9326.594869
2603.563499,-1072.533697,-444.123565,8956.491898
2603.563828,-612.876398,-0.000000,9104.533087
2603.564157,-383.047749,-1258.350101,9474.636058
2603.564486,-995.924147,-1406.391290,9474.636058
2603.564815,-1225.752797,-1036.288319,9548.656652
2603.565144,-995.924147,-222.061783,9030.512492
2603.565473,-689.485948,666.185348,7994.224174
2603.565802,-536.266849,814.226536,7994.224174
2603.566131,-306.438199,518.144159,8882.471304
2603.566460,-995.924147,-296.082377,8734.430116
2603.566789,-1149.143247,-148.041188,9104.533087
2603.567118,-1225.752797,296.082377,9104.533087
2603.567447,-995.924147,296.082377,8734.430116
2603.567776,-919.314598,-370.102971,9030.512492
2603.568105,-766.095498,-888.247130,9474.636058
2603.568434,-612.876398,-1776.494261,9474.636058
2603.568763,-612.876398,-1258.350101,9474.636058
2603.569092,-306.438199,-0.000000,9326.594869
2603.569421,0.000000,-0.000000,8808.450710
2603.569750,383.047749,148.041188,8882.471304
2603.570079,842.705048,-148.041188,9474.636058
2603.570408,306.438199,-814.226536,9474.636058
2603.570737,1149.143247,-0.000000,9104.533087
2603.571066,1532.190996,666.185348,8808.450710
2603.571395,1378.971896,962.267725,8290.306550
2603.571724,1378.971896,-0.000000,8882.471304
2603.572053,1455.581446,-1036.288319,9622.677246
2603.572382,842.705048,-1110.308913,9178.553681
2603.572711,1225.752797,-222.061783,8882.471304
2603.573040,919.314598,148.041188,8512.368333
2603.573369,689.485948,888.247130,8290.306550
2603.573698,383.047749,-222.061783,9474.636058
2603.574027,612.876398,-592.164754,9474.636058
2603.574356,536.266849,-666.185348,9548.656652
2603.574685,1149.143247,-592.164754,9696.697840
2603.575014,1532.190996,-0.000000,9178.553681
2603.575343,1991.848295,-0.000000,8956.491898
2603.575672,2068.457845,-444.123565,9252.574275
2603.576001,2911.162892,-518.144159,8734.430116
2603.576330,2374.896044,-666.185348,8512.368333
2603.576659,2451.505594,370.102971,8216.285956
2603.576988,2604.724693,962.267725,7846.182985
2603.577317,1991.848295,-0.000000,8438.347739
2603.577646,1762.019645,-148.041188,8808.450710
2603.577975,536.266849,-222.061783,9548.656652
2603.578304,0.000000,-0.000000,9548.656652
2603.578633,76.609550,296.082377,9400.615463
2603.578962,459.657299,296.082377,8956.491898
2603.579291,229.828649,-0.000000,9104.533087
2603.579620,842.705048,-888.247130,9992.780217
2603.579949,1072.533697,-1628.453072,9252.574275
2603.580278,383.047749,-518.144159,9030.512492
2603.580607,1225.752797,-0.000000,8808.450710
2603.580936,1072.533697,888.247130,8290.306550
2603.581265,383.047749,1036.288319,8586.388927
2603.581594,0.000000,-0.000000,8956.491898
2603.581923,-153.219100,-444.123565,9252.574275
2603.582252,-612.876398,-74.020594,9622.677246
2603.582581,-459.657299,-74.020594,9030.512492
2603.582910,-1378.971896,-370.102971,9104.533087
2603.583239,-1532.190996,-814.226536,9844.739029
2603.583568,-995.924147,-1628.453072,9548.656652
2603.583897,-1378.971896,-1850.514855,9696.697840
2603.584226,-1225.752797,-1258.350101,9400.615463
2603.584555,-995.924147,-0.000000,9252.574275
2603.584884,-1225.752797,370.102971,9104.533087
2603.585213,-1072.533697,148.041188,8512.368333
2603.585542,-689.485948,-0.000000,9030.512492
2603.585871,-612.876398,-148.041188,9474.636058
2603.586200,-689.485948,592.164754,9104.533087
2603.586529,-766.095498,888.247130,8882.471304
2603.586858,-1072.533697,-0.000000,8882.471304
2603.587187,-536.266849,-592.164754,9326.594869
2603.587516,-459.657299,-888.247130,9178.553681
2603.587845,-689.485948,-666.185348,8882.471304
2603.588174,-459.657299,-74.020594,8660.409521
2603.588503,-306.438199,444.123565,8216.285956
2603.588832,-536.266849,592.164754,8512.368333
2603.589161,76.609550,-0.000000,8216.285956
2603.589490,-306.438199,-740.205942,9104.533087
2603.589819,-459.657299,-444.123565,9548.656652
2603.590148,-153.219100,-296.082377,9178.553681
2603.590477,-306.438199,-0.000000,9030.512492
2603.590806,76.609550,-518.144159,9622.677246
2603.591135,383.047749,-962.267725,9474.636058
2603.591464,919.314598,-1258.350101,9474.636058
2603.591793,1225.752797,-888.247130,9400.615463
2603.592122,1991.848295,-148.041188,9104.533087
2603.592451,2298.286494,962.267725,8142.265362
2603.592780,2068.457845,740.205942,8586.388927
2603.593109,2068.457845,-74.020594,8660.409521
2603.593438,2068.457845,-296.082377,9178.553681
2603.593767,1991.848295,-0.000000,8956.491898
2603.594096,2221.676944,296.082377,8882.471304
2603.594425,1532.190996,296.082377,8808.450710
2603.594754,1685.410096,-296.082377,9400.615463
2603.595083,1915.238745,-1258.350101,9474.636058
2603.595412,1225.752797,-1184.329507,9918.759623
2603.595741,1532.190996,-1184.329507,9918.759623
2603.596070,919.314598,444.123565,9400.615463
2603.596398,689.485948,444.123565,8882.471304
2603.596727,919.314598,444.123565,9474.636058
2603.597056,919.314598,-0.000000,9400.615463
2603.597385,842.705048,-0.000000,9474.636058
2603.597714,995.924147,-74.020594,9474.636058
2603.598043,1149.143247,370.102971,8660.409521
2603.598372,1302.362347,370.102971,8142.265362
2603.598701,1455.581446,-148.041188,8808.450710
2603.599030,995.924147,-666.185348,8882.471304
2603.599359,1149.143247,-888.247130,9104.533087
2603.599688,842.705048,-0.000000,8734.430116
2603.600017,306.438199,518.144159,8512.368333
2603.600346,76.609550,-0.000000,8364.327145
2603.600675,229.828649,-74.020594,8882.471304
2603.601004,0.000000,-814.226536,9252.574275
2603.601333,-1072.533697,-592.164754,9400.615463
2603.601662,-1072.533697,-0.000000,9400.615463
2603.601991,-995.924147,296.082377,8956.491898
2603.602320,-306.438199,-0.000000,8956.491898
2603.602649,-383.047749,-1110.308913,9548.656652
2603.602978,0.000000,-1480.411884,8956.491898
2603.603307,-536.266849,-740.205942,9104.533087
2603.603636,-995.924147,444.123565,8734.430116
2603.603965,0.000000,1332.370696,7105.977043
2603.604294,-689.485948,814.226536,7772.162391
2603.604623,-1685.410096,-0.000000,9326.594869
2603.604952,-1302.362347,-1258.350101,10066.800811
2603.605281,-1991.848295,-888.247130,9770.718434
2603.605610,-1991.848295,-444.123565,8438.347739
2603.605939,-1149.143247,-148.041188,8956.491898
2603.606268,-1455.581446,-1554.432478,9770.718434
2603.606597,-612.876398,-1184.329507,9918.759623
2603.606926,-612.876398,-1406.391290,9326.594869
2603.607255,-766.095498,-444.123565,9474.636058
2603.607584,306.438199,-0.000000,9104.533087
2603.607913,766.095498,1776.494261,8734.430116
2603.608242,306.438199,962.267725,8290.306550
2603.608571,1149.143247,444.123565,9030.512492
2603.608900,919.314598,148.041188,9030.512492
2603.609229,306.438199,222.061783,8808.450710
2603.609558,536.266849,296.082377,8512.368333
2603.609887,612.876398,-74.020594,8512.368333
2603.610216,536.266849,-222.061783,8660.409521
2603.610545,536.266849,-1332.370696,9178.553681
2603.610874,306.438199,-1184.329507,9474.636058
2603.611203,536.266849,-222.061783,8956.491898
2603.611532,1225.752797,518.144159,8734.430116
2603.611861,919.314598,592.164754,8586.388927
2603.612190,76.609550,814.226536,9770.718434
2603.612519,612.876398,-74.020594,9548.656652
2603.612848,919.314598,148.041188,9474.636058
2603.613177,1149.143247,370.102971,9400.615463
2603.613506,1685.410096,666.185348,8734.430116
2603.613835,1685.410096,296.082377,8660.409521
2603.614164,1532.190996,-0.000000,9178.553681
2603.614493,2374.896044,-1406.391290,9474.636058
2603.614822,1762.019645,-740.205942,9326.594869
2603.615151,1762.019645,222.061783,9030.512492
2603.615480,1455.581446,666.185348,8438.347739
2603.615809,1302.362347,592.164754,8660.409521
2603.616138,1685.410096,370.102971,9474.636058
2603.616467,1072.533697,-0.000000,9104.533087
2603.616796,536.266849,-592.164754,9918.759623
2603.617125,689.485948,-0.000000,9326.594869
2603.617454,383.047749,296.082377,9400.615463
2603.617783,306.438199,-1036.288319,9622.677246
2603.618112,842.705048,-1480.411884,9030.512492
2603.618441,1302.362347,-814.226536,9474.636058
2603.618770,0.000000,-444.123565,8586.388927
2603.619099,842.705048,814.226536,8068.244768
2603.619428,766.095498,666.185348,7772.162391
2603.619757,995.924147,1110.308913,8216.285956
2603.620086,76.609550,-74.020594,9104.533087
2603.620415,-383.047749,-888.247130,9104.533087
2603.620744,-842.705048,-370.102971,8734.430116
2603.621073,-612.876398,-74.020594,9178.553681
2603.621402,-1685.410096,-518.144159,8290.306550
2603.621731,-766.095498,-1184.329507,8660.409521
2603.622060,-919.314598,-1628.453072,9474.636058
2603.622389,-995.924147,-1258.350101,8956.491898
2603.622717,-842.705048,-888.247130,8956.491898
2603.623046,-766.095498,-222.061783,8734.430116
2603.623375,-153.219100,444.123565,8808.450710
2603.623704,76.609550,-0.000000,8512.368333
2603.624033,0.000000,-814.226536,9104.533087
2603.624362,-689.485948,-296.082377,9178.553681
2603.624691,-229.828649,296.082377,8882.471304
2603.625020,-612.876398,444.123565,8290.306550
2603.625349,-689.485948,-0.000000,8956.491898
2603.625678,-383.047749,-592.164754,9326.594869
2603.626007,-766.095498,-1554.432478,9844.739029
2603.626336,-1378.971896,-1110.308913,9474.636058
2603.626665,-995.924147,-1110.308913,9474.636058
2603.626994,-383.047749,148.041188,8882.471304
2603.627323,-689.485948,222.061783,8882.471304
2603.627652,-842.705048,-148.041188,9474.636058
2603.627981,-612.876398,-888.247130,9622.677246
2603.628310,-229.828649,-222.061783,9696.697840
2603.628639,306.438199,296.082377,9252.574275
2603.628968,766.095498,-0.000000,8882.471304
2603.629297,919.314598,-222.061783,9178.553681
2603.629626,1532.190996,-0.000000,9252.574275
2603.629955,1762.019645,-592.164754,9178.553681
2603.630284,1838.629195,-0.000000,8956.491898
2603.630613,2298.286494,1184.329507,8660.409521
2603.630942,2145.067394,1110.308913,8216.285956
2603.631271,1685.410096,740.205942,8808.450710
2603.631600,1225.752797,-222.061783,9548.656652
2603.631929,689.485948,-666.185348,9918.759623
2603.632258,536.266849,-222.061783,9474.636058
2603.632587,536.266849,222.061783,9104.533087
2603.632916,612.876398,-74.020594,9622.677246
2603.633245,1149.143247,-592.164754,9474.636058
2603.633574,1608.800546,-592.164754,9474.636058
2603.633903,1149.143247,-740.205942,9178.553681
2603.634232,1685.410096,-296.082377,8586.388927
2603.634561,2374.896044,1258.350101,7698.141797
2603.634890,2604.724693,1702.473667,7920.203579
2603.635219,2221.676944,592.164754,8142.265362
2603.635548,1838.629195,148.041188,8956.491898
2603.635877,536.266849,592.164754,9252.574275
2603.636205,383.047749,-518.144159,9400.615463
2603.636534,459.657299,-74.020594,9030.512492
2603.636863,76.609550,-444.123565,9104.533087
2603.637192,0.000000,-1332.370696,9696.697840
2603.637521,0.000000,-1554.432478,9548.656652
2603.637850,-383.047749,-1628.453072,10214.842000
2603.638179,153.219100,-814.226536,9326.594869
2603.638508,459.657299,1332.370696,9400.615463
2603.638837,383.047749,666.185348,8660.409521
2603.639166,536.266849,148.041188,8882.471304
2603.639495,229.828649,296.082377,9252.574275
2603.639824,-153.219100,-222.061783,9252.574275
2603.640153,612.876398,148.041188,8956.491898
2603.640482,153.219100,-0.000000,8956.491898
2603.640811,-229.828649,296.082377,8512.368333
2603.641140,-383.047749,-1184.329507,9104.533087
2603.641469,-919.314598,-1628.453072,9474.636058
2603.641798,-919.314598,-888.247130,9252.574275
2603.642127,-1072.533697,222.061783,8882.471304
2603.642456,-1225.752797,814.226536,8734.430116
2603.642785,-459.657299,888.247130,8734.430116
2603.643114,-1072.533697,-74.020594,9474.636058
2603.643443,-1685.410096,-518.144159,9326.594869
2603.643772,-1455.581446,-370.102971,9326.594869
2603.644101,-919.314598,-222.061783,9104.533087
2603.644430,-1072.533697,-0.000000,8808.450710
2603.644759,0.000000,-666.185348,9400.615463
2603.645088,0.000000,-1036.288319,9548.656652
2603.645417,0.000000,-1110.308913,9474.636058
2603.645746,306.438199,-370.102971,8882.471304
2603.646075,536.266849,370.102971,8586.388927
2603.646404,919.314598,888.247130,7994.224174
2603.646733,995.924147,592.164754,8290.306550
2603.647062,383.047749,-74.020594,8660.409521
2603.647391,-229.828649,-370.102971,9474.636058
2603.647720,229.828649,-222.061783,9400.615463
2603.648049,383.047749,592.164754,8956.491898
2603.648378,153.219100,-0.000000,9178.553681
2603.648707,0.000000,-740.205942,9696.697840
2603.649036,229.828649,-1480.411884,9918.759623
2603.649364,0.000000,-962.267725,9622.677246
2603.649693,689.485948,-814.226536,9548.656652
2603.650022,1225.752797,148.041188,8882.471304
2603.650351,1225.752797,518.144159,9030.512492
2603.650680,1762.019645,222.061783,9104.533087
2603.651009,1608.800546,-222.061783,9178.553681
2603.651338,1762.019645,-148.041188,9326.594869
2603.651667,1762.019645,666.185348,9178.553681
2603.651996,2298.286494,-0.000000,8512.368333
2603.652325,1532.190996,666.185348,8882.471304
2603.652654,919.314598,-222.061783,9104.533087
2603.652983,2298.286494,-814.226536,9696.697840
2603.653312,1149.143247,-666.185348,9030.512492
2603.653641,229.828649,148.041188,9918.759623
2603.653970,1225.752797,148.041188,9696.697840
2603.654299,919.314598,-74.020594,8882.471304
2603.654628,689.485948,-296.082377,8734.430116
2603.654957,1455.581446,-0.000000,9548.656652
2603.655286,689.485948,-962.267725,9030.512492
2603.655615,1225.752797,1332.370696,8512.368333
2603.655944,1685.410096,370.102971,8142.265362
2603.656273,919.314598,148.041188,8142.265362
2603.656602,1838.629195,-1184.329507,8586.388927
2603.656931,1378.971896,-666.185348,9178.553681
2603.657260,0.000000,-1184.329507,8586.388927
2603.657589,1072.533697,370.102971,8660.409521
2603.657918,0.000000,148.041188,8216.285956
2603.658247,-153.219100,592.164754,8882.471304
2603.658576,-689.485948,-1184.329507,9400.615463
2603.658905,-459.657299,-370.102971,9770.718434
2603.659234,-1378.971896,-148.041188,9474.636058
2603.659563,-536.266849,444.123565,8512.368333
2603.659892,-995.924147,-222.061783,9030.512492
2603.660221,-383.047749,-814.226536,9474.636058
2603.660550,0.000000,-1258.350101,9104.533087
2603.660879,-306.438199,-1110.308913,9548.656652
2603.661208,459.657299,-296.082377,8956.491898
2603.661537,536.266849,370.102971,8142.265362
2603.661866,153.219100,1480.411884,7920.203579
2603.662195,153.219100,222.061783,8586.388927
2603.662524,-612.876398,-518.144159,8956.491898
2603.662852,-995.924147,-370.102971,9326.594869
2603.663181,-1149.143247,-296.082377,9474.636058
2603.663510,-1149.143247,-518.144159,9474.636058
2603.663839,-1532.190996,-444.123565,9474.636058
2603.664168,-1072.533697,-1184.329507,9992.780217
2603.664497,-995.924147,-1406.391290,9770.718434
2603.664826,-1149.143247,-1110.308913,9918.759623
2603.665155,-459.657299,-148.041188,8956.491898
2603.665484,0.000000,962.267725,8142.265362
2603.665813,76.609550,1702.473667,7772.162391
2603.666142,766.095498,-0.000000,9474.636058
2603.666471,76.609550,-888.247130,9326.594869
2603.666800,0.000000,444.123565,9400.615463
2603.667129,536.266849,-296.082377,8808.450710
2603.667458,306.438199,148.041188,7920.203579
2603.667787,536.266849,888.247130,9326.594869
2603.668116,612.876398,-888.247130,9178.553681
2603.668445,689.485948,-888.247130,9474.636058
2603.668774,1072.533697,-296.082377,9918.759623
2603.669103,766.095498,888.247130,9252.574275
2603.669432,1072.533697,740.205942,8586.388927
2603.669761,1302.362347,222.061783,8882.471304
2603.670090,1302.362347,-0.000000,9474.636058
2603.670419,1302.362347,-148.041188,9844.739029
2603.670748,1225.752797,-222.061783,9548.656652
2603.671077,1072.533697,444.123565,8956.491898
2603.671406,1608.800546,-0.000000,8956.491898
2603.671735,1149.143247,-444.123565,9104.533087
2603.672064,995.924147,-1554.432478,9548.656652
2603.672393,842.705048,-1480.411884,9548.656652
2603.672722,919.314598,-296.082377,9178.553681
2603.673051,1149.143247,814.226536,8586.388927
2603.673380,1378.971896,370.102971,9030.512492
2603.673709,919.314598,296.082377,9474.636058
2603.674038,536.266849,-888.247130,9104.533087
2603.674367,229.828649,-888.247130,9400.615463
2603.674696,536.266849,-148.041188,9178.553681
2603.675025,536.266849,-0.000000,8660.409521
2603.675354,689.485948,-0.000000,9104.533087
2603.675683,1532.190996,-962.267725,9178.553681
2603.676011,1532.190996,-1184.329507,9104.533087
2603.676340,1302.362347,-444.123565,8882.471304
2603.676669,1149.143247,740.205942,8290.306550
2603.676998,1225.752797,1110.308913,7846.182985
2603.677327,919.314598,1258.350101,8290.306550
2603.677656,766.095498,-0.000000,8586.388927
2603.677985,-229.828649,-666.185348,9104.533087
2603.678314,-306.438199,-1036.288319,9474.636058
2603.678643,-612.876398,-0.000000,9178.553681
2603.678972,-1225.752797,-0.000000,8882.471304
2603.679301,-766.095498,-592.164754,8956.491898
2603.679630,-919.314598,-962.267725,8808.450710
2603.679959,-919.314598,-1406.391290,9326.594869
2603.680288,-919.314598,-814.226536,9104.533087
2603.680617,-766.095498,-0.000000,8512.368333
2603.680946,-995.924147,740.205942,9030.512492
2603.681275,-842.705048,518.144159,9252.574275
2603.681604,-995.924147,-296.082377,9104.533087
2603.681933,-1455.581446,-518.144159,9548.656652
2603.682262,-1302.362347,-444.123565,9770.718434
2603.682591,-1302.362347,-592.164754,9622.677246
2603.682920,-995.924147,-222.061783,9474.636058
2603.683249,-536.266849,-888.247130,9622.677246
2603.683578,-383.047749,-1480.411884,9696.697840
2603.683907,-383.047749,-1406.391290,9474.636058
2603.684236,76.609550,-444.123565,9548.656652
2603.684565,306.438199,296.082377,8660.409521
2603.684894,919.314598,962.267725,8364.327145
2603.685223,1378.971896,296.082377,8660.409521
2603.685552,153.219100,-74.020594,9030.512492
2603.685881,76.609550,-518.144159,9474.636058
2603.686210,383.047749,-0.000000,9400.615463
2603.686539,536.266849,370.102971,8512.368333
2603.686868,766.095498,-0.000000,8734.430116
2603.687197,689.485948,-740.205942,9474.636058
2603.687526,842.705048,-1480.411884,9992.780217
2603.687855,153.219100,-1332.370696,9474.636058
2603.688184,766.095498,148.041188,9030.512492
2603.688513,1378.971896,814.226536,8216.285956
2603.688842,1302.362347,1036.288319,8216.285956
2603.689170,1838.629195,592.164754,8882.471304
2603.689499,1608.800546,-74.020594,9030.512492
2603.689828,1455.581446,370.102971,8808.450710
2603.690157,1532.190996,592.164754,8438.347739
2603.690486,1685.410096,814.226536,8290.306550
2603.690815,1455.581446,148.041188,8438.347739
2603.691144,2145.067394,-1184.329507,9326.594869
2603.691473,1838.629195,-1554.432478,9252.574275
2603.691802,1915.238745,-740.205942,9104.533087
2603.692131,2145.067394,-0.000000,8882.471304
2603.692460,2145.067394,814.226536,8512.368333
2603.692789,1762.019645,370.102971,8882.471304
2603.693118,1455.581446,-74.020594,9326.594869
2603.693447,1225.752797,-518.144159,9474.636058
2603.693776,536.266849,-666.185348,9622.677246
2603.694105,995.924147,296.082377,8956.491898
2603.694434,842.705048,-0.000000,8586.388927
2603.694763,995.924147,-814.226536,9400.615463
2603.695092,229.828649,-888.247130,9178.553681
2603.695421,229.828649,-1036.288319,9326.594869
2603.695750,0.000000,-444.123565,8956.491898
2603.696079,0.000000,-0.000000,8142.265362
2603.696408,0.000000,518.144159,8586.388927
2603.696737,-612.876398,-370.102971,9178.553681
2603.697066,-153.219100,-0.000000,9252.574275
2603.697395,-536.266849,-444.123565,9252.574275
2603.697724,-459.657299,222.061783,9400.615463
2603.698053,-153.219100,666.185348,8882.471304
2603.698382,0.000000,-0.000000,9030.512492
2603.698711,229.828649,-814.226536,9104.533087
2603.699040,0.000000,-814.226536,8882.471304
2603.699369,383.047749,-888.247130,9548.656652
2603.699698,153.219100,370.102971,8290.306550
2603.700027,-689.485948,1554.432478,7994.224174
2603.700356,-306.438199,740.205942,9104.533087
2603.700685,-229.828649,222.061783,8734.430116
2603.701014,-1532.190996,-222.061783,9400.615463
2603.701343,-612.876398,-1258.350101,10288.862594
2603.701672,-1225.752797,-74.020594,9474.636058
2603.702001,-1608.800546,-0.000000,8734.430116
2603.702330,-1225.752797,-222.061783,9548.656652
2603.702658,-995.924147,-1628.453072,9696.697840
2603.702987,-1072.533697,-1184.329507,10066.800811
2603.703316,-995.924147,-1110.308913,9474.636058
2603.703645,-306.438199,-0.000000,9178.553681
2603.703974,-612.876398,444.123565,8808.450710
2603.704303,-306.438199,444.123565,8956.491898
2603.704632,-383.047749,-444.123565,9474.636058
2603.704961,-459.657299,-814.226536,9474.636058
2603.705290,0.000000,-148.041188,9474.636058
2603.705619,306.438199,-370.102971,9474.636058
2603.705948,0.000000,-74.020594,9178.553681
2603.706277,612.876398,-740.205942,9326.594869
2603.706606,995.924147,-1110.308913,9400.615463
2603.706935,1532.190996,-518.144159,8956.491898
2603.707264,1991.848295,-0.000000,8882.471304
2603.707593,2604.724693,814.226536,7624.121203
2603.707922,2451.505594,1258.350101,8290.306550
2603.708251,2374.896044,740.205942,8734.430116
2603.708580,1762.019645,-222.061783,8438.347739
2603.708909,919.314598,-0.000000,9252.574275
2603.709238,1072.533697,-222.061783,9474.636058
2603.709567,995.924147,-0.000000,8512.368333
2603.709896,842.705048,-0.000000,9178.553681
2603.710225,1149.143247,-1184.329507,9400.615463
2603.710554,995.924147,-1776.494261,9696.697840
2603.710883,459.657299,-1332.370696,9474.636058
2603.711212,1762.019645,-0.000000,8660.409521
2603.711541,1762.019645,370.102971,7994.224174
2603.711870,1685.410096,1184.329507,7994.224174
2603.712199,1302.362347,592.164754,8734.430116
2603.712528,766.095498,-370.102971,9104.533087
2603.712857,1149.143247,-222.061783,9548.656652
2603.713186,612.876398,222.061783,8882.471304
2603.713515,842.705048,-222.061783,9252.574275
2603.713844,536.266849,444.123565,8364.327145
2603.714173,536.266849,-1110.308913,9770.718434
2603.714502,919.314598,-1628.453072,9918.759623
2603.714831,689.485948,-740.205942,9548.656652
2603.715160,459.657299,-814.226536,9474.636058
2603.715489,536.266849,740.205942,8438.347739
2603.715818,995.924147,1258.350101,9178.553681
2603.716147,383.047749,592.164754,9030.512492
2603.716476,306.438199,444.123565,9104.533087
2603.716805,-229.828649,-518.144159,10066.800811
2603.717135,0.000000,-74.020594,8734.430116
2603.717464,-459.657299,-0.000000,8438.347739
2603.717793,-459.657299,-592.164754,9400.615463
2603.718122,-766.095498,-1036.288319,9474.636058
2603.718451,-995.924147,-1184.329507,9622.677246
2603.718781,-1149.143247,-1036.288319,9326.594869
2603.719110,-919.314598,-0.000000,8586.388927
2603.719439,-766.095498,814.226536,8290.306550
2603.719768,-1072.533697,222.061783,8734.430116
2603.720097,-1608.800546,-222.061783,9474.636058
2603.720427,-1838.629195,-814.226536,9400.615463
2603.720756,-1455.581446,-444.123565,9474.636058
2603.721085,-1378.971896,222.061783,8438.347739
2603.721414,-1685.410096,-592.164754,8956.491898
2603.721743,-1378.971896,-962.267725,8882.471304
2603.722073,-1072.533697,-1258.350101,9252.574275
2603.722402,-689.485948,-1702.473667,9178.553681
2603.722731,-306.438199,-222.061783,8438.347739
2603.723060,306.438199,666.185348,8290.306550
2603.723389,459.657299,962.267725,7920.203579
2603.723719,536.266849,444.123565,8882.471304
2603.724048,919.314598,-370.102971,8808.450710
2603.724377,459.657299,-0.000000,9474.636058
2603.724706,766.095498,666.185348,9326.594869
2603.725035,459.657299,518.144159,8216.285956
2603.725365,689.485948,296.082377,8956.491898
2603.725694,842.705048,-518.144159,9104.533087
2603.726023,383.047749,-1110.308913,9030.512492
2603.726352,459.657299,-1184.329507,9030.512492
2603.726681,689.485948,-148.041188,9326.594869
2603.727011,536.266849,296.082377,8734.430116
2603.727340,459.657299,-0.000000,9474.636058
2603.727669,536.266849,-296.082377,9252.574275
2603.727998,229.828649,-518.144159,9770.718434
2603.728327,689.485948,-0.000000,9992.780217
2603.728657,1149.143247,-148.041188,9474.636058
2603.728986,995.924147,444.123565,10140.821405
2603.729315,1072.533697,370.102971,9548.656652
2603.729644,2145.067394,-1110.308913,9474.636058
2603.729973,2068.457845,-296.082377,9474.636058
2603.730303,2604.724693,-0.000000,8734.430116
2603.730632,2145.067394,592.164754,8438.347739
2603.730961,2221.676944,1184.329507,7772.162391
2603.731290,2221.676944,666.185348,8882.471304
2603.731619,995.924147,-74.020594,9178.553681
2603.731949,1072.533697,-518.144159,9622.677246
2603.732278,459.657299,-222.061783,9622.677246
2603.732607,536.266849,-0.000000,9030.512492
2603.732936,153.219100,-148.041188,9252.574275
2603.733265,-306.438199,-1554.432478,9992.780217
2603.733595,689.485948,-1776.494261,9844.739029
2603.733924,612.876398,-814.226536,9918.759623
2603.734253,536.266849,-444.123565,9400.615463
2603.734582,1072.533697,740.205942,8364.327145
2603.734911,1225.752797,1924.535449,7920.203579
2603.735241,919.314598,1258.350101,8512.368333
2603.735570,383.047749,-0.000000,8882.471304
2603.735899,76.609550,148.041188,9326.594869
2603.736228,0.000000,-148.041188,8882.471304
2603.736557,-766.095498,-0.000000,9326.594869
2603.736887,-766.095498,-518.144159,9770.718434
2603.737216,-995.924147,-1332.370696,9104.533087
2603.737545,-919.314598,-2146.597232,9474.636058
2603.737874,-766.095498,-1554.432478,9918.759623
2603.738203,-1378.971896,-1036.288319,9030.512492
2603.738533,-612.876398,-222.061783,8068.244768
2603.738862,0.000000,592.164754,8586.388927
2603.739191,0.000000,-296.082377,9326.594869
2603.739520,-459.657299,-74.020594,9548.656652
2603.739849,-383.047749,-1036.288319,8734.430116
2603.740179,-459.657299,296.082377,9030.512492
2603.740508,-612.876398,296.082377,8512.368333
2603.740837,0.000000,-222.061783,9178.553681
2603.741166,-536.266849,-1036.288319,8882.471304
2603.741495,-842.705048,-1850.514855,9030.512492
2603.741825,-919.314598,-296.082377,8734.430116
2603.742154,-1302.362347,-148.041188,8808.450710
2603.742483,-1149.143247,518.144159,8142.265362
2603.742812,-1608.800546,-222.061783,9178.553681
2603.743141,-306.438199,-444.123565,9474.636058
2603.743471,-1378.971896,-1036.288319,9178.553681
2603.743800,-689.485948,-370.102971,9992.780217
2603.744129,-459.657299,-0.000000,9104.533087
2603.744458,459.657299,444.123565,8734.430116
2603.744787,612.876398,-444.123565,9326.594869
2603.745117,1991.848295,-814.226536,8438.347739
2603.745446,1762.019645,-518.144159,8956.491898
2603.745775,2374.896044,222.061783,8586.388927
2603.746104,2604.724693,1554.432478,7698.141797
2603.746433,2145.067394,1850.514855,7920.203579
2603.746763,1838.629195,444.123565,9030.512492
2603.747092,1378.971896,-296.082377,9178.553681
2603.747421,536.266849,-1110.308913,9992.780217
2603.747750,459.657299,-518.144159,9252.574275
2603.748079,1149.143247,-518.144159,9030.512492
2603.748409,919.314598,-222.061783,9178.553681
2603.748738,1149.143247,-814.226536,10066.800811
2603.749067,1149.143247,-1036.288319,9918.759623
2603.749396,1149.143247,-666.185348,9770.718434
2603.749725,1838.629195,592.164754,8290.306550
2603.750055,2068.457845,1998.556043,9252.574275
2603.750384,1532.190996,1554.432478,8956.491898
2603.750713,1532.190996,962.267725,8882.471304
2603.751042,1378.971896,222.061783,9400.615463
2603.751371,612.876398,-74.020594,9770.718434
2603.751701,1225.752797,-148.041188,9474.636058
2603.752030,229.828649,-148.041188,9400.615463
2603.752359,536.266849,-666.185348,9400.615463
2603.752688,842.705048,-814.226536,9326.594869
2603.753017,995.924147,-1480.411884,9104.533087
2603.753347,459.657299,-814.226536,8808.450710
2603.753676,842.705048,-0.000000,8512.368333
2603.754005,842.705048,1332.370696,7402.059420
2603.754334,766.095498,888.247130,8586.388927
2603.754663,1608.800546,-0.000000,8364.327145
2603.754993,76.609550,-370.102971,9030.512492
2603.755322,-229.828649,-592.164754,9474.636058
2603.755651,536.266849,-74.020594,8512.368333
2603.755980,0.000000,296.082377,8290.306550
2603.756309,-306.438199,-888.247130,8808.450710
2603.756639,0.000000,-1480.411884,9326.594869
2603.756968,-1608.800546,-1776.494261,9326.594869
2603.757297,-229.828649,-370.102971,8956.491898
2603.757626,-842.705048,-0.000000,8364.327145
2603.757955,-842.705048,1110.308913,7994.224174
2603.758285,-995.924147,666.185348,8660.409521
2603.758614,-995.924147,-370.102971,9400.615463
2603.758943,-2068.457845,-1110.308913,9400.615463
2603.759272,-1608.800546,-444.123565,9400.615463
2603.759601,-1149.143247,-74.020594,9104.533087
2603.759931,-1532.190996,-74.020594,8808.450710
2603.760260,-1378.971896,-1332.370696,10066.800811
2603.760589,-612.876398,-2368.659014,9992.780217
2603.760918,-1072.533697,-1480.411884,9622.677246
2603.761247,-459.657299,-1110.308913,9696.697840
2603.761577,689.485948,-0.000000,7920.203579
2603.761906,612.876398,1036.288319,8882.471304
2603.762235,383.047749,-0.000000,9030.512492
2603.762564,612.876398,-0.000000,9104.533087
2603.762893,383.047749,-296.082377,9474.636058
2603.763223,689.485948,740.205942,8660.409521
2603.763552,689.485948,666.185348,8216.285956
2603.763881,306.438199,222.061783,9326.594869
2603.764210,306.438199,-1184.329507,9104.533087
2603.764539,383.047749,-1406.391290,9992.780217
2603.764869,-306.438199,-1406.391290,9548.656652
2603.765198,383.047749,-0.000000,9104.533087
2603.765527,153.219100,1184.329507,8808.450710
2603.765856,229.828649,444.123565,9178.553681
2603.766185,536.266849,-0.000000,9474.636058
2603.766515,689.485948,-444.123565,9252.574275
2603.766844,536.266849,148.041188,9548.656652
2603.767173,1225.752797,592.164754,8956.491898
2603.767502,1685.410096,592.164754,8512.368333
2603.767831,1455.581446,-0.000000,9030.512492
2603.768161,2451.505594,-1110.308913,8734.430116
2603.768490,1838.629195,-1036.288319,9178.553681
2603.768819,2145.067394,-222.061783,8882.471304
2603.769148,2221.676944,1036.288319,8068.244768
2603.769477,1762.019645,1332.370696,8882.471304
2603.769807,1302.362347,-0.000000,9104.533087
2603.770136,1685.410096,-518.144159,9178.553681
2603.770465,766.095498,-1258.350101,10140.821405
2603.770794,1225.752797,-444.123565,10066.800811
2603.771123,766.095498,-444.123565,9178.553681
2603.771453,919.314598,148.041188,8956.491898
2603.771782,1532.190996,-296.082377,9104.533087
2603.772111,1455.581446,-814.226536,9030.512492
2603.772440,1302.362347,-666.185348,8660.409521
2603.772769,1608.800546,-0.000000,8364.327145
2603.773099,1532.190996,1184.329507,8142.265362
2603.773428,842.705048,888.247130,8290.306550
2603.773757,76.609550,370.102971,9030.512492
2603.774086,-459.657299,-518.144159,9252.574275
2603.774415,-1149.143247,-740.205942,9918.759623
2603.774745,-1072.533697,-666.185348,9474.636058
2603.775074,-842.705048,-0.000000,8956.491898
2603.775403,-1072.533697,-666.185348,9400.615463
2603.775732,-689.485948,-1554.432478,9474.636058
2603.776061,-612.876398,-1406.391290,9326.594869
2603.776391,-689.485948,-592.164754,9030.512492
2603.776720,0.000000,444.123565,8512.368333
2603.777049,0.000000,1480.411884,7846.182985
2603.777378,153.219100,888.247130,7994.224174
2603.777707,-689.485948,-0.000000,8956.491898
2603.778037,-689.485948,-888.247130,9252.574275
2603.778366,-1378.971896,-888.247130,9474.636058
2603.778695,-1378.971896,-74.020594,9326.594869
2603.779024,-1378.971896,-296.082377,9178.553681
2603.779353,-1608.800546,-1184.329507,9252.574275
2603.779683,-1685.410096,-1850.514855,10214.842000
2603.780012,-1149.143247,-1406.391290,8882.471304
2603.780341,-229.828649,-592.164754,8882.471304
2603.780670,-306.438199,-0.000000,8364.327145
2603.780999,-459.657299,888.247130,8364.327145
2603.781329,0.000000,222.061783,9326.594869
2603.781658,0.000000,-592.164754,8956.491898
2603.781987,229.828649,-740.205942,9400.615463
2603.782316,153.219100,-148.041188,9326.594869
2603.782645,766.095498,222.061783,9326.594869
2603.782975,383.047749,148.041188,9178.553681
2603.783304,689.485948,-148.041188,9178.553681
2603.783633,842.705048,-1184.329507,9400.615463
2603.783962,766.095498,-1036.288319,9696.697840
2603.784291,612.876398,-0.000000,9252.574275
2603.784621,1762.019645,518.144159,8586.388927
2603.784950,1608.800546,888.247130,8586.388927
2603.785279,1608.800546,1036.288319,9400.615463
2603.785608,1378.971896,-148.041188,9400.615463
2603.785937,1149.143247,-296.082377,9548.656652
2603.786267,995.924147,444.123565,9178.553681
2603.786596,1149.143247,444.123565,8808.450710
2603.786925,1762.019645,592.164754,8956.491898
2603.787254,1685.410096,-592.164754,9178.553681
2603.787584,2298.286494,-444.123565,8882.471304
2603.787913,1991.848295,-222.061783,8882.471304
2603.788242,2145.067394,666.185348,8512.368333
2603.788571,2145.067394,1332.370696,7846.182985
2603.788900,1532.190996,1702.473667,8512.368333
2603.789230,1838.629195,592.164754,9252.574275
2603.789559,1302.362347,-592.164754,9326.594869
2603.789888,383.047749,-592.164754,9622.677246
2603.790217,459.657299,-370.102971,9252.574275
2603.790546,76.609550,-296.082377,8734.430116
2603.790876,76.609550,-740.205942,9104.533087
2603.791205,842.705048,-1554.432478,9474.636058
2603.791534,612.876398,-1480.411884,9622.677246
2603.791863,0.000000,-518.144159,9622.677246
2603.792192,766.095498,148.041188,8808.450710
2603.792522,842.705048,1184.329507,8364.327145
2603.792851,766.095498,888.247130,8438.347739
2603.793180,766.095498,-0.000000,9104.533087
2603.793509,0.000000,-518.144159,9474.636058
2603.793838,-383.047749,370.102971,9992.780217
2603.794168,229.828649,148.041188,9326.594869
2603.794497,0.000000,-74.020594,8512.368333
2603.794826,-306.438199,-592.164754,9030.512492
2603.795155,-383.047749,-1628.453072,9326.594869
2603.795484,-842.705048,-1258.350101,9400.615463
2603.795814,-766.095498,-444.123565,9030.512492
2603.796143,-1072.533697,666.185348,8290.306550
2603.796472,-995.924147,888.247130,7994.224174
2603.796801,-919.314598,370.102971,9474.636058
2603.797130,-1302.362347,-666.185348,9548.656652
2603.797460,-1991.848295,-666.185348,9696.697840
2603.797789,-1378.971896,-148.041188,10066.800811
2603.798118,-1762.019645,-296.082377,9326.594869
2603.798447,-1762.019645,-0.000000,9400.615463
2603.798776,0.000000,-1406.391290,9326.594869
2603.799106,-1072.533697,-1998.556043,8512.368333
2603.799435,0.000000,-1702.473667,9474.636058
2603.799764,229.828649,-0.000000,8956.491898
2603.800093,-153.219100,592.164754,7402.059420
2603.800422,766.095498,888.247130,8438.347739
2603.800752,306.438199,-814.226536,8808.450710
2603.801081,-459.657299,-0.000000,9474.636058
2603.801410,-153.219100,-1110.308913,10214.842000
2603.801739,-383.047749,-0.000000,8734.430116
2603.802068,306.438199,148.041188,8882.471304
2603.802398,383.047749,-444.123565,9104.533087
2603.802727,612.876398,-1480.411884,9104.533087
2603.803056,1072.533697,-1110.308913,9844.739029
2603.803385,1378.971896,-666.185348,9326.594869
2603.803714,1608.800546,-0.000000,7920.203579
2603.804044,1532.190996,518.144159,8142.265362
2603.804373,1532.190996,1554.432478,8586.388927
2603.804702,1302.362347,296.082377,9178.553681
2603.805031,612.876398,-518.144159,8882.471304
2603.805360,1762.019645,-444.123565,9770.718434
2603.805690,1455.581446,-0.000000,8364.327145
2603.806019,383.047749,-962.267725,8808.450710
2603.806348,766.095498,-666.185348,10066.800811
2603.806677,1149.143247,-1184.329507,9474.636058
2603.807006,1302.362347,-1628.453072,9770.718434
2603.807336,1455.581446,518.144159,9104.533087
2603.807665,1838.629195,296.082377,9030.512492
2603.807994,1455.581446,1184.329507,8660.409521
2603.808323,2374.896044,666.185348,9104.533087
2603.808652,1838.629195,148.041188,9326.594869
2603.808982,1455.581446,-0.000000,9326.594869
2603.809311,1455.581446,296.082377,9326.594869
2603.809640,1455.581446,740.205942,8808.450710
2603.809969,842.705048,518.144159,8956.491898
2603.810298,1302.362347,-444.123565,8734.430116
2603.810628,383.047749,-1036.288319,9400.615463
2603.810957,1149.143247,-1554.432478,9474.636058
2603.811286,689.485948,-74.020594,8068.244768
2603.811615,0.000000,666.185348,8438.347739
2603.811944,-383.047749,370.102971,9326.594869
2603.812274,-459.657299,444.123565,9400.615463
2603.812603,-766.095498,-962.267725,9474.636058
2603.812932,-153.219100,-0.000000,9770.718434
2603.813261,-612.876398,-518.144159,10066.800811
2603.813590,-306.438199,962.267725,8660.409521
2603.813920,306.438199,-222.061783,9548.656652
2603.814249,0.000000,-444.123565,9252.574275
2603.814578,-229.828649,-1480.411884,9030.512492
2603.814907,153.219100,-666.185348,9400.615463
2603.815237,0.000000,-0.000000,7624.121203
2603.815566,-229.828649,592.164754,8290.306550
2603.815895,-766.095498,-74.020594,8734.430116
2603.816224,-842.705048,-814.226536,9622.677246
2603.816554,-1838.629195,-1406.391290,9548.656652
2603.816883,-1838.629195,-1480.411884,9992.780217
2603.817212,-1685.410096,-518.144159,9770.718434
2603.817541,-1225.752797,-222.061783,9178.553681
2603.817871,-1302.362347,-740.205942,9474.636058
2603.818200,-689.485948,-1110.308913,9400.615463
2603.818529,-536.266849,-1036.288319,9326.594869
2603.818858,-919.314598,-444.123565,9252.574275
2603.819188,229.828649,814.226536,8216.285956
2603.819517,306.438199,1258.350101,8882.471304
2603.819846,-536.266849,592.164754,8882.471304
2603.820175,-229.828649,-888.247130,9030.512492
2603.820505,-459.657299,-888.247130,9326.594869
2603.820834,0.000000,-222.061783,8956.491898
2603.821163,0.000000,-222.061783,8882.471304
2603.821492,229.828649,-148.041188,9030.512492
2603.821822,689.485948,-962.267725,8882.471304
2603.822151,842.705048,-1776.494261,9030.512492
2603.822480,1149.143247,-888.247130,9178.553681
2603.822809,1455.581446,-0.000000,8512.368333
2603.823139,1915.238745,962.267725,7920.203579
2603.823468,1915.238745,1554.432478,7920.203579
2603.823797,1915.238745,370.102971,9030.512492
2603.824126,2145.067394,-814.226536,9178.553681
2603.824456,1838.629195,-222.061783,9474.636058
2603.824785,1378.971896,-0.000000,9622.677246
2603.825114,1149.143247,222.061783,8882.471304
2603.825443,1378.971896,-370.102971,9548.656652
2603.825773,1378.971896,-1184.329507,9400.615463
2603.826102,1225.752797,-1110.308913,9252.574275
2603.826431,689.485948,-1258.350101,9474.636058
2603.826760,1302.362347,518.144159,8290.306550
2603.827089,995.924147,1110.308913,8808.450710
2603.827419,919.314598,962.267725,8882.471304
2603.827748,842.705048,-74.020594,9622.677246
2603.828077,842.705048,-444.123565,9474.636058
2603.828406,919.314598,-0.000000,9770.718434
2603.828736,995.924147,-0.000000,9104.533087
2603.829065,1225.752797,444.123565,9400.615463
2603.829394,1762.019645,-0.000000,9474.636058
2603.829723,1455.581446,-296.082377,9030.512492
2603.830053,1302.362347,-740.205942,9400.615463
2603.830382,1072.533697,296.082377,9326.594869
2603.830711,995.924147,962.267725,8364.327145
2603.831040,1378.971896,962.267725,8660.409521
2603.831370,842.705048,888.247130,8586.388927
2603.831699,612.876398,-740.205942,9696.697840
2603.832028,-536.266849,-814.226536,9178.553681
2603.832357,-1072.533697,-0.000000,9400.615463
2603.832687,-995.924147,-296.082377,9474.636058
2603.833016,-1149.143247,-148.041188,8512.368333
2603.833345,-1302.362347,-296.082377,9696.697840
2603.833674,-766.095498,-1776.494261,9696.697840
2603.834004,0.000000,-1036.288319,9104.533087
2603.834333,-306.438199,-0.000000,9030.512492
2603.834662,0.000000,1406.391290,7920.203579
2603.834991,-383.047749,1184.329507,8068.244768
2603.835321,-229.828649,444.123565,8808.450710
2603.835650,-766.095498,-444.123565,9178.553681
2603.835979,-2221.676944,-666.185348,9474.636058
2603.836308,-919.314598,-370.102971,9326.594869
2603.836638,-766.095498,222.061783,8512.368333
2603.836967,-1225.752797,-666.185348,8882.471304
2603.837296,-919.314598,-1110.308913,9400.615463
2603.837625,-842.705048,-2072.576638,9696.697840
2603.837955,-995.924147,-1998.556043,9474.636058
2603.838284,0.000000,-444.123565,8660.409521
2603.838613,-306.438199,296.082377,8438.347739
2603.838942,0.000000,-148.041188,8808.450710
2603.839272,-1149.143247,-444.123565,9474.636058
2603.839601,153.219100,-962.267725,9770.718434
2603.839930,229.828649,-222.061783,9400.615463
2603.840259,383.047749,-0.000000,8660.409521
2603.840589,536.266849,-0.000000,8438.347739
2603.840918,919.314598,-0.000000,9030.512492
2603.841247,1225.752797,-962.267725,8882.471304
2603.841576,459.657299,-1110.308913,9400.615463
2603.841906,766.095498,-74.020594,9104.533087
2603.842235,919.314598,370.102971,8290.306550
2603.842564,766.095498,1184.329507,7846.182985
2603.842893,1225.752797,518.144159,8882.471304
2603.843223,689.485948,-370.102971,8808.450710
2603.843552,76.609550,-444.123565,9252.574275
2603.843881,1072.533697,-1036.288319,10214.842000
2603.844210,766.095498,296.082377,8882.471304
2603.844540,1072.533697,148.041188,8586.388927
2603.844869,1685.410096,-518.144159,9474.636058
2603.845198,2145.067394,-666.185348,8956.491898
2603.845527,2451.505594,-74.020594,8734.430116
2603.845857,2681.334243,-0.000000,8290.306550
2603.846186,2911.162892,1628.453072,8290.306550
2603.846515,1915.238745,814.226536,8364.327145
2603.846844,1762.019645,814.226536,9178.553681
2603.847174,919.314598,-444.123565,9474.636058
2603.847503,612.876398,-814.226536,10584.944971
2603.847832,842.705048,-296.082377,9400.615463
2603.848161,306.438199,-0.000000,9178.553681
2603.848491,459.657299,-962.267725,9474.636058
2603.848820,919.314598,-1184.329507,9548.656652
2603.849149,842.705048,-1184.329507,9474.636058
2603.849478,689.485948,-444.123565,9178.553681
2603.849808,995.924147,-0.000000,8956.491898
2603.850137,459.657299,888.247130,7994.224174
2603.850466,995.924147,1184.329507,8364.327145
2603.850795,766.095498,296.082377,8660.409521
2603.851125,-919.314598,-0.000000,9622.677246
2603.851454,-536.266849,-0.000000,9622.677246
2603.851783,-459.657299,-74.020594,9622.677246
2603.852112,-919.314598,-0.000000,9030.512492
2603.852442,-612.876398,-592.164754,9104.533087
2603.852771,0.000000,-1332.370696,9770.718434
2603.853100,-459.657299,-1702.473667,9252.574275
2603.853429,-766.095498,-444.123565,9178.553681
2603.853759,0.000000,-74.020594,8216.285956
2603.854088,153.219100,1184.329507,8290.306550
2603.854417,76.609550,1258.350101,8142.265362
2603.854746,-153.219100,-148.041188,8882.471304
2603.855076,-612.876398,-592.164754,9178.553681
2603.855405,-766.095498,148.041188,9474.636058
2603.855734,-919.314598,296.082377,8882.471304
2603.856063,-919.314598,-296.082377,9178.553681
2603.856393,-919.314598,-222.061783,9252.574275
2603.856722,-842.705048,-1776.494261,9326.594869
2603.857051,-1378.971896,-1184.329507,8512.368333
2603.857380,-1378.971896,-1258.350101,9400.615463
2603.857710,0.000000,-0.000000,8438.347739
2603.858039,-842.705048,444.123565,8290.306550
2603.858368,-766.095498,-888.247130,9548.656652
2603.858697,-766.095498,-1184.329507,9030.512492
2603.859027,-536.266849,-444.123565,9548.656652
2603.859356,-383.047749,-0.000000,9178.553681
2603.859685,459.657299,222.061783,8956.491898
2603.860014,842.705048,-74.020594,9030.512492
2603.860344,1455.581446,-74.020594,9400.615463
2603.860673,1455.581446,-740.205942,9104.533087
2603.861002,1455.581446,-666.185348,9104.533087
2603.861331,1455.581446,814.226536,8586.388927
2603.861661,1455.581446,1554.432478,8660.409521
2603.861990,1225.752797,370.102971,9400.615463
2603.862319,1915.238745,-1110.308913,8882.471304
2603.862648,1149.143247,-1110.308913,9770.718434
2603.862978,536.266849,-370.102971,9844.739029
2603.863307,1149.143247,-0.000000,9474.636058
2603.863636,1072.533697,-0.000000,8882.471304
2603.863965,1455.581446,296.082377,9178.553681
2603.864295,1455.581446,-74.020594,9030.512492
2603.864624,1762.019645,-814.226536,9696.697840
2603.864953,1915.238745,-0.000000,9474.636058
2603.865282,1608.800546,888.247130,8364.327145
2603.865612,1608.800546,962.267725,8216.285956
2603.865941,1149.143247,1036.288319,8512.368333
2603.866270,919.314598,-0.000000,9400.615463
2603.866599,842.705048,-1036.288319,9770.718434
2603.866929,383.047749,-1554.432478,9474.636058
2603.867258,689.485948,-370.102971,9474.636058
2603.867587,766.095498,-74.020594,8882.471304
2603.867916,995.924147,-592.164754,9104.533087
2603.868246,1302.362347,-888.247130,9178.553681
2603.868575,1608.800546,-518.144159,8956.491898
2603.868904,1455.581446,740.205942,8808.450710
2603.869233,1838.629195,1036.288319,8216.285956
2603.869563,1608.800546,1406.391290,7772.162391
2603.869892,1225.752797,-0.000000,8734.430116
2603.870221,229.828649,-296.082377,9104.533087
2603.870550,-689.485948,-1036.288319,9696.697840
2603.870880,-689.485948,-666.185348,9622.677246
2603.871209,-689.485948,-296.082377,9474.636058
2603.871538,-1302.362347,-962.267725,9400.615463
2603.871867,-1378.971896,-1628.453072,9844.739029
2603.872197,-1149.143247,-1406.391290,9400.615463
2603.872526,-1072.533697,-1258.350101,8956.491898
2603.872855,-1302.362347,-0.000000,8586.388927
2603.873184,-689.485948,1110.308913,8290.306550
2603.873514,-995.924147,1258.350101,8512.368333
2603.873843,-459.657299,-148.041188,8882.471304
2603.874172,-1149.143247,-1036.288319,9474.636058
2603.874501,-1302.362347,-666.185348,9400.615463
2603.874831,-995.924147,-0.000000,9030.512492
2603.875160,-1072.533697,-0.000000,8734.430116
2603.875489,-842.705048,-740.205942,9178.553681
2603.875818,-995.924147,-1258.350101,9400.615463
2603.876148,-383.047749,-1850.514855,9474.636058
2603.876477,-229.828649,-1406.391290,9030.512492
2603.876806,229.828649,-0.000000,8956.491898
2603.877135,153.219100,1406.391290,8142.265362
2603.877465,306.438199,296.082377,8660.409521
2603.877794,0.000000,-0.000000,9104.533087
2603.878123,306.438199,-814.226536,9696.697840
2603.878452,612.876398,-0.000000,9474.636058
2603.878782,766.095498,-296.082377,8586.388927
2603.879111,153.219100,-74.020594,8734.430116
2603.879440,536.266849,-888.247130,9400.615463
2603.879769,766.095498,-1110.308913,9030.512492
2603.880099,995.924147,-1110.308913,9474.636058
2603.880428,995.924147,-222.061783,9104.533087
2603.880757,1532.190996,370.102971,8290.306550
2603.881086,1455.581446,518.144159,8290.306550
2603.881416,1225.752797,444.123565,9104.533087
2603.881745,995.924147,-0.000000,9400.615463
2603.882074,766.095498,-740.205942,9696.697840
2603.882403,1149.143247,-0.000000,9770.718434
2603.882733,1225.752797,-0.000000,9178.553681
2603.883062,612.876398,-0.000000,9030.512492
2603.883391,919.314598,-370.102971,9622.677246
2603.883720,1838.629195,-1110.308913,9696.697840
2603.884050,1838.629195,-518.144159,9252.574275
2603.884379,2298.286494,518.144159,8808.450710
2603.884708,2528.115143,1110.308913,7920.203579
2603.885037,1991.848295,1406.391290,8438.347739
2603.885367,2145.067394,370.102971,9252.574275
2603.885696,1838.629195,-74.020594,9400.615463
2603.886025,1072.533697,-148.041188,9548.656652
2603.886354,1149.143247,-0.000000,9178.553681
2603.886684,842.705048,222.061783,8956.491898
2603.887013,612.876398,-148.041188,8956.491898
2603.887342,842.705048,-592.164754,9474.636058
2603.887671,536.266849,-1406.391290,9326.594869
2603.888001,306.438199,-444.123565,9178.553681
2603.888330,536.266849,-0.000000,8808.450710
2603.888659,76.609550,1184.329507,8142.265362
2603.888988,0.000000,592.164754,8512.368333
2603.889318,0.000000,444.123565,8956.491898
2603.889647,-766.095498,-814.226536,8586.388927
2603.889976,-1532.190996,-370.102971,9474.636058
2603.890305,0.000000,-0.000000,9326.594869
2603.890635,-536.266849,-370.102971,8734.430116
2603.890964,-153.219100,-592.164754,8734.430116
2603.891293,0.000000,-1480.411884,9326.594869
2603.891622,0.000000,-1554.432478,9030.512492
2603.891952,0.000000,-518.144159,8660.409521
2603.892281,689.485948,740.205942,8068.244768
2603.892610,0.000000,1036.288319,8438.347739
2603.892939,-919.314598,666.185348,8660.409521
2603.893269,-229.828649,-592.164754,9918.759623
2603.893598,-919.314598,-74.020594,9104.533087
2603.893927,-1762.019645,-1110.308913,9622.677246
2603.894256,-1532.190996,-0.000000,9696.697840
2603.894586,-1302.362347,-444.123565,9400.615463
2603.894915,-1149.143247,-1036.288319,9178.553681
2603.895244,-842.705048,-1184.329507,9474.636058
2603.895573,-1149.143247,-2368.659014,9474.636058
2603.895903,-612.876398,-74.020594,9178.553681
2603.896232,76.609550,740.205942,8216.285956
2603.896561,-383.047749,518.144159,8512.368333
2603.896890,306.438199,-0.000000,8956.491898
2603.897220,0.000000,-592.164754,9178.553681
2603.897549,-612.876398,-0.000000,9474.636058
2603.897878,229.828649,-0.000000,9548.656652
2603.898207,76.609550,-0.000000,9326.594869
2603.898537,0.000000,-0.000000,9178.553681
2603.898866,0.000000,-370.102971,9770.718434
2603.899195,1149.143247,-1628.453072,9474.636058
2603.899524,919.314598,-740.205942,8956.491898
2603.899854,1608.800546,-0.000000,8808.450710
2603.900183,1915.238745,1036.288319,7920.203579
2603.900512,1685.410096,740.205942,8290.306550
2603.900841,1915.238745,222.061783,8882.471304
2603.901171,1532.190996,-444.123565,9178.553681
2603.901500,1455.581446,-148.041188,8956.491898
2603.901829,1762.019645,148.041188,8660.409521
2603.902158,1532.190996,370.102971,8808.450710
2603.902488,1455.581446,-370.102971,8734.430116
2603.902817,1378.971896,-1184.329507,9252.574275
2603.903146,1455.581446,-1184.329507,9326.594869
2603.903475,1608.800546,-444.123565,9030.512492
2603.903805,1455.581446,962.267725,9030.512492
2603.904134,1149.143247,222.061783,8734.430116
2603.904463,842.705048,518.144159,9104.533087
2603.904792,689.485948,-296.082377,9252.574275
2603.905122,153.219100,-1036.288319,9844.739029
2603.905451,229.828649,-518.144159,9992.780217
2603.905780,229.828649,-666.185348,9104.533087
2603.906109,459.657299,-74.020594,8586.388927
2603.906439,1072.533697,-666.185348,9326.594869
2603.906768,1455.581446,-888.247130,8882.471304
2603.907097,995.924147,-518.144159,9178.553681
2603.907426,766.095498,-0.000000,9030.512492
2603.907756,1608.800546,1554.432478,8734.430116
2603.908085,995.924147,1110.308913,8216.285956
2603.908414,612.876398,1036.288319,9252.574275
2603.908743,0.000000,-814.226536,10066.800811
2603.909073,-766.095498,148.041188,9548.656652
2603.909402,0.000000,444.123565,9696.697840
2603.909731,-459.657299,444.123565,8808.450710
2603.910060,0.000000,-148.041188,8734.430116
2603.910390,-153.219100,-370.102971,9474.636058
2603.910719,-689.485948,-1776.494261,9474.636058
2603.911048,-995.924147,-814.226536,9548.656652
2603.911377,-612.876398,-222.061783,8290.306550
2603.911707,-536.266849,1184.329507,7994.224174
2603.912036,-919.314598,444.123565,8734.430116
2603.912365,-919.314598,-148.041188,9178.553681
2603.912694,-1225.752797,-888.247130,9844.739029
2603.913024,-1685.410096,-814.226536,10510.924376
2603.913353,-995.924147,-592.164754,8882.471304
2603.913682,-1378.971896,-0.000000,9178.553681
2603.914011,-1685.410096,-518.144159,9918.759623
2603.914341,-612.876398,-1036.288319,9844.739029
2603.914670,-306.438199,-1480.411884,9252.574275
2603.914999,-229.828649,-1184.329507,8586.388927
2603.915328,-842.705048,666.185348,8438.347739
2603.915658,0.000000,592.164754,8142.265362
2603.915987,766.095498,222.061783,8438.347739
2603.916316,536.266849,-222.061783,8956.491898
2603.916645,153.219100,-962.267725,9400.615463
2603.916975,0.000000,-666.185348,9326.594869
2603.917304,153.219100,-370.102971,9178.553681
2603.917633,0.000000,-370.102971,9104.533087
2603.917962,612.876398,-1258.350101,9030.512492
2603.918292,689.485948,-888.247130,9326.594869
2603.918621,689.485948,-1036.288319,9252.574275
2603.918950,1378.971896,-0.000000,9030.512492
2603.919279,1302.362347,1554.432478,7772.162391
2603.919609,1225.752797,962.267725,8068.244768
2603.919938,1455.581446,1110.308913,8438.347739
2603.920267,1225.752797,-222.061783,8956.491898
2603.920596,612.876398,-222.061783,9326.594869
2603.920926,842.705048,-592.164754,9400.615463
2603.921255,689.485948,-0.000000,8882.471304
2603.921584,842.705048,-222.061783,9030.512492
2603.921913,995.924147,-888.247130,9104.533087
2603.922242,1378.971896,-1702.473667,9474.636058
2603.922572,1685.410096,-740.205942,9104.533087
2603.922901,2374.896044,592.164754,8586.388927
2603.923230,2374.896044,1406.391290,7846.182985
2603.923559,2374.896044,1406.391290,8512.368333
2603.923889,2451.505594,814.226536,8882.471304
2603.924218,2145.067394,-222.061783,9326.594869
2603.924547,1302.362347,-74.020594,9696.697840
2603.924876,1378.971896,296.082377,9474.636058
2603.925205,919.314598,518.144159,9104.533087
2603.925535,306.438199,-74.020594,9178.553681
2603.925864,459.657299,-1258.350101,9474.636058
2603.926193,0.000000,-1924.535449,9918.759623
2603.926522,0.000000,-1480.411884,9400.615463
2603.926852,76.609550,-370.102971,9030.512492
2603.927181,0.000000,-0.000000,8808.450710
2603.927510,-306.438199,962.267725,9400.615463
2603.927839,-306.438199,-222.061783,9696.697840
2603.928168,-536.266849,-370.102971,9400.615463
2603.928498,0.000000,370.102971,9622.677246
2603.928827,76.609550,1110.308913,9030.512492
2603.929156,0.000000,666.185348,8808.450710
2603.929485,0.000000,444.123565,9104.533087
2603.929815,-229.828649,-962.267725,9548.656652
2603.930144,-536.266849,-666.185348,9104.533087
2603.930473,-612.876398,-74.020594,8808.450710
2603.930802,-306.438199,444.123565,8512.368333
2603.931132,-766.095498,740.205942,8290.306550
2603.931461,-306.438199,296.082377,9474.636058
2603.931790,-1072.533697,-1036.288319,9326.594869
2603.932119,-1302.362347,-370.102971,9474.636058
2603.932448,-1149.143247,-370.102971,9474.636058
2603.932778,-1072.533697,444.123565,8734.430116
2603.933107,-995.924147,-222.061783,8882.471304
2603.933436,0.000000,-1332.370696,9178.553681
2603.933765,0.000000,-1702.473667,9178.553681
2603.934095,-153.219100,-1184.329507,9104.533087
2603.934424,-689.485948,-0.000000,8438.347739
2603.934753,-306.438199,1036.288319,7994.224174
2603.935082,-612.876398,518.144159,8364.327145
2603.935411,-306.438199,-74.020594,8882.471304
2603.935741,-229.828649,-1036.288319,9400.615463
2603.936070,-459.657299,-1480.411884,9474.636058
2603.936399,-612.876398,-888.247130,9326.594869
2603.936728,-536.266849,-444.123565,9030.512492
2603.937058,-153.219100,-888.247130,9252.574275
2603.937387,689.485948,-1036.288319,9696.697840
2603.937716,766.095498,-1480.411884,9400.615463
2603.938045,1378.971896,-888.247130,9178.553681
2603.938374,2145.067394,592.164754,9104.533087
2603.938704,2451.505594,962.267725,8512.368333
2603.939033,2681.334243,814.226536,8660.409521
2603.939362,2374.896044,148.041188,9400.615463
2603.939691,1838.629195,-0.000000,8660.409521
2603.940021,1532.190996,-148.041188,10140.821405
2603.940350,2298.286494,-518.144159,9474.636058
2603.940679,1608.800546,962.267725,8586.388927
2603.941008,1532.190996,-1332.370696,9474.636058
2603.941337,689.485948,-1332.370696,8734.430116
2603.941667,1302.362347,-888.247130,10214.842000
2603.941996,689.485948,-1036.288319,9252.574275
2603.942325,1455.581446,962.267725,8808.450710
2603.942654,1302.362347,-0.000000,9252.574275
2603.942984,1225.752797,1480.411884,8956.491898
2603.943313,1685.410096,-74.020594,9770.718434
2603.943642,842.705048,-74.020594,9696.697840
2603.943971,919.314598,444.123565,9178.553681
2603.944301,1762.019645,814.226536,9030.512492
2603.944630,1225.752797,370.102971,8290.306550
2603.944959,1838.629195,-0.000000,8808.450710
2603.945288,1838.629195,-1628.453072,9326.594869
2603.945617,1608.800546,-1036.288319,9030.512492
2603.945947,1455.581446,-74.020594,8068.244768
2603.946276,995.924147,666.185348,8364.327145
2603.946605,459.657299,962.267725,8142.265362
2603.946934,-306.438199,296.082377,8586.388927
2603.947264,-1225.752797,-888.247130,9474.636058
2603.947593,-1762.019645,-592.164754,9326.594869
2603.947922,-2451.505594,814.226536,9474.636058
2603.948251,-2451.505594,888.247130,8956.491898
2603.948580,-2911.162892,148.041188,8734.430116
2603.948910,-2987.772442,-592.164754,9474.636058
2603.949239,-3753.867940,-1628.453072,9030.512492
2603.949568,-3907.087040,-2072.576638,9178.553681
2603.949897,-4136.915689,-1406.391290,8882.471304
2603.950227,-4060.306139,-0.000000,7994.224174
2603.950556,-4366.744339,-74.020594,8660.409521
2603.950885,-4366.744339,-222.061783,8512.368333
2603.951214,-4366.744339,-518.144159,9178.553681
2603.951543,-4673.182538,-370.102971,9400.615463
2603.951873,-4673.182538,-1036.288319,9696.697840
2603.952202,-5056.230287,-1480.411884,9474.636058
2603.952531,-4979.620737,-1332.370696,9992.780217
2603.952860,-4903.011187,-1554.432478,10140.821405
2603.953190,-4443.353888,-1110.308913,9474.636058
2603.953519,-3677.258390,-666.185348,9030.512492
2603.953848,-2604.724693,-0.000000,8734.430116
2603.954177,-2068.457845,592.164754,8364.327145
2603.954507,-1762.019645,444.123565,7994.224174
2603.954836,-2834.553343,296.082377,8364.327145
2603.955165,-3064.381992,370.102971,8216.285956
2603.955494,-2374.896044,-0.000000,8956.491898
2603.955823,-2451.505594,-0.000000,9104.533087
2603.956153,-2145.067394,-0.000000,9326.594869
2603.956482,-1991.848295,-148.041188,9474.636058
2603.956811,-1991.848295,-0.000000,8882.471304
2603.957140,-2068.457845,-0.000000,9030.512492
2603.957470,-1762.019645,592.164754,9400.615463
2603.957799,-1685.410096,740.205942,8660.409521
2603.958128,-1915.238745,592.164754,9104.533087
2603.958457,-1915.238745,-444.123565,9178.553681
2603.958786,-2681.334243,-666.185348,9400.615463
2603.959116,-2757.943793,-962.267725,9474.636058
2603.959445,-2834.553343,-74.020594,9400.615463
2603.959774,-2528.115143,-0.000000,9770.718434
2603.960103,-2834.553343,962.267725,9326.594869
2603.960433,-2451.505594,666.185348,9252.574275
2603.960762,-2298.286494,-0.000000,9326.594869
2603.961091,-1685.410096,-1110.308913,9918.759623
2603.961420,-1685.410096,-1554.432478,10436.903782
2603.961749,-995.924147,-2072.576638,9918.759623
2603.962079,-842.705048,-1628.453072,9844.739029
2603.962408,-842.705048,-888.247130,9326.594869
2603.962737,0.000000,-222.061783,10732.986159
2603.963066,1072.533697,1628.453072,7846.182985
2603.963396,2681.334243,1924.535449,7254.018232
2603.963725,1608.800546,2220.617826,5921.647536
2603.964054,536.266849,2220.617826,6587.832884
2603.964383,76.609550,1258.350101,8364.327145
2603.964712,-2528.115143,-296.082377,8216.285956
2603.965042,-3294.210641,-2368.659014,10288.862594
2603.965371,-4366.744339,-2368.659014,9178.553681
2603.965700,-5515.887586,-2812.782580,9104.533087
2603.966029,-6511.811733,-3849.070898,11325.150913
2603.966359,-6435.202183,-2368.659014,11029.068536
2603.966688,-5286.058936,-2220.617826,11769.274478
2603.967017,-4136.915689,-666.185348,9844.739029
2603.967346,-1762.019645,666.185348,8586.388927
2603.967676,-842.705048,740.205942,7846.182985
2603.968005,-1532.190996,2886.803174,5847.626942
2603.968334,995.924147,-222.061783,11843.295072
2603.968663,1149.143247,1702.473667,5255.462188
2603.968992,3524.039291,2516.700203,5847.626942
2603.969322,689.485948,1554.432478,5033.400406
2603.969651,-536.266849,1480.411884,6069.688724
2603.969980,-2528.115143,-962.267725,10214.842000
2603.970309,-3753.867940,-1258.350101,9400.615463
2603.970639,-3064.381992,-962.267725,9548.656652
2603.970968,-5822.325785,-444.123565,8734.430116
2603.971297,-7584.345430,-2960.823768,11251.130318
2603.971626,-9959.241474,-2960.823768,12731.542202
2603.971955,-7967.393179,-2072.576638,12287.418637
2603.972285,-7354.516781,-2368.659014,10584.944971
2603.972614,-5209.449386,-2294.638420,10214.842000
2603.972943,-3447.429741,370.102971,9548.656652
2603.973272,-3524.039291,-0.000000,7550.100608
2603.973602,-1762.019645,-444.123565,8660.409521
2603.973931,-1991.848295,1776.494261,7105.977043
2603.974260,-842.705048,-74.020594,9400.615463
2603.974589,-2834.553343,666.185348,8734.430116
2603.974918,-2451.505594,740.205942,9252.574275
2603.975248,-2834.553343,-148.041188,8808.450710
2603.975577,-1915.238745,-74.020594,8660.409521
2603.975906,-2451.505594,1702.473667,8808.450710
2603.976235,-2451.505594,666.185348,9844.739029
2603.976565,-2451.505594,1480.411884,8438.347739
2603.976894,-3064.381992,1184.329507,8512.368333
2603.977223,-2604.724693,888.247130,8586.388927
2603.977552,-2068.457845,-74.020594,8808.450710
2603.977882,-1915.238745,444.123565,7994.224174
2603.978211,-1838.629195,1184.329507,7402.059420
2603.978540,-2298.286494,962.267725,9104.533087
2603.978869,-2681.334243,962.267725,8808.450710
2603.979198,-2528.115143,1702.473667,8808.450710
2603.979528,-2451.505594,1332.370696,8660.409521
2603.979857,-1838.629195,814.226536,9178.553681
2603.980186,-2298.286494,1776.494261,9104.533087
2603.980515,-2681.334243,370.102971,10658.965565
2603.980845,-2987.772442,592.164754,10955.047942
2603.981174,-2145.067394,148.041188,10658.965565
2603.981503,-1072.533697,592.164754,9622.677246
2603.981832,-1225.752797,592.164754,8882.471304
2603.982161,-306.438199,814.226536,10214.842000
2603.982491,-536.266849,-814.226536,11547.212695
2603.982820,2068.457845,2516.700203,7994.224174
2603.983149,4136.915689,3256.906145,6957.935855
2603.983478,4366.744339,3923.091493,5847.626942
2603.983808,3140.991542,4145.153275,6439.791695
2603.984137,3140.991542,4515.256246,8068.244768
2603.984466,2757.943793,4145.153275,6883.915261
2603.984795,2987.772442,2960.823768,9400.615463
2603.985124,766.095498,1850.514855,9474.636058
2603.985454,-1225.752797,1850.514855,10955.047942
2603.985783,-2221.676944,1036.288319,11399.171507
2603.986112,-1608.800546,370.102971,10436.903782
2603.986441,-1532.190996,1258.350101,11177.109724
2603.986771,-995.924147,1554.432478,10140.821405
2603.987100,536.266849,3182.885551,9548.656652
2603.987429,383.047749,2442.679609,8068.244768
2603.987758,2528.115143,3627.009116,8142.265362
2603.988087,2451.505594,5403.503377,5773.606348
2603.988417,2298.286494,4811.338623,6957.935855
2603.988746,1532.190996,5107.421000,6661.853478
2603.989075,1072.533697,4441.235652,7328.038826
2603.989404,-1378.971896,2146.597232,9030.512492
2603.989734,-2911.162892,1554.432478,9474.636058
2603.990063,-3294.210641,740.205942,11843.295072
2603.990392,-4136.915689,1184.329507,10214.842000
2603.990721,-3677.258390,3330.926739,9400.615463
2603.991051,-3830.477490,1628.453072,11177.109724
2603.991380,-4443.353888,1776.494261,11177.109724
2603.991709,-3677.258390,2220.617826,11769.274478
2603.992038,-1991.848295,2368.659014,10510.924376
2603.992367,-612.876398,3330.926739,8956.491898
2603.992697,-1149.143247,4219.173869,7994.224174
2603.993026,-1455.581446,3701.029710,10362.883188
2603.993355,76.609550,1184.329507,13545.768739
2603.993684,2987.772442,3923.091493,7031.956449
2603.994014,5286.058936,4663.297435,7846.182985
2603.994343,3370.820191,4737.318029,4589.276840
2603.994672,4136.915689,7179.997637,7105.977043
2603.995001,2681.334243,6291.750507,8586.388927
2603.995330,1608.800546,5551.544565,7920.203579
2603.995660,1838.629195,6069.688724,9104.533087
2603.995989,0.000000,4737.318029,7328.038826
2603.996318,-1608.800546,2738.761985,9178.553681
2603.996647,-2528.115143,-222.061783,12731.542202
2603.996977,-1378.971896,1258.350101,9918.759623
2603.997306,-1532.190996,-518.144159,11177.109724
2603.997635,-1838.629195,1332.370696,10140.821405
2603.997964,-1225.752797,4367.215058,10881.027347
2603.998293,1762.019645,2220.617826,9178.553681
2603.998623,2451.505594,4737.318029,7550.100608
2603.998952,3907.087040,4219.173869,7772.162391
2603.999281,4136.915689,3923.091493,7031.956449
2603.999610,3677.258390,5625.565159,6513.812290
2603.999940,2834.553343,5255.462188,7254.018232
2604.000269,689.485948,3404.947333,7031.956449
2604.000598,612.876398,3034.844362,10214.842000
2604.000927,-1378.971896,-740.205942,11991.336260
2604.001257,-3140.991542,-148.041188,12361.439231
2604.001586,-2681.334243,1628.453072,11251.130318
2604.001915,-1762.019645,-740.205942,10807.006753
2604.002244,-2757.943793,2590.720797,9326.594869
2604.002573,-1378.971896,1998.556043,9770.718434
2604.002903,-1149.143247,2294.638420,8512.368333
2604.003232,1072.533697,-0.000000,13323.706956
2604.003561,2681.334243,1776.494261,7254.018232
2604.003890,5439.278036,3034.844362,7994.224174
2604.004220,3447.429741,4367.215058,5403.503377
2604.004549,3983.696590,2886.803174,5625.565159
2604.004878,3524.039291,4885.359217,8438.347739
2604.005207,2604.724693,3478.967927,7254.018232
2604.005536,2681.334243,4441.235652,7624.121203
2604.005866,-766.095498,1850.514855,8808.450710
2604.006195,-2987.772442,-2368.659014,11473.192101
2604.006524,-3907.087040,-1110.308913,12139.377449
2604.006853,-2681.334243,-666.185348,11473.192101
2604.007183,-3600.648841,-296.082377,10436.903782
2604.007512,-2834.553343,2146.597232,11325.150913
2604.007841,-766.095498,2664.741391,8216.285956
2604.008170,229.828649,2960.823768,8882.471304
2604.008499,612.876398,2072.576638,8586.388927
2604.008829,4060.306139,1776.494261,9030.512492
2604.009158,2451.505594,3849.070898,4219.173869
2604.009487,4596.572988,3552.988522,7846.182985
2604.009816,2451.505594,4515.256246,5255.462188
2604.010146,4903.011187,3404.947333,7994.224174
2604.010475,2451.505594,4589.276840,5847.626942
2604.010804,3753.867940,4071.132681,6513.812290
2604.011133,1762.019645,1110.308913,8808.450710
2604.011462,-3370.820191,1258.350101,11843.295072
2604.011792,-4749.792088,-3775.050304,14137.933492
2604.012121,-5515.887586,1480.411884,11843.295072
2604.012450,-3370.820191,-2368.659014,11473.192101
2604.012779,-4366.744339,-444.123565,8586.388927
2604.013109,-1991.848295,-222.061783,13249.686362
2604.013438,-1378.971896,1776.494261,9770.718434
2604.013767,-1455.581446,1258.350101,7550.100608
2604.014096,-842.705048,3256.906145,8882.471304
2604.014426,2681.334243,-0.000000,14063.912898
2604.014755,2298.286494,4811.338623,3330.926739
2604.015084,4979.620737,2590.720797,7772.162391
2604.015413,4749.792088,2220.617826,6143.709319
2604.015742,5362.668486,3627.009116,6439.791695
2604.016072,1378.971896,2368.659014,8586.388927
2604.016401,-1762.019645,3552.988522,9400.615463
2604.016730,-2757.943793,-296.082377,13175.665768
2604.017059,-3140.991542,444.123565,12287.418637
2604.017388,-2834.553343,-592.164754,10658.965565
2604.017717,-2681.334243,-0.000000,11473.192101
2604.018047,-1225.752797,-0.000000,9178.553681
2604.018376,-2528.115143,-1184.329507,10362.883188
2604.018705,-1685.410096,-222.061783,10362.883188
2604.019034,842.705048,-1776.494261,12731.542202
2604.019363,1838.629195,-1110.308913,5477.523971
2604.019693,5132.839837,2294.638420,8808.450710
2604.020022,3600.648841,3478.967927,4071.132681
2604.020351,4826.401637,4145.153275,6809.894666
2604.020680,2451.505594,4219.173869,7772.162391
2604.021009,1991.848295,4663.297435,7328.038826
2604.021339,1455.581446,1480.411884,9548.656652
2604.021668,-1072.533697,-592.164754,10732.986159
2604.021997,-2451.505594,-3849.070898,12361.439231
2604.022326,-3677.258390,-2368.659014,12953.603985
2604.022655,-1991.848295,-2368.659014,10807.006753
2604.022984,-1532.190996,-2442.679609,10436.903782
2604.023314,995.924147,-1776.494261,9400.615463
2604.023643,1915.238745,1480.411884,6513.812290
2604.023972,2681.334243,-0.000000,6143.709319
2604.024301,4749.792088,1480.411884,6143.709319
2604.024630,4443.353888,2664.741391,5847.626942
2604.024960,4290.134789,2590.720797,8364.327145
2604.025289,2528.115143,1554.432478,7476.080014
2604.025618,2987.772442,-444.123565,9030.512492
2604.025947,536.266849,-592.164754,9178.553681
2604.026276,76.609550,-2072.576638,10066.800811
2604.026606,-1762.019645,-1702.473667,11029.068536
2604.026935,-1685.410096,-3627.009116,12879.583391
2604.027264,-2374.896044,-1776.494261,11103.089130
2604.027593,-2068.457845,-1776.494261,11621.233289
2604.027922,-2145.067394,-518.144159,8882.471304
2604.028252,-995.924147,222.061783,8808.450710
2604.028581,1378.971896,296.082377,7624.121203
2604.028910,2757.943793,888.247130,7105.977043
2604.029239,3064.381992,-962.267725,7402.059420
2604.029568,1838.629195,-962.267725,7254.018232
2604.029897,689.485948,-888.247130,8216.285956
2604.030227,689.485948,-1332.370696,8808.450710
2604.030556,459.657299,-1776.494261,9252.574275
2604.030885,-383.047749,-1776.494261,10658.965565
2604.031214,-612.876398,-2442.679609,11103.089130
2604.031543,-1302.362347,-1110.308913,10214.842000
2604.031873,-1302.362347,-518.144159,9844.739029
2604.032202,-1378.971896,-0.000000,10214.842000
2604.032531,-995.924147,814.226536,10584.944971
2604.032860,0.000000,-0.000000,9474.636058
2604.033189,612.876398,296.082377,8216.285956
2604.033519,842.705048,222.061783,7254.018232
2604.033848,1149.143247,-296.082377,7031.956449
2604.034177,1225.752797,-444.123565,7624.121203
2604.034506,1302.362347,-1702.473667,7698.141797
2604.034835,1072.533697,-1406.391290,8290.306550
2604.035164,153.219100,-1406.391290,9474.636058
2604.035494,0.000000,-1480.411884,9474.636058
2604.035823,-229.828649,148.041188,8956.491898
2604.036152,0.000000,592.164754,9548.656652
2604.036481,-842.705048,444.123565,10066.800811
2604.036810,0.000000,888.247130,10955.047942
2604.037140,-306.438199,592.164754,10288.862594
2604.037469,-383.047749,962.267725,9474.636058
2604.037798,-459.657299,370.102971,9104.533087
2604.038127,306.438199,-0.000000,8512.368333
2604.038456,919.314598,-222.061783,7920.203579
2604.038786,766.095498,-888.247130,8216.285956
2604.039115,689.485948,-296.082377,7624.121203
2604.039444,153.219100,-296.082377,7772.162391
2604.039773,-229.828649,-0.000000,8512.368333
2604.040102,0.000000,-296.082377,8956.491898
2604.040431,0.000000,-666.185348,9696.697840
2604.040761,0.000000,-592.164754,10288.862594
2604.041090,383.047749,-0.000000,10807.006753
2604.041419,459.657299,962.267725,9844.739029
2604.041748,919.314598,962.267725,9622.677246
2604.042077,1072.533697,962.267725,9326.594869
2604.042407,1455.581446,1110.308913,9474.636058
2604.042736,1608.800546,666.185348,9104.533087
2604.043065,1225.752797,518.144159,8586.388927
2604.043394,995.924147,814.226536,7846.182985
2604.043723,0.000000,-0.000000,8142.265362
2604.044053,-383.047749,-370.102971,9030.512492
2604.044382,-306.438199,-1406.391290,9400.615463
2604.044711,-229.828649,-1332.370696,9104.533087
2604.045040,-383.047749,-888.247130,9178.553681
2604.045369,-229.828649,-370.102971,9252.574275
2604.045699,689.485948,-148.041188,8956.491898
2604.046028,1225.752797,888.247130,8882.471304
2604.046357,2374.896044,888.247130,9326.594869
2604.046686,1991.848295,1258.350101,9326.594869
2604.047015,1838.629195,1850.514855,8586.388927
2604.047344,1378.971896,2516.700203,8142.265362
2604.047674,1225.752797,1850.514855,9474.636058
2604.048003,306.438199,518.144159,9622.677246
2604.048332,0.000000,-518.144159,9548.656652
2604.048661,0.000000,-1184.329507,9474.636058
2604.048990,-612.876398,-1406.391290,8808.450710
2604.049320,-689.485948,-1480.411884,8808.450710
2604.049649,0.000000,-1850.514855,9104.533087
2604.049978,612.876398,-1702.473667,9030.512492
2604.050307,1302.362347,-1480.411884,8808.450710
2604.050636,1225.752797,-74.020594,8512.368333
2604.050966,1225.752797,962.267725,7994.224174
2604.051295,1225.752797,2072.576638,8364.327145
2604.051624,1302.362347,1480.411884,9178.553681
2604.051953,919.314598,592.164754,9474.636058
2604.052282,306.438199,-518.144159,10362.883188
2604.052611,0.000000,-444.123565,10140.821405
2604.052941,-766.095498,-962.267725,9770.718434
2604.053270,-1072.533697,-1332.370696,9178.553681
2604.053599,-689.485948,-1480.411884,9252.574275
2604.053928,-306.438199,-1924.535449,9400.615463
2604.054257,76.609550,-1776.494261,8956.491898
2604.054587,153.219100,-1406.391290,7698.141797
2604.054916,0.000000,-1184.329507,7920.203579
2604.055245,-153.219100,-370.102971,7994.224174
2604.055574,76.609550,-518.144159,9030.512492
2604.055903,0.000000,-592.164754,8808.450710
2604.056233,0.000000,-888.247130,9474.636058
2604.056562,0.000000,-518.144159,9622.677246
2604.056891,-229.828649,-1110.308913,9326.594869
2604.057220,0.000000,-1332.370696,9474.636058
2604.057549,-306.438199,-1776.494261,9696.697840
2604.057878,76.609550,-1850.514855,9326.594869
2604.058208,153.219100,-1406.391290,8956.491898
2604.058537,76.609550,-666.185348,7920.203579
2604.058866,-306.438199,-370.102971,8290.306550
2604.059195,-229.828649,-0.000000,8290.306550
2604.059524,-766.095498,-370.102971,8142.265362
2604.059854,306.438199,-592.164754,8956.491898
2604.060183,0.000000,-222.061783,8660.409521
2604.060512,-229.828649,-518.144159,8660.409521
2604.060841,0.000000,-666.185348,8882.471304
2604.061170,536.266849,-814.226536,9178.553681
2604.061500,1149.143247,-1110.308913,9770.718434
2604.061829,1608.800546,-518.144159,9548.656652
2604.062158,1762.019645,148.041188,9696.697840
2604.062487,1149.143247,1110.308913,8438.347739
2604.062816,995.924147,1924.535449,8882.471304
2604.063146,1225.752797,1776.494261,9252.574275
2604.063475,1072.533697,962.267725,8882.471304
2604.063804,1455.581446,148.041188,9400.615463
2604.064133,459.657299,-148.041188,9326.594869
2604.064462,919.314598,-666.185348,8734.430116
2604.064791,536.266849,-518.144159,9178.553681
2604.065121,689.485948,-888.247130,8512.368333
2604.065450,842.705048,-518.144159,8882.471304
2604.065779,1455.581446,-222.061783,8734.430116
2604.066108,536.266849,666.185348,8734.430116
2604.066437,76.609550,1184.329507,8512.368333
2604.066767,383.047749,1776.494261,8512.368333
2604.067096,0.000000,962.267725,9474.636058
2604.067425,229.828649,-0.000000,10066.800811
2604.067754,76.609550,-296.082377,9918.759623
2604.068083,306.438199,-814.226536,9844.739029
2604.068413,0.000000,-814.226536,9400.615463
2604.068742,536.266849,-0.000000,8734.430116
2604.069071,995.924147,-0.000000,8586.388927
2604.069400,1608.800546,-0.000000,8882.471304
2604.069729,1302.362347,222.061783,8512.368333
2604.070058,766.095498,-0.000000,8290.306550
2604.070388,76.609550,962.267725,7624.121203
2604.070717,0.000000,296.082377,9104.533087
2604.071046,-612.876398,-592.164754,9696.697840
2604.071375,-1225.752797,-1036.288319,10955.047942
2604.071704,-995.924147,-814.226536,10288.862594
2604.072034,-1302.362347,-444.123565,9252.574275
2604.072363,-1302.362347,444.123565,9474.636058
2604.072692,-383.047749,-222.061783,9770.718434
2604.073021,689.485948,-74.020594,9474.636058
2604.073350,995.924147,-888.247130,9474.636058
2604.073680,1378.971896,148.041188,8956.491898
2604.074009,842.705048,592.164754,8216.285956
2604.074338,536.266849,1184.329507,7920.203579
2604.074667,459.657299,666.185348,8882.471304
2604.074996,0.000000,-148.041188,9622.677246
2604.075325,459.657299,-1110.308913,9844.739029
2604.075655,-229.828649,-444.123565,9030.512492
2604.075984,-1072.533697,-444.123565,9104.533087
2604.076313,-842.705048,-518.144159,9252.574275
2604.076642,76.609550,-666.185348,9178.553681
2604.076971,383.047749,-888.247130,9104.533087
2604.077301,919.314598,-0.000000,9326.594869
2604.077630,1455.581446,-222.061783,8808.450710
2604.077959,1072.533697,666.185348,8290.306550
2604.078288,1302.362347,1110.308913,7920.203579
2604.078617,689.485948,814.226536,8808.450710
2604.078947,229.828649,-74.020594,8882.471304
2604.079276,76.609550,-740.205942,9400.615463
2604.079605,153.219100,-1258.350101,8808.450710
2604.079934,0.000000,-1406.391290,8364.327145
2604.080263,0.000000,-1628.453072,8808.450710
2604.080593,0.000000,-1998.556043,9104.533087
2604.080922,306.438199,-1998.556043,8956.491898
2604.081251,383.047749,-1110.308913,9178.553681
2604.081580,229.828649,-0.000000,8808.450710
2604.081909,229.828649,666.185348,8512.368333
2604.082238,306.438199,592.164754,8808.450710
2604.082568,229.828649,-148.041188,9474.636058
2604.082897,689.485948,-1184.329507,10214.842000
2604.083226,0.000000,-888.247130,9992.780217
2604.083555,383.047749,-814.226536,9548.656652
2604.083884,536.266849,-518.144159,9104.533087
2604.084214,1072.533697,-888.247130,9104.533087
2604.084543,1685.410096,-1036.288319,9178.553681
2604.084872,2068.457845,-814.226536,8808.450710
2604.085201,842.705048,-0.000000,9252.574275
2604.085530,1149.143247,592.164754,8512.368333
2604.085860,306.438199,888.247130,8142.265362
2604.086189,459.657299,814.226536,8956.491898
2604.086518,0.000000,-0.000000,9474.636058
2604.086847,459.657299,-222.061783,10881.027347
2604.087176,76.609550,-666.185348,9696.697840
2604.087505,0.000000,-222.061783,8882.471304
2604.087835,0.000000,222.061783,9252.574275
2604.088164,536.266849,-0.000000,9178.553681
2604.088493,689.485948,-666.185348,9252.574275
2604.088822,1225.752797,-148.041188,8956.491898
2604.089151,1302.362347,666.185348,8734.430116
2604.089481,919.314598,1480.411884,8364.327145
2604.089810,842.705048,1480.411884,8586.388927
2604.090139,919.314598,518.144159,8956.491898
2604.090468,612.876398,-0.000000,9696.697840
2604.090797,383.047749,-296.082377,9474.636058
2604.091127,-153.219100,-148.041188,9178.553681
2604.091456,-306.438199,-0.000000,8882.471304
2604.091785,76.609550,-370.102971,9474.636058
2604.092114,459.657299,-444.123565,9252.574275
2604.092443,-153.219100,-888.247130,8734.430116
2604.092772,383.047749,-518.144159,9178.553681
2604.093102,76.609550,222.061783,8586.388927
2604.093431,0.000000,962.267725,8364.327145
2604.093760,76.609550,592.164754,8956.491898
2604.094089,0.000000,-0.000000,9252.574275
2604.094418,-383.047749,-444.123565,9770.718434
2604.094748,-459.657299,-74.020594,9548.656652
2604.095077,-919.314598,-74.020594,9252.574275
2604.095406,-306.438199,-0.000000,8734.430116
2604.095735,0.000000,-0.000000,9030.512492
2604.096064,306.438199,-1036.288319,9474.636058
2604.096394,229.828649,-814.226536,8956.491898
2604.096723,306.438199,-370.102971,9104.533087
2604.097052,229.828649,-0.000000,8808.450710
2604.097381,-306.438199,444.123565,7698.141797
2604.097710,0.000000,888.247130,9178.553681
2604.098040,0.000000,-0.000000,9474.636058
2604.098369,0.000000,-74.020594,9918.759623
2604.098698,-229.828649,-0.000000,9400.615463
2604.099027,153.219100,-74.020594,9178.553681
2604.099356,229.828649,-0.000000,9104.533087
2604.099685,919.314598,-444.123565,9474.636058
2604.100015,1838.629195,-370.102971,9474.636058
2604.100344,1685.410096,-0.000000,9104.533087
2604.100673,1915.238745,370.102971,8734.430116
2604.101002,1302.362347,1332.370696,8290.306550
2604.101331,1455.581446,1776.494261,8290.306550
2604.101661,1378.971896,1184.329507,8808.450710
2604.101990,536.266849,-148.041188,9992.780217
2604.102319,612.876398,-370.102971,9844.739029
2604.102648,612.876398,-592.164754,9400.615463
2604.102977,76.609550,-518.144159,9252.574275
2604.103307,0.000000,-1110.308913,9178.553681
2604.103636,459.657299,-1406.391290,9770.718434
2604.103965,919.314598,-1036.288319,9400.615463
2604.104294,689.485948,-1554.432478,9178.553681
2604.104623,689.485948,-296.082377,8512.368333
2604.104952,689.485948,888.247130,8142.265362
2604.105282,689.485948,1258.350101,8734.430116
2604.105611,459.657299,-0.000000,9030.512492
2604.105940,229.828649,-148.041188,9548.656652
2604.106269,1072.533697,-1184.329507,9548.656652
2604.106598,459.657299,-1036.288319,8956.491898
2604.106928,76.609550,-518.144159,9030.512492
2604.107257,766.095498,-666.185348,8882.471304
2604.107586,995.924147,-518.144159,8808.450710
2604.107915,1378.971896,-962.267725,9252.574275
2604.108244,1149.143247,-444.123565,8586.388927
2604.108574,995.924147,518.144159,8142.265362
2604.108903,536.266849,962.267725,7920.203579
2604.109232,-306.438199,814.226536,8512.368333
2604.109561,0.000000,-370.102971,9548.656652
2604.109890,-612.876398,-1332.370696,9696.697840
2604.110219,-842.705048,-1036.288319,9252.574275
2604.110549,-995.924147,-1036.288319,8956.491898
2604.110878,-1455.581446,-814.226536,9252.574275
2604.111207,-689.485948,-592.164754,9400.615463
2604.111536,0.000000,-962.267725,9252.574275
2604.111865,0.000000,-814.226536,9030.512492
2604.112195,229.828649,-148.041188,8290.306550
2604.112524,229.828649,592.164754,7920.203579
2604.112853,229.828649,1110.308913,7772.162391
2604.113182,229.828649,740.205942,8882.471304
2604.113511,0.000000,-0.000000,9696.697840
2604.113841,0.000000,-518.144159,10362.883188
2604.114170,0.000000,-444.123565,9104.533087
2604.114499,-459.657299,-518.144159,9104.533087
2604.114828,-383.047749,-370.102971,9252.574275
2604.115157,76.609550,-1184.329507,9474.636058
2604.115487,153.219100,-1480.411884,9696.697840
2604.115816,612.876398,-666.185348,9622.677246
2604.116145,766.095498,-370.102971,8512.368333
2604.116474,459.657299,888.247130,8512.368333
2604.116803,612.876398,1406.391290,8734.430116
2604.117132,612.876398,1110.308913,9548.656652
2604.117462,459.657299,518.144159,9474.636058
2604.117791,612.876398,740.205942,9696.697840
2604.118120,383.047749,-0.000000,9696.697840
2604.118449,0.000000,518.144159,9178.553681
2604.118778,383.047749,-296.082377,9252.574275
2604.119107,689.485948,-296.082377,9474.636058
2604.119436,842.705048,-1184.329507,9400.615463
2604.119765,689.485948,-222.061783,9400.615463
2604.120094,459.657299,-0.000000,8512.368333
2604.120423,-229.828649,1110.308913,8216.285956
2604.120752,-459.657299,1110.308913,8956.491898
2604.121081,-459.657299,296.082377,9548.656652
2604.121410,76.609550,222.061783,9696.697840
2604.121739,306.438199,-444.123565,9696.697840
2604.122068,306.438199,-296.082377,8734.430116
2604.122397,995.924147,148.041188,8734.430116
2604.122726,1455.581446,-148.041188,8512.368333
2604.123055,2528.115143,-666.185348,8586.388927
2604.123385,2451.505594,-0.000000,8956.491898
2604.123714,2451.505594,-0.000000,8216.285956
2604.124043,1455.581446,814.226536,7920.203579
2604.124372,1149.143247,1184.329507,7920.203579
2604.124701,995.924147,222.061783,8808.450710
2604.125030,0.000000,-888.247130,9474.636058
2604.125359,0.000000,-1480.411884,10288.862594
2604.125688,-383.047749,-1480.411884,9770.718434
2604.126017,-1225.752797,-1332.370696,9178.553681
2604.126346,-612.876398,-1110.308913,9252.574275
2604.126675,0.000000,-814.226536,8956.491898
2604.127004,612.876398,-1332.370696,8734.430116
2604.127333,689.485948,-1036.288319,9178.553681
2604.127662,1072.533697,-370.102971,8512.368333
2604.127991,612.876398,148.041188,7994.224174
2604.128320,459.657299,666.185348,7920.203579
2604.128649,536.266849,222.061783,8586.388927
2604.128978,-229.828649,-666.185348,9548.656652
2604.129308,0.000000,-888.247130,9844.739029
2604.129637,-995.924147,-1184.329507,9548.656652
2604.129966,-842.705048,-296.082377,9252.574275
2604.130295,-153.219100,-592.164754,8956.491898
2604.130624,-153.219100,-666.185348,9474.636058
2604.130953,306.438199,-1184.329507,9400.615463
2604.131282,612.876398,-1110.308913,9178.553681
2604.131611,1225.752797,-518.144159,8512.368333
2604.131940,459.657299,518.144159,8216.285956
2604.132269,76.609550,666.185348,8586.388927
2604.132598,459.657299,296.082377,9400.615463
2604.132927,76.609550,-0.000000,9474.636058
2604.133256,76.609550,-0.000000,9326.594869
2604.133585,-536.266849,296.082377,8586.388927
2604.133914,-536.266849,-740.205942,8882.471304
2604.134243,-612.876398,-1628.453072,9474.636058
2604.134572,0.000000,-1850.514855,9474.636058
2604.134901,-229.828649,-1628.453072,9918.759623
2604.135231,0.000000,-1036.288319,9178.553681
2604.135560,0.000000,-0.000000,8808.450710
2604.135889,0.000000,444.123565,8882.471304
2604.136218,0.000000,962.267725,8512.368333
2604.136547,383.047749,518.144159,9400.615463
2604.136876,536.266849,-0.000000,9770.718434
2604.137205,0.000000,-222.061783,9474.636058
2604.137534,0.000000,-444.123565,9326.594869
2604.137863,76.609550,-814.226536,9030.512492
2604.138192,1149.143247,-888.247130,9252.574275
2604.138521,1455.581446,-1110.308913,9178.553681
2604.138850,1532.190996,-1258.350101,9104.533087
2604.139179,2451.505594,-222.061783,8586.388927
2604.139508,1378.971896,296.082377,8512.368333
2604.139837,1149.143247,1480.411884,8290.306550
2604.140166,1149.143247,1554.432478,8512.368333
2604.140495,1072.533697,666.185348,9104.533087
2604.140824,842.705048,-222.061783,9474.636058
2604.141154,0.000000,-518.144159,9622.677246
2604.141483,306.438199,-962.267725,9104.533087
2604.141812,76.609550,-444.123565,9030.512492
2604.142141,153.219100,-1184.329507,9400.615463
2604.142470,536.266849,-1628.453072,9400.615463
2604.142799,459.657299,-1258.350101,8956.491898
2604.143128,229.828649,222.061783,8068.244768
2604.143457,0.000000,1184.329507,7624.121203
2604.143786,153.219100,1184.329507,8364.327145
2604.144115,306.438199,370.102971,9178.553681
2604.144444,0.000000,-148.041188,9474.636058
2604.144773,153.219100,-296.082377,9696.697840
2604.145102,-229.828649,-518.144159,9104.533087
2604.145431,0.000000,-592.164754,9252.574275
2604.145760,995.924147,-518.144159,9326.594869
2604.146089,1378.971896,-444.123565,9104.533087
2604.146418,1608.800546,-444.123565,9474.636058
2604.146747,1915.238745,518.144159,8438.347739
2604.147077,1532.190996,1110.308913,7920.203579
2604.147406,919.314598,2072.576638,7994.224174
2604.147735,612.876398,1184.329507,9252.574275
2604.148064,229.828649,-74.020594,9400.615463
2604.148393,-612.876398,-222.061783,9844.739029
2604.148722,0.000000,-222.061783,9474.636058
2604.149051,-1072.533697,-444.123565,9400.615463
2604.149380,-1225.752797,-444.123565,9474.636058
2604.149709,-459.657299,-740.205942,9992.780217
2604.150038,-383.047749,-666.185348,9474.636058
2604.150367,76.609550,-666.185348,9474.636058
2604.150696,-153.219100,-370.102971,9252.574275
2604.151025,229.828649,148.041188,8808.450710
2604.151354,0.000000,296.082377,9400.615463
2604.151683,153.219100,296.082377,8882.471304
2604.152012,-229.828649,-222.061783,9918.759623
2604.152341,229.828649,-740.205942,10140.821405
2604.152670,383.047749,-888.247130,9622.677246
2604.153000,-459.657299,-370.102971,8956.491898
2604.153329,689.485948,-296.082377,8808.450710
2604.153658,459.657299,-222.061783,9030.512492
2604.153987,383.047749,-740.205942,9030.512492
2604.154316,689.485948,-1184.329507,8882.471304
2604.154645,536.266849,-592.164754,8364.327145
2604.154974,-153.219100,-0.000000,7994.224174
2604.155303,306.438199,-0.000000,8808.450710
2604.155632,-229.828649,296.082377,9252.574275
2604.155961,0.000000,-518.144159,9326.594869
2604.156290,229.828649,-222.061783,8956.491898
2604.156619,0.000000,-0.000000,8660.409521
2604.156948,0.000000,-148.041188,8438.347739
2604.157277,612.876398,-592.164754,8660.409521
2604.157606,995.924147,-1036.288319,9326.594869
2604.157935,1378.971896,-1258.350101,8586.388927
2604.158264,766.095498,-1258.350101,8586.388927
2604.158593,536.266849,-0.000000,7994.224174
2604.158923,306.438199,888.247130,7994.224174
2604.159252,459.657299,1036.288319,8808.450710
2604.159581,842.705048,518.144159,9400.615463
2604.159910,536.266849,-444.123565,9622.677246
2604.160239,153.219100,-0.000000,9622.677246
2604.160568,-306.438199,-0.000000,9178.553681
2604.160897,-306.438199,-222.061783,8956.491898
2604.161226,766.095498,-370.102971,9326.594869
2604.161555,1225.752797,-518.144159,9400.615463
2604.161884,1762.019645,-666.185348,9622.677246
2604.162213,1225.752797,-74.020594,9326.594869
2604.162542,1302.362347,888.247130,8290.306550
2604.162871,1072.533697,1480.411884,8956.491898
2604.163200,842.705048,1036.288319,9252.574275
2604.163529,766.095498,370.102971,9770.718434
2604.163858,689.485948,148.041188,9770.718434
2604.164187,229.828649,-296.082377,9770.718434
2604.164516,76.609550,148.041188,8956.491898
2604.164846,0.000000,-222.061783,9326.594869
2604.165175,612.876398,-444.123565,9844.739029
2604.165504,0.000000,-962.267725,9548.656652
2604.165833,153.219100,-666.185348,8956.491898
2604.166162,0.000000,-0.000000,8734.430116
2604.166491,0.000000,592.164754,8068.244768
2604.166820,-536.266849,296.082377,9474.636058
2604.167149,0.000000,-370.102971,9400.615463
2604.167478,-459.657299,-888.247130,9918.759623
2604.167807,-306.438199,-518.144159,10214.842000
2604.168136,-612.876398,-370.102971,9400.615463
2604.168465,-306.438199,-370.102971,9104.533087
2604.168794,459.657299,-0.000000,9474.636058
2604.169123,1149.143247,-666.185348,8734.430116
2604.169452,1608.800546,-444.123565,9474.636058
2604.169781,1455.581446,-0.000000,8586.388927
2604.170110,1225.752797,740.205942,7920.203579
2604.170439,689.485948,1406.391290,8216.285956
2604.170768,536.266849,740.205942,8586.388927
2604.171098,76.609550,-222.061783,9474.636058
2604.171427,0.000000,-592.164754,9770.718434
2604.171756,76.609550,-0.000000,9474.636058
2604.172085,-919.314598,-0.000000,9326.594869
2604.172414,-919.314598,-0.000000,9104.533087
2604.172743,0.000000,-814.226536,9326.594869
2604.173072,76.609550,-814.226536,8882.471304
2604.173401,919.314598,-1036.288319,9400.615463
2604.173730,689.485948,-370.102971,9178.553681
2604.174059,153.219100,518.144159,8438.347739
2604.174388,536.266849,1332.370696,8512.368333
2604.174717,459.657299,740.205942,8882.471304
