#time,accel_x,accel_y,accel_z
2508.150078,306.438199,-222.061783,8808.450710
2508.150407,536.266849,-148.041188,8734.430116
2508.150735,536.266849,-0.000000,8808.450710
2508.151064,536.266849,-148.041188,8882.471304
2508.151393,306.438199,-148.041188,9030.512492
2508.151722,-306.438199,-0.000000,9178.553681
2508.152051,229.828649,-370.102971,9178.553681
2508.152380,229.828649,-370.102971,9252.574275
2508.152708,229.828649,-296.082377,9178.553681
2508.153037,0.000000,-222.061783,9252.574275
2508.153366,229.828649,-74.020594,9326.594869
2508.153695,459.657299,-370.102971,8882.471304
2508.154024,612.876398,-222.061783,9326.594869
2508.154353,306.438199,-222.061783,9178.553681
2508.154682,383.047749,-0.000000,9178.553681
2508.155010,459.657299,-0.000000,9104.533087
2508.155339,383.047749,-296.082377,9178.553681
2508.155668,383.047749,-74.020594,9178.553681
2508.155997,536.266849,-444.123565,9400.615463
2508.156326,0.000000,-296.082377,9474.636058
2508.156655,0.000000,-740.205942,9252.574275
2508.156983,306.438199,-370.102971,9178.553681
2508.157312,383.047749,-0.000000,9178.553681
2508.157641,536.266849,-0.000000,9104.533087
2508.157970,306.438199,-0.000000,9104.533087
2508.158299,383.047749,-0.000000,9030.512492
2508.158628,536.266849,-370.102971,8882.471304
2508.158957,536.266849,-0.000000,8808.450710
2508.159285,229.828649,-74.020594,9104.533087
2508.159614,153.219100,-222.061783,8882.471304
2508.159943,306.438199,-74.020594,9030.512492
2508.160272,459.657299,-148.041188,8882.471304
2508.160601,76.609550,-222.061783,8734.430116
2508.160930,229.828649,-296.082377,9326.594869
2508.161258,689.485948,-222.061783,8956.491898
2508.161587,0.000000,-0.000000,8956.491898
2508.161916,459.657299,-0.000000,9030.512492
2508.162245,383.047749,-222.061783,8882.471304
2508.162574,383.047749,-148.041188,9030.512492
2508.162903,689.485948,-296.082377,9030.512492
2508.163232,229.828649,-74.020594,9178.553681
2508.163560,229.828649,-370.102971,9178.553681
2508.163889,306.438199,-592.164754,9030.512492
2508.164218,536.266849,-296.082377,9030.512492
2508.164547,229.828649,-74.020594,9030.512492
2508.164876,383.047749,-370.102971,9178.553681
2508.165205,536.266849,-0.000000,9104.533087
2508.165533,383.047749,-0.000000,9178.553681
2508.165862,536.266849,-74.020594,9252.574275
2508.166191,229.828649,-370.102971,8882.471304
2508.166520,919.314598,-370.102971,9400.615463
2508.166849,383.047749,-370.102971,9178.553681
2508.167178,229.828649,-74.020594,9030.512492
2508.167507,153.219100,-74.020594,9178.553681
2508.167835,383.047749,-74.020594,9178.553681
2508.168164,0.000000,-0.000000,8956.491898
2508.168493,153.219100,-370.102971,9178.553681
2508.168822,459.657299,-148.041188,9400.615463
2508.169151,383.047749,-0.000000,8956.491898
2508.169480,383.047749,-0.000000,9030.512492
2508.169808,459.657299,-0.000000,8734.430116
2508.170137,689.485948,-74.020594,8808.450710
2508.170466,536.266849,-222.061783,8290.306550
2508.170795,306.438199,-74.020594,8956.491898
2508.171124,536.266849,-74.020594,9030.512492
2508.171453,229.828649,-148.041188,8956.491898
2508.171782,229.828649,-0.000000,8956.491898
2508.172110,153.219100,-148.041188,8586.388927
2508.172439,0.000000,-0.000000,9030.512492
2508.172768,0.000000,-74.020594,8956.491898
2508.173097,459.657299,-222.061783,8956.491898
2508.173426,459.657299,-370.102971,8734.430116
2508.173755,612.876398,-74.020594,9104.533087
2508.174084,383.047749,-0.000000,9178.553681
2508.174412,306.438199,-74.020594,9030.512492
2508.174741,229.828649,-74.020594,9252.574275
2508.175070,536.266849,-518.144159,9400.615463
2508.175399,536.266849,-592.164754,9252.574275
2508.175728,1149.143247,-1406.391290,9992.780217
2508.176057,919.314598,-1110.308913,9548.656652
2508.176385,1378.971896,-814.226536,9696.697840
2508.176714,1915.238745,-592.164754,9400.615463
2508.177043,2221.676944,-74.020594,9030.512492
2508.177372,3217.601092,518.144159,9178.553681
2508.177701,4060.306139,-592.164754,9104.533087
2508.178030,4213.525239,-148.041188,8512.368333
2508.178359,3217.601092,666.185348,8586.388927
2508.178687,3294.210641,962.267725,8216.285956
2508.179016,2681.334243,-0.000000,9104.533087
2508.179345,3140.991542,-148.041188,9400.615463
2508.179674,1991.848295,-518.144159,9030.512492
2508.180003,1685.410096,-1480.411884,9918.759623
2508.180332,2681.334243,-2886.803174,9548.656652
2508.180660,2451.505594,-740.205942,9030.512492
2508.180989,2145.067394,-740.205942,9696.697840
2508.181318,3140.991542,-1110.308913,9400.615463
2508.181647,3370.820191,222.061783,9326.594869
2508.181976,5056.230287,888.247130,8512.368333
2508.182305,5745.716235,740.205942,6809.894666
2508.182634,4673.182538,1480.411884,9326.594869
2508.182962,5362.668486,1258.350101,7846.182985
2508.183291,4136.915689,1110.308913,7402.059420
2508.183620,3907.087040,370.102971,8956.491898
2508.183949,2757.943793,-0.000000,8438.347739
2508.184278,2145.067394,-370.102971,9696.697840
2508.184607,1378.971896,-1850.514855,9696.697840
2508.184935,1991.848295,-1480.411884,10140.821405
2508.185264,612.876398,-1628.453072,9770.718434
2508.185593,1072.533697,-962.267725,9622.677246
2508.185922,1149.143247,-814.226536,10140.821405
2508.186251,2987.772442,-74.020594,9622.677246
2508.186580,2911.162892,-0.000000,7920.203579
2508.186909,4366.744339,1258.350101,9770.718434
2508.187237,4903.011187,1036.288319,8142.265362
2508.187566,4749.792088,1184.329507,8068.244768
2508.187895,4673.182538,1184.329507,8956.491898
2508.188224,4060.306139,370.102971,8438.347739
2508.188553,3524.039291,-74.020594,8956.491898
2508.188882,2681.334243,-1702.473667,9696.697840
2508.189210,1762.019645,-1406.391290,10214.842000
2508.189539,1762.019645,-2072.576638,10510.924376
2508.189868,1532.190996,-1998.556043,10288.862594
2508.190197,1762.019645,-1628.453072,9918.759623
2508.190526,2451.505594,-444.123565,10066.800811
2508.190855,3217.601092,296.082377,8808.450710
2508.191184,3907.087040,888.247130,8512.368333
2508.191512,4519.963438,2072.576638,8216.285956
2508.191841,5132.839837,3034.844362,7698.141797
2508.192170,4519.963438,3034.844362,7254.018232
2508.192499,4519.963438,2590.720797,7994.224174
2508.192828,3983.696590,1850.514855,7772.162391
2508.193157,2987.772442,222.061783,8216.285956
2508.193486,2374.896044,-1184.329507,9474.636058
2508.193814,2068.457845,-2590.720797,10066.800811
2508.194143,1455.581446,-3108.864956,10362.883188
2508.194472,1302.362347,-2664.741391,10807.006753
2508.194801,2068.457845,-2220.617826,10362.883188
2508.195130,2298.286494,-814.226536,9992.780217
2508.195459,3524.039291,518.144159,9326.594869
2508.195787,4290.134789,1258.350101,8586.388927
2508.196116,4443.353888,3034.844362,7698.141797
2508.196445,4290.134789,3478.967927,7105.977043
2508.196774,2374.896044,3552.988522,7402.059420
2508.197103,1455.581446,2220.617826,7550.100608
2508.197432,0.000000,370.102971,8586.388927
2508.197761,-1762.019645,-1776.494261,9400.615463
2508.198089,-1915.238745,-3997.112087,11177.109724
2508.198418,-2604.724693,-3627.009116,9474.636058
2508.198747,-2834.553343,-3478.967927,10510.924376
2508.199076,-3140.991542,-3182.885551,10732.986159
2508.199405,-2145.067394,-2368.659014,11473.192101
2508.199734,-1991.848295,-1702.473667,11843.295072
2508.200062,-536.266849,-222.061783,9992.780217
2508.200391,1302.362347,1184.329507,9400.615463
2508.200720,76.609550,2516.700203,8512.368333
2508.201049,-76.609550,962.267725,11399.171507
2508.201378,1149.143247,592.164754,10362.883188
2508.201707,4596.572988,1332.370696,7105.977043
2508.202036,5515.887586,1628.453072,5625.565159
2508.202364,4979.620737,1480.411884,5181.441594
2508.202693,4903.011187,1998.556043,6809.894666
2508.203022,3524.039291,-148.041188,7328.038826
2508.203351,2528.115143,-962.267725,7772.162391
2508.203680,842.705048,-1258.350101,8956.491898
2508.204009,-995.924147,-2072.576638,9474.636058
2508.204337,-2298.286494,-2664.741391,11103.089130
2508.204666,-1838.629195,-2516.700203,10436.903782
2508.204995,-1149.143247,-1702.473667,10214.842000
2508.205324,-1149.143247,-1702.473667,10881.027347
2508.205653,-1685.410096,222.061783,9918.759623
2508.205982,-1685.410096,666.185348,10584.944971
2508.206311,-1532.190996,148.041188,9622.677246
2508.206639,-766.095498,888.247130,8956.491898
2508.206968,-689.485948,814.226536,9178.553681
2508.207297,-1225.752797,370.102971,8734.430116
2508.207626,-229.828649,296.082377,9252.574275
2508.207955,76.609550,-518.144159,8586.388927
2508.208284,383.047749,-1776.494261,8734.430116
2508.208612,2068.457845,-2146.597232,8660.409521
2508.208941,2757.943793,-740.205942,7994.224174
2508.209270,3064.381992,-148.041188,7994.224174
2508.209599,3370.820191,444.123565,8586.388927
2508.209928,3600.648841,1702.473667,8882.471304
2508.210257,3753.867940,1998.556043,8364.327145
2508.210586,2604.724693,2146.597232,8216.285956
2508.210914,1378.971896,2220.617826,8586.388927
2508.211243,-229.828649,740.205942,9400.615463
2508.211572,-1378.971896,-666.185348,10510.924376
2508.211901,-2068.457845,-1406.391290,11621.233289
2508.212230,-1608.800546,-1850.514855,9992.780217
2508.212559,-842.705048,-2220.617826,9770.718434
2508.212887,-1915.238745,-1998.556043,8734.430116
2508.213216,-1685.410096,-1184.329507,9992.780217
2508.213545,-1685.410096,-1110.308913,10807.006753
2508.213874,-995.924147,148.041188,9400.615463
2508.214203,306.438199,962.267725,9622.677246
2508.214532,689.485948,1036.288319,8216.285956
2508.214861,0.000000,1776.494261,8364.327145
2508.215189,0.000000,-370.102971,11177.109724
2508.215518,459.657299,-740.205942,9992.780217
2508.215847,3064.381992,-74.020594,9030.512492
2508.216176,3677.258390,1332.370696,5847.626942
2508.216505,3907.087040,1036.288319,6735.874072
2508.216834,2987.772442,1406.391290,6291.750507
2508.217163,3294.210641,962.267725,7920.203579
2508.217491,1838.629195,296.082377,7105.977043
2508.217820,612.876398,370.102971,7476.080014
2508.218149,-229.828649,-2072.576638,9474.636058
2508.218478,-2451.505594,-2294.638420,9622.677246
2508.218807,-1762.019645,-2886.803174,9992.780217
2508.219136,-1378.971896,-2368.659014,9844.739029
2508.219464,-1149.143247,-1924.535449,10658.965565
2508.219793,-1378.971896,-592.164754,10584.944971
2508.220122,-1685.410096,518.144159,10362.883188
2508.220451,-1915.238745,-74.020594,10140.821405
2508.220780,-306.438199,-0.000000,9474.636058
2508.221109,-766.095498,2072.576638,9252.574275
2508.221438,-229.828649,888.247130,8216.285956
2508.221766,229.828649,444.123565,9326.594869
2508.222095,153.219100,-740.205942,9400.615463
2508.222424,0.000000,-1554.432478,8882.471304
2508.222753,-689.485948,-2146.597232,9030.512492
2508.223082,153.219100,-2072.576638,9474.636058
2508.223411,2145.067394,-1110.308913,8586.388927
2508.223739,2528.115143,888.247130,7624.121203
2508.224068,3294.210641,2072.576638,7624.121203
2508.224397,3677.258390,2072.576638,7550.100608
2508.224726,2987.772442,3182.885551,7772.162391
2508.225055,1991.848295,2368.659014,7550.100608
2508.225384,919.314598,814.226536,8290.306550
2508.225713,-842.705048,-222.061783,10436.903782
2508.226042,-1762.019645,-1850.514855,11547.212695
2508.226370,-1608.800546,-1850.514855,11029.068536
2508.226699,-1378.971896,-1258.350101,8882.471304
2508.227028,-1378.971896,-1332.370696,9622.677246
2508.227357,-2145.067394,-666.185348,9918.759623
2508.227686,-2145.067394,-0.000000,10881.027347
2508.228015,-1838.629195,-0.000000,9548.656652
2508.228344,-306.438199,-0.000000,9474.636058
2508.228673,229.828649,222.061783,9474.636058
2508.229001,383.047749,592.164754,7994.224174
2508.229330,0.000000,-888.247130,9770.718434
2508.229659,-229.828649,-1998.556043,10955.047942
2508.229988,1149.143247,-1776.494261,10140.821405
2508.230317,2757.943793,-814.226536,8512.368333
2508.230646,4213.525239,962.267725,6217.729913
2508.230975,4519.963438,1184.329507,7105.977043
2508.231304,3524.039291,2368.659014,6513.812290
2508.231632,2987.772442,2812.782580,7105.977043
2508.231961,2221.676944,1184.329507,7624.121203
2508.232290,842.705048,370.102971,7772.162391
2508.232619,-1378.971896,-1406.391290,9992.780217
2508.232948,-2221.676944,-2442.679609,11177.109724
2508.233277,-2451.505594,-2738.761985,10214.842000
2508.233606,-919.314598,-1184.329507,10584.944971
2508.233935,-1378.971896,-0.000000,9696.697840
2508.234263,-2068.457845,814.226536,10362.883188
2508.234592,-2451.505594,-222.061783,11103.089130
2508.234921,-1838.629195,-74.020594,9770.718434
2508.235250,-689.485948,-740.205942,9622.677246
2508.235579,229.828649,296.082377,8734.430116
2508.235908,612.876398,296.082377,8142.265362
2508.236237,229.828649,-518.144159,9696.697840
2508.236566,536.266849,-1628.453072,9918.759623
2508.236894,766.095498,-2072.576638,9252.574275
2508.237223,2987.772442,-1036.288319,8216.285956
2508.237552,3830.477490,1332.370696,4737.318029
2508.237881,4519.963438,1480.411884,7476.080014
2508.238210,3983.696590,2812.782580,5921.647536
2508.238539,3600.648841,2960.823768,7476.080014
2508.238868,2068.457845,1406.391290,7698.141797
2508.239197,766.095498,1036.288319,6957.935855
2508.239525,-1149.143247,-1628.453072,10214.842000
2508.239854,-1838.629195,-2590.720797,11177.109724
2508.240183,-1608.800546,-2960.823768,10658.965565
2508.240512,-1378.971896,-1702.473667,9844.739029
2508.240841,-1685.410096,-592.164754,10066.800811
2508.241170,-2604.724693,-74.020594,10140.821405
2508.241499,-2528.115143,-518.144159,10807.006753
2508.241828,-2374.896044,-0.000000,10140.821405
2508.242156,-689.485948,-1258.350101,9770.718434
2508.242485,0.000000,370.102971,8660.409521
2508.242814,689.485948,592.164754,8290.306550
2508.243143,459.657299,-74.020594,9400.615463
2508.243472,689.485948,-1258.350101,10436.903782
2508.243801,2528.115143,-1332.370696,10510.924376
2508.244130,3064.381992,222.061783,6069.688724
2508.244459,4213.525239,1110.308913,7179.997637
2508.244787,3370.820191,1850.514855,6143.709319
2508.245116,3294.210641,2516.700203,7772.162391
2508.245445,1762.019645,1776.494261,8068.244768
2508.245774,995.924147,666.185348,8142.265362
2508.246103,-459.657299,-814.226536,9104.533087
2508.246432,-1838.629195,-1480.411884,9992.780217
2508.246761,-1685.410096,-2516.700203,10362.883188
2508.247090,-2145.067394,-2442.679609,9844.739029
2508.247418,-842.705048,-1480.411884,10881.027347
2508.247747,-1608.800546,-0.000000,10288.862594
2508.248076,-1762.019645,518.144159,10288.862594
2508.248405,-1685.410096,-148.041188,9548.656652
2508.248734,-919.314598,-74.020594,9104.533087
2508.249063,-842.705048,148.041188,9918.759623
2508.249392,229.828649,222.061783,8660.409521
2508.249721,536.266849,-0.000000,7920.203579
2508.250050,689.485948,-1036.288319,9474.636058
2508.250378,766.095498,-2294.638420,9474.636058
2508.250707,2911.162892,-1036.288319,9030.512492
2508.251036,3524.039291,-222.061783,6809.894666
2508.251365,4290.134789,962.267725,6587.832884
2508.251694,3753.867940,1628.453072,6957.935855
2508.252023,3753.867940,2738.761985,7254.018232
2508.252352,2451.505594,814.226536,8142.265362
2508.252681,1225.752797,74.020594,7624.121203
2508.253009,-1072.533697,-592.164754,9178.553681
2508.253338,-2451.505594,-1776.494261,10584.944971
2508.253667,-2757.943793,-3330.926739,10807.006753
2508.253996,-2221.676944,-1924.535449,9844.739029
2508.254325,-2068.457845,-2294.638420,10658.965565
2508.254654,-2834.553343,-1036.288319,10214.842000
2508.254983,-2451.505594,-222.061783,10288.862594
2508.255312,-1762.019645,-222.061783,10140.821405
2508.255640,-689.485948,222.061783,9622.677246
2508.255969,229.828649,1036.288319,8882.471304
2508.256298,229.828649,1258.350101,7476.080014
2508.256627,612.876398,-148.041188,9918.759623
2508.256956,1608.800546,-1406.391290,10732.986159
2508.257285,3140.991542,-814.226536,7476.080014
2508.257614,3907.087040,-0.000000,7328.038826
2508.257943,3600.648841,740.205942,6143.709319
2508.258271,3064.381992,1776.494261,7476.080014
2508.258600,2604.724693,1480.411884,8660.409521
2508.258929,2068.457845,1332.370696,7624.121203
2508.259258,612.876398,-222.061783,9178.553681
2508.259587,-1225.752797,-666.185348,9030.512492
2508.259916,-2068.457845,-1406.391290,10288.862594
2508.260245,-2221.676944,-2072.576638,10436.903782
2508.260574,-995.924147,-2220.617826,9474.636058
2508.260902,-919.314598,-2294.638420,10510.924376
2508.261231,-1608.800546,-148.041188,9548.656652
2508.261560,-1302.362347,666.185348,10214.842000
2508.261889,-995.924147,444.123565,10214.842000
2508.262218,0.000000,444.123565,9474.636058
2508.262547,0.000000,1406.391290,9326.594869
2508.262876,-153.219100,814.226536,8216.285956
2508.263205,0.000000,148.041188,9548.656652
2508.263533,842.705048,-740.205942,9548.656652
2508.263862,2068.457845,-1332.370696,9548.656652
2508.264191,2681.334243,-1036.288319,7920.203579
2508.264520,3524.039291,-444.123565,7698.141797
2508.264849,3140.991542,592.164754,7179.997637
2508.265178,3217.601092,1406.391290,7698.141797
2508.265507,2451.505594,1332.370696,7698.141797
2508.265836,1455.581446,444.123565,8216.285956
2508.266164,459.657299,-444.123565,8882.471304
2508.266493,-1225.752797,-592.164754,8808.450710
2508.266822,-2374.896044,-2072.576638,9992.780217
2508.267151,-2068.457845,-2368.659014,10807.006753
2508.267480,-1532.190996,-1258.350101,10288.862594
2508.267809,-1838.629195,-1036.288319,9770.718434
2508.268138,-1455.581446,-370.102971,9622.677246
2508.268467,-1915.238745,-592.164754,10214.842000
2508.268795,-1225.752797,-74.020594,9992.780217
2508.269124,-383.047749,-0.000000,9474.636058
2508.269453,0.000000,962.267725,8734.430116
2508.269782,76.609550,1480.411884,7994.224174
2508.270111,306.438199,962.267725,9178.553681
2508.270440,995.924147,-814.226536,9252.574275
2508.270769,2298.286494,-1258.350101,8586.388927
2508.271098,2911.162892,-666.185348,7920.203579
2508.271426,3677.258390,296.082377,7031.956449
2508.271755,3677.258390,962.267725,6957.935855
2508.272084,2987.772442,962.267725,7550.100608
2508.272413,2604.724693,1110.308913,8142.265362
2508.272742,1762.019645,888.247130,8142.265362
2508.273071,689.485948,-0.000000,8734.430116
2508.273400,-1225.752797,-370.102971,9178.553681
2508.273729,-1455.581446,-1110.308913,10732.986159
2508.274057,-1532.190996,-2368.659014,10140.821405
2508.274386,-1762.019645,-1776.494261,10658.965565
2508.274715,-995.924147,-1332.370696,10510.924376
2508.275044,-1225.752797,-518.144159,9918.759623
2508.275373,-1072.533697,-444.123565,10140.821405
2508.275702,-612.876398,444.123565,10510.924376
2508.276031,306.438199,-0.000000,8956.491898
2508.276360,0.000000,1184.329507,8956.491898
2508.276688,229.828649,296.082377,9104.533087
2508.277017,766.095498,-74.020594,9696.697840
2508.277346,2145.067394,-518.144159,9104.533087
2508.277675,2834.553343,-296.082377,8438.347739
2508.278004,2681.334243,-888.247130,8068.244768
2508.278333,3140.991542,-0.000000,7846.182985
2508.278662,3140.991542,740.205942,8290.306550
2508.278991,1991.848295,814.226536,8216.285956
2508.279319,1991.848295,814.226536,8290.306550
2508.279648,995.924147,370.102971,8586.388927
2508.279977,-612.876398,-0.000000,9252.574275
2508.280306,-1225.752797,-1036.288319,9770.718434
2508.280635,-2068.457845,-1776.494261,10436.903782
2508.280964,-1532.190996,-1924.535449,9992.780217
2508.281293,-1532.190996,-1554.432478,10214.842000
2508.281622,-1608.800546,-1184.329507,9622.677246
2508.281950,-1225.752797,-1110.308913,9548.656652
2508.282279,-1455.581446,-222.061783,9770.718434
2508.282608,-995.924147,296.082377,9104.533087
2508.282937,0.000000,444.123565,9030.512492
2508.283266,0.000000,1184.329507,8586.388927
2508.283595,0.000000,1332.370696,8364.327145
2508.283924,306.438199,-0.000000,9252.574275
2508.284253,766.095498,-740.205942,9326.594869
2508.284581,1532.190996,-592.164754,9030.512492
2508.284910,2298.286494,-0.000000,7698.141797
2508.285239,2834.553343,-0.000000,7550.100608
2508.285568,2911.162892,740.205942,7254.018232
2508.285897,3140.991542,814.226536,7994.224174
2508.286226,2221.676944,962.267725,7772.162391
2508.286555,1685.410096,518.144159,8142.265362
2508.286884,229.828649,-296.082377,8808.450710
2508.287212,-536.266849,-1184.329507,9918.759623
2508.287541,-1838.629195,-2146.597232,10584.944971
2508.287870,-2068.457845,-2220.617826,10658.965565
2508.288199,-1991.848295,-1628.453072,9992.780217
2508.288528,-1608.800546,-1036.288319,9844.739029
2508.288857,-1915.238745,-370.102971,9844.739029
2508.289186,-1225.752797,-148.041188,10288.862594
2508.289515,-919.314598,-0.000000,10288.862594
2508.289843,-995.924147,814.226536,9548.656652
2508.290172,-306.438199,814.226536,9030.512492
2508.290501,-229.828649,740.205942,8734.430116
2508.290830,76.609550,-0.000000,9696.697840
2508.291159,612.876398,-888.247130,9770.718434
2508.291488,2145.067394,-1036.288319,9178.553681
2508.291817,2221.676944,-962.267725,8142.265362
2508.292146,3370.820191,-0.000000,7624.121203
2508.292474,3140.991542,1184.329507,7254.018232
2508.292803,3294.210641,1924.535449,7624.121203
2508.293132,2681.334243,1850.514855,7698.141797
2508.293461,1915.238745,1110.308913,7476.080014
2508.293790,766.095498,296.082377,8438.347739
2508.294119,-1072.533697,-444.123565,9326.594869
2508.294448,-1991.848295,-1924.535449,10362.883188
2508.294777,-2145.067394,-2294.638420,10436.903782
2508.295105,-1991.848295,-1702.473667,9474.636058
2508.295434,-1608.800546,-1702.473667,10658.965565
2508.295763,-1838.629195,-1036.288319,9770.718434
2508.296092,-1225.752797,-814.226536,9918.759623
2508.296421,-919.314598,-962.267725,10214.842000
2508.296750,-383.047749,296.082377,9104.533087
2508.297079,0.000000,962.267725,8882.471304
2508.297408,-383.047749,1184.329507,8364.327145
2508.297736,0.000000,-0.000000,9474.636058
2508.298065,229.828649,-740.205942,9474.636058
2508.298394,1378.971896,-1258.350101,9844.739029
2508.298723,2451.505594,-962.267725,8586.388927
2508.299052,2834.553343,-0.000000,7476.080014
2508.299381,2987.772442,444.123565,7476.080014
2508.299710,2987.772442,1036.288319,7476.080014
2508.300039,3140.991542,1628.453072,7994.224174
2508.300367,2757.943793,1036.288319,7550.100608
2508.300696,1838.629195,444.123565,8438.347739
2508.301025,0.000000,-370.102971,9104.533087
2508.301354,-1302.362347,-1480.411884,9918.759623
2508.301683,-1991.848295,-2368.659014,11251.130318
2508.302012,-1608.800546,-1924.535449,10436.903782
2508.302341,-1072.533697,-1110.308913,9696.697840
2508.302670,-1072.533697,-370.102971,9474.636058
2508.302998,-995.924147,-74.020594,9548.656652
2508.303327,-689.485948,-0.000000,9696.697840
2508.303656,-153.219100,592.164754,9326.594869
2508.303985,153.219100,1184.329507,8956.491898
2508.304314,0.000000,592.164754,8956.491898
2508.304643,0.000000,148.041188,9104.533087
2508.304972,459.657299,-1036.288319,9696.697840
2508.305301,995.924147,-1850.514855,10140.821405
2508.305629,3294.210641,-1332.370696,8438.347739
2508.305958,4136.915689,-296.082377,7624.121203
2508.306287,3677.258390,1036.288319,7254.018232
2508.306616,3830.477490,1702.473667,7328.038826
2508.306945,3370.820191,1850.514855,7772.162391
2508.307274,2528.115143,1998.556043,7254.018232
2508.307603,1378.971896,740.205942,8142.265362
2508.307932,-612.876398,-74.020594,8586.388927
2508.308260,-1915.238745,-1406.391290,9918.759623
2508.308589,-2145.067394,-3256.906145,11621.233289
2508.308918,-1838.629195,-2368.659014,9770.718434
2508.309247,-1915.238745,-1702.473667,10510.924376
2508.309576,-1991.848295,-1110.308913,10362.883188
2508.309905,-1532.190996,-222.061783,10140.821405
2508.310234,-1455.581446,-222.061783,10881.027347
2508.310563,-536.266849,-74.020594,9622.677246
2508.310891,306.438199,1036.288319,9326.594869
2508.311220,0.000000,1258.350101,8660.409521
2508.311549,-306.438199,370.102971,9326.594869
2508.311878,76.609550,-888.247130,10066.800811
2508.312207,1455.581446,-814.226536,10510.924376
2508.312536,2681.334243,-740.205942,8512.368333
2508.312865,3753.867940,370.102971,7550.100608
2508.313194,4136.915689,1036.288319,6513.812290
2508.313523,3830.477490,1924.535449,7031.956449
2508.313851,3294.210641,1702.473667,7624.121203
2508.314180,2298.286494,1924.535449,7254.018232
2508.314509,995.924147,-0.000000,7920.203579
2508.314838,-612.876398,-518.144159,9474.636058
2508.315167,-1685.410096,-1998.556043,9844.739029
2508.315496,-2068.457845,-3478.967927,10881.027347
2508.315825,-1532.190996,-1702.473667,9030.512492
2508.316154,-1302.362347,-962.267725,10436.903782
2508.316482,-2298.286494,-518.144159,9770.718434
2508.316811,-1915.238745,-74.020594,9992.780217
2508.317140,-1302.362347,222.061783,10288.862594
2508.317469,0.000000,444.123565,9326.594869
2508.317798,-459.657299,666.185348,9400.615463
2508.318127,-153.219100,814.226536,8290.306550
2508.318456,0.000000,-148.041188,9178.553681
2508.318785,153.219100,-1480.411884,9844.739029
2508.319113,612.876398,-1924.535449,9030.512492
2508.319442,1072.533697,-2220.617826,10288.862594
2508.319771,1991.848295,-962.267725,7698.141797
2508.320100,3064.381992,1332.370696,7402.059420
2508.320429,3064.381992,1332.370696,7476.080014
2508.320758,3600.648841,2664.741391,7105.977043
2508.321087,2757.943793,1998.556043,7994.224174
2508.321416,1685.410096,1554.432478,7402.059420
2508.321744,383.047749,-444.123565,8364.327145
2508.322073,-612.876398,-1184.329507,9770.718434
2508.322402,-1608.800546,-2664.741391,10362.883188
2508.322731,-1762.019645,-2368.659014,10732.986159
2508.323060,-1302.362347,-1184.329507,9622.677246
2508.323389,-1378.971896,-1258.350101,9622.677246
2508.323718,-2145.067394,-666.185348,10214.842000
2508.324047,-2068.457845,-518.144159,11473.192101
2508.324376,-1608.800546,-370.102971,9770.718434
2508.324705,-153.219100,-0.000000,9474.636058
2508.325034,0.000000,666.185348,9030.512492
2508.325363,76.609550,1110.308913,8216.285956
2508.325692,229.828649,-0.000000,9918.759623
2508.326021,842.705048,-1184.329507,9474.636058
2508.326350,1838.629195,-1702.473667,9918.759623
2508.326679,2451.505594,-370.102971,8142.265362
2508.327008,3524.039291,518.144159,6809.894666
2508.327337,3677.258390,1184.329507,6957.935855
2508.327666,3217.601092,2368.659014,6809.894666
2508.327995,3064.381992,2146.597232,7846.182985
2508.328324,2068.457845,1036.288319,7476.080014
2508.328653,1608.800546,148.041188,7994.224174
2508.328982,-459.657299,-1554.432478,9474.636058
2508.329311,-1838.629195,-1998.556043,10510.924376
2508.329640,-1685.410096,-2590.720797,10658.965565
2508.329969,-1302.362347,-1702.473667,9770.718434
2508.330298,-1608.800546,-962.267725,10510.924376
2508.330627,-2451.505594,-0.000000,9622.677246
2508.330956,-1991.848295,-74.020594,10584.944971
2508.331285,-2604.724693,-444.123565,9992.780217
2508.331614,-383.047749,-518.144159,9400.615463
2508.331943,0.000000,296.082377,9252.574275
2508.332272,0.000000,148.041188,8438.347739
2508.332601,0.000000,-666.185348,9770.718434
2508.332930,-306.438199,-1406.391290,10584.944971
2508.333259,689.485948,-2664.741391,9992.780217
2508.333588,2374.896044,-1406.391290,8882.471304
2508.333917,4213.525239,1184.329507,6587.832884
2508.334246,4213.525239,1850.514855,7105.977043
2508.334575,3294.210641,2738.761985,6957.935855
2508.334904,3140.991542,3182.885551,7920.203579
2508.335233,1991.848295,1776.494261,7846.182985
2508.335562,229.828649,370.102971,7920.203579
2508.335891,-1762.019645,-1036.288319,8882.471304
2508.336220,-2987.772442,-2442.679609,11177.109724
2508.336549,-2681.334243,-3330.926739,10955.047942
2508.336878,-1991.848295,-1998.556043,9770.718434
2508.337207,-2221.676944,-1406.391290,9992.780217
2508.337536,-2451.505594,-518.144159,10510.924376
2508.337865,-2221.676944,-370.102971,10362.883188
2508.338194,-766.095498,-296.082377,9326.594869
2508.338523,383.047749,370.102971,9178.553681
2508.338852,306.438199,1776.494261,7698.141797
2508.339181,229.828649,888.247130,8364.327145
2508.339510,842.705048,-1036.288319,10584.944971
2508.339839,2451.505594,-740.205942,9104.533087
2508.340168,4519.963438,-0.000000,6513.812290
2508.340497,4290.134789,-74.020594,6883.915261
2508.340826,3677.258390,1406.391290,6365.771101
2508.341155,3677.258390,1628.453072,8290.306550
2508.341484,2451.505594,1406.391290,7476.080014
2508.341813,1455.581446,888.247130,8142.265362
2508.342142,76.609550,-518.144159,9252.574275
2508.342471,-1608.800546,-740.205942,9622.677246
2508.342801,-1915.238745,-2294.638420,11251.130318
2508.343130,-1608.800546,-2590.720797,10288.862594
2508.343459,-1225.752797,-2590.720797,10584.944971
2508.343788,-1149.143247,-1332.370696,10658.965565
2508.344117,-1378.971896,518.144159,9400.615463
2508.344446,-995.924147,518.144159,9844.739029
2508.344775,0.000000,296.082377,9474.636058
2508.345104,0.000000,1184.329507,8808.450710
2508.345433,76.609550,518.144159,9474.636058
2508.345762,76.609550,148.041188,9400.615463
2508.346091,1455.581446,-444.123565,9918.759623
2508.346420,2834.553343,-148.041188,7994.224174
2508.346749,4136.915689,-592.164754,7920.203579
2508.347078,3677.258390,-0.000000,7698.141797
2508.347407,4213.525239,1110.308913,8068.244768
2508.347736,2987.772442,1258.350101,7698.141797
2508.348065,1915.238745,1406.391290,8068.244768
2508.348394,1532.190996,370.102971,8512.368333
2508.348723,0.000000,-0.000000,8956.491898
2508.349052,-1838.629195,-740.205942,9400.615463
2508.349381,-2068.457845,-1628.453072,10288.862594
2508.349710,-1991.848295,-2442.679609,10584.944971
2508.350039,-1685.410096,-2072.576638,10436.903782
2508.350368,-1915.238745,-1406.391290,9400.615463
2508.350697,-2145.067394,-1258.350101,9548.656652
2508.351026,-1302.362347,-1110.308913,9992.780217
2508.351355,-1072.533697,444.123565,9770.718434
2508.351684,-689.485948,592.164754,9252.574275
2508.352013,0.000000,962.267725,9104.533087
2508.352342,-306.438199,740.205942,8438.347739
2508.352671,-153.219100,666.185348,8734.430116
2508.353000,383.047749,-740.205942,9252.574275
2508.353329,1762.019645,-814.226536,8438.347739
2508.353658,2221.676944,-0.000000,7254.018232
2508.353987,2834.553343,370.102971,7846.182985
2508.354316,995.924147,592.164754,7402.059420
2508.354645,2068.457845,-0.000000,8660.409521
2508.354974,1532.190996,74.020594,8438.347739
2508.355303,995.924147,-0.000000,8290.306550
2508.355632,76.609550,-370.102971,9178.553681
2508.355961,-995.924147,-222.061783,9622.677246
2508.356290,-1455.581446,-814.226536,10881.027347
2508.356619,-2451.505594,-1110.308913,10658.965565
2508.356948,-919.314598,-1036.288319,9770.718434
2508.357277,-842.705048,-666.185348,9992.780217
2508.357606,-1149.143247,-0.000000,9326.594869
2508.357935,-1072.533697,444.123565,9326.594869
2508.358264,-995.924147,444.123565,9326.594869
2508.358593,-306.438199,592.164754,9400.615463
2508.358922,-229.828649,666.185348,8660.409521
2508.359251,-153.219100,518.144159,9030.512492
2508.359580,689.485948,-222.061783,9474.636058
2508.359909,1302.362347,-592.164754,9104.533087
2508.360238,2145.067394,-222.061783,8364.327145
2508.360567,2911.162892,-296.082377,8660.409521
2508.360896,3217.601092,-148.041188,7994.224174
2508.361225,3294.210641,740.205942,8512.368333
2508.361554,2987.772442,888.247130,8364.327145
2508.361883,1991.848295,1036.288319,8438.347739
2508.362212,1762.019645,962.267725,8734.430116
2508.362541,383.047749,888.247130,8660.409521
2508.362870,-536.266849,-222.061783,9474.636058
2508.363199,-1149.143247,-1110.308913,10140.821405
2508.363528,-1532.190996,-1998.556043,10510.924376
2508.363857,-1838.629195,-1850.514855,9992.780217
2508.364186,-1685.410096,-2146.597232,9992.780217
2508.364515,-2145.067394,-1850.514855,9770.718434
2508.364844,-1608.800546,-1406.391290,10362.883188
2508.365173,-1532.190996,-518.144159,10140.821405
2508.365502,-612.876398,-222.061783,9474.636058
2508.365831,229.828649,740.205942,8882.471304
2508.366160,0.000000,1036.288319,8956.491898
2508.366489,0.000000,296.082377,9326.594869
2508.366818,1455.581446,-0.000000,8808.450710
2508.367147,2451.505594,518.144159,7772.162391
2508.367476,2987.772442,592.164754,7624.121203
2508.367805,3064.381992,518.144159,7105.977043
2508.368134,2604.724693,666.185348,7920.203579
2508.368463,1915.238745,-296.082377,8290.306550
2508.368792,1762.019645,-0.000000,7994.224174
2508.369121,919.314598,-0.000000,8660.409521
2508.369450,-229.828649,-518.144159,9104.533087
2508.369779,-1072.533697,-814.226536,9474.636058
2508.370108,-1532.190996,-1702.473667,9918.759623
2508.370437,-1072.533697,-1480.411884,9696.697840
2508.370766,-1302.362347,-1184.329507,9548.656652
2508.371095,-1302.362347,-666.185348,9844.739029
2508.371424,-1072.533697,-296.082377,9474.636058
2508.371753,-995.924147,-370.102971,9622.677246
2508.372082,-766.095498,296.082377,9326.594869
2508.372411,153.219100,370.102971,8512.368333
2508.372740,0.000000,518.144159,8808.450710
2508.373069,229.828649,148.041188,9178.553681
2508.373398,2068.457845,-222.061783,8586.388927
2508.373727,2834.553343,148.041188,7698.141797
2508.374056,3217.601092,-0.000000,7920.203579
2508.374385,3064.381992,148.041188,7846.182985
2508.374714,2681.334243,370.102971,8512.368333
2508.375043,2604.724693,370.102971,8882.471304
2508.375372,2451.505594,-0.000000,9178.553681
2508.375701,995.924147,222.061783,9474.636058
2508.376030,153.219100,-0.000000,9400.615463
2508.376359,-689.485948,-444.123565,9770.718434
2508.376688,-1149.143247,-888.247130,9992.780217
2508.377017,-995.924147,-1406.391290,10510.924376
2508.377346,-1532.190996,-1406.391290,10362.883188
2508.377675,-1608.800546,-1480.411884,10288.862594
2508.378004,-1302.362347,-1184.329507,10140.821405
2508.378333,-1608.800546,-1110.308913,9844.739029
2508.378662,-1149.143247,-444.123565,10140.821405
2508.378991,-383.047749,-0.000000,9474.636058
2508.379320,0.000000,444.123565,9474.636058
2508.379649,0.000000,1036.288319,9400.615463
2508.379978,766.095498,1110.308913,8586.388927
2508.380307,1762.019645,1184.329507,8216.285956
2508.380636,2834.553343,962.267725,7994.224174
2508.380965,2757.943793,962.267725,7550.100608
2508.381294,2451.505594,518.144159,8068.244768
2508.381623,2528.115143,-148.041188,8142.265362
2508.381952,2451.505594,-370.102971,8438.347739
2508.382281,1915.238745,-444.123565,8142.265362
2508.382610,919.314598,-592.164754,7994.224174
2508.382939,459.657299,-592.164754,8734.430116
2508.383268,0.000000,-296.082377,9104.533087
2508.383597,-306.438199,-444.123565,9326.594869
2508.383926,-1072.533697,-1184.329507,9104.533087
2508.384255,-1225.752797,-1702.473667,9548.656652
2508.384584,-1378.971896,-1258.350101,9770.718434
2508.384913,-1149.143247,-1258.350101,9548.656652
2508.385242,-1608.800546,-888.247130,9326.594869
2508.385571,-995.924147,-296.082377,9474.636058
2508.385900,-536.266849,-0.000000,9252.574275
2508.386229,0.000000,740.205942,9252.574275
2508.386558,306.438199,592.164754,9326.594869
2508.386887,842.705048,-0.000000,9030.512492
2508.387216,2068.457845,-0.000000,8734.430116
2508.387545,2145.067394,-0.000000,8586.388927
2508.387874,2528.115143,-74.020594,8290.306550
2508.388203,2604.724693,-222.061783,8586.388927
2508.388532,2451.505594,-370.102971,8290.306550
2508.388861,2374.896044,-296.082377,8512.368333
2508.389190,766.095498,-0.000000,8512.368333
2508.389519,1072.533697,296.082377,8808.450710
2508.389848,383.047749,296.082377,9104.533087
2508.390177,-919.314598,-222.061783,9474.636058
2508.390506,-1455.581446,-592.164754,9918.759623
2508.390835,-1225.752797,-1036.288319,10288.862594
2508.391164,-1302.362347,-740.205942,9622.677246
2508.391493,-1685.410096,-1406.391290,10066.800811
2508.391822,-1532.190996,-1332.370696,10288.862594
2508.392151,-1378.971896,-1036.288319,9992.780217
2508.392480,-1149.143247,-518.144159,9844.739029
2508.392809,-612.876398,-0.000000,9326.594869
2508.393138,0.000000,592.164754,9104.533087
2508.393467,0.000000,1332.370696,8734.430116
2508.393796,383.047749,1480.411884,9030.512492
2508.394125,383.047749,148.041188,9326.594869
2508.394454,1838.629195,-0.000000,8808.450710
2508.394783,2374.896044,888.247130,7328.038826
2508.395112,3140.991542,592.164754,7772.162391
2508.395441,3064.381992,740.205942,7476.080014
2508.395770,2528.115143,444.123565,7920.203579
2508.396099,2757.943793,222.061783,8586.388927
2508.396428,1915.238745,740.205942,7846.182985
2508.396757,919.314598,-222.061783,9104.533087
2508.397086,-536.266849,-518.144159,9400.615463
2508.397415,-1302.362347,-1184.329507,10288.862594
2508.397744,-1532.190996,-1998.556043,10584.944971
2508.398073,-1072.533697,-1406.391290,9474.636058
2508.398402,-1149.143247,-1480.411884,10214.842000
2508.398731,-1685.410096,-1036.288319,9992.780217
2508.399060,-1072.533697,-518.144159,9770.718434
2508.399389,-689.485948,-814.226536,9918.759623
2508.399719,-536.266849,296.082377,9104.533087
2508.400048,0.000000,962.267725,9030.512492
2508.400377,0.000000,740.205942,8882.471304
2508.400706,-383.047749,444.123565,8882.471304
2508.401035,1532.190996,-222.061783,9252.574275
2508.401364,2145.067394,-222.061783,7994.224174
2508.401693,2604.724693,-370.102971,8142.265362
2508.402022,2681.334243,-0.000000,7920.203579
2508.402351,2604.724693,370.102971,7994.224174
2508.402680,2298.286494,-0.000000,8586.388927
2508.403009,2298.286494,296.082377,8882.471304
2508.403338,1685.410096,296.082377,8808.450710
2508.403667,383.047749,370.102971,8660.409521
2508.403996,-919.314598,-0.000000,9178.553681
2508.404325,-995.924147,-666.185348,9400.615463
2508.404654,-1455.581446,-814.226536,9918.759623
2508.404983,-1378.971896,-1184.329507,9400.615463
2508.405312,-1302.362347,-888.247130,9400.615463
2508.405641,-1608.800546,-962.267725,9770.718434
2508.405970,-1378.971896,-962.267725,9474.636058
2508.406299,-1149.143247,-740.205942,9696.697840
2508.406628,-1302.362347,-740.205942,9474.636058
2508.406957,-536.266849,-0.000000,9474.636058
2508.407286,0.000000,888.247130,9474.636058
2508.407615,0.000000,-74.020594,8586.388927
2508.407944,-76.609550,222.061783,9474.636058
2508.408273,229.828649,-296.082377,9400.615463
2508.408602,1072.533697,-1036.288319,10066.800811
2508.408931,1991.848295,-814.226536,8586.388927
2508.409260,2911.162892,222.061783,7994.224174
2508.409589,3217.601092,148.041188,7846.182985
2508.409918,3524.039291,888.247130,7920.203579
2508.410247,3064.381992,1480.411884,7994.224174
2508.410576,2681.334243,1480.411884,7698.141797
2508.410905,1532.190996,518.144159,7994.224174
2508.411234,0.000000,-0.000000,9178.553681
2508.411563,-1302.362347,-888.247130,9696.697840
2508.411892,-1991.848295,-2442.679609,11547.212695
2508.412221,-1762.019645,-2368.659014,10140.821405
2508.412550,-1532.190996,-1998.556043,10510.924376
2508.412879,-2221.676944,-1258.350101,9918.759623
2508.413208,-1608.800546,-148.041188,10066.800811
2508.413537,-1225.752797,-0.000000,10140.821405
2508.413866,0.000000,740.205942,9400.615463
2508.414195,383.047749,1184.329507,9104.533087
2508.414524,0.000000,1184.329507,8882.471304
2508.414853,153.219100,370.102971,9770.718434
2508.415182,1225.752797,-888.247130,10658.965565
2508.415511,2681.334243,-370.102971,7772.162391
2508.415840,3983.696590,-0.000000,7772.162391
2508.416169,3830.477490,222.061783,6661.853478
2508.416498,3524.039291,1850.514855,7476.080014
2508.416827,3294.210641,1480.411884,7328.038826
2508.417156,2528.115143,1406.391290,7994.224174
2508.417485,1378.971896,1036.288319,8068.244768
2508.417814,-383.047749,-0.000000,9030.512492
2508.418143,-1915.238745,-1332.370696,9696.697840
2508.418472,-2604.724693,-2812.782580,11325.150913
2508.418801,-2145.067394,-2812.782580,9918.759623
2508.419130,-1685.410096,-2072.576638,9918.759623
2508.419459,-2298.286494,-1628.453072,9918.759623
2508.419788,-1838.629195,-666.185348,9548.656652
2508.420117,-1685.410096,-814.226536,9918.759623
2508.420446,-1532.190996,666.185348,9770.718434
2508.420775,-383.047749,518.144159,9104.533087
2508.421104,-1072.533697,888.247130,8216.285956
2508.421433,-459.657299,1110.308913,8882.471304
2508.421762,-306.438199,-222.061783,9696.697840
2508.422091,842.705048,-1332.370696,9474.636058
2508.422420,1838.629195,-370.102971,7846.182985
2508.422749,2834.553343,-0.000000,8216.285956
2508.423078,2451.505594,518.144159,7624.121203
2508.423407,3524.039291,666.185348,7550.100608
2508.423736,3064.381992,592.164754,8808.450710
2508.424065,2451.505594,962.267725,8290.306550
2508.424394,1608.800546,592.164754,8290.306550
2508.424723,459.657299,222.061783,8808.450710
2508.425052,-536.266849,-370.102971,9622.677246
2508.425381,-1532.190996,-1110.308913,10066.800811
2508.425710,-1838.629195,-1776.494261,10214.842000
2508.426039,-2068.457845,-1480.411884,10214.842000
2508.426368,-1149.143247,-888.247130,9326.594869
2508.426697,-1225.752797,-888.247130,9326.594869
2508.427026,-1302.362347,-518.144159,9474.636058
2508.427355,-766.095498,-0.000000,9622.677246
2508.427684,-306.438199,814.226536,8882.471304
2508.428013,0.000000,370.102971,7994.224174
2508.428342,612.876398,222.061783,9178.553681
2508.428671,1608.800546,-740.205942,9696.697840
2508.429000,1762.019645,-148.041188,8586.388927
2508.429329,3294.210641,-74.020594,8512.368333
2508.429658,3600.648841,444.123565,7105.977043
2508.429987,3983.696590,1406.391290,7772.162391
2508.430316,2911.162892,1332.370696,8586.388927
2508.430645,2451.505594,1036.288319,7920.203579
2508.430974,1378.971896,370.102971,8882.471304
2508.431303,153.219100,592.164754,8734.430116
2508.431632,-1302.362347,-592.164754,9400.615463
2508.431961,-2374.896044,-1924.535449,10658.965565
2508.432290,-2145.067394,-2146.597232,10584.944971
2508.432619,-1991.848295,-1702.473667,9770.718434
2508.432948,-1915.238745,-1998.556043,10066.800811
2508.433277,-2221.676944,-1480.411884,10214.842000
2508.433605,-1915.238745,-1184.329507,9474.636058
2508.433934,-1455.581446,-370.102971,9622.677246
2508.434263,-1072.533697,740.205942,9696.697840
2508.434592,-383.047749,666.185348,8438.347739
2508.434921,-383.047749,888.247130,8438.347739
2508.435250,229.828649,518.144159,9400.615463
2508.435579,842.705048,-444.123565,8956.491898
2508.435908,2374.896044,-0.000000,8142.265362
2508.436237,2681.334243,-74.020594,7698.141797
2508.436566,2528.115143,-0.000000,7476.080014
2508.436895,2451.505594,296.082377,7772.162391
2508.437224,2834.553343,-814.226536,8068.244768
2508.437553,2298.286494,-0.000000,8290.306550
2508.437882,1685.410096,-0.000000,7994.224174
2508.438211,766.095498,-148.041188,8290.306550
2508.438540,-306.438199,-222.061783,9326.594869
2508.438869,-766.095498,-592.164754,9474.636058
2508.439198,-1302.362347,-1110.308913,9770.718434
2508.439527,-1072.533697,-962.267725,10288.862594
2508.439856,-1225.752797,-518.144159,9548.656652
2508.440185,-1915.238745,-222.061783,9474.636058
2508.440514,-995.924147,-888.247130,9474.636058
2508.440843,-689.485948,-74.020594,9400.615463
2508.441172,-612.876398,-0.000000,9400.615463
2508.441501,0.000000,-0.000000,9178.553681
2508.441830,-229.828649,-0.000000,9178.553681
2508.442159,919.314598,-148.041188,9400.615463
2508.442488,1149.143247,-592.164754,10066.800811
2508.442817,1915.238745,-592.164754,8882.471304
2508.443146,3370.820191,-74.020594,8512.368333
2508.443475,3677.258390,444.123565,8142.265362
2508.443804,3830.477490,1406.391290,7920.203579
2508.444133,3907.087040,1406.391290,8290.306550
2508.444462,2987.772442,1850.514855,8068.244768
2508.444791,2145.067394,1258.350101,8734.430116
2508.445120,689.485948,592.164754,8364.327145
2508.445449,-612.876398,-74.020594,9622.677246
2508.445778,-1608.800546,-1776.494261,10807.006753
2508.446107,-1532.190996,-1998.556043,10658.965565
2508.446436,-1915.238745,-1998.556043,9178.553681
2508.446765,-1838.629195,-1702.473667,10288.862594
2508.447094,-1225.752797,-1776.494261,9992.780217
2508.447423,-1608.800546,-814.226536,9992.780217
2508.447752,-1072.533697,-148.041188,10214.842000
2508.448081,-612.876398,592.164754,9400.615463
2508.448410,0.000000,740.205942,8956.491898
2508.448739,76.609550,1702.473667,8438.347739
2508.449068,0.000000,370.102971,9030.512492
2508.449397,76.609550,-0.000000,9400.615463
2508.449726,2068.457845,-592.164754,8882.471304
2508.450055,2528.115143,148.041188,7254.018232
2508.450384,3217.601092,148.041188,7624.121203
2508.450713,2681.334243,296.082377,7105.977043
2508.451042,2834.553343,-0.000000,8068.244768
2508.451371,2528.115143,-0.000000,7920.203579
2508.451700,1685.410096,592.164754,7698.141797
2508.452029,459.657299,-518.144159,9030.512492
2508.452358,-536.266849,-518.144159,8734.430116
2508.452687,-1532.190996,-1184.329507,9992.780217
2508.453016,-2221.676944,-2146.597232,10288.862594
2508.453345,-1302.362347,-1406.391290,9844.739029
2508.453674,-1532.190996,-1110.308913,9918.759623
2508.454003,-2451.505594,-666.185348,9770.718434
2508.454331,-1991.848295,-666.185348,9622.677246
2508.454660,-1072.533697,-888.247130,9992.780217
2508.454989,-766.095498,444.123565,9326.594869
2508.455318,-306.438199,296.082377,8882.471304
2508.455647,0.000000,296.082377,9326.594869
2508.455976,229.828649,-0.000000,9474.636058
2508.456305,689.485948,-518.144159,10140.821405
2508.456634,2451.505594,-518.144159,7994.224174
2508.456963,3064.381992,-0.000000,8068.244768
2508.457292,3064.381992,592.164754,7550.100608
2508.457621,2987.772442,1184.329507,7920.203579
2508.457950,2681.334243,740.205942,8660.409521
2508.458279,1149.143247,814.226536,8586.388927
2508.458608,1455.581446,666.185348,8956.491898
2508.458937,0.000000,-0.000000,8882.471304
2508.459266,-689.485948,-148.041188,9548.656652
2508.459595,-1608.800546,-1258.350101,10362.883188
2508.459924,-1455.581446,-1406.391290,10214.842000
2508.460253,-1225.752797,-1554.432478,9696.697840
2508.460582,-1378.971896,-1406.391290,10288.862594
2508.460911,-1455.581446,-888.247130,9770.718434
2508.461240,-1149.143247,-1406.391290,9474.636058
2508.461569,-1149.143247,-518.144159,9548.656652
2508.461898,-842.705048,518.144159,8956.491898
2508.462227,-459.657299,1184.329507,8808.450710
2508.462556,0.000000,962.267725,8734.430116
2508.462885,0.000000,370.102971,9326.594869
2508.463214,1225.752797,222.061783,9178.553681
2508.463543,2068.457845,-74.020594,8068.244768
2508.463872,2604.724693,-0.000000,8216.285956
2508.464201,2528.115143,370.102971,8216.285956
2508.464530,2604.724693,592.164754,8142.265362
2508.464859,2911.162892,74.020594,8660.409521
2508.465188,2221.676944,-0.000000,8364.327145
2508.465517,1455.581446,-0.000000,8512.368333
2508.465846,76.609550,-74.020594,9030.512492
2508.466175,-842.705048,-148.041188,9104.533087
2508.466504,-1608.800546,-1332.370696,9548.656652
2508.466833,-1838.629195,-1702.473667,10066.800811
2508.467162,-2221.676944,-1184.329507,10066.800811
2508.467491,-1532.190996,-1406.391290,9844.739029
2508.467820,-1838.629195,-1110.308913,9400.615463
2508.468149,-1455.581446,-592.164754,10288.862594
2508.468478,-766.095498,-148.041188,9992.780217
2508.468807,-536.266849,370.102971,9178.553681
2508.469136,0.000000,592.164754,8734.430116
2508.469465,0.000000,1110.308913,8882.471304
2508.469794,612.876398,222.061783,9548.656652
2508.470123,1762.019645,-0.000000,8512.368333
2508.470452,2681.334243,370.102971,7994.224174
2508.470781,2834.553343,-0.000000,7698.141797
2508.471110,3140.991542,592.164754,7624.121203
2508.471439,2681.334243,962.267725,7550.100608
2508.471768,1915.238745,370.102971,7698.141797
2508.472097,1915.238745,-0.000000,8882.471304
2508.472426,1225.752797,222.061783,8586.388927
2508.472755,-459.657299,-444.123565,9178.553681
2508.473084,-1378.971896,-1184.329507,10140.821405
2508.473413,-1532.190996,-1776.494261,10140.821405
2508.473742,-1455.581446,-1258.350101,9844.739029
2508.474071,-1838.629195,-1554.432478,9992.780217
2508.474400,-1225.752797,-1480.411884,10140.821405
2508.474729,-1455.581446,-1628.453072,9696.697840
2508.475057,-995.924147,-666.185348,10288.862594
2508.475386,-995.924147,-222.061783,9548.656652
2508.475715,-536.266849,222.061783,9326.594869
2508.476044,-766.095498,666.185348,9178.553681
2508.476373,-612.876398,1036.288319,9548.656652
2508.476702,-306.438199,-0.000000,8882.471304
2508.477031,1685.410096,-0.000000,9400.615463
2508.477360,2221.676944,-148.041188,8068.244768
2508.477689,2834.553343,296.082377,7994.224174
2508.478018,2757.943793,296.082377,7846.182985
2508.478347,2911.162892,370.102971,7920.203579
2508.478676,2604.724693,370.102971,8734.430116
2508.479005,2221.676944,740.205942,8290.306550
2508.479334,1608.800546,592.164754,9326.594869
2508.479663,459.657299,-0.000000,9474.636058
2508.479992,-229.828649,-222.061783,9696.697840
2508.480321,-1149.143247,-814.226536,10288.862594
2508.480650,-1225.752797,-1036.288319,10140.821405
2508.480979,-1225.752797,-962.267725,9844.739029
2508.481308,-1149.143247,-814.226536,9844.739029
2508.481637,-1149.143247,-1184.329507,9474.636058
2508.481966,-536.266849,-740.205942,9474.636058
2508.482295,-459.657299,-74.020594,9474.636058
2508.482624,-306.438199,296.082377,8882.471304
2508.482953,153.219100,592.164754,9030.512492
2508.483282,536.266849,-0.000000,9030.512492
2508.483611,1915.238745,296.082377,8808.450710
2508.483940,2451.505594,-0.000000,7846.182985
2508.484269,3294.210641,148.041188,7846.182985
2508.484598,3677.258390,296.082377,7698.141797
2508.484927,3370.820191,740.205942,8142.265362
2508.485256,2681.334243,666.185348,7994.224174
2508.485585,2604.724693,370.102971,8438.347739
2508.485914,1685.410096,148.041188,8364.327145
2508.486243,766.095498,666.185348,8734.430116
2508.486572,-612.876398,-74.020594,9696.697840
2508.486901,-1302.362347,-1036.288319,10066.800811
2508.487230,-1608.800546,-1406.391290,10140.821405
2508.487559,-1915.238745,-1480.411884,9992.780217
2508.487888,-1532.190996,-1406.391290,9622.677246
2508.488217,-1378.971896,-2146.597232,9844.739029
2508.488546,-1685.410096,-1776.494261,10066.800811
2508.488875,-1455.581446,-888.247130,10066.800811
2508.489204,-919.314598,-444.123565,9696.697840
2508.489533,-536.266849,296.082377,9252.574275
2508.489862,-306.438199,962.267725,9104.533087
2508.490191,-306.438199,962.267725,8808.450710
2508.490520,-919.314598,222.061783,9030.512492
2508.490849,612.876398,-296.082377,9474.636058
2508.491178,1378.971896,-222.061783,8216.285956
2508.491507,1991.848295,-0.000000,7624.121203
2508.491836,2451.505594,-0.000000,7698.141797
2508.492165,2298.286494,370.102971,7476.080014
2508.492494,2451.505594,296.082377,8216.285956
2508.492823,2298.286494,444.123565,8290.306550
2508.493152,1991.848295,444.123565,8142.265362
2508.493481,766.095498,-0.000000,8586.388927
2508.493810,-612.876398,-0.000000,8956.491898
2508.494139,-1455.581446,-1184.329507,9844.739029
2508.494468,-1762.019645,-1702.473667,10066.800811
2508.494797,-1378.971896,-1554.432478,9696.697840
2508.495126,-1838.629195,-1258.350101,10214.842000
2508.495455,-995.924147,-1184.329507,9992.780217
2508.495784,-612.876398,-814.226536,9474.636058
2508.496112,-766.095498,-370.102971,9548.656652
2508.496441,-612.876398,518.144159,8956.491898
2508.496770,0.000000,370.102971,8882.471304
2508.497099,0.000000,444.123565,8956.491898
2508.497428,459.657299,-592.164754,9474.636058
2508.497757,1991.848295,-962.267725,8290.306550
2508.498086,3294.210641,-148.041188,8216.285956
2508.498415,3600.648841,-74.020594,7846.182985
2508.498744,3447.429741,518.144159,7624.121203
2508.499073,2987.772442,740.205942,8216.285956
2508.499402,2451.505594,814.226536,8586.388927
2508.499731,1455.581446,740.205942,8660.409521
2508.500060,995.924147,222.061783,9104.533087
2508.500389,-383.047749,-148.041188,9400.615463
2508.500718,-1455.581446,-740.205942,10214.842000
2508.501047,-1762.019645,-1110.308913,10288.862594
2508.501376,-1762.019645,-1628.453072,10288.862594
2508.501705,-1991.848295,-1258.350101,9622.677246
2508.502034,-1762.019645,-1110.308913,9770.718434
2508.502363,-1608.800546,-592.164754,10510.924376
2508.502692,-1302.362347,-518.144159,9696.697840
2508.503021,-995.924147,-0.000000,9474.636058
2508.503350,-536.266849,666.185348,9178.553681
2508.503679,-459.657299,888.247130,8660.409521
2508.504008,0.000000,888.247130,9030.512492
2508.504337,229.828649,370.102971,8512.368333
2508.504666,1149.143247,296.082377,9474.636058
2508.504995,2604.724693,-0.000000,8068.244768
2508.505324,2681.334243,592.164754,7550.100608
2508.505653,2911.162892,370.102971,7994.224174
2508.505982,2681.334243,666.185348,8142.265362
2508.506311,2298.286494,222.061783,8216.285956
2508.506640,1762.019645,370.102971,8808.450710
2508.506969,842.705048,370.102971,8586.388927
2508.507298,-306.438199,-296.082377,9178.553681
2508.507627,-919.314598,-592.164754,9622.677246
2508.507956,-1608.800546,-1258.350101,9992.780217
2508.508285,-1762.019645,-1702.473667,10362.883188
2508.508614,-1838.629195,-1554.432478,9696.697840
2508.508943,-1149.143247,-962.267725,9770.718434
2508.509272,-1378.971896,-888.247130,9992.780217
2508.509601,-1532.190996,-1184.329507,10066.800811
2508.509930,-766.095498,-148.041188,10066.800811
2508.510259,-383.047749,222.061783,9252.574275
2508.510588,0.000000,222.061783,9474.636058
2508.510917,842.705048,666.185348,9622.677246
2508.511246,2068.457845,962.267725,7994.224174
2508.511575,3370.820191,592.164754,8364.327145
2508.511904,3830.477490,814.226536,7031.956449
2508.512233,4213.525239,740.205942,7550.100608
2508.512562,3140.991542,444.123565,8068.244768
2508.512891,2987.772442,814.226536,7846.182985
2508.513220,2068.457845,-0.000000,8808.450710
2508.513549,612.876398,222.061783,9326.594869
2508.513878,0.000000,-74.020594,9400.615463
2508.514207,-689.485948,-740.205942,9400.615463
2508.514536,-1302.362347,-1036.288319,9770.718434
2508.514865,-1302.362347,-1332.370696,9992.780217
2508.515194,-1608.800546,-1036.288319,9548.656652
2508.515523,-1685.410096,-1184.329507,9918.759623
2508.515852,-1302.362347,-1258.350101,10214.842000
2508.516181,-995.924147,-370.102971,9622.677246
2508.516510,-842.705048,-222.061783,9622.677246
2508.516838,-536.266849,-0.000000,9030.512492
2508.517167,0.000000,592.164754,9030.512492
2508.517496,383.047749,888.247130,8734.430116
2508.517825,995.924147,962.267725,7846.182985
2508.518154,1991.848295,666.185348,8216.285956
2508.518483,2145.067394,444.123565,7920.203579
2508.518812,2757.943793,444.123565,7994.224174
2508.519141,2068.457845,-74.020594,8438.347739
2508.519470,2145.067394,-814.226536,8290.306550
2508.519799,1838.629195,-666.185348,8882.471304
2508.520128,1149.143247,-518.144159,8882.471304
2508.520457,536.266849,-666.185348,9178.553681
2508.520786,76.609550,-518.144159,9770.718434
2508.521115,-459.657299,-444.123565,9548.656652
2508.521444,-919.314598,-814.226536,9178.553681
2508.521773,-1302.362347,-962.267725,9770.718434
2508.522102,-1608.800546,-962.267725,9622.677246
2508.522431,-1532.190996,-740.205942,9548.656652
2508.522760,-1225.752797,-962.267725,9770.718434
2508.523089,-1149.143247,-888.247130,9696.697840
2508.523418,-842.705048,-888.247130,9622.677246
2508.523747,-383.047749,-518.144159,9474.636058
2508.524076,-459.657299,296.082377,9252.574275
2508.524405,0.000000,222.061783,9326.594869
2508.524734,842.705048,740.205942,8660.409521
2508.525063,1532.190996,962.267725,8660.409521
2508.525392,1838.629195,518.144159,8216.285956
2508.525721,2221.676944,592.164754,8364.327145
2508.526050,2757.943793,370.102971,8290.306550
2508.526379,2528.115143,518.144159,8216.285956
2508.526708,2145.067394,370.102971,8290.306550
2508.527037,1149.143247,-74.020594,8660.409521
2508.527367,842.705048,-0.000000,9104.533087
2508.527696,0.000000,-370.102971,9474.636058
2508.528025,-689.485948,-814.226536,9992.780217
2508.528354,-1072.533697,-518.144159,9326.594869
2508.528684,-1149.143247,-1332.370696,10510.924376
2508.529013,-1455.581446,-1406.391290,9770.718434
2508.529342,-1532.190996,-740.205942,10362.883188
2508.529671,-1149.143247,-1776.494261,9696.697840
2508.530001,-995.924147,-592.164754,8734.430116
2508.530330,-229.828649,-666.185348,9992.780217
2508.530659,-612.876398,-296.082377,9104.533087
2508.530988,-383.047749,666.185348,9252.574275
2508.531317,76.609550,1036.288319,9178.553681
2508.531647,995.924147,1258.350101,7920.203579
2508.531976,1455.581446,962.267725,8364.327145
2508.532305,2145.067394,1036.288319,8142.265362
2508.532634,2451.505594,592.164754,8438.347739
2508.532964,1762.019645,-148.041188,8660.409521
2508.533293,1915.238745,-518.144159,8586.388927
2508.533622,1532.190996,-444.123565,8808.450710
2508.533951,1225.752797,-888.247130,9252.574275
2508.534281,919.314598,-148.041188,9178.553681
2508.534610,153.219100,-222.061783,9474.636058
2508.534939,76.609550,-592.164754,9178.553681
2508.535268,-383.047749,-296.082377,9622.677246
2508.535597,-1532.190996,-444.123565,9548.656652
2508.535927,-1225.752797,-666.185348,9474.636058
2508.536256,-1302.362347,-592.164754,9326.594869
2508.536585,-1608.800546,-1184.329507,9622.677246
2508.536914,-1072.533697,-1036.288319,9474.636058
2508.537244,-689.485948,-888.247130,9326.594869
2508.537573,-229.828649,-518.144159,9474.636058
2508.537902,0.000000,370.102971,9030.512492
2508.538231,0.000000,74.020594,8882.471304
2508.538561,612.876398,814.226536,8512.368333
2508.538890,1455.581446,666.185348,8364.327145
2508.539219,2528.115143,-0.000000,8068.244768
2508.539548,2604.724693,-74.020594,8512.368333
2508.539877,2757.943793,-148.041188,8438.347739
2508.540207,2068.457845,-0.000000,8364.327145
2508.540536,1915.238745,296.082377,8364.327145
2508.540865,1378.971896,296.082377,8586.388927
2508.541194,1149.143247,296.082377,9030.512492
2508.541524,306.438199,-0.000000,9178.553681
2508.541853,-536.266849,-740.205942,9326.594869
2508.542182,-536.266849,-814.226536,9548.656652
2508.542511,-1608.800546,-1184.329507,9992.780217
2508.542840,-2068.457845,-1332.370696,9474.636058
2508.543170,-2145.067394,-1480.411884,9918.759623
2508.543499,-2374.896044,-1406.391290,10214.842000
2508.543828,-1378.971896,-1036.288319,9696.697840
2508.544157,-1225.752797,-962.267725,9992.780217
2508.544487,-459.657299,-222.061783,9770.718434
2508.544816,-383.047749,814.226536,9178.553681
2508.545145,0.000000,740.205942,9622.677246
2508.545474,842.705048,1110.308913,8290.306550
2508.545804,1685.410096,1184.329507,8290.306550
2508.546133,2528.115143,888.247130,8068.244768
2508.546462,3064.381992,222.061783,7476.080014
2508.546791,2987.772442,-296.082377,8142.265362
2508.547120,2374.896044,-0.000000,7994.224174
2508.547450,2145.067394,-740.205942,8364.327145
2508.547779,1378.971896,-444.123565,8290.306550
2508.548108,1378.971896,-666.185348,8512.368333
2508.548437,153.219100,-592.164754,9474.636058
2508.548767,-536.266849,-370.102971,9326.594869
2508.549096,-919.314598,-666.185348,9548.656652
2508.549425,-1225.752797,-444.123565,9474.636058
2508.549754,-1378.971896,-370.102971,9770.718434
2508.550084,-1072.533697,-592.164754,9696.697840
2508.550413,-1302.362347,-814.226536,9696.697840
2508.550742,-766.095498,-962.267725,9474.636058
2508.551071,-689.485948,-592.164754,9474.636058
2508.551400,229.828649,-222.061783,9400.615463
2508.551730,306.438199,370.102971,9104.533087
2508.552059,1072.533697,888.247130,8586.388927
2508.552388,1608.800546,888.247130,8068.244768
2508.552717,2374.896044,814.226536,8216.285956
2508.553047,3064.381992,444.123565,8364.327145
2508.553376,3064.381992,296.082377,7624.121203
2508.553705,2528.115143,-0.000000,8882.471304
2508.554034,2528.115143,-888.247130,9030.512492
2508.554364,1532.190996,-0.000000,8956.491898
2508.554693,536.266849,-518.144159,9474.636058
2508.555022,459.657299,-296.082377,9252.574275
2508.555351,0.000000,296.082377,9844.739029
2508.555680,-306.438199,-444.123565,9770.718434
2508.556010,-842.705048,-888.247130,9696.697840
2508.556339,-1225.752797,-1332.370696,9844.739029
2508.556668,-1532.190996,-814.226536,9696.697840
2508.556997,-1225.752797,-1258.350101,9770.718434
2508.557327,-1378.971896,-1480.411884,9548.656652
2508.557656,-1225.752797,-814.226536,9252.574275
2508.557985,-306.438199,-518.144159,9770.718434
2508.558314,-536.266849,-0.000000,8956.491898
2508.558644,229.828649,444.123565,8660.409521
2508.558973,766.095498,1184.329507,8438.347739
2508.559302,995.924147,1480.411884,7846.182985
2508.559631,1608.800546,1332.370696,7624.121203
2508.559960,1915.238745,370.102971,7772.162391
2508.560290,1838.629195,444.123565,8364.327145
2508.560619,1915.238745,-444.123565,8216.285956
2508.560948,1838.629195,-444.123565,8660.409521
2508.561277,919.314598,-814.226536,8956.491898
2508.561607,766.095498,-666.185348,9030.512492
2508.561936,229.828649,-740.205942,9030.512492
2508.562265,0.000000,-592.164754,9326.594869
2508.562594,-459.657299,-666.185348,9326.594869
2508.562923,-995.924147,-370.102971,9400.615463
2508.563253,-1302.362347,-888.247130,9252.574275
2508.563582,-1378.971896,-592.164754,9474.636058
2508.563911,-1302.362347,-962.267725,9696.697840
2508.564240,-1149.143247,-962.267725,9548.656652
2508.564570,-995.924147,-1036.288319,9844.739029
2508.564899,-536.266849,-1184.329507,9548.656652
2508.565228,-383.047749,-444.123565,9400.615463
2508.565557,76.609550,444.123565,9104.533087
2508.565887,153.219100,888.247130,8734.430116
2508.566216,919.314598,740.205942,8512.368333
2508.566545,1608.800546,666.185348,8734.430116
2508.566874,2068.457845,148.041188,8364.327145
2508.567203,2681.334243,-296.082377,8512.368333
2508.567533,2528.115143,-0.000000,8660.409521
2508.567862,2374.896044,592.164754,8808.450710
2508.568191,1915.238745,148.041188,8734.430116
2508.568520,1532.190996,592.164754,8882.471304
2508.568850,919.314598,666.185348,9104.533087
2508.569179,536.266849,222.061783,9326.594869
2508.569508,76.609550,-148.041188,9400.615463
2508.569837,-1378.971896,-740.205942,9992.780217
2508.570167,-1532.190996,-1258.350101,9918.759623
2508.570496,-1762.019645,-1406.391290,9622.677246
2508.570825,-1608.800546,-1554.432478,9992.780217
2508.571154,-1532.190996,-1332.370696,9696.697840
2508.571483,-995.924147,-592.164754,9844.739029
2508.571813,-612.876398,-444.123565,9548.656652
2508.572142,0.000000,-0.000000,8808.450710
2508.572471,-536.266849,962.267725,8808.450710
2508.572800,-383.047749,1332.370696,8882.471304
2508.573130,306.438199,814.226536,9030.512492
2508.573459,1149.143247,370.102971,8586.388927
2508.573788,2068.457845,222.061783,8068.244768
2508.574117,2451.505594,-370.102971,7624.121203
2508.574447,2911.162892,-370.102971,7994.224174
2508.574776,2374.896044,-0.000000,8438.347739
2508.575105,2221.676944,-0.000000,8290.306550
2508.575434,1991.848295,-74.020594,8438.347739
2508.575763,1149.143247,-0.000000,8956.491898
2508.576093,0.000000,-814.226536,9104.533087
2508.576422,-1302.362347,-666.185348,9918.759623
2508.576751,-1225.752797,-962.267725,10214.842000
2508.577080,-1915.238745,-1036.288319,10066.800811
2508.577410,-1838.629195,-1184.329507,9918.759623
2508.577739,-1991.848295,-962.267725,9548.656652
2508.578068,-1608.800546,-888.247130,9474.636058
2508.578397,-1225.752797,-814.226536,9400.615463
2508.578726,-842.705048,-592.164754,9474.636058
2508.579056,-229.828649,-0.000000,9622.677246
2508.579385,-383.047749,-148.041188,9400.615463
2508.579714,612.876398,592.164754,8882.471304
2508.580043,1532.190996,740.205942,7772.162391
2508.580373,2604.724693,1036.288319,7920.203579
2508.580702,3677.258390,740.205942,7550.100608
2508.581031,3830.477490,814.226536,8068.244768
2508.581360,3753.867940,518.144159,7994.224174
2508.581690,2757.943793,518.144159,8364.327145
2508.582019,1838.629195,-0.000000,8660.409521
2508.582348,995.924147,-0.000000,8882.471304
2508.582677,229.828649,-148.041188,9474.636058
2508.583006,-459.657299,-518.144159,9918.759623
2508.583336,0.000000,-814.226536,9696.697840
2508.583665,-1378.971896,-962.267725,9622.677246
2508.583994,-1149.143247,-888.247130,9474.636058
2508.584323,-1302.362347,-1332.370696,9474.636058
2508.584653,-1378.971896,-1110.308913,9622.677246
2508.584982,-1072.533697,-592.164754,9622.677246
2508.585311,-766.095498,-666.185348,9474.636058
2508.585640,0.000000,-74.020594,9474.636058
2508.585970,383.047749,222.061783,9326.594869
2508.586299,995.924147,962.267725,8290.306550
2508.586628,1532.190996,1332.370696,8142.265362
2508.586957,1991.848295,1554.432478,8142.265362
2508.587286,2145.067394,1184.329507,8216.285956
2508.587616,2145.067394,740.205942,8216.285956
2508.587945,2145.067394,-592.164754,8586.388927
2508.588274,1455.581446,-1110.308913,9178.553681
2508.588603,919.314598,-1184.329507,9474.636058
2508.588933,383.047749,-1036.288319,9178.553681
2508.589262,383.047749,-962.267725,9474.636058
2508.589591,459.657299,-222.061783,9474.636058
2508.589920,0.000000,-0.000000,9548.656652
2508.590250,0.000000,-370.102971,9326.594869
2508.590579,-842.705048,-518.144159,8956.491898
2508.590908,-995.924147,-222.061783,9104.533087
2508.591237,-995.924147,-222.061783,9474.636058
2508.591566,-1378.971896,-888.247130,9622.677246
2508.591896,-1149.143247,-888.247130,9622.677246
2508.592225,-995.924147,-1036.288319,9548.656652
2508.592554,-1225.752797,-148.041188,9400.615463
2508.592883,153.219100,-0.000000,9400.615463
2508.593213,306.438199,888.247130,8734.430116
2508.593542,919.314598,1480.411884,8438.347739
2508.593871,1378.971896,1480.411884,8216.285956
2508.594200,1838.629195,740.205942,7920.203579
2508.594530,1991.848295,-0.000000,8216.285956
2508.594859,2145.067394,370.102971,8586.388927
2508.595188,1608.800546,-222.061783,8734.430116
2508.595517,1302.362347,-518.144159,8734.430116
2508.595846,842.705048,-518.144159,9326.594869
2508.596176,536.266849,-370.102971,9104.533087
2508.596505,153.219100,-296.082377,9326.594869
2508.596834,-689.485948,-222.061783,9474.636058
2508.597163,-766.095498,-296.082377,9548.656652
2508.597493,-995.924147,-148.041188,9474.636058
2508.597822,-1302.362347,-296.082377,9918.759623
2508.598151,-1378.971896,-962.267725,9696.697840
2508.598480,-1455.581446,-1332.370696,9770.718434
2508.598809,-995.924147,-1036.288319,9918.759623
2508.599139,-383.047749,-666.185348,9622.677246
2508.599468,-612.876398,-666.185348,9104.533087
2508.599797,76.609550,962.267725,9104.533087
2508.600126,612.876398,1332.370696,8660.409521
2508.600456,842.705048,1406.391290,8808.450710
2508.600785,995.924147,1332.370696,8290.306550
2508.601114,1608.800546,666.185348,8808.450710
2508.601443,1991.848295,-296.082377,8660.409521
2508.601773,2145.067394,-296.082377,9030.512492
2508.602102,1991.848295,-962.267725,8956.491898
2508.602431,1762.019645,-444.123565,8808.450710
2508.602760,1608.800546,-444.123565,8882.471304
2508.603089,1149.143247,-0.000000,9104.533087
2508.603419,842.705048,370.102971,9178.553681
2508.603748,229.828649,-0.000000,8956.491898
2508.604077,0.000000,-148.041188,9178.553681
2508.604406,-459.657299,-370.102971,9622.677246
2508.604736,-1149.143247,-1036.288319,9474.636058
2508.605065,-1378.971896,-666.185348,9696.697840
2508.605394,-1225.752797,-1036.288319,9548.656652
2508.605723,-995.924147,-1258.350101,9474.636058
2508.606053,-689.485948,-814.226536,9992.780217
2508.606382,-1302.362347,-740.205942,9548.656652
2508.606711,229.828649,222.061783,8882.471304
2508.607040,536.266849,888.247130,8808.450710
2508.607369,1149.143247,1110.308913,8142.265362
2508.607699,1532.190996,1184.329507,8068.244768
2508.608028,1762.019645,592.164754,7994.224174
2508.608357,2528.115143,-296.082377,8142.265362
2508.608686,1991.848295,-74.020594,8586.388927
2508.609016,1762.019645,-0.000000,9030.512492
2508.609345,842.705048,-740.205942,9104.533087
2508.609674,612.876398,-740.205942,9178.553681
2508.610003,306.438199,-518.144159,9474.636058
2508.610333,0.000000,-370.102971,9548.656652
2508.610662,-229.828649,-592.164754,9548.656652
2508.610991,-995.924147,-888.247130,9474.636058
2508.611320,-842.705048,-1184.329507,9400.615463
2508.611649,-1302.362347,-888.247130,9696.697840
2508.611979,-1149.143247,-814.226536,9474.636058
2508.612308,-1455.581446,-888.247130,9622.677246
2508.612637,-1149.143247,-962.267725,9252.574275
2508.612966,-766.095498,-592.164754,9178.553681
2508.613296,-383.047749,-518.144159,9104.533087
2508.613625,229.828649,-0.000000,9400.615463
2508.613954,842.705048,592.164754,8808.450710
2508.614283,995.924147,1258.350101,8364.327145
2508.614612,1302.362347,1554.432478,8586.388927
2508.614942,1915.238745,1332.370696,8290.306550
2508.615271,2911.162892,592.164754,8290.306550
2508.615600,2451.505594,444.123565,8512.368333
2508.615929,2298.286494,-222.061783,8438.347739
2508.616259,1532.190996,-296.082377,9178.553681
2508.616588,1302.362347,-444.123565,9326.594869
2508.616917,919.314598,-444.123565,9400.615463
2508.617246,612.876398,-296.082377,9400.615463
2508.617576,383.047749,-296.082377,9622.677246
2508.617905,0.000000,-296.082377,9474.636058
2508.618234,-766.095498,-592.164754,9400.615463
2508.618563,-766.095498,-592.164754,9400.615463
2508.618892,-766.095498,-518.144159,9326.594869
2508.619222,-612.876398,-444.123565,9548.656652
2508.619551,-612.876398,-814.226536,9474.636058
2508.619880,0.000000,-444.123565,9474.636058
2508.620209,-153.219100,-444.123565,9400.615463
2508.620539,153.219100,296.082377,9104.533087
2508.620868,766.095498,592.164754,9104.533087
2508.621197,1072.533697,1110.308913,8734.430116
2508.621526,1378.971896,962.267725,8660.409521
2508.621856,1685.410096,-0.000000,8586.388927
2508.622185,1608.800546,-592.164754,8734.430116
2508.622514,1991.848295,-518.144159,7994.224174
2508.622843,1149.143247,-1110.308913,9400.615463
2508.623172,1378.971896,-888.247130,9474.636058
2508.623502,919.314598,222.061783,8882.471304
2508.623831,1225.752797,-666.185348,8882.471304
2508.624160,459.657299,370.102971,8364.327145
2508.624489,612.876398,370.102971,9622.677246
2508.624819,-536.266849,-222.061783,9326.594869
2508.625148,-1302.362347,-0.000000,9252.574275
2508.625477,-1302.362347,-1480.411884,9474.636058
2508.625806,-1608.800546,-370.102971,9326.594869
2508.626135,-1608.800546,-1628.453072,9918.759623
2508.626464,-1608.800546,-1036.288319,9474.636058
2508.626794,-1302.362347,-370.102971,9326.594869
2508.627123,-689.485948,-518.144159,9622.677246
2508.627452,-459.657299,-148.041188,8808.450710
2508.627781,0.000000,888.247130,8882.471304
2508.628110,766.095498,814.226536,8808.450710
2508.628439,842.705048,1184.329507,7772.162391
2508.628769,1532.190996,666.185348,7920.203579
2508.629098,2834.553343,592.164754,8216.285956
2508.629427,2451.505594,222.061783,8512.368333
2508.629756,2145.067394,-222.061783,8142.265362
2508.630085,1532.190996,-888.247130,8438.347739
2508.630414,1378.971896,-444.123565,8956.491898
2508.630743,995.924147,-370.102971,9104.533087
2508.631073,76.609550,-444.123565,9252.574275
2508.631402,-306.438199,-1036.288319,9622.677246
2508.631731,-689.485948,-592.164754,9474.636058
2508.632060,-995.924147,-1036.288319,9770.718434
2508.632389,-1455.581446,-740.205942,9770.718434
2508.632718,-1302.362347,-888.247130,9918.759623
2508.633048,-1302.362347,-1036.288319,9696.697840
2508.633377,-1225.752797,-888.247130,9844.739029
2508.633706,-995.924147,-888.247130,9622.677246
2508.634035,-842.705048,-370.102971,9622.677246
2508.634364,0.000000,-0.000000,9178.553681
2508.634693,229.828649,888.247130,8808.450710
2508.635023,842.705048,1036.288319,8290.306550
2508.635352,1608.800546,962.267725,8216.285956
2508.635681,2068.457845,444.123565,8216.285956
2508.636010,2298.286494,222.061783,8438.347739
2508.636339,2911.162892,148.041188,8660.409521
2508.636668,2757.943793,-222.061783,8142.265362
2508.636997,1838.629195,-0.000000,8882.471304
2508.637327,1915.238745,-148.041188,8734.430116
2508.637656,1302.362347,222.061783,8734.430116
2508.637985,612.876398,740.205942,9030.512492
2508.638314,153.219100,-0.000000,9252.574275
2508.638643,-842.705048,-518.144159,9104.533087
2508.638972,-1149.143247,-148.041188,9548.656652
2508.639302,-1378.971896,-1110.308913,9104.533087
2508.639631,-1915.238745,-1702.473667,9696.697840
2508.639960,-1608.800546,-1480.411884,9622.677246
2508.640289,-1685.410096,-1332.370696,9622.677246
2508.640618,-842.705048,-1480.411884,9548.656652
2508.640947,-1072.533697,-814.226536,8660.409521
2508.641276,-766.095498,370.102971,9992.780217
2508.641606,306.438199,444.123565,9770.718434
2508.641935,766.095498,1702.473667,7994.224174
2508.642264,1532.190996,1184.329507,8142.265362
2508.642593,2451.505594,1480.411884,7920.203579
2508.642922,2451.505594,222.061783,8142.265362
2508.643251,2834.553343,370.102971,8216.285956
2508.643581,1762.019645,-888.247130,8512.368333
2508.643910,1608.800546,-1110.308913,8660.409521
2508.644239,689.485948,-888.247130,9178.553681
2508.644568,76.609550,-888.247130,9548.656652
2508.644897,-536.266849,-888.247130,9474.636058
2508.645226,-1149.143247,-814.226536,9992.780217
2508.645555,-1149.143247,-1258.350101,9770.718434
2508.645885,-689.485948,-1184.329507,9696.697840
2508.646214,-1225.752797,-592.164754,9326.594869
2508.646543,-1378.971896,-814.226536,9696.697840
2508.646872,-1149.143247,-666.185348,9548.656652
2508.647201,-766.095498,-518.144159,9474.636058
2508.647530,229.828649,-370.102971,9252.574275
2508.647860,76.609550,-0.000000,8660.409521
2508.648189,612.876398,370.102971,8512.368333
2508.648518,689.485948,814.226536,8512.368333
2508.648847,766.095498,1332.370696,8512.368333
2508.649176,1532.190996,666.185348,8808.450710
2508.649505,1838.629195,518.144159,7994.224174
2508.649835,2145.067394,-0.000000,8438.347739
2508.650164,1838.629195,-148.041188,8364.327145
2508.650493,1685.410096,-444.123565,8660.409521
2508.650822,1838.629195,-370.102971,9104.533087
2508.651151,1455.581446,-370.102971,8660.409521
2508.651480,1302.362347,-74.020594,8808.450710
2508.651809,459.657299,-148.041188,9178.553681
2508.652139,306.438199,222.061783,9030.512492
2508.652468,-153.219100,-148.041188,9104.533087
2508.652797,-766.095498,-518.144159,9030.512492
2508.653126,-766.095498,-1036.288319,9548.656652
2508.653455,-1072.533697,-740.205942,10140.821405
2508.653784,-1149.143247,-1332.370696,9548.656652
2508.654114,-995.924147,-1480.411884,9770.718434
2508.654443,-1072.533697,-888.247130,9770.718434
2508.654772,-459.657299,-148.041188,9548.656652
2508.655101,76.609550,370.102971,9252.574275
2508.655430,229.828649,962.267725,8808.450710
2508.655759,1149.143247,1184.329507,7476.080014
2508.656088,1915.238745,1480.411884,8438.347739
2508.656418,2145.067394,666.185348,8216.285956
2508.656747,2528.115143,222.061783,8290.306550
2508.657076,2298.286494,222.061783,8364.327145
2508.657405,2298.286494,-518.144159,8734.430116
2508.657734,1838.629195,-370.102971,9104.533087
2508.658063,1225.752797,-518.144159,9400.615463
2508.658393,995.924147,-666.185348,9474.636058
2508.658722,383.047749,-148.041188,9326.594869
2508.659051,-153.219100,-296.082377,9548.656652
2508.659380,-766.095498,-296.082377,9548.656652
2508.659709,-1378.971896,-444.123565,9696.697840
2508.660038,-995.924147,-370.102971,9844.739029
2508.660368,-1302.362347,-888.247130,9770.718434
2508.660697,-995.924147,-962.267725,9992.780217
2508.661026,-995.924147,-1110.308913,9474.636058
2508.661355,-919.314598,-518.144159,9400.615463
2508.661684,-229.828649,-296.082377,9104.533087
2508.662013,383.047749,222.061783,8586.388927
2508.662342,1225.752797,444.123565,8290.306550
2508.662672,1302.362347,666.185348,8438.347739
2508.663001,919.314598,592.164754,8438.347739
2508.663330,1991.848295,444.123565,8660.409521
2508.663659,1762.019645,-0.000000,8290.306550
2508.663988,1685.410096,-148.041188,8734.430116
2508.664317,1685.410096,-444.123565,9030.512492
2508.664647,1532.190996,-666.185348,9030.512492
2508.664976,1378.971896,-148.041188,9326.594869
2508.665305,919.314598,-296.082377,9178.553681
2508.665634,306.438199,-0.000000,8956.491898
2508.665963,-689.485948,-148.041188,9030.512492
2508.666292,-1149.143247,-296.082377,9400.615463
2508.666621,-1532.190996,-962.267725,9400.615463
2508.666951,-1685.410096,-1184.329507,9844.739029
2508.667280,-1608.800546,-1850.514855,9992.780217
2508.667609,-1455.581446,-1998.556043,9696.697840
2508.667938,-1378.971896,-1480.411884,9548.656652
2508.668267,-1072.533697,-888.247130,9474.636058
2508.668596,-536.266849,-0.000000,9400.615463
2508.668926,383.047749,1110.308913,8882.471304
2508.669255,919.314598,1554.432478,8216.285956
2508.669584,1149.143247,1998.556043,7698.141797
2508.669913,2681.334243,1776.494261,7920.203579
2508.670242,2604.724693,1036.288319,8068.244768
2508.670571,2604.724693,296.082377,8216.285956
2508.670900,2451.505594,-0.000000,8438.347739
2508.671230,1915.238745,-370.102971,8512.368333
2508.671559,1378.971896,-814.226536,9252.574275
2508.671888,612.876398,-814.226536,9474.636058
2508.672217,842.705048,-814.226536,9474.636058
2508.672546,-229.828649,-74.020594,9474.636058
2508.672875,-536.266849,-0.000000,9474.636058
2508.673205,-995.924147,-74.020594,9474.636058
2508.673534,-1072.533697,-222.061783,9474.636058
2508.673863,-919.314598,-962.267725,9474.636058
2508.674192,-842.705048,-888.247130,9918.759623
2508.674521,-459.657299,-666.185348,9622.677246
2508.674850,-383.047749,-1110.308913,9474.636058
2508.675180,-536.266849,-814.226536,9622.677246
2508.675509,0.000000,-0.000000,9178.553681
2508.675838,612.876398,888.247130,8808.450710
2508.676167,919.314598,1036.288319,8882.471304
2508.676496,2145.067394,1258.350101,8364.327145
2508.676825,1991.848295,518.144159,8734.430116
2508.677154,1915.238745,-0.000000,8734.430116
2508.677484,1915.238745,-296.082377,8956.491898
2508.677813,1455.581446,-740.205942,8882.471304
2508.678142,1378.971896,-592.164754,9104.533087
2508.678471,995.924147,-740.205942,8734.430116
2508.678800,766.095498,-296.082377,9400.615463
2508.679129,842.705048,-0.000000,9252.574275
2508.679459,536.266849,-0.000000,9178.553681
2508.679788,-306.438199,-74.020594,9030.512492
2508.680117,-766.095498,-296.082377,9252.574275
2508.680446,-995.924147,-888.247130,9030.512492
2508.680775,-1378.971896,-888.247130,9178.553681
2508.681104,-1685.410096,-1406.391290,9104.533087
2508.681433,-1608.800546,-1480.411884,9400.615463
2508.681763,-1302.362347,-962.267725,8956.491898
2508.682092,-919.314598,-666.185348,9326.594869
2508.682421,-459.657299,-0.000000,8882.471304
2508.682750,0.000000,444.123565,8438.347739
2508.683079,383.047749,962.267725,8290.306550
2508.683408,1225.752797,962.267725,8068.244768
2508.683738,1685.410096,888.247130,8216.285956
2508.684067,1991.848295,592.164754,8142.265362
2508.684396,1838.629195,148.041188,8290.306550
2508.684725,2068.457845,-74.020594,8290.306550
2508.685054,1915.238745,-444.123565,8586.388927
2508.685383,995.924147,-592.164754,8882.471304
2508.685713,1991.848295,-592.164754,9326.594869
2508.686042,306.438199,-518.144159,9252.574275
2508.686371,-612.876398,-222.061783,9474.636058
2508.686700,-153.219100,-148.041188,9696.697840
2508.687029,-766.095498,-370.102971,9326.594869
2508.687358,-1149.143247,-666.185348,9474.636058
2508.687687,-766.095498,-1036.288319,9844.739029
2508.688017,-689.485948,-814.226536,9548.656652
2508.688346,-1072.533697,-666.185348,9474.636058
2508.688675,-459.657299,-666.185348,9400.615463
2508.689004,0.000000,-148.041188,9474.636058
2508.689333,229.828649,-0.000000,9474.636058
2508.689662,689.485948,592.164754,8734.430116
2508.689992,689.485948,740.205942,8956.491898
2508.690321,1302.362347,888.247130,8586.388927
2508.690650,1915.238745,518.144159,9030.512492
2508.690979,2145.067394,-0.000000,9030.512492
2508.691308,2221.676944,-148.041188,8734.430116
2508.691637,2068.457845,-370.102971,9178.553681
2508.691966,1838.629195,-74.020594,9030.512492
2508.692296,2068.457845,-148.041188,9326.594869
2508.692625,2068.457845,-444.123565,9104.533087
2508.692954,1455.581446,-0.000000,9178.553681
2508.693283,459.657299,592.164754,9326.594869
2508.693612,0.000000,296.082377,9030.512492
2508.693941,-383.047749,-0.000000,9252.574275
2508.694271,-1072.533697,-370.102971,9104.533087
2508.694600,-1608.800546,-1258.350101,9400.615463
2508.694929,-2374.896044,-1850.514855,9696.697840
2508.695258,-1838.629195,-1924.535449,9622.677246
2508.695587,-1838.629195,-1406.391290,9474.636058
2508.695916,-1302.362347,-1036.288319,9474.636058
2508.696246,-689.485948,-296.082377,9326.594869
2508.696575,0.000000,518.144159,8808.450710
2508.696904,1149.143247,1258.350101,8586.388927
2508.697233,919.314598,1850.514855,8216.285956
2508.697562,766.095498,1332.370696,8512.368333
2508.697891,2068.457845,592.164754,8068.244768
2508.698220,2374.896044,370.102971,8142.265362
2508.698550,2068.457845,-370.102971,8364.327145
2508.698879,1608.800546,-444.123565,8660.409521
2508.699208,1072.533697,-814.226536,9400.615463
2508.699537,459.657299,-1036.288319,8882.471304
2508.699866,0.000000,-814.226536,9696.697840
2508.700195,-229.828649,-592.164754,9474.636058
2508.700525,-842.705048,-370.102971,9400.615463
2508.700854,-842.705048,-666.185348,9252.574275
2508.701183,-995.924147,-740.205942,9326.594869
2508.701512,-1072.533697,-740.205942,9622.677246
2508.701841,-995.924147,-888.247130,9548.656652
2508.702170,-995.924147,-740.205942,9326.594869
2508.702499,-1072.533697,-814.226536,9400.615463
2508.702829,-383.047749,-0.000000,9252.574275
2508.703158,0.000000,444.123565,9030.512492
2508.703487,306.438199,814.226536,8882.471304
2508.703816,1072.533697,1258.350101,8808.450710
2508.704145,1149.143247,1628.453072,8882.471304
2508.704474,2221.676944,296.082377,8512.368333
2508.704804,1991.848295,296.082377,8290.306550
2508.705133,1991.848295,-0.000000,8586.388927
2508.705462,2068.457845,-222.061783,8586.388927
2508.705791,1762.019645,-370.102971,9030.512492
2508.706120,1225.752797,-370.102971,8956.491898
2508.706449,1608.800546,-296.082377,9104.533087
2508.706778,459.657299,-0.000000,9400.615463
2508.707108,153.219100,444.123565,9326.594869
2508.707437,-459.657299,-0.000000,9400.615463
2508.707766,-919.314598,-222.061783,9696.697840
2508.708095,-1455.581446,-592.164754,9474.636058
2508.708424,-1608.800546,-1110.308913,10066.800811
2508.708753,-1838.629195,-1628.453072,9918.759623
2508.709083,-1532.190996,-1850.514855,9696.697840
2508.709412,-1455.581446,-1480.411884,10066.800811
2508.709741,-1072.533697,-740.205942,9918.759623
2508.710070,-766.095498,-0.000000,9474.636058
2508.710399,0.000000,740.205942,9252.574275
2508.710728,306.438199,1184.329507,8438.347739
2508.711058,1608.800546,1110.308913,8142.265362
2508.711387,1838.629195,962.267725,8290.306550
2508.711716,2068.457845,962.267725,7772.162391
2508.712045,1991.848295,148.041188,8438.347739
2508.712374,1838.629195,-296.082377,9030.512492
2508.712703,1608.800546,-666.185348,9030.512492
2508.713032,1225.752797,-1036.288319,8734.430116
2508.713362,689.485948,-518.144159,9400.615463
2508.713691,229.828649,-592.164754,9770.718434
2508.714020,229.828649,-296.082377,9400.615463
2508.714349,76.609550,-222.061783,9178.553681
2508.714678,-383.047749,-74.020594,9178.553681
2508.715007,-766.095498,-148.041188,9030.512492
2508.715337,-689.485948,-444.123565,8808.450710
2508.715666,-459.657299,-814.226536,8956.491898
2508.715995,-229.828649,-888.247130,9474.636058
2508.716324,-766.095498,-888.247130,8956.491898
2508.716653,-995.924147,-296.082377,9030.512492
2508.716982,306.438199,-444.123565,9178.553681
2508.717311,229.828649,666.185348,8068.244768
2508.717641,306.438199,296.082377,9104.533087
2508.717970,1915.238745,444.123565,8660.409521
2508.718299,1991.848295,1332.370696,7920.203579
2508.718628,2757.943793,296.082377,8068.244768
2508.718957,3294.210641,370.102971,7846.182985
2508.719286,2604.724693,-888.247130,8364.327145
2508.719616,2604.724693,296.082377,8660.409521
2508.719945,2451.505594,-814.226536,8512.368333
2508.720274,612.876398,-148.041188,8438.347739
2508.720603,919.314598,-296.082377,9252.574275
2508.720932,612.876398,-370.102971,9400.615463
2508.721261,-919.314598,-666.185348,9474.636058
2508.721591,-689.485948,-666.185348,10066.800811
2508.721920,-1225.752797,-1110.308913,9326.594869
2508.722249,-1915.238745,-1628.453072,10288.862594
2508.722578,-1608.800546,-1184.329507,10510.924376
2508.722907,-1608.800546,-1628.453072,9622.677246
2508.723236,-1532.190996,-1036.288319,9770.718434
2508.723565,-612.876398,-296.082377,9178.553681
2508.723895,76.609550,444.123565,9104.533087
2508.724224,689.485948,1110.308913,8734.430116
2508.724553,1532.190996,1702.473667,8142.265362
2508.724882,2068.457845,1554.432478,8364.327145
2508.725211,1608.800546,1258.350101,8512.368333
2508.725540,2298.286494,814.226536,8068.244768
2508.725870,1991.848295,-0.000000,8364.327145
2508.726199,1762.019645,-518.144159,8808.450710
2508.726528,1149.143247,-740.205942,8808.450710
2508.726857,995.924147,-888.247130,9548.656652
2508.727186,0.000000,-740.205942,9474.636058
2508.727515,536.266849,-222.061783,9252.574275
2508.727845,76.609550,-444.123565,9400.615463
2508.728174,-229.828649,444.123565,9252.574275
2508.728503,-459.657299,-74.020594,9252.574275
2508.728832,-919.314598,-0.000000,9104.533087
2508.729162,-919.314598,-222.061783,9770.718434
2508.729491,-766.095498,-962.267725,9696.697840
2508.729820,-919.314598,-1258.350101,9696.697840
2508.730149,-842.705048,-1036.288319,9770.718434
2508.730479,-612.876398,-740.205942,9622.677246
2508.730808,-612.876398,-222.061783,9474.636058
2508.731137,229.828649,222.061783,9030.512492
2508.731466,689.485948,1184.329507,8808.450710
2508.731796,1532.190996,1184.329507,8290.306550
2508.732125,1608.800546,592.164754,7846.182985
2508.732454,2068.457845,-0.000000,8438.347739
2508.732783,2374.896044,-74.020594,8734.430116
2508.733113,1991.848295,-814.226536,8216.285956
2508.733442,1455.581446,-518.144159,8734.430116
2508.733771,919.314598,-666.185348,9030.512492
2508.734100,689.485948,-518.144159,9178.553681
2508.734430,0.000000,-296.082377,9326.594869
2508.734759,-153.219100,-888.247130,9104.533087
2508.735088,-766.095498,-518.144159,9252.574275
2508.735417,-1072.533697,-1036.288319,9252.574275
2508.735747,-1149.143247,-814.226536,9548.656652
2508.736076,-1762.019645,-814.226536,9400.615463
2508.736405,-1455.581446,-1036.288319,9474.636058
2508.736734,-766.095498,-1036.288319,9326.594869
2508.737064,-1225.752797,-444.123565,9474.636058
2508.737393,-689.485948,-222.061783,9326.594869
2508.737722,-689.485948,592.164754,9326.594869
2508.738051,0.000000,962.267725,8586.388927
2508.738381,766.095498,1702.473667,8290.306550
2508.738710,995.924147,1332.370696,8068.244768
2508.739039,1378.971896,888.247130,8142.265362
2508.739368,2374.896044,-0.000000,8216.285956
2508.739698,2528.115143,-296.082377,8734.430116
2508.740027,1685.410096,-592.164754,8364.327145
2508.740356,1762.019645,-518.144159,9030.512492
2508.740685,1532.190996,-592.164754,9400.615463
2508.741014,1302.362347,-444.123565,9252.574275
2508.741344,689.485948,-0.000000,9326.594869
2508.741673,459.657299,-0.000000,9104.533087
2508.742002,0.000000,-0.000000,10362.883188
2508.742331,-919.314598,-888.247130,9770.718434
2508.742661,-919.314598,-296.082377,9474.636058
2508.742990,-1455.581446,-666.185348,10066.800811
2508.743319,-1378.971896,-1110.308913,10066.800811
2508.743648,-1378.971896,-1184.329507,10214.842000
2508.743978,-1072.533697,-888.247130,10066.800811
2508.744307,0.000000,-0.000000,9770.718434
2508.744636,153.219100,-296.082377,9400.615463
2508.744965,766.095498,1258.350101,8734.430116
2508.745295,1455.581446,1184.329507,8882.471304
2508.745624,1915.238745,1480.411884,8068.244768
2508.745953,2221.676944,814.226536,8216.285956
2508.746282,2451.505594,518.144159,8512.368333
2508.746612,1915.238745,-0.000000,7550.100608
2508.746941,2068.457845,-444.123565,8734.430116
2508.747270,1225.752797,-444.123565,9030.512492
2508.747599,995.924147,-444.123565,9252.574275
2508.747929,536.266849,-222.061783,9030.512492
2508.748258,76.609550,-74.020594,9474.636058
2508.748587,0.000000,-222.061783,9178.553681
2508.748916,-612.876398,-444.123565,9178.553681
2508.749246,-919.314598,-444.123565,9474.636058
2508.749575,-1455.581446,-814.226536,9178.553681
2508.749904,-1685.410096,-962.267725,9326.594869
2508.750233,-1608.800546,-1332.370696,9326.594869
2508.750563,-1225.752797,-1184.329507,9178.553681
2508.750892,-1685.410096,-1036.288319,9178.553681
2508.751221,-459.657299,-444.123565,9104.533087
2508.751550,-306.438199,370.102971,9474.636058
2508.751880,0.000000,814.226536,8660.409521
2508.752209,995.924147,1110.308913,8512.368333
2508.752538,1302.362347,1406.391290,8290.306550
2508.752867,1608.800546,1110.308913,8438.347739
2508.753197,1915.238745,370.102971,8290.306550
2508.753526,1991.848295,-0.000000,8956.491898
2508.753855,1915.238745,-222.061783,9104.533087
2508.754184,1455.581446,-814.226536,9030.512492
2508.754514,1225.752797,-518.144159,9104.533087
2508.754843,919.314598,-666.185348,9326.594869
2508.755172,536.266849,-444.123565,9326.594869
2508.755501,459.657299,-370.102971,9474.636058
2508.755831,-229.828649,-740.205942,9622.677246
2508.756160,-229.828649,-296.082377,9474.636058
2508.756489,-383.047749,-444.123565,9548.656652
2508.756818,-612.876398,-444.123565,9548.656652
2508.757148,-612.876398,-592.164754,9992.780217
2508.757477,-689.485948,-666.185348,9548.656652
2508.757806,-229.828649,-74.020594,9696.697840
2508.758135,306.438199,518.144159,9548.656652
2508.758465,536.266849,444.123565,8660.409521
2508.758794,995.924147,1036.288319,8660.409521
2508.759123,1225.752797,1184.329507,8512.368333
2508.759452,1532.190996,1110.308913,8290.306550
2508.759782,1838.629195,518.144159,8364.327145
2508.760111,1991.848295,-0.000000,8512.368333
2508.760440,1838.629195,-296.082377,9030.512492
2508.760769,1838.629195,-1036.288319,9030.512492
2508.761098,1532.190996,-740.205942,9030.512492
2508.761428,1302.362347,-296.082377,8956.491898
2508.761757,995.924147,-74.020594,9178.553681
2508.762086,766.095498,296.082377,9400.615463
2508.762415,229.828649,370.102971,9326.594869
2508.762745,-995.924147,-0.000000,9474.636058
2508.763074,-536.266849,-518.144159,9474.636058
2508.763403,-1072.533697,-222.061783,9474.636058
2508.763732,-1455.581446,-1110.308913,9474.636058
2508.764062,-1762.019645,-1554.432478,9474.636058
2508.764391,-1915.238745,-1776.494261,9548.656652
2508.764720,-1455.581446,-1850.514855,9474.636058
2508.765049,-1685.410096,-1036.288319,9178.553681
2508.765379,-459.657299,-592.164754,9326.594869
2508.765708,-383.047749,444.123565,9030.512492
2508.766037,536.266849,1184.329507,8586.388927
2508.766366,1149.143247,1258.350101,8142.265362
2508.766696,1532.190996,962.267725,8142.265362
2508.767025,2374.896044,888.247130,8068.244768
2508.767354,2451.505594,370.102971,8142.265362
2508.767683,2451.505594,-222.061783,8512.368333
2508.768013,1838.629195,-148.041188,8734.430116
2508.768342,1225.752797,-592.164754,8882.471304
2508.768671,842.705048,-444.123565,8882.471304
2508.769000,76.609550,-666.185348,8956.491898
2508.769330,-612.876398,-888.247130,9326.594869
2508.769659,-612.876398,-888.247130,9696.697840
2508.769988,-1532.190996,-1184.329507,9474.636058
2508.770317,-1072.533697,-518.144159,9326.594869
2508.770647,-1149.143247,-740.205942,9474.636058
2508.770976,-1225.752797,-814.226536,9400.615463
2508.771305,-842.705048,-962.267725,9474.636058
2508.771634,-612.876398,-444.123565,9252.574275
2508.771964,229.828649,-296.082377,9030.512492
2508.772293,459.657299,592.164754,9030.512492
2508.772622,383.047749,1036.288319,8438.347739
2508.772951,1302.362347,1480.411884,8364.327145
2508.773281,1915.238745,1184.329507,8216.285956
2508.773610,2221.676944,592.164754,8216.285956
2508.773939,2298.286494,-0.000000,8882.471304
2508.774268,2298.286494,-296.082377,8660.409521
2508.774598,1455.581446,-518.144159,8586.388927
2508.774927,1455.581446,-518.144159,8660.409521
2508.775256,1072.533697,-518.144159,9252.574275
2508.775585,383.047749,-296.082377,9326.594869
2508.775915,229.828649,-0.000000,9400.615463
2508.776244,0.000000,-222.061783,9474.636058
2508.776573,-459.657299,-740.205942,9844.739029
2508.776902,-995.924147,-1406.391290,9474.636058
2508.777232,-1378.971896,-1332.370696,9992.780217
2508.777561,-1149.143247,-1406.391290,9622.677246
2508.777890,-1149.143247,-962.267725,9622.677246
2508.778219,-1149.143247,-1110.308913,9696.697840
2508.778549,-1072.533697,-444.123565,9548.656652
2508.778878,-229.828649,-74.020594,9770.718434
2508.779207,536.266849,1184.329507,9770.718434
2508.779536,536.266849,1184.329507,8956.491898
2508.779865,612.876398,1480.411884,8586.388927
2508.780195,1072.533697,1332.370696,8216.285956
2508.780524,1378.971896,888.247130,8512.368333
2508.780853,1455.581446,-0.000000,8438.347739
2508.781182,612.876398,-222.061783,8512.368333
2508.781512,842.705048,-1036.288319,9030.512492
2508.781841,1302.362347,-1258.350101,8734.430116
2508.782170,766.095498,-1184.329507,9104.533087
2508.782499,612.876398,-518.144159,9030.512492
2508.782829,689.485948,-74.020594,8734.430116
2508.783158,383.047749,296.082377,8660.409521
2508.783487,229.828649,518.144159,8734.430116
2508.783816,76.609550,-0.000000,8660.409521
2508.784146,-306.438199,296.082377,8956.491898
2508.784475,-766.095498,-518.144159,9178.553681
2508.784804,-1149.143247,-666.185348,9474.636058
2508.785133,-1685.410096,-1258.350101,9548.656652
2508.785463,-1378.971896,-1036.288319,9622.677246
2508.785792,-995.924147,-888.247130,9474.636058
2508.786121,-383.047749,-1184.329507,9030.512492
2508.786450,76.609550,-444.123565,9030.512492
2508.786780,612.876398,518.144159,8882.471304
2508.787109,1302.362347,518.144159,8512.368333
2508.787438,1991.848295,592.164754,8512.368333
2508.787767,2528.115143,222.061783,8290.306550
2508.788097,3140.991542,-0.000000,8216.285956
2508.788426,3064.381992,-0.000000,8438.347739
2508.788755,2451.505594,296.082377,8660.409521
2508.789084,2145.067394,-0.000000,8586.388927
2508.789414,1532.190996,-0.000000,9400.615463
2508.789743,689.485948,296.082377,9326.594869
2508.790072,-153.219100,-222.061783,9178.553681
2508.790401,-766.095498,-740.205942,9770.718434
2508.790731,-1302.362347,-1036.288319,9696.697840
2508.791060,-1762.019645,-1406.391290,9844.739029
2508.791389,-1762.019645,-1258.350101,9992.780217
2508.791718,-1608.800546,-1702.473667,9918.759623
2508.792048,-1455.581446,-1110.308913,10140.821405
2508.792377,-1072.533697,-666.185348,9548.656652
2508.792706,-459.657299,-148.041188,9474.636058
2508.793035,-536.266849,518.144159,9104.533087
2508.793365,1072.533697,1702.473667,8512.368333
2508.793694,1378.971896,1702.473667,8512.368333
2508.794023,1915.238745,1702.473667,7772.162391
2508.794352,2451.505594,1110.308913,8068.244768
2508.794682,2528.115143,444.123565,7994.224174
2508.795011,2145.067394,-518.144159,8142.265362
2508.795340,2528.115143,-592.164754,7920.203579
2508.795669,1455.581446,-962.267725,8586.388927
2508.795999,1225.752797,-740.205942,8882.471304
2508.796328,689.485948,-740.205942,9104.533087
2508.796657,153.219100,-370.102971,9104.533087
2508.796986,-153.219100,-222.061783,9474.636058
2508.797316,-153.219100,-518.144159,9400.615463
2508.797645,-459.657299,-370.102971,9178.553681
2508.797974,-842.705048,-666.185348,9696.697840
2508.798303,-1455.581446,-888.247130,9844.739029
2508.798633,-1532.190996,-1110.308913,9770.718434
2508.798962,-1378.971896,-1332.370696,9622.677246
2508.799291,-919.314598,-1036.288319,9844.739029
2508.799620,-306.438199,-296.082377,9400.615463
2508.799949,229.828649,-0.000000,8734.430116
2508.800279,306.438199,592.164754,8512.368333
2508.800608,1378.971896,962.267725,7994.224174
2508.800937,2068.457845,962.267725,7698.141797
2508.801266,2298.286494,888.247130,8142.265362
2508.801596,2681.334243,222.061783,8216.285956
2508.801925,1915.238745,370.102971,8660.409521
2508.802254,2911.162892,-0.000000,8586.388927
2508.802583,1991.848295,-74.020594,9178.553681
2508.802913,689.485948,-74.020594,9696.697840
2508.803242,153.219100,-74.020594,9622.677246
2508.803571,0.000000,-0.000000,9400.615463
2508.803900,-536.266849,-0.000000,9622.677246
2508.804230,-995.924147,-592.164754,9548.656652
2508.804559,-995.924147,-222.061783,9844.739029
2508.804888,-1225.752797,-1110.308913,9474.636058
2508.805217,-1149.143247,-1184.329507,9474.636058
2508.805547,-1302.362347,-1554.432478,9474.636058
2508.805876,-1072.533697,-1184.329507,9326.594869
2508.806205,-766.095498,-814.226536,9030.512492
2508.806534,-919.314598,222.061783,8734.430116
2508.806864,919.314598,666.185348,8586.388927
2508.807193,919.314598,1406.391290,8290.306550
2508.807522,459.657299,1998.556043,8882.471304
2508.807851,1915.238745,592.164754,8956.491898
2508.808181,1302.362347,1110.308913,8068.244768
2508.808510,1378.971896,-0.000000,8290.306550
2508.808839,2145.067394,-296.082377,9104.533087
2508.809168,919.314598,-1702.473667,8734.430116
2508.809498,1378.971896,-370.102971,9252.574275
2508.809827,1378.971896,-1110.308913,8882.471304
2508.810156,459.657299,-592.164754,9178.553681
2508.810485,612.876398,-222.061783,9030.512492
2508.810815,153.219100,-0.000000,9178.553681
2508.811144,-536.266849,-222.061783,9252.574275
2508.811473,-459.657299,-888.247130,9400.615463
2508.811802,-1072.533697,-666.185348,9696.697840
2508.812132,-1532.190996,-1036.288319,9844.739029
2508.812461,-1532.190996,-888.247130,9548.656652
2508.812790,-1225.752797,-1036.288319,9622.677246
2508.813119,-995.924147,-518.144159,9696.697840
2508.813449,-536.266849,-148.041188,9400.615463
2508.813778,383.047749,666.185348,9622.677246
2508.814107,612.876398,592.164754,8660.409521
2508.814436,1532.190996,1480.411884,8364.327145
2508.814766,1991.848295,1110.308913,8068.244768
2508.815095,2145.067394,444.123565,7920.203579
2508.815424,2374.896044,370.102971,8142.265362
2508.815753,2451.505594,-148.041188,8290.306550
2508.816083,2298.286494,-296.082377,8142.265362
2508.816412,2068.457845,-740.205942,8808.450710
2508.816741,919.314598,-0.000000,8956.491898
2508.817070,306.438199,-370.102971,9252.574275
2508.817400,0.000000,-370.102971,9104.533087
2508.817729,-612.876398,-518.144159,9252.574275
2508.818058,-1149.143247,-592.164754,9104.533087
2508.818387,-1378.971896,-814.226536,9400.615463
2508.818717,-995.924147,-1110.308913,9770.718434
2508.819046,-1685.410096,-1332.370696,9622.677246
2508.819375,-1149.143247,-1332.370696,9622.677246
2508.819704,-1608.800546,-1110.308913,9622.677246
2508.820033,-1149.143247,-814.226536,9548.656652
2508.820363,-383.047749,-222.061783,9474.636058
2508.820692,0.000000,370.102971,9104.533087
2508.821021,383.047749,740.205942,8808.450710
2508.821350,1225.752797,962.267725,8734.430116
2508.821680,1225.752797,740.205942,8512.368333
2508.822009,1915.238745,962.267725,8512.368333
2508.822338,2068.457845,296.082377,8364.327145
2508.822667,2298.286494,-74.020594,8512.368333
2508.822997,2145.067394,-296.082377,8808.450710
2508.823326,1915.238745,-518.144159,8882.471304
2508.823655,1455.581446,-666.185348,9252.574275
2508.823984,842.705048,-222.061783,9548.656652
2508.824314,0.000000,-148.041188,9326.594869
2508.824643,0.000000,-0.000000,9326.594869
2508.824972,-536.266849,-74.020594,9400.615463
2508.825301,-995.924147,-518.144159,9474.636058
2508.825631,-689.485948,-518.144159,9252.574275
2508.825960,-995.924147,-1036.288319,9622.677246
2508.826289,-1532.190996,-1332.370696,9474.636058
2508.826618,-995.924147,-222.061783,9474.636058
2508.826948,76.609550,-370.102971,9400.615463
2508.827277,459.657299,518.144159,8586.388927
2508.827606,1455.581446,1332.370696,8882.471304
2508.827935,1915.238745,1554.432478,8808.450710
2508.828264,2068.457845,1702.473667,8068.244768
2508.828594,3217.601092,740.205942,7624.121203
2508.828923,2681.334243,740.205942,8142.265362
2508.829252,2298.286494,-0.000000,8438.347739
2508.829581,1991.848295,-518.144159,8882.471304
2508.829911,1685.410096,-666.185348,8660.409521
2508.830240,1302.362347,-1110.308913,9326.594869
2508.830569,383.047749,-1184.329507,9178.553681
2508.830898,0.000000,-666.185348,9326.594869
2508.831227,0.000000,-296.082377,9474.636058
2508.831557,-459.657299,-222.061783,9326.594869
2508.831886,-766.095498,-370.102971,9474.636058
2508.832215,-919.314598,-370.102971,9400.615463
2508.832544,-1225.752797,-888.247130,9474.636058
2508.832873,-766.095498,-1332.370696,9696.697840
2508.833203,-1225.752797,-1480.411884,9844.739029
2508.833532,-1455.581446,-1110.308913,9326.594869
2508.833861,-1302.362347,-888.247130,9622.677246
2508.834190,-766.095498,-148.041188,9474.636058
2508.834520,-536.266849,518.144159,8956.491898
2508.834849,383.047749,888.247130,8660.409521
2508.835178,76.609550,814.226536,8734.430116
2508.835507,842.705048,1110.308913,8734.430116
2508.835836,1762.019645,666.185348,8216.285956
2508.836166,1838.629195,-0.000000,8364.327145
2508.836495,1762.019645,-444.123565,8364.327145
2508.836824,1915.238745,-666.185348,8216.285956
2508.837153,1532.190996,-740.205942,8734.430116
2508.837483,1225.752797,-814.226536,8808.450710
2508.837812,766.095498,-0.000000,9178.553681
2508.838141,0.000000,-148.041188,9030.512492
2508.838470,0.000000,-148.041188,9030.512492
2508.838799,-536.266849,-0.000000,9030.512492
2508.839129,-995.924147,-296.082377,9474.636058
2508.839458,-1072.533697,-888.247130,9326.594869
2508.839787,-1149.143247,-962.267725,9696.697840
2508.840116,-995.924147,-1036.288319,9696.697840
2508.840445,-842.705048,-1036.288319,9474.636058
2508.840775,-383.047749,-444.123565,9178.553681
2508.841104,0.000000,-0.000000,9326.594869
2508.841433,689.485948,814.226536,8882.471304
2508.841762,1225.752797,1036.288319,8364.327145
2508.842092,1838.629195,1036.288319,8438.347739
2508.842421,2221.676944,666.185348,8734.430116
2508.842750,2298.286494,592.164754,8734.430116
2508.843079,2374.896044,222.061783,8808.450710
2508.843408,2068.457845,-74.020594,9252.574275
2508.843738,1762.019645,-296.082377,9252.574275
2508.844067,1685.410096,-518.144159,9548.656652
2508.844396,766.095498,-0.000000,10066.800811
2508.844725,842.705048,-666.185348,9696.697840
2508.845055,306.438199,-0.000000,9548.656652
2508.845384,-383.047749,-0.000000,9474.636058
2508.845713,-689.485948,-74.020594,9474.636058
2508.846042,-689.485948,-444.123565,9400.615463
2508.846371,-612.876398,-740.205942,9326.594869
2508.846701,-842.705048,-1406.391290,9178.553681
2508.847030,-842.705048,-1184.329507,9474.636058
2508.847359,-919.314598,-1110.308913,9770.718434
2508.847688,-842.705048,-444.123565,9326.594869
2508.848017,-689.485948,-0.000000,9474.636058
2508.848347,0.000000,814.226536,9400.615463
2508.848676,0.000000,1184.329507,8660.409521
2508.849005,766.095498,1628.453072,8364.327145
2508.849334,1072.533697,1332.370696,8364.327145
2508.849664,1991.848295,740.205942,8290.306550
2508.849993,1915.238745,370.102971,8068.244768
2508.850322,1532.190996,-370.102971,8364.327145
2508.850651,1532.190996,-740.205942,8364.327145
2508.850980,1149.143247,-1036.288319,8438.347739
2508.851310,612.876398,-962.267725,8882.471304
2508.851639,229.828649,-888.247130,9030.512492
2508.851968,0.000000,-666.185348,9474.636058
2508.852297,-612.876398,-592.164754,9178.553681
2508.852627,-766.095498,-370.102971,9400.615463
2508.852956,-1072.533697,-740.205942,9548.656652
2508.853285,-1532.190996,-888.247130,9326.594869
2508.853614,-919.314598,-666.185348,10066.800811
2508.853943,-1302.362347,-1258.350101,9770.718434
2508.854273,-689.485948,-962.267725,9474.636058
2508.854602,-612.876398,-444.123565,9474.636058
2508.854931,-153.219100,-74.020594,9326.594869
2508.855260,766.095498,592.164754,8882.471304
2508.855589,1378.971896,518.144159,8364.327145
2508.855919,1838.629195,888.247130,8216.285956
2508.856248,2298.286494,888.247130,7772.162391
2508.856577,2374.896044,296.082377,7994.224174
2508.856906,2068.457845,-148.041188,8438.347739
2508.857236,1991.848295,-444.123565,8734.430116
2508.857565,1838.629195,-666.185348,9104.533087
2508.857894,1838.629195,-740.205942,9326.594869
2508.858223,1225.752797,-444.123565,9474.636058
2508.858552,536.266849,-222.061783,9474.636058
2508.858882,306.438199,296.082377,9474.636058
2508.859211,-153.219100,-74.020594,9178.553681
2508.859540,-306.438199,-0.000000,9252.574275
2508.859869,-229.828649,-296.082377,8956.491898
2508.860199,-995.924147,-666.185348,9104.533087
2508.860528,-842.705048,-1036.288319,9474.636058
2508.860857,-383.047749,-1332.370696,9326.594869
2508.861186,-766.095498,-814.226536,9178.553681
2508.861515,-689.485948,-0.000000,9400.615463
2508.861845,0.000000,-0.000000,9474.636058
2508.862174,229.828649,814.226536,9104.533087
2508.862503,536.266849,1184.329507,8956.491898
2508.862832,1225.752797,1332.370696,8734.430116
2508.863161,1302.362347,740.205942,8438.347739
2508.863491,1915.238745,296.082377,8808.450710
2508.863820,1991.848295,-148.041188,8882.471304
2508.864149,2298.286494,-740.205942,8956.491898
2508.864478,1838.629195,-592.164754,8808.450710
2508.864808,1762.019645,-296.082377,8956.491898
2508.865137,1532.190996,-74.020594,8956.491898
2508.865466,1455.581446,-74.020594,8882.471304
2508.865795,536.266849,-148.041188,9400.615463
2508.866124,0.000000,-444.123565,9400.615463
2508.866454,-1532.190996,-518.144159,9918.759623
2508.866783,-1302.362347,-1036.288319,9400.615463
2508.867112,-1685.410096,-1110.308913,9696.697840
2508.867441,-1838.629195,-1332.370696,9992.780217
2508.867771,-1532.190996,-1332.370696,9844.739029
2508.868100,-1455.581446,-962.267725,9844.739029
2508.868429,-1225.752797,-148.041188,9622.677246
2508.868758,229.828649,-0.000000,8808.450710
2508.869087,612.876398,962.267725,8882.471304
2508.869417,1302.362347,1332.370696,8068.244768
2508.869746,1838.629195,1628.453072,7772.162391
2508.870075,1915.238745,1036.288319,7846.182985
2508.870404,2374.896044,444.123565,7920.203579
2508.870733,1302.362347,-0.000000,8586.388927
2508.871063,1455.581446,-740.205942,8734.430116
2508.871392,1225.752797,-740.205942,9178.553681
2508.871721,612.876398,-962.267725,8956.491898
2508.872050,306.438199,-592.164754,9326.594869
2508.872380,153.219100,-666.185348,9400.615463
2508.872709,-612.876398,-74.020594,9252.574275
2508.873038,-153.219100,-444.123565,9474.636058
2508.873367,-766.095498,-370.102971,9252.574275
2508.873696,-919.314598,-370.102971,9252.574275
2508.874026,-919.314598,-444.123565,8882.471304
2508.874355,-995.924147,-444.123565,9104.533087
2508.874684,-995.924147,-666.185348,9474.636058
2508.875013,-995.924147,-814.226536,9548.656652
2508.875343,-689.485948,-666.185348,9474.636058
2508.875672,-459.657299,-0.000000,9770.718434
2508.876001,229.828649,370.102971,9326.594869
2508.876330,229.828649,814.226536,9252.574275
2508.876659,919.314598,1110.308913,9030.512492
2508.876989,1225.752797,962.267725,8882.471304
2508.877318,1838.629195,370.102971,8882.471304
2508.877647,2451.505594,-74.020594,8882.471304
2508.877976,1608.800546,-0.000000,8586.388927
2508.878305,2374.896044,-444.123565,8808.450710
2508.878635,1915.238745,-148.041188,8586.388927
2508.878964,1608.800546,-0.000000,8956.491898
2508.879293,766.095498,-0.000000,8956.491898
2508.879622,612.876398,-0.000000,9400.615463
2508.879952,-306.438199,-592.164754,9474.636058
2508.880281,-766.095498,-962.267725,9696.697840
2508.880610,-2145.067394,-1110.308913,10066.800811
2508.880939,-1915.238745,-1480.411884,9992.780217
2508.881268,-1532.190996,-888.247130,9770.718434
2508.881598,-1685.410096,-888.247130,9696.697840
2508.881927,-842.705048,-962.267725,9474.636058
2508.882256,0.000000,148.041188,9474.636058
2508.882585,229.828649,444.123565,8734.430116
2508.882915,1302.362347,1036.288319,7994.224174
2508.883244,1225.752797,1554.432478,7846.182985
2508.883573,1838.629195,1406.391290,7698.141797
2508.883902,1991.848295,1406.391290,7624.121203
2508.884231,1838.629195,296.082377,7994.224174
2508.884561,1991.848295,-740.205942,8216.285956
2508.884890,1378.971896,-1480.411884,8956.491898
2508.885219,612.876398,-1332.370696,9400.615463
2508.885548,459.657299,-1406.391290,9400.615463
2508.885877,229.828649,-1036.288319,9474.636058
2508.886207,229.828649,-222.061783,9474.636058
2508.886536,306.438199,-222.061783,9400.615463
2508.886865,-383.047749,-222.061783,9104.533087
2508.887194,-459.657299,-296.082377,9400.615463
2508.887524,-306.438199,-518.144159,8882.471304
2508.887853,-689.485948,-444.123565,9178.553681
2508.888182,-1225.752797,-740.205942,9474.636058
2508.888511,-1378.971896,-888.247130,9474.636058
2508.888840,-1532.190996,-1184.329507,9696.697840
2508.889170,-842.705048,-1036.288319,9622.677246
2508.889499,-383.047749,-740.205942,9548.656652
2508.889828,-459.657299,-0.000000,9104.533087
2508.890157,383.047749,518.144159,8586.388927
2508.890487,1149.143247,1110.308913,8660.409521
2508.890816,1838.629195,888.247130,8290.306550
2508.891145,2451.505594,814.226536,8216.285956
2508.891474,2604.724693,888.247130,8364.327145
2508.891803,2911.162892,-74.020594,8438.347739
2508.892133,2451.505594,-0.000000,8142.265362
2508.892462,1608.800546,296.082377,8586.388927
2508.892791,1532.190996,-296.082377,9178.553681
2508.893120,536.266849,444.123565,9030.512492
2508.893449,-536.266849,148.041188,10436.903782
2508.893779,-383.047749,-666.185348,10436.903782
2508.894108,-1685.410096,-888.247130,9474.636058
2508.894437,-1608.800546,-1406.391290,9696.697840
2508.894766,-1302.362347,-888.247130,9918.759623
2508.895096,-1532.190996,-1998.556043,9844.739029
2508.895425,-689.485948,-370.102971,9474.636058
2508.895754,-306.438199,-592.164754,9030.512492
2508.896083,0.000000,518.144159,8808.450710
2508.896412,1072.533697,888.247130,8660.409521
2508.896742,1685.410096,1480.411884,8512.368333
2508.897071,1532.190996,1406.391290,8068.244768
2508.897400,2145.067394,1554.432478,8660.409521
2508.897729,1762.019645,518.144159,8438.347739
2508.898059,1838.629195,-0.000000,9030.512492
2508.898388,1225.752797,-296.082377,9178.553681
2508.898717,1685.410096,-1406.391290,9474.636058
2508.899046,1072.533697,-1480.411884,9474.636058
2508.899375,1225.752797,-814.226536,9474.636058
2508.899705,1072.533697,-592.164754,9252.574275
2508.900034,536.266849,-222.061783,9030.512492
2508.900363,383.047749,222.061783,8882.471304
2508.900692,0.000000,-0.000000,9030.512492
2508.901021,-612.876398,-0.000000,8882.471304
2508.901351,-919.314598,-296.082377,9104.533087
2508.901680,-1149.143247,-518.144159,9400.615463
2508.902009,-1532.190996,-1110.308913,9696.697840
2508.902338,-1685.410096,-1628.453072,9844.739029
2508.902668,-1685.410096,-888.247130,9992.780217
2508.902997,-1149.143247,-740.205942,9548.656652
2508.903326,-995.924147,-222.061783,9770.718434
2508.903655,0.000000,370.102971,9178.553681
2508.903984,153.219100,740.205942,8956.491898
2508.904314,1149.143247,1036.288319,8438.347739
2508.904643,1608.800546,740.205942,7920.203579
2508.904972,2451.505594,666.185348,7846.182985
2508.905301,2374.896044,-0.000000,7624.121203
2508.905631,2681.334243,-0.000000,8364.327145
2508.905960,1915.238745,-444.123565,8216.285956
2508.906289,1455.581446,-370.102971,8512.368333
2508.906618,689.485948,-370.102971,8956.491898
2508.906947,0.000000,-222.061783,9252.574275
2508.907277,-919.314598,-740.205942,9326.594869
2508.907606,-1685.410096,-592.164754,9918.759623
2508.907935,-1685.410096,-444.123565,9918.759623
2508.908264,-1762.019645,-814.226536,9844.739029
2508.908593,-1225.752797,-962.267725,9696.697840
2508.908923,-1302.362347,-888.247130,9770.718434
2508.909252,-842.705048,-814.226536,9474.636058
2508.909581,229.828649,-444.123565,9178.553681
2508.909910,536.266849,370.102971,9104.533087
2508.910240,919.314598,666.185348,9252.574275
2508.910569,1225.752797,1258.350101,8364.327145
2508.910898,1302.362347,1554.432478,7994.224174
2508.911227,1378.971896,814.226536,8586.388927
2508.911556,1838.629195,296.082377,8586.388927
2508.911886,1991.848295,-296.082377,8734.430116
2508.912215,1608.800546,-814.226536,9474.636058
2508.912544,1991.848295,-1480.411884,9326.594869
2508.912873,995.924147,-296.082377,9474.636058
2508.913203,1149.143247,-148.041188,9326.594869
2508.913532,1302.362347,370.102971,9178.553681
2508.913861,995.924147,296.082377,9104.533087
2508.914190,1455.581446,592.164754,8660.409521
2508.914519,766.095498,-0.000000,8586.388927
2508.914849,-306.438199,-0.000000,8734.430116
2508.915178,-536.266849,-666.185348,9326.594869
2508.915507,-1225.752797,-666.185348,9474.636058
2508.915836,-1762.019645,-1480.411884,9696.697840
2508.916165,-1608.800546,-1332.370696,9918.759623
2508.916495,-1762.019645,-1110.308913,9770.718434
2508.916824,-1302.362347,-740.205942,9770.718434
2508.917153,-1072.533697,-0.000000,9474.636058
2508.917482,0.000000,740.205942,9104.533087
2508.917812,919.314598,1480.411884,8364.327145
2508.918141,1378.971896,1554.432478,8068.244768
2508.918470,2298.286494,1036.288319,8068.244768
2508.918799,2145.067394,592.164754,7476.080014
2508.919128,2374.896044,-0.000000,8068.244768
2508.919458,2145.067394,-888.247130,8512.368333
2508.919787,1302.362347,-740.205942,8956.491898
2508.920116,766.095498,-888.247130,9252.574275
2508.920445,383.047749,-1406.391290,9474.636058
2508.920775,-612.876398,-962.267725,9548.656652
2508.921104,-766.095498,-962.267725,9548.656652
2508.921433,-1149.143247,-370.102971,9992.780217
2508.921762,-2221.676944,-740.205942,9992.780217
2508.922091,-1838.629195,-888.247130,9548.656652
2508.922421,-1608.800546,-740.205942,9622.677246
2508.922750,-1225.752797,-666.185348,9474.636058
2508.923079,-995.924147,-666.185348,9104.533087
2508.923408,-612.876398,-370.102971,9474.636058
2508.923737,153.219100,-296.082377,9474.636058
2508.924067,153.219100,-0.000000,8586.388927
2508.924396,842.705048,1036.288319,8512.368333
2508.924725,1072.533697,1184.329507,8216.285956
2508.925054,1455.581446,1110.308913,8142.265362
2508.925384,1991.848295,666.185348,8438.347739
2508.925713,1762.019645,370.102971,8364.327145
2508.926042,1915.238745,-222.061783,9030.512492
2508.926371,1685.410096,-592.164754,9178.553681
2508.926700,1685.410096,-592.164754,9104.533087
2508.927030,1378.971896,-74.020594,9326.594869
2508.927359,919.314598,-0.000000,8956.491898
2508.927688,842.705048,370.102971,8882.471304
2508.928017,0.000000,148.041188,9104.533087
2508.928347,-229.828649,148.041188,8882.471304
2508.928676,0.000000,-370.102971,8808.450710
2508.929005,-766.095498,-740.205942,8882.471304
2508.929334,-995.924147,-962.267725,9548.656652
2508.929663,-1302.362347,-1480.411884,10066.800811
2508.929992,-1532.190996,-1332.370696,9918.759623
2508.930322,-1378.971896,-962.267725,10066.800811
2508.930651,-842.705048,-518.144159,9696.697840
2508.930980,0.000000,148.041188,9400.615463
2508.931309,0.000000,1184.329507,9326.594869
2508.931638,1225.752797,1406.391290,8660.409521
2508.931968,1991.848295,1406.391290,8290.306550
2508.932297,2374.896044,1184.329507,8364.327145
2508.932626,3140.991542,814.226536,7920.203579
2508.932955,2681.334243,-0.000000,8660.409521
2508.933284,2451.505594,-666.185348,8734.430116
2508.933614,1762.019645,-518.144159,8882.471304
2508.933943,1455.581446,-888.247130,9252.574275
2508.934272,536.266849,-740.205942,9622.677246
2508.934601,0.000000,-444.123565,9770.718434
2508.934930,-766.095498,-592.164754,9992.780217
2508.935260,-1608.800546,-296.082377,9918.759623
2508.935589,-995.924147,-444.123565,9918.759623
2508.935918,-1225.752797,-592.164754,9696.697840
2508.936247,-1302.362347,-296.082377,9400.615463
2508.936576,-995.924147,-370.102971,9400.615463
2508.936906,-536.266849,-666.185348,8808.450710
2508.937235,-766.095498,-296.082377,8808.450710
2508.937564,0.000000,-222.061783,8734.430116
2508.937893,306.438199,296.082377,8512.368333
2508.938222,995.924147,296.082377,8512.368333
2508.938552,1149.143247,740.205942,8290.306550
2508.938881,1378.971896,518.144159,8290.306550
2508.939210,1608.800546,370.102971,8216.285956
2508.939539,1915.238745,370.102971,7772.162391
2508.939868,1762.019645,-592.164754,8734.430116
2508.940198,2221.676944,-444.123565,8882.471304
2508.940527,1685.410096,-666.185348,8660.409521
2508.940856,1149.143247,-74.020594,8956.491898
2508.941185,1149.143247,-0.000000,8882.471304
2508.941514,919.314598,-0.000000,8808.450710
2508.941844,153.219100,-0.000000,8734.430116
2508.942173,-459.657299,-444.123565,9104.533087
2508.942502,-383.047749,-814.226536,9104.533087
2508.942831,-1302.362347,-888.247130,9474.636058
2508.943160,-1532.190996,-1184.329507,9770.718434
2508.943490,-2068.457845,-1554.432478,9844.739029
2508.943819,-1838.629195,-1258.350101,10066.800811
2508.944148,-1838.629195,-666.185348,10066.800811
2508.944477,-1072.533697,-666.185348,9992.780217
2508.944806,-1532.190996,222.061783,9474.636058
2508.945136,76.609550,740.205942,9474.636058
2508.945465,995.924147,1184.329507,8734.430116
2508.945794,1532.190996,1184.329507,8216.285956
2508.946123,2298.286494,1110.308913,8068.244768
2508.946452,3294.210641,888.247130,8290.306550
2508.946782,2528.115143,-0.000000,7920.203579
2508.947111,2451.505594,-74.020594,7920.203579
2508.947440,1991.848295,-0.000000,8882.471304
2508.947769,1532.190996,-148.041188,8734.430116
2508.948098,842.705048,-148.041188,9104.533087
2508.948428,76.609550,-148.041188,9474.636058
2508.948757,-536.266849,-296.082377,9474.636058
2508.949086,-1532.190996,-444.123565,9770.718434
2508.949415,-1149.143247,-592.164754,9770.718434
2508.949744,-1149.143247,-592.164754,10214.842000
2508.950074,-1225.752797,-888.247130,10066.800811
2508.950403,-1302.362347,-962.267725,9696.697840
2508.950732,-995.924147,-740.205942,9474.636058
2508.951061,-229.828649,-222.061783,9178.553681
2508.951390,229.828649,-74.020594,8882.471304
2508.951720,995.924147,370.102971,8364.327145
2508.952049,1149.143247,296.082377,8290.306550
2508.952378,1378.971896,1036.288319,8068.244768
2508.952707,1378.971896,1036.288319,8216.285956
2508.953036,1838.629195,370.102971,8364.327145
2508.953365,1532.190996,-296.082377,8586.388927
2508.953695,1455.581446,-814.226536,8882.471304
2508.954024,1149.143247,-444.123565,9178.553681
2508.954353,1225.752797,-1776.494261,9326.594869
2508.954682,536.266849,-666.185348,9326.594869
2508.955011,1149.143247,-296.082377,9326.594869
2508.955341,459.657299,-0.000000,8956.491898
2508.955670,153.219100,222.061783,9030.512492
2508.955999,0.000000,-0.000000,9178.553681
2508.956328,-536.266849,-296.082377,9178.553681
2508.956657,-842.705048,-592.164754,9622.677246
2508.956987,-1762.019645,-1332.370696,9474.636058
2508.957316,-2145.067394,-1036.288319,9622.677246
2508.957645,-2221.676944,-1554.432478,9918.759623
2508.957974,-1991.848295,-962.267725,9696.697840
2508.958303,-1455.581446,-962.267725,9622.677246
2508.958633,-689.485948,-222.061783,9696.697840
2508.958962,-229.828649,-0.000000,9400.615463
2508.959291,1149.143247,888.247130,8216.285956
2508.959620,1685.410096,1480.411884,8364.327145
2508.959949,2681.334243,1628.453072,8216.285956
2508.960279,3294.210641,1258.350101,7476.080014
2508.960608,3294.210641,1258.350101,7550.100608
2508.960937,3217.601092,370.102971,8068.244768
2508.961266,3217.601092,-0.000000,8142.265362
2508.961595,2145.067394,-222.061783,8290.306550
2508.961925,1225.752797,-148.041188,8956.491898
2508.962254,229.828649,-370.102971,9178.553681
2508.962583,-459.657299,-666.185348,9474.636058
2508.962912,-1225.752797,-1036.288319,9770.718434
2508.963241,-1532.190996,-1406.391290,9770.718434
2508.963571,-1378.971896,-1850.514855,10066.800811
2508.963900,-1685.410096,-1332.370696,10288.862594
2508.964229,-1532.190996,-1110.308913,10066.800811
2508.964558,-1225.752797,-888.247130,9548.656652
2508.964887,-306.438199,-74.020594,9474.636058
2508.965217,383.047749,370.102971,9030.512492
2508.965546,536.266849,962.267725,8512.368333
2508.965875,2145.067394,1406.391290,8438.347739
2508.966204,2451.505594,1332.370696,8142.265362
2508.966533,2145.067394,1480.411884,8216.285956
2508.966863,2221.676944,814.226536,8734.430116
2508.967192,2221.676944,-148.041188,8586.388927
2508.967521,1762.019645,-666.185348,8882.471304
2508.967850,1915.238745,-1554.432478,9104.533087
2508.968179,1915.238745,-1332.370696,9400.615463
2508.968509,919.314598,-888.247130,9326.594869
2508.968838,919.314598,-222.061783,9400.615463
2508.969167,306.438199,148.041188,9104.533087
2508.969496,0.000000,518.144159,9326.594869
2508.969825,-536.266849,296.082377,9104.533087
2508.970155,-536.266849,-0.000000,9326.594869
2508.970484,-612.876398,-370.102971,9474.636058
2508.970813,-1685.410096,-1110.308913,9474.636058
2508.971142,-1532.190996,-1554.432478,9696.697840
2508.971471,-1532.190996,-1480.411884,9548.656652
2508.971801,-1225.752797,-1184.329507,9326.594869
2508.972130,-995.924147,-740.205942,9400.615463
2508.972459,0.000000,-0.000000,9030.512492
2508.972788,383.047749,962.267725,8586.388927
2508.973117,995.924147,1184.329507,8142.265362
2508.973447,1532.190996,1110.308913,7920.203579
2508.973776,2298.286494,1110.308913,7772.162391
2508.974105,2145.067394,814.226536,7920.203579
2508.974434,2145.067394,444.123565,8290.306550
2508.974763,1762.019645,-74.020594,7994.224174
2508.975093,1378.971896,-518.144159,8068.244768
2508.975422,995.924147,-444.123565,9326.594869
2508.975751,0.000000,-814.226536,9622.677246
2508.976080,-536.266849,-962.267725,9474.636058
2508.976409,-842.705048,-888.247130,9474.636058
2508.976739,-1378.971896,-814.226536,9696.697840
2508.977068,-1225.752797,-1036.288319,9622.677246
2508.977397,-1149.143247,-1036.288319,9844.739029
2508.977726,-1455.581446,-1110.308913,9400.615463
