#time,accel_x,accel_y,accel_z
2430.556370,536.266849,-222.061783,9030.512492
2430.556700,459.657299,-296.082377,9400.615463
2430.557029,229.828649,-148.041188,8956.491898
2430.557358,306.438199,-222.061783,9030.512492
2430.557688,229.828649,-296.082377,8956.491898
2430.558017,153.219100,-74.020594,8808.450710
2430.558346,229.828649,-222.061783,9104.533087
2430.558675,153.219100,-0.000000,9474.636058
2430.559005,153.219100,-74.020594,9326.594869
2430.559334,536.266849,-444.123565,9178.553681
2430.559663,383.047749,-148.041188,9400.615463
2430.559993,229.828649,-222.061783,9104.533087
2430.560322,229.828649,-222.061783,9326.594869
2430.560651,306.438199,-74.020594,9326.594869
2430.560980,306.438199,-148.041188,9474.636058
2430.561310,306.438199,-74.020594,9178.553681
2430.561639,153.219100,-740.205942,9326.594869
2430.561968,459.657299,-296.082377,9030.512492
2430.562298,459.657299,-0.000000,9030.512492
2430.562627,229.828649,-222.061783,8956.491898
2430.562956,383.047749,-0.000000,9178.553681
2430.563286,383.047749,-222.061783,9104.533087
2430.563615,306.438199,148.041188,9104.533087
2430.563944,383.047749,-222.061783,9326.594869
2430.564273,459.657299,-518.144159,9030.512492
2430.564603,306.438199,-148.041188,8956.491898
2430.564932,306.438199,-0.000000,9030.512492
2430.565261,459.657299,-0.000000,8956.491898
2430.565591,306.438199,-148.041188,8956.491898
2430.565920,153.219100,-222.061783,8808.450710
2430.566249,306.438199,-0.000000,8956.491898
2430.566579,306.438199,-0.000000,8734.430116
2430.566908,229.828649,-0.000000,8808.450710
2430.567237,229.828649,-0.000000,8808.450710
2430.567566,76.609550,-74.020594,8808.450710
2430.567896,306.438199,-222.061783,9104.533087
2430.568225,229.828649,-148.041188,9178.553681
2430.568554,0.000000,-518.144159,9030.512492
2430.568884,76.609550,-74.020594,9030.512492
2430.569213,153.219100,-148.041188,8956.491898
2430.569542,153.219100,-74.020594,9178.553681
2430.569871,153.219100,-222.061783,8956.491898
2430.570201,383.047749,-74.020594,9252.574275
2430.570530,76.609550,740.205942,9252.574275
2430.570859,459.657299,-296.082377,9326.594869
2430.571189,153.219100,-148.041188,9474.636058
2430.571518,383.047749,-222.061783,9178.553681
2430.571847,306.438199,-74.020594,9178.553681
2430.572177,306.438199,-296.082377,9178.553681
2430.572506,153.219100,-444.123565,9178.553681
2430.572835,689.485948,-370.102971,9400.615463
2430.573164,383.047749,-296.082377,9326.594869
2430.573494,383.047749,-0.000000,9104.533087
2430.573823,306.438199,-222.061783,9104.533087
2430.574152,306.438199,-74.020594,9104.533087
2430.574482,229.828649,-0.000000,9104.533087
2430.574811,383.047749,-296.082377,9178.553681
2430.575140,536.266849,-222.061783,8956.491898
2430.575470,459.657299,-296.082377,9104.533087
2430.575799,306.438199,-296.082377,9104.533087
2430.576128,229.828649,-0.000000,9030.512492
2430.576457,153.219100,-74.020594,8808.450710
2430.576787,459.657299,-74.020594,9030.512492
2430.577116,76.609550,-0.000000,8956.491898
2430.577445,153.219100,-148.041188,8956.491898
2430.577775,76.609550,-74.020594,8808.450710
2430.578104,459.657299,-0.000000,8882.471304
2430.578433,229.828649,-296.082377,8808.450710
2430.578762,229.828649,-0.000000,8808.450710
2430.579092,383.047749,-222.061783,8882.471304
2430.579421,459.657299,-518.144159,9104.533087
2430.579750,536.266849,-444.123565,8734.430116
2430.580080,153.219100,296.082377,9326.594869
2430.580409,76.609550,-444.123565,9474.636058
2430.580738,1455.581446,-814.226536,9696.697840
2430.581068,1225.752797,-888.247130,9400.615463
2430.581397,1762.019645,-518.144159,9474.636058
2430.581726,2451.505594,-814.226536,9326.594869
2430.582055,3140.991542,-0.000000,9030.512492
2430.582385,3677.258390,370.102971,9326.594869
2430.582714,4213.525239,-370.102971,8882.471304
2430.583043,3677.258390,222.061783,8586.388927
2430.583373,2987.772442,814.226536,8882.471304
2430.583702,2757.943793,518.144159,8364.327145
2430.584031,2911.162892,-222.061783,9548.656652
2430.584361,2987.772442,-148.041188,9030.512492
2430.584690,1302.362347,-814.226536,9696.697840
2430.585019,1532.190996,-1850.514855,10140.821405
2430.585348,2374.896044,-1702.473667,9548.656652
2430.585678,2604.724693,-0.000000,9474.636058
2430.586007,2681.334243,-1406.391290,10140.821405
2430.586336,3600.648841,-666.185348,9400.615463
2430.586666,3600.648841,592.164754,9474.636058
2430.586995,5439.278036,814.226536,7624.121203
2430.587324,4673.182538,1480.411884,8068.244768
2430.587653,4903.011187,1480.411884,8956.491898
2430.587983,4519.963438,1110.308913,6883.915261
2430.588312,4136.915689,888.247130,8512.368333
2430.588641,3447.429741,-0.000000,8734.430116
2430.588971,2298.286494,-74.020594,8512.368333
2430.589300,1149.143247,-888.247130,9622.677246
2430.589629,536.266849,-1258.350101,9770.718434
2430.589959,1685.410096,-1184.329507,9992.780217
2430.590288,383.047749,-1554.432478,9400.615463
2430.590617,1608.800546,-444.123565,9770.718434
2430.590946,1762.019645,-740.205942,9918.759623
2430.591276,3370.820191,1184.329507,7846.182985
2430.591605,3217.601092,-0.000000,8660.409521
2430.591934,3753.867940,1850.514855,8438.347739
2430.592264,3677.258390,1258.350101,7920.203579
2430.592593,2911.162892,1184.329507,7846.182985
2430.592922,2528.115143,666.185348,9030.512492
2430.593252,1149.143247,-222.061783,8956.491898
2430.593581,1149.143247,-1332.370696,9030.512492
2430.593910,0.000000,-1776.494261,10066.800811
2430.594239,-689.485948,-2220.617826,10510.924376
2430.594569,-1225.752797,-2220.617826,9844.739029
2430.594898,-536.266849,-1998.556043,10510.924376
2430.595227,-919.314598,-1184.329507,9696.697840
2430.595557,76.609550,-666.185348,9622.677246
2430.595886,766.095498,-222.061783,9326.594869
2430.596215,1838.629195,-74.020594,9252.574275
2430.596544,2451.505594,1258.350101,8290.306550
2430.596874,2911.162892,2146.597232,7254.018232
2430.597203,2757.943793,2664.741391,7550.100608
2430.597532,2604.724693,2664.741391,7772.162391
2430.597862,2298.286494,2590.720797,7105.977043
2430.598191,1072.533697,1628.453072,7772.162391
2430.598520,0.000000,296.082377,8586.388927
2430.598850,-842.705048,-814.226536,9178.553681
2430.599179,-1608.800546,-1776.494261,9992.780217
2430.599508,-1455.581446,-2146.597232,9474.636058
2430.599837,-919.314598,-1702.473667,9548.656652
2430.600167,-995.924147,-1850.514855,9844.739029
2430.600496,-766.095498,-1554.432478,10436.903782
2430.600825,-612.876398,-1184.329507,10881.027347
2430.601155,306.438199,-592.164754,9770.718434
2430.601484,459.657299,-296.082377,9992.780217
2430.601813,766.095498,-296.082377,10807.006753
2430.602143,2145.067394,296.082377,9696.697840
2430.602472,3983.696590,1850.514855,7105.977043
2430.602801,5056.230287,2146.597232,7105.977043
2430.603130,4366.744339,3552.988522,6069.688724
2430.603460,3753.867940,3478.967927,7105.977043
2430.603789,2145.067394,2738.761985,6439.791695
2430.604118,995.924147,814.226536,7328.038826
2430.604448,-1225.752797,-1480.411884,9104.533087
2430.604777,-2221.676944,-2664.741391,10288.862594
2430.605106,-2987.772442,-3627.009116,9918.759623
2430.605435,-3294.210641,-3552.988522,10362.883188
2430.605765,-3447.429741,-3552.988522,10288.862594
2430.606094,-3677.258390,-3108.864956,12065.356855
2430.606423,-3064.381992,-2664.741391,12435.459826
2430.606753,-2068.457845,-1998.556043,10955.047942
2430.607082,-153.219100,-1702.473667,10955.047942
2430.607411,229.828649,518.144159,9030.512492
2430.607741,76.609550,740.205942,8956.491898
2430.608070,383.047749,-1258.350101,12139.377449
2430.608399,2987.772442,1258.350101,7254.018232
2430.608728,4596.572988,2886.803174,5181.441594
2430.609058,4060.306139,2664.741391,4737.318029
2430.609387,3447.429741,3108.864956,4737.318029
2430.609716,2451.505594,2072.576638,7698.141797
2430.610046,1149.143247,1480.411884,6661.853478
2430.610375,-153.219100,-518.144159,8438.347739
2430.610704,-1378.971896,-2442.679609,9696.697840
2430.611034,-2068.457845,-2220.617826,9622.677246
2430.611363,-2528.115143,-3182.885551,10362.883188
2430.611692,-2145.067394,-2442.679609,10214.842000
2430.612021,-766.095498,-2590.720797,11029.068536
2430.612351,0.000000,-1258.350101,11547.212695
2430.612680,0.000000,740.205942,10510.924376
2430.613009,76.609550,-592.164754,9992.780217
2430.613339,306.438199,-222.061783,9400.615463
2430.613668,76.609550,148.041188,10584.944971
2430.613997,1149.143247,-962.267725,10510.924376
2430.614326,2834.553343,1110.308913,7994.224174
2430.614656,4749.792088,2442.679609,7328.038826
2430.614985,4136.915689,3034.844362,4811.338623
2430.615314,3600.648841,3256.906145,6069.688724
2430.615644,2451.505594,2590.720797,6957.935855
2430.615973,1685.410096,1850.514855,7031.956449
2430.616302,229.828649,148.041188,9104.533087
2430.616632,-1378.971896,-1480.411884,9622.677246
2430.616961,-2374.896044,-3478.967927,10955.047942
2430.617290,-2911.162892,-3256.906145,10584.944971
2430.617619,-2374.896044,-2812.782580,10658.965565
2430.617949,-2451.505594,-3034.844362,11177.109724
2430.618278,-1915.238745,-2368.659014,11843.295072
2430.618607,-995.924147,-1332.370696,11177.109724
2430.618937,-1149.143247,-1332.370696,10732.986159
2430.619266,1072.533697,-592.164754,9696.697840
2430.619595,229.828649,1184.329507,7920.203579
2430.619925,229.828649,-0.000000,10510.924376
2430.620254,0.000000,222.061783,9548.656652
2430.620583,2451.505594,1554.432478,8290.306550
2430.620912,2911.162892,2294.638420,6069.688724
2430.621242,3524.039291,2368.659014,4737.318029
2430.621571,2757.943793,2738.761985,6069.688724
2430.621900,2145.067394,1998.556043,6587.832884
2430.622230,1149.143247,1184.329507,7476.080014
2430.622559,0.000000,-518.144159,8512.368333
2430.622888,-995.924147,-1628.453072,9622.677246
2430.623217,-1532.190996,-2442.679609,10214.842000
2430.623547,-1532.190996,-2442.679609,9770.718434
2430.623876,-995.924147,-2516.700203,10658.965565
2430.624205,0.000000,-2590.720797,11103.089130
2430.624535,459.657299,-0.000000,10584.944971
2430.624864,153.219100,-0.000000,10510.924376
2430.625193,153.219100,-222.061783,9622.677246
2430.625523,1225.752797,-518.144159,10436.903782
2430.625852,2451.505594,370.102971,9770.718434
2430.626181,2604.724693,2072.576638,7550.100608
2430.626510,4060.306139,2516.700203,7476.080014
2430.626839,3907.087040,3404.947333,6143.709319
2430.627168,3753.867940,3182.885551,6661.853478
2430.627497,1915.238745,2220.617826,6735.874072
2430.627826,612.876398,666.185348,7402.059420
2430.628155,-383.047749,-1110.308913,9400.615463
2430.628484,-995.924147,-2146.597232,10066.800811
2430.628813,-1991.848295,-2664.741391,9622.677246
2430.629142,-2528.115143,-2738.761985,9622.677246
2430.629472,-2987.772442,-3108.864956,11177.109724
2430.629801,-3370.820191,-3108.864956,11325.150913
2430.630130,-3064.381992,-3108.864956,12509.480420
2430.630459,-2451.505594,-2664.741391,11547.212695
2430.630788,-1149.143247,-1480.411884,10436.903782
2430.631117,-536.266849,-444.123565,9548.656652
2430.631446,76.609550,1184.329507,7846.182985
2430.631775,153.219100,888.247130,9548.656652
2430.632104,612.876398,740.205942,9400.615463
2430.632433,2374.896044,1480.411884,8438.347739
2430.632762,2681.334243,2146.597232,6365.771101
2430.633091,2451.505594,2886.803174,5255.462188
2430.633420,2298.286494,2220.617826,5921.647536
2430.633750,1762.019645,1850.514855,7031.956449
2430.634079,766.095498,888.247130,7402.059420
2430.634408,0.000000,-814.226536,8586.388927
2430.634737,-612.876398,-1850.514855,9770.718434
2430.635066,-1225.752797,-2368.659014,9548.656652
2430.635395,-1225.752797,-2294.638420,9474.636058
2430.635724,-995.924147,-2368.659014,10807.006753
2430.636053,-536.266849,-2146.597232,11177.109724
2430.636382,0.000000,-518.144159,11251.130318
2430.636711,0.000000,-296.082377,10288.862594
2430.637040,229.828649,-888.247130,10066.800811
2430.637369,0.000000,-666.185348,10362.883188
2430.637699,459.657299,296.082377,10288.862594
2430.638028,1608.800546,814.226536,9178.553681
2430.638357,3600.648841,2294.638420,7772.162391
2430.638686,3983.696590,3182.885551,6291.750507
2430.639015,3524.039291,3404.947333,5847.626942
2430.639344,2681.334243,2738.761985,5699.585753
2430.639673,1991.848295,1480.411884,6587.832884
2430.640002,766.095498,-222.061783,8290.306550
2430.640331,-536.266849,-1258.350101,8882.471304
2430.640660,-1149.143247,-2886.803174,10881.027347
2430.640989,-1915.238745,-3034.844362,9548.656652
2430.641318,-1685.410096,-3108.864956,10732.986159
2430.641648,-1608.800546,-3034.844362,10807.006753
2430.641977,-1378.971896,-2664.741391,11843.295072
2430.642306,-1378.971896,-2072.576638,11769.274478
2430.642635,-536.266849,-888.247130,11103.089130
2430.642964,0.000000,-370.102971,10510.924376
2430.643293,153.219100,444.123565,9030.512492
2430.643622,-306.438199,1480.411884,8734.430116
2430.643951,0.000000,814.226536,9992.780217
2430.644280,306.438199,962.267725,8512.368333
2430.644609,842.705048,1480.411884,7994.224174
2430.644938,1225.752797,962.267725,7105.977043
2430.645267,1532.190996,1554.432478,6069.688724
2430.645597,1532.190996,666.185348,6957.935855
2430.645926,1225.752797,888.247130,7105.977043
2430.646255,536.266849,296.082377,7920.203579
2430.646584,306.438199,-814.226536,8734.430116
2430.646913,-153.219100,-1110.308913,9474.636058
2430.647242,-459.657299,-2220.617826,9918.759623
2430.647571,-536.266849,-2220.617826,9770.718434
2430.647900,-153.219100,-2072.576638,10436.903782
2430.648229,0.000000,-814.226536,10881.027347
2430.648558,536.266849,296.082377,10658.965565
2430.648887,459.657299,296.082377,10732.986159
2430.649216,1149.143247,-148.041188,10288.862594
2430.649545,1838.629195,1628.453072,8660.409521
2430.649875,2604.724693,1702.473667,7920.203579
2430.650204,2834.553343,2516.700203,7105.977043
2430.650533,2451.505594,2960.823768,7105.977043
2430.650862,2068.457845,2442.679609,7179.997637
2430.651191,1225.752797,1480.411884,7105.977043
2430.651520,383.047749,-370.102971,7846.182985
2430.651849,-919.314598,-1554.432478,8808.450710
2430.652178,-1225.752797,-2368.659014,9992.780217
2430.652507,-1302.362347,-2516.700203,9622.677246
2430.652836,-842.705048,-2516.700203,9770.718434
2430.653165,-1225.752797,-2368.659014,10436.903782
2430.653494,-1455.581446,-2146.597232,10881.027347
2430.653824,-1072.533697,-2072.576638,11103.089130
2430.654153,-306.438199,-1924.535449,10288.862594
2430.654482,306.438199,-666.185348,10214.842000
2430.654811,0.000000,-0.000000,9918.759623
2430.655140,0.000000,518.144159,9474.636058
2430.655469,0.000000,666.185348,9326.594869
2430.655798,0.000000,814.226536,8882.471304
2430.656127,842.705048,1110.308913,8142.265362
2430.656456,1302.362347,1184.329507,7772.162391
2430.656785,1608.800546,1998.556043,6365.771101
2430.657114,1532.190996,1184.329507,6809.894666
2430.657443,1378.971896,1332.370696,6439.791695
2430.657773,919.314598,814.226536,7402.059420
2430.658102,536.266849,-1036.288319,8734.430116
2430.658431,0.000000,-1850.514855,9178.553681
2430.658760,-766.095498,-2368.659014,10140.821405
2430.659089,-1302.362347,-2664.741391,9992.780217
2430.659418,-919.314598,-2294.638420,10658.965565
2430.659747,-612.876398,-1628.453072,10881.027347
2430.660076,229.828649,-518.144159,10584.944971
2430.660405,76.609550,-296.082377,10510.924376
2430.660734,76.609550,-814.226536,10584.944971
2430.661063,229.828649,-0.000000,10362.883188
2430.661392,1302.362347,740.205942,9548.656652
2430.661721,2221.676944,1998.556043,7698.141797
2430.662051,3294.210641,2368.659014,7624.121203
2430.662380,3370.820191,2442.679609,6513.812290
2430.662709,3294.210641,3108.864956,6883.915261
2430.663038,1991.848295,1702.473667,7254.018232
2430.663367,1149.143247,222.061783,7476.080014
2430.663696,-229.828649,-1258.350101,8734.430116
2430.664025,-1072.533697,-2442.679609,10140.821405
2430.664354,-1608.800546,-2590.720797,9696.697840
2430.664683,-1838.629195,-2590.720797,10140.821405
2430.665012,-1455.581446,-3034.844362,11103.089130
2430.665341,-1072.533697,-2590.720797,9696.697840
2430.665670,-1149.143247,-1998.556043,11547.212695
2430.666000,-766.095498,-1110.308913,10288.862594
2430.666329,0.000000,-518.144159,10214.842000
2430.666658,0.000000,518.144159,9992.780217
2430.666987,383.047749,1110.308913,8882.471304
2430.667316,76.609550,296.082377,9548.656652
2430.667645,0.000000,370.102971,8512.368333
2430.667974,1838.629195,222.061783,8586.388927
2430.668303,1838.629195,1110.308913,6513.812290
2430.668632,2604.724693,1998.556043,5699.585753
2430.668961,2451.505594,1628.453072,6365.771101
2430.669290,1838.629195,1184.329507,6513.812290
2430.669619,1225.752797,962.267725,7920.203579
2430.669949,459.657299,-1036.288319,8142.265362
2430.670278,-153.219100,-1480.411884,9548.656652
2430.670607,-1072.533697,-2368.659014,10584.944971
2430.670936,-1378.971896,-2590.720797,10362.883188
2430.671265,-766.095498,-2442.679609,11103.089130
2430.671594,-383.047749,-1554.432478,10955.047942
2430.671923,153.219100,-74.020594,10881.027347
2430.672252,-919.314598,-0.000000,10881.027347
2430.672581,1149.143247,444.123565,10510.924376
2430.672910,1685.410096,518.144159,9770.718434
2430.673239,2145.067394,1850.514855,8216.285956
2430.673568,3294.210641,2812.782580,7772.162391
2430.673898,3217.601092,2442.679609,6883.915261
2430.674227,3140.991542,2886.803174,7031.956449
2430.674556,2604.724693,2220.617826,6883.915261
2430.674885,1302.362347,1332.370696,7550.100608
2430.675214,-383.047749,-444.123565,8364.327145
2430.675543,-1149.143247,-1480.411884,9992.780217
2430.675872,-1072.533697,-2516.700203,9992.780217
2430.676201,-1455.581446,-2146.597232,9474.636058
2430.676530,-842.705048,-2812.782580,9844.739029
2430.676859,-1378.971896,-2442.679609,10510.924376
2430.677188,-842.705048,-2368.659014,11473.192101
2430.677517,-1225.752797,-1702.473667,10881.027347
2430.677846,-536.266849,-1480.411884,10214.842000
2430.678176,-383.047749,-518.144159,10214.842000
2430.678505,0.000000,592.164754,9104.533087
2430.678834,-459.657299,518.144159,9474.636058
2430.679163,153.219100,592.164754,9178.553681
2430.679492,0.000000,1110.308913,8512.368333
2430.679821,306.438199,888.247130,8438.347739
2430.680150,919.314598,1332.370696,6809.894666
2430.680479,1608.800546,1554.432478,6439.791695
2430.680808,1838.629195,1480.411884,6957.935855
2430.681137,1762.019645,1480.411884,6365.771101
2430.681466,1378.971896,1036.288319,8808.450710
2430.681795,536.266849,-740.205942,8734.430116
2430.682125,-229.828649,-1406.391290,9178.553681
2430.682454,-1072.533697,-2368.659014,10066.800811
2430.682783,-1532.190996,-2886.803174,10807.006753
2430.683112,-1072.533697,-2368.659014,11029.068536
2430.683441,-536.266849,-1258.350101,10584.944971
2430.683770,-306.438199,-518.144159,10807.006753
2430.684099,0.000000,-666.185348,10732.986159
2430.684428,306.438199,-0.000000,9992.780217
2430.684757,842.705048,296.082377,9992.780217
2430.685086,1762.019645,962.267725,8512.368333
2430.685415,2528.115143,2368.659014,7550.100608
2430.685744,3064.381992,2886.803174,7031.956449
2430.686074,2911.162892,2812.782580,6957.935855
2430.686403,2068.457845,2442.679609,7105.977043
2430.686732,1455.581446,1628.453072,7254.018232
2430.687061,536.266849,370.102971,7698.141797
2430.687390,-842.705048,-962.267725,8734.430116
2430.687719,-1072.533697,-2738.761985,10288.862594
2430.688048,-1225.752797,-2590.720797,9622.677246
2430.688377,-612.876398,-3034.844362,10362.883188
2430.688706,-1302.362347,-3182.885551,10658.965565
2430.689035,-1608.800546,-1998.556043,10732.986159
2430.689364,-995.924147,-1628.453072,11695.253884
2430.689693,-612.876398,-1332.370696,9992.780217
2430.690022,0.000000,-666.185348,10288.862594
2430.690352,459.657299,444.123565,9622.677246
2430.690681,-766.095498,1258.350101,8882.471304
2430.691010,0.000000,666.185348,9622.677246
2430.691339,842.705048,592.164754,8734.430116
2430.691668,1915.238745,962.267725,7994.224174
2430.691997,2298.286494,2072.576638,5773.606348
2430.692326,2604.724693,2368.659014,5921.647536
2430.692655,1532.190996,1924.535449,6809.894666
2430.692984,1838.629195,1480.411884,7476.080014
2430.693313,612.876398,296.082377,8142.265362
2430.693642,0.000000,-1776.494261,9104.533087
2430.693971,-459.657299,-2294.638420,10288.862594
2430.694301,-1532.190996,-3108.864956,10881.027347
2430.694630,-1455.581446,-3108.864956,11177.109724
2430.694959,-689.485948,-2812.782580,11399.171507
2430.695288,0.000000,-1110.308913,11325.150913
2430.695617,-229.828649,-0.000000,10881.027347
2430.695946,153.219100,-0.000000,10658.965565
2430.696275,842.705048,222.061783,10362.883188
2430.696604,2221.676944,962.267725,8956.491898
2430.696933,3370.820191,2146.597232,7698.141797
2430.697262,3140.991542,2738.761985,6217.729913
2430.697591,3524.039291,2886.803174,6809.894666
2430.697920,2757.943793,2590.720797,6883.915261
2430.698250,2451.505594,2368.659014,6365.771101
2430.698579,689.485948,-0.000000,8142.265362
2430.698908,-1072.533697,-1110.308913,9178.553681
2430.699237,-1991.848295,-2516.700203,10510.924376
2430.699566,-2145.067394,-2516.700203,9474.636058
2430.699895,-1838.629195,-2368.659014,9474.636058
2430.700224,-2221.676944,-2442.679609,10436.903782
2430.700553,-1915.238745,-2220.617826,11177.109724
2430.700882,-1838.629195,-1702.473667,11473.192101
2430.701211,-1455.581446,-1924.535449,10510.924376
2430.701540,-383.047749,-814.226536,9918.759623
2430.701869,0.000000,222.061783,9400.615463
2430.702199,-689.485948,666.185348,8882.471304
2430.702528,-383.047749,-0.000000,9696.697840
2430.702857,766.095498,296.082377,9030.512492
2430.703186,1991.848295,1110.308913,8290.306550
2430.703515,2221.676944,1554.432478,5995.668130
2430.703844,2298.286494,2220.617826,6217.729913
2430.704173,2145.067394,2072.576638,6513.812290
2430.704502,1838.629195,1776.494261,6957.935855
2430.704831,919.314598,-0.000000,8068.244768
2430.705160,0.000000,-1258.350101,8512.368333
2430.705489,-995.924147,-2072.576638,9918.759623
2430.705818,-2528.115143,-2960.823768,10510.924376
2430.706147,-1608.800546,-3034.844362,10732.986159
2430.706477,-995.924147,-2812.782580,11029.068536
2430.706806,-459.657299,-1924.535449,11103.089130
2430.707135,76.609550,-222.061783,10658.965565
2430.707464,0.000000,-370.102971,10955.047942
2430.707793,229.828649,-222.061783,11029.068536
2430.708122,1915.238745,148.041188,9918.759623
2430.708451,2451.505594,2220.617826,7624.121203
2430.708780,3524.039291,2812.782580,7698.141797
2430.709109,3907.087040,3034.844362,6661.853478
2430.709438,4136.915689,3923.091493,7105.977043
2430.709767,2757.943793,3108.864956,7105.977043
2430.710096,1991.848295,1332.370696,6587.832884
2430.710426,0.000000,370.102971,8290.306550
2430.710755,-1532.190996,-1258.350101,9326.594869
2430.711084,-1915.238745,-2886.803174,10955.047942
2430.711413,-1991.848295,-2738.761985,9770.718434
2430.711742,-1378.971896,-2960.823768,10288.862594
2430.712071,-1072.533697,-2738.761985,10807.006753
2430.712400,-1838.629195,-2368.659014,10436.903782
2430.712729,-1225.752797,-1998.556043,11325.150913
2430.713058,-536.266849,-1628.453072,10584.944971
2430.713387,0.000000,-296.082377,9918.759623
2430.713716,0.000000,740.205942,9400.615463
2430.714045,153.219100,370.102971,9918.759623
2430.714375,76.609550,-0.000000,10140.821405
2430.714704,2068.457845,444.123565,8956.491898
2430.715033,2451.505594,2072.576638,6439.791695
2430.715362,2987.772442,2368.659014,6513.812290
2430.715691,2374.896044,3108.864956,5625.565159
2430.716020,2145.067394,1850.514855,6957.935855
2430.716349,1149.143247,444.123565,7698.141797
2430.716678,76.609550,-370.102971,7698.141797
2430.717007,-612.876398,-1998.556043,9622.677246
2430.717336,-2221.676944,-2812.782580,10288.862594
2430.717665,-2145.067394,-3034.844362,10288.862594
2430.717994,-1378.971896,-3478.967927,10732.986159
2430.718323,-689.485948,-2516.700203,10732.986159
2430.718653,-306.438199,-1184.329507,10955.047942
2430.718982,-536.266849,-222.061783,10732.986159
2430.719311,0.000000,148.041188,10288.862594
2430.719640,1302.362347,-518.144159,10807.006753
2430.719969,2451.505594,1184.329507,8956.491898
2430.720298,3370.820191,2368.659014,7179.997637
2430.720627,4290.134789,2516.700203,6439.791695
2430.720956,3524.039291,3701.029710,6143.709319
2430.721285,4060.306139,3034.844362,6957.935855
2430.721614,2451.505594,2516.700203,6217.729913
2430.721943,842.705048,888.247130,7031.956449
2430.722272,-842.705048,-814.226536,8512.368333
2430.722602,-1838.629195,-1998.556043,10066.800811
2430.722931,-2451.505594,-2738.761985,9474.636058
2430.723260,-1991.848295,-2442.679609,10066.800811
2430.723589,-2451.505594,-3182.885551,11177.109724
2430.723918,-2528.115143,-2738.761985,11029.068536
2430.724247,-2145.067394,-2368.659014,11769.274478
2430.724576,-1685.410096,-2220.617826,10584.944971
2430.724905,-536.266849,-1110.308913,10362.883188
2430.725234,0.000000,592.164754,10066.800811
2430.725563,0.000000,518.144159,8882.471304
2430.725892,-689.485948,-296.082377,10584.944971
2430.726221,689.485948,666.185348,10436.903782
2430.726551,1838.629195,740.205942,7920.203579
2430.726880,2681.334243,2294.638420,6143.709319
2430.727209,3140.991542,2738.761985,5699.585753
2430.727538,2451.505594,2960.823768,6291.750507
2430.727867,1532.190996,2368.659014,6809.894666
2430.728196,919.314598,814.226536,7772.162391
2430.728525,306.438199,-1184.329507,8290.306550
2430.728854,-1225.752797,-2294.638420,10140.821405
2430.729183,-2298.286494,-2960.823768,11103.089130
2430.729512,-2145.067394,-3330.926739,10584.944971
2430.729841,-1302.362347,-3108.864956,11325.150913
2430.730170,-459.657299,-2442.679609,11251.130318
2430.730499,0.000000,-222.061783,10732.986159
2430.730828,-153.219100,-0.000000,10584.944971
2430.731157,306.438199,-0.000000,9844.739029
2430.731486,1149.143247,-222.061783,10510.924376
2430.731815,2451.505594,592.164754,9178.553681
2430.732144,3294.210641,2146.597232,6587.832884
2430.732473,4443.353888,2886.803174,7328.038826
2430.732802,4290.134789,3627.009116,5477.523971
2430.733131,3753.867940,3552.988522,6661.853478
2430.733460,2374.896044,2590.720797,6291.750507
2430.733788,1762.019645,1184.329507,6291.750507
2430.734117,306.438199,-888.247130,9178.553681
2430.734446,-1762.019645,-1924.535449,9622.677246
2430.734775,-2221.676944,-3256.906145,10436.903782
2430.735104,-2451.505594,-3330.926739,10066.800811
2430.735433,-2068.457845,-3256.906145,10584.944971
2430.735762,-2298.286494,-3182.885551,10955.047942
2430.736091,-995.924147,-2220.617826,11695.253884
2430.736420,0.000000,-1332.370696,10881.027347
2430.736749,153.219100,-1110.308913,10140.821405
2430.737078,229.828649,592.164754,9474.636058
2430.737407,0.000000,814.226536,8660.409521
2430.737736,0.000000,518.144159,9696.697840
2430.738065,153.219100,296.082377,9400.615463
2430.738394,995.924147,592.164754,8068.244768
2430.738723,2298.286494,1628.453072,6439.791695
2430.739052,2374.896044,2220.617826,6661.853478
2430.739381,1532.190996,2072.576638,6587.832884
2430.739710,1532.190996,1554.432478,7476.080014
2430.740039,76.609550,666.185348,7920.203579
2430.740368,-306.438199,-962.267725,8882.471304
2430.740697,-1302.362347,-1776.494261,10066.800811
2430.741026,-1685.410096,-2886.803174,10140.821405
2430.741355,-1532.190996,-3256.906145,10288.862594
2430.741684,-689.485948,-2664.741391,10881.027347
2430.742013,-306.438199,-1776.494261,11103.089130
2430.742342,0.000000,-222.061783,10658.965565
2430.742671,0.000000,444.123565,10436.903782
2430.743000,612.876398,-148.041188,10214.842000
2430.743329,2528.115143,-0.000000,9474.636058
2430.743658,3064.381992,1776.494261,7920.203579
2430.743987,3830.477490,2146.597232,7402.059420
2430.744316,3753.867940,3182.885551,6809.894666
2430.744645,3600.648841,3182.885551,6957.935855
2430.744974,2681.334243,2738.761985,6735.874072
2430.745303,1225.752797,1924.535449,7105.977043
2430.745632,-153.219100,-148.041188,8216.285956
2430.745961,-1072.533697,-962.267725,9326.594869
2430.746290,-1915.238745,-2368.659014,10436.903782
2430.746619,-2451.505594,-2294.638420,9548.656652
2430.746948,-1991.848295,-2590.720797,10436.903782
2430.747277,-2298.286494,-2590.720797,10658.965565
2430.747606,-1455.581446,-2220.617826,11251.130318
2430.747935,-1685.410096,-2590.720797,11325.150913
2430.748264,-1225.752797,-1998.556043,10510.924376
2430.748593,0.000000,-518.144159,10436.903782
2430.748922,0.000000,-0.000000,9252.574275
2430.749251,-383.047749,-0.000000,9696.697840
2430.749580,0.000000,-0.000000,9844.739029
2430.749909,2068.457845,740.205942,8882.471304
2430.750238,2681.334243,1036.288319,6587.832884
2430.750567,3294.210641,2368.659014,6069.688724
2430.750896,2451.505594,2886.803174,5995.668130
2430.751225,2221.676944,2442.679609,6809.894666
2430.751554,842.705048,1332.370696,7328.038826
2430.751883,0.000000,-0.000000,7772.162391
2430.752212,-919.314598,-1406.391290,9622.677246
2430.752541,-1915.238745,-2368.659014,10362.883188
2430.752870,-2145.067394,-2590.720797,10140.821405
2430.753199,-1762.019645,-2960.823768,10436.903782
2430.753528,-1149.143247,-2590.720797,10881.027347
2430.753857,-842.705048,-1184.329507,11103.089130
2430.754186,-306.438199,-296.082377,10955.047942
2430.754515,229.828649,-296.082377,10362.883188
2430.754844,766.095498,-296.082377,9918.759623
2430.755173,459.657299,-74.020594,11103.089130
2430.755502,2298.286494,1036.288319,8216.285956
2430.755830,3983.696590,2368.659014,7031.956449
2430.756159,4749.792088,3330.926739,6365.771101
2430.756488,4290.134789,3701.029710,5329.482782
2430.756817,3907.087040,3256.906145,6735.874072
2430.757146,2298.286494,3034.844362,6513.812290
2430.757475,995.924147,444.123565,7550.100608
2430.757804,-1225.752797,-1332.370696,9104.533087
2430.758133,-2221.676944,-2442.679609,10140.821405
2430.758462,-2987.772442,-3923.091493,10584.944971
2430.758791,-2834.553343,-3330.926739,10436.903782
2430.759120,-2451.505594,-3849.070898,10881.027347
2430.759449,-2374.896044,-3330.926739,11473.192101
2430.759778,-1685.410096,-2294.638420,11843.295072
2430.760107,-1455.581446,-1628.453072,11029.068536
2430.760436,76.609550,-888.247130,10510.924376
2430.760765,0.000000,1036.288319,8956.491898
2430.761094,0.000000,814.226536,9474.636058
2430.761423,-306.438199,-0.000000,10584.944971
2430.761752,1991.848295,888.247130,9178.553681
2430.762081,2987.772442,1998.556043,5847.626942
2430.762410,3217.601092,2146.597232,5403.503377
2430.762739,2451.505594,2516.700203,5625.565159
2430.763068,1915.238745,1924.535449,7179.997637
2430.763397,766.095498,1036.288319,7402.059420
2430.763726,383.047749,-518.144159,8438.347739
2430.764055,-1149.143247,-2146.597232,9622.677246
2430.764384,-1991.848295,-2368.659014,10584.944971
2430.764713,-1915.238745,-2812.782580,10288.862594
2430.765042,-1685.410096,-2590.720797,10732.986159
2430.765371,-612.876398,-2664.741391,11103.089130
2430.765700,0.000000,-740.205942,11103.089130
2430.766029,306.438199,1036.288319,10881.027347
2430.766358,536.266849,-0.000000,10066.800811
2430.766687,919.314598,-444.123565,9844.739029
2430.767016,2451.505594,814.226536,9622.677246
2430.767345,2911.162892,2146.597232,6809.894666
2430.767674,4213.525239,2664.741391,7031.956449
2430.768003,3983.696590,4071.132681,5699.585753
2430.768332,4213.525239,3775.050304,6217.729913
2430.768661,2221.676944,2812.782580,6217.729913
2430.768990,766.095498,1480.411884,6957.935855
2430.769319,-536.266849,-740.205942,8956.491898
2430.769648,-1915.238745,-1554.432478,9696.697840
2430.769977,-2221.676944,-2516.700203,10214.842000
2430.770306,-3064.381992,-3182.885551,10140.821405
2430.770635,-2528.115143,-3552.988522,11991.336260
2430.770964,-3217.601092,-3404.947333,11769.274478
2430.771293,-2145.067394,-2664.741391,11843.295072
2430.771622,-1149.143247,-2368.659014,10807.006753
2430.771951,153.219100,-1184.329507,10362.883188
2430.772280,229.828649,370.102971,9400.615463
2430.772609,0.000000,518.144159,8882.471304
2430.772938,-229.828649,-592.164754,10584.944971
2430.773267,1685.410096,370.102971,9104.533087
2430.773596,3217.601092,1924.535449,6291.750507
2430.773925,3294.210641,2368.659014,6291.750507
2430.774254,2604.724693,2812.782580,5403.503377
2430.774583,2451.505594,2664.741391,6883.915261
2430.774912,1149.143247,1776.494261,7031.956449
2430.775241,306.438199,296.082377,7920.203579
2430.775570,-1378.971896,-1850.514855,9178.553681
2430.775899,-2298.286494,-2516.700203,10288.862594
2430.776228,-2604.724693,-2664.741391,10732.986159
2430.776557,-1915.238745,-2886.803174,10584.944971
2430.776886,-1149.143247,-2886.803174,10955.047942
2430.777215,-612.876398,-1406.391290,11103.089130
2430.777544,-306.438199,-74.020594,10807.006753
2430.777872,-153.219100,-0.000000,10362.883188
2430.778201,153.219100,-518.144159,9696.697840
2430.778530,919.314598,-74.020594,10584.944971
2430.778859,1378.971896,-148.041188,9992.780217
2430.779188,2834.553343,1406.391290,7846.182985
2430.779517,4673.182538,2590.720797,7105.977043
2430.779846,4596.572988,3478.967927,5181.441594
2430.780175,4136.915689,3330.926739,5921.647536
2430.780504,2451.505594,2960.823768,5995.668130
2430.780833,1991.848295,1850.514855,6735.874072
2430.781162,153.219100,-0.000000,8512.368333
2430.781491,-1991.848295,-1480.411884,9622.677246
2430.781820,-2374.896044,-3701.029710,11029.068536
2430.782149,-2604.724693,-3627.009116,10288.862594
2430.782478,-2145.067394,-3552.988522,11177.109724
2430.782807,-2528.115143,-3478.967927,10584.944971
2430.783136,-1302.362347,-2960.823768,12065.356855
2430.783465,-1532.190996,-1554.432478,11399.171507
2430.783794,-383.047749,-1036.288319,10288.862594
2430.784123,229.828649,-74.020594,9918.759623
2430.784452,0.000000,370.102971,7994.224174
2430.784781,0.000000,-148.041188,10362.883188
2430.785110,-612.876398,-74.020594,9918.759623
2430.785439,1838.629195,296.082377,8956.491898
2430.785768,2298.286494,1850.514855,6513.812290
2430.786097,2834.553343,2590.720797,5255.462188
2430.786426,2221.676944,2886.803174,6217.729913
2430.786755,1762.019645,1850.514855,6735.874072
2430.787084,1302.362347,1406.391290,7698.141797
2430.787413,0.000000,-370.102971,7772.162391
2430.787742,-919.314598,-1628.453072,9696.697840
2430.788071,-1915.238745,-2590.720797,10362.883188
2430.788400,-1532.190996,-2886.803174,10584.944971
2430.788729,-995.924147,-3108.864956,10732.986159
2430.789058,-383.047749,-2368.659014,11473.192101
2430.789387,153.219100,-222.061783,10955.047942
2430.789716,689.485948,518.144159,10214.842000
2430.790045,459.657299,444.123565,10955.047942
2430.790374,1685.410096,222.061783,9770.718434
2430.790703,2911.162892,1776.494261,7624.121203
2430.791032,3677.258390,2442.679609,7328.038826
2430.791361,3907.087040,3034.844362,6661.853478
2430.791690,3830.477490,3256.906145,6883.915261
2430.792019,3140.991542,2738.761985,6957.935855
2430.792348,2145.067394,1924.535449,6587.832884
2430.792677,459.657299,-0.000000,7846.182985
2430.793006,-1302.362347,-1184.329507,9030.512492
2430.793335,-1608.800546,-2516.700203,10881.027347
2430.793664,-1991.848295,-2960.823768,9992.780217
2430.793993,-1762.019645,-3182.885551,10510.924376
2430.794322,-1608.800546,-3182.885551,11399.171507
2430.794651,-1915.238745,-1924.535449,11325.150913
2430.794980,-1302.362347,-2220.617826,11325.150913
2430.795309,-766.095498,-1332.370696,10955.047942
2430.795638,383.047749,-222.061783,10362.883188
2430.795967,0.000000,370.102971,9696.697840
2430.796296,-689.485948,-148.041188,9326.594869
2430.796625,-229.828649,148.041188,10436.903782
2430.796954,459.657299,-0.000000,9104.533087
2430.797283,1455.581446,1110.308913,7772.162391
2430.797612,2068.457845,1850.514855,5995.668130
2430.797941,2451.505594,2738.761985,5995.668130
2430.798270,1685.410096,2664.741391,6217.729913
2430.798599,1991.848295,2220.617826,6957.935855
2430.798928,1225.752797,666.185348,7476.080014
2430.799257,153.219100,-518.144159,8142.265362
2430.799586,-1302.362347,-1998.556043,9696.697840
2430.799915,-1915.238745,-2664.741391,10288.862594
2430.800243,-1455.581446,-3256.906145,10584.944971
2430.800572,-919.314598,-2738.761985,10362.883188
2430.800901,-459.657299,-1776.494261,10584.944971
2430.801230,-306.438199,-1184.329507,10214.842000
2430.801559,-383.047749,-0.000000,11029.068536
2430.801888,76.609550,-74.020594,9770.718434
2430.802217,842.705048,-666.185348,10140.821405
2430.802546,1915.238745,888.247130,9326.594869
2430.802875,2911.162892,2220.617826,7179.997637
2430.803204,3447.429741,2368.659014,7105.977043
2430.803533,4519.963438,3256.906145,6291.750507
2430.803862,4136.915689,2812.782580,6365.771101
2430.804191,2374.896044,2516.700203,6809.894666
2430.804520,919.314598,1332.370696,7105.977043
2430.804849,-612.876398,-1258.350101,8956.491898
2430.805178,-2068.457845,-2368.659014,9918.759623
2430.805507,-2221.676944,-3330.926739,11029.068536
2430.805836,-1608.800546,-3330.926739,9622.677246
2430.806165,-1608.800546,-3034.844362,10881.027347
2430.806494,-1915.238745,-3034.844362,11399.171507
2430.806823,-1762.019645,-2072.576638,11547.212695
2430.807152,-1225.752797,-1480.411884,11621.233289
2430.807481,0.000000,-1036.288319,10584.944971
2430.807810,0.000000,444.123565,9548.656652
2430.808139,0.000000,1036.288319,8808.450710
2430.808468,-229.828649,814.226536,10066.800811
2430.808797,0.000000,222.061783,9104.533087
2430.809126,1532.190996,666.185348,8438.347739
2430.809455,1685.410096,1776.494261,5995.668130
2430.809784,2681.334243,2146.597232,5403.503377
2430.810113,2374.896044,1924.535449,6069.688724
2430.810442,2145.067394,1850.514855,6883.915261
2430.810771,995.924147,592.164754,8142.265362
2430.811100,0.000000,-666.185348,8438.347739
2430.811429,-766.095498,-2072.576638,9252.574275
2430.811758,-1608.800546,-2664.741391,10214.842000
2430.812087,-1378.971896,-2664.741391,9992.780217
2430.812416,-1149.143247,-2886.803174,10732.986159
2430.812745,306.438199,-1998.556043,11103.089130
2430.813074,0.000000,-0.000000,10732.986159
2430.813403,0.000000,-0.000000,10584.944971
2430.813732,842.705048,-0.000000,10362.883188
2430.814061,1838.629195,444.123565,9474.636058
2430.814390,2604.724693,1480.411884,7772.162391
2430.814719,3907.087040,2220.617826,6809.894666
2430.815048,3907.087040,2812.782580,6661.853478
2430.815377,3907.087040,3108.864956,6957.935855
2430.815706,2757.943793,2516.700203,6439.791695
2430.816035,1378.971896,1110.308913,6735.874072
2430.816364,-153.219100,-592.164754,8364.327145
2430.816693,-1838.629195,-1776.494261,9548.656652
2430.817022,-2374.896044,-2738.761985,11103.089130
2430.817351,-1302.362347,-2368.659014,9326.594869
2430.817680,-1378.971896,-2960.823768,10881.027347
2430.818009,-2451.505594,-2516.700203,11473.192101
2430.818338,-1608.800546,-1924.535449,11251.130318
2430.818667,-1302.362347,-1998.556043,11251.130318
2430.818996,-383.047749,-1480.411884,10584.944971
2430.819325,0.000000,-0.000000,10658.965565
2430.819654,459.657299,518.144159,9548.656652
2430.819983,-383.047749,296.082377,9992.780217
2430.820312,-153.219100,296.082377,9252.574275
2430.820641,689.485948,1184.329507,8438.347739
2430.820970,995.924147,814.226536,8142.265362
2430.821299,1455.581446,2294.638420,6143.709319
2430.821628,1991.848295,2294.638420,6513.812290
2430.821957,1762.019645,1554.432478,6143.709319
2430.822285,1302.362347,1184.329507,7031.956449
2430.822614,459.657299,-0.000000,8364.327145
2430.822943,0.000000,-962.267725,8660.409521
2430.823272,-689.485948,-1924.535449,9770.718434
2430.823601,-1302.362347,-2294.638420,10362.883188
2430.823930,-1302.362347,-2812.782580,10288.862594
2430.824259,-612.876398,-2220.617826,11029.068536
2430.824588,-306.438199,-1332.370696,10955.047942
2430.824917,-459.657299,-666.185348,10436.903782
2430.825246,0.000000,-296.082377,10362.883188
2430.825575,536.266849,-0.000000,10214.842000
2430.825904,1838.629195,592.164754,9030.512492
2430.826233,2604.724693,1924.535449,7920.203579
2430.826562,3677.258390,2294.638420,7031.956449
2430.826891,3294.210641,2960.823768,6661.853478
2430.827220,2987.772442,2590.720797,7328.038826
2430.827549,2221.676944,2294.638420,6513.812290
2430.827878,766.095498,962.267725,7476.080014
2430.828207,-536.266849,-740.205942,8660.409521
2430.828536,-1608.800546,-2072.576638,9696.697840
2430.828865,-1378.971896,-2886.803174,10955.047942
2430.829194,-1378.971896,-2294.638420,10066.800811
2430.829523,-842.705048,-2960.823768,10732.986159
2430.829852,-1225.752797,-1998.556043,10584.944971
2430.830181,-1072.533697,-2072.576638,10881.027347
2430.830510,-995.924147,-1776.494261,10658.965565
2430.830839,-612.876398,-1184.329507,10510.924376
2430.831167,0.000000,-370.102971,9992.780217
2430.831496,-1225.752797,444.123565,9474.636058
2430.831825,-229.828649,296.082377,9844.739029
2430.832154,0.000000,518.144159,8734.430116
2430.832483,842.705048,666.185348,8660.409521
2430.832812,1455.581446,1924.535449,6809.894666
2430.833141,2068.457845,2368.659014,6365.771101
2430.833470,1915.238745,1998.556043,6439.791695
2430.833799,1302.362347,1776.494261,6957.935855
2430.834128,1149.143247,962.267725,7772.162391
2430.834457,76.609550,-74.020594,8068.244768
2430.834786,-536.266849,-1628.453072,9326.594869
2430.835115,-1149.143247,-2368.659014,9844.739029
2430.835444,-1378.971896,-2886.803174,10214.842000
2430.835773,-1225.752797,-3182.885551,10881.027347
2430.836102,-689.485948,-2368.659014,10807.006753
2430.836431,-612.876398,-1406.391290,11325.150913
2430.836760,0.000000,-518.144159,10362.883188
2430.837088,459.657299,-74.020594,10584.944971
2430.837417,1915.238745,518.144159,9474.636058
2430.837746,2987.772442,1628.453072,8438.347739
2430.838075,3600.648841,2442.679609,7105.977043
2430.838404,4060.306139,3034.844362,6809.894666
2430.838733,3983.696590,3330.926739,7254.018232
2430.839062,2911.162892,3108.864956,6957.935855
2430.839391,1532.190996,2072.576638,7179.997637
2430.839720,-306.438199,222.061783,8290.306550
2430.840049,-1838.629195,-1258.350101,9696.697840
2430.840378,-2068.457845,-2960.823768,10658.965565
2430.840707,-3064.381992,-3034.844362,9696.697840
2430.841036,-1762.019645,-3108.864956,10881.027347
2430.841365,-2145.067394,-2664.741391,10288.862594
2430.841694,-1532.190996,-1850.514855,11251.130318
2430.842023,-1302.362347,-2072.576638,11473.192101
2430.842352,-689.485948,-1110.308913,10584.944971
2430.842681,-229.828649,-370.102971,10066.800811
2430.843009,-919.314598,-0.000000,10066.800811
2430.843338,0.000000,-222.061783,10140.821405
2430.843667,919.314598,222.061783,9696.697840
2430.843996,2757.943793,1776.494261,6957.935855
2430.844325,3370.820191,2368.659014,6291.750507
2430.844654,3217.601092,3256.906145,5033.400406
2430.844983,2911.162892,3478.967927,5921.647536
2430.845312,1762.019645,740.205942,6365.771101
2430.845641,919.314598,740.205942,6883.915261
2430.845970,-459.657299,-888.247130,8512.368333
2430.846299,-1838.629195,-2146.597232,9770.718434
2430.846628,-2221.676944,-2812.782580,9992.780217
2430.846957,-1991.848295,-2886.803174,9844.739029
2430.847286,-1149.143247,-2886.803174,10881.027347
2430.847615,-766.095498,-2368.659014,11177.109724
2430.847944,-536.266849,-592.164754,10807.006753
2430.848273,-306.438199,-444.123565,10288.862594
2430.848602,0.000000,-296.082377,9992.780217
2430.848930,766.095498,-370.102971,11251.130318
2430.849259,2145.067394,222.061783,9548.656652
2430.849588,3524.039291,1554.432478,7550.100608
2430.849917,4443.353888,1850.514855,7105.977043
2430.850246,4290.134789,2664.741391,5329.482782
2430.850575,3907.087040,3034.844362,6883.915261
2430.850904,2757.943793,3108.864956,6513.812290
2430.851233,1608.800546,2146.597232,6883.915261
2430.851562,-229.828649,-0.000000,8956.491898
2430.851891,-1915.238745,-1406.391290,9548.656652
2430.852220,-2451.505594,-3182.885551,11399.171507
2430.852549,-2757.943793,-3256.906145,9992.780217
2430.852878,-2221.676944,-3478.967927,11177.109724
2430.853207,-2451.505594,-2812.782580,11103.089130
2430.853536,-1838.629195,-1702.473667,10732.986159
2430.853865,-1532.190996,-1628.453072,11473.192101
2430.854194,-153.219100,-1036.288319,10066.800811
2430.854523,306.438199,-0.000000,10066.800811
2430.854851,-612.876398,-0.000000,9474.636058
2430.855180,0.000000,-296.082377,9770.718434
2430.855509,689.485948,-148.041188,10140.821405
2430.855838,2451.505594,1258.350101,6587.832884
2430.856167,3217.601092,2072.576638,6143.709319
2430.856496,3294.210641,2590.720797,5329.482782
2430.856825,2911.162892,3182.885551,5847.626942
2430.857154,2068.457845,2072.576638,7328.038826
2430.857483,1149.143247,1110.308913,7476.080014
2430.857812,0.000000,-592.164754,9030.512492
2430.858141,-1532.190996,-2220.617826,9696.697840
2430.858470,-2528.115143,-2812.782580,10732.986159
2430.858799,-1762.019645,-3330.926739,10955.047942
2430.859128,-1302.362347,-3404.947333,10955.047942
2430.859457,-1149.143247,-2368.659014,11177.109724
2430.859786,-612.876398,-962.267725,10362.883188
2430.860115,-153.219100,-296.082377,10288.862594
2430.860444,842.705048,-1110.308913,10881.027347
2430.860773,2451.505594,370.102971,9326.594869
2430.861101,2987.772442,1776.494261,8216.285956
2430.861430,4673.182538,1702.473667,7179.997637
2430.861759,3677.258390,3182.885551,6661.853478
2430.862088,3600.648841,3108.864956,7772.162391
2430.862417,2834.553343,2368.659014,6809.894666
2430.862746,1378.971896,2072.576638,6587.832884
2430.863075,-153.219100,740.205942,8068.244768
2430.863404,-1685.410096,-444.123565,8956.491898
2430.863733,-2451.505594,-2960.823768,10436.903782
2430.864062,-2451.505594,-2368.659014,9400.615463
2430.864391,-1991.848295,-3182.885551,10436.903782
2430.864720,-2911.162892,-2960.823768,10436.903782
2430.865049,-2068.457845,-2220.617826,10881.027347
2430.865378,-1838.629195,-2368.659014,10881.027347
2430.865707,-919.314598,-2146.597232,10288.862594
2430.866036,153.219100,-296.082377,10066.800811
2430.866365,-766.095498,222.061783,9326.594869
2430.866694,-689.485948,-0.000000,10140.821405
2430.867022,383.047749,-148.041188,10288.862594
2430.867351,2298.286494,1184.329507,7920.203579
2430.867680,2757.943793,2146.597232,6513.812290
2430.868009,3294.210641,2886.803174,6217.729913
2430.868338,2987.772442,3404.947333,6143.709319
2430.868667,2145.067394,2294.638420,7105.977043
2430.868996,1225.752797,2072.576638,6883.915261
2430.869325,76.609550,148.041188,7994.224174
2430.869654,-1532.190996,-1702.473667,9474.636058
2430.869983,-2451.505594,-2442.679609,10288.862594
2430.870312,-2451.505594,-3256.906145,10658.965565
2430.870641,-1608.800546,-3034.844362,10510.924376
2430.870970,-1149.143247,-2664.741391,11473.192101
2430.871299,-1149.143247,-1406.391290,10955.047942
2430.871628,-766.095498,-592.164754,11103.089130
2430.871957,0.000000,-370.102971,10436.903782
2430.872286,153.219100,-222.061783,10140.821405
2430.872615,1455.581446,-444.123565,12065.356855
2430.872943,2374.896044,814.226536,8512.368333
2430.873272,4596.572988,2146.597232,7920.203579
2430.873601,4596.572988,2960.823768,6069.688724
2430.873930,4673.182538,3701.029710,6069.688724
2430.874259,3600.648841,3552.988522,6957.935855
2430.874588,2451.505594,3108.864956,6217.729913
2430.874917,1225.752797,1406.391290,7402.059420
2430.875246,0.000000,-666.185348,8808.450710
2430.875575,-2374.896044,-2442.679609,10288.862594
2430.875904,-2911.162892,-4071.132681,11547.212695
2430.876233,-2451.505594,-3256.906145,9918.759623
2430.876562,-2374.896044,-3182.885551,10732.986159
2430.876891,-2451.505594,-2516.700203,10955.047942
2430.877220,-842.705048,-1998.556043,11399.171507
2430.877549,-919.314598,-1702.473667,10584.944971
2430.877878,0.000000,-592.164754,9918.759623
2430.878207,153.219100,888.247130,9252.574275
2430.878536,-229.828649,518.144159,8882.471304
2430.878864,0.000000,-296.082377,10140.821405
2430.879193,1685.410096,370.102971,8734.430116
2430.879522,2834.553343,1406.391290,5773.606348
2430.879851,4060.306139,2294.638420,5699.585753
2430.880180,3370.820191,2738.761985,5255.462188
2430.880509,2757.943793,2960.823768,6957.935855
2430.880838,1685.410096,1480.411884,7031.956449
2430.881167,383.047749,296.082377,7772.162391
2430.881496,-1072.533697,-1924.535449,9326.594869
2430.881825,-1915.238745,-3108.864956,9844.739029
2430.882154,-2374.896044,-3478.967927,11029.068536
2430.882483,-1532.190996,-2886.803174,10436.903782
2430.882812,-689.485948,-2960.823768,11177.109724
2430.883141,-1149.143247,-1850.514855,11399.171507
2430.883470,0.000000,-0.000000,10732.986159
2430.883799,-153.219100,-222.061783,10140.821405
2430.884128,689.485948,-740.205942,10658.965565
2430.884457,1455.581446,-0.000000,10732.986159
2430.884785,2834.553343,1184.329507,7550.100608
2430.885114,3907.087040,2146.597232,7920.203579
2430.885443,3600.648841,2812.782580,6587.832884
2430.885772,3983.696590,3627.009116,6735.874072
2430.886101,2528.115143,2960.823768,6735.874072
2430.886430,1838.629195,2368.659014,7031.956449
2430.886759,-1072.533697,370.102971,8882.471304
2430.887088,-1762.019645,-1480.411884,9844.739029
2430.887417,-2145.067394,-2812.782580,9992.780217
2430.887746,-2834.553343,-2886.803174,9474.636058
2430.888075,-2604.724693,-3256.906145,10436.903782
2430.888404,-3140.991542,-3108.864956,11103.089130
2430.888733,-2221.676944,-2516.700203,11103.089130
2430.889062,-1915.238745,-2294.638420,11399.171507
2430.889391,-459.657299,-1850.514855,10436.903782
2430.889720,229.828649,-74.020594,9696.697840
2430.890049,229.828649,592.164754,8882.471304
2430.890378,0.000000,148.041188,9474.636058
2430.890706,0.000000,148.041188,10140.821405
2430.891035,2681.334243,666.185348,8068.244768
2430.891364,2987.772442,2220.617826,5921.647536
2430.891693,2681.334243,3034.844362,6069.688724
2430.892022,2298.286494,2960.823768,5847.626942
2430.892351,1762.019645,2146.597232,6957.935855
2430.892680,689.485948,1332.370696,6957.935855
2430.893009,-306.438199,-444.123565,7994.224174
2430.893338,-1302.362347,-2368.659014,10140.821405
2430.893667,-2374.896044,-2960.823768,10436.903782
2430.893996,-1762.019645,-3256.906145,9918.759623
2430.894325,-1608.800546,-3552.988522,10658.965565
2430.894654,-1072.533697,-2738.761985,10881.027347
2430.894983,-536.266849,-740.205942,11177.109724
2430.895312,0.000000,-0.000000,10881.027347
2430.895641,76.609550,-1110.308913,9622.677246
2430.895970,689.485948,-592.164754,11177.109724
2430.896299,1685.410096,-0.000000,11251.130318
2430.896627,2374.896044,1850.514855,7179.997637
2430.896956,4979.620737,2590.720797,7772.162391
2430.897285,4903.011187,3627.009116,5625.565159
2430.897614,4749.792088,4367.215058,6291.750507
2430.897943,3294.210641,3478.967927,6291.750507
2430.898272,1608.800546,2886.803174,5995.668130
2430.898601,766.095498,518.144159,8808.450710
2430.898930,-1302.362347,-814.226536,9326.594869
2430.899259,-2451.505594,-2960.823768,11251.130318
2430.899588,-2987.772442,-3849.070898,10362.883188
2430.899917,-2298.286494,-2960.823768,10584.944971
2430.900246,-2681.334243,-3330.926739,11325.150913
2430.900575,-2834.553343,-2590.720797,10955.047942
2430.900904,-2145.067394,-2368.659014,11769.274478
2430.901233,-1149.143247,-1406.391290,10807.006753
2430.901562,689.485948,-0.000000,10140.821405
2430.901891,0.000000,1184.329507,8586.388927
2430.902220,76.609550,-0.000000,9622.677246
2430.902548,306.438199,-518.144159,10881.027347
2430.902877,2681.334243,592.164754,7624.121203
2430.903206,3983.696590,2220.617826,5773.606348
2430.903535,3830.477490,2590.720797,5033.400406
2430.903864,3140.991542,3627.009116,5625.565159
2430.904193,2528.115143,2072.576638,7328.038826
2430.904522,1149.143247,1110.308913,6883.915261
2430.904851,0.000000,-592.164754,8586.388927
2430.905180,-1685.410096,-2664.741391,10362.883188
2430.905509,-2451.505594,-2960.823768,11103.089130
2430.905838,-2068.457845,-4145.153275,10584.944971
2430.906167,-1455.581446,-3330.926739,10510.924376
2430.906496,-842.705048,-3034.844362,11251.130318
2430.906825,-612.876398,-444.123565,11325.150913
2430.907154,0.000000,148.041188,10510.924376
2430.907483,0.000000,-592.164754,10066.800811
2430.907812,919.314598,-296.082377,10214.842000
2430.908141,995.924147,-74.020594,11103.089130
2430.908469,2068.457845,444.123565,7920.203579
2430.908798,3983.696590,2590.720797,7105.977043
2430.909127,4596.572988,3034.844362,5773.606348
2430.909456,3983.696590,3627.009116,4959.379811
2430.909785,2604.724693,2738.761985,6957.935855
2430.910114,1608.800546,1924.535449,6291.750507
2430.910443,76.609550,370.102971,8142.265362
2430.910772,-1838.629195,-1480.411884,9622.677246
2430.911101,-2068.457845,-2516.700203,9770.718434
2430.911430,-2681.334243,-3034.844362,9548.656652
2430.911759,-2374.896044,-3256.906145,10955.047942
2430.912088,-2681.334243,-3478.967927,11251.130318
2430.912417,-2068.457845,-3701.029710,11843.295072
2430.912746,-1225.752797,-2220.617826,11251.130318
2430.913075,-459.657299,-1258.350101,9918.759623
2430.913404,459.657299,-444.123565,10066.800811
2430.913733,-459.657299,1480.411884,7994.224174
2430.914062,76.609550,296.082377,10066.800811
2430.914390,229.828649,-0.000000,9104.533087
2430.914719,2528.115143,888.247130,8216.285956
2430.915048,2374.896044,2072.576638,5773.606348
2430.915377,3370.820191,2368.659014,5329.482782
2430.915706,2068.457845,2664.741391,5847.626942
2430.916035,1838.629195,1702.473667,7402.059420
2430.916364,536.266849,962.267725,7254.018232
2430.916693,-459.657299,-518.144159,9104.533087
2430.917022,-995.924147,-2368.659014,10362.883188
2430.917351,-2298.286494,-2812.782580,10584.944971
2430.917680,-1991.848295,-2886.803174,10584.944971
2430.918009,-1225.752797,-2886.803174,10881.027347
2430.918338,-536.266849,-2368.659014,11473.192101
2430.918667,-229.828649,-0.000000,11103.089130
2430.918996,153.219100,222.061783,10436.903782
2430.919325,383.047749,-814.226536,10510.924376
2430.919654,1991.848295,-148.041188,10140.821405
2430.919983,3064.381992,1924.535449,8068.244768
2430.920311,3907.087040,2368.659014,7476.080014
2430.920640,4136.915689,3182.885551,6883.915261
2430.920969,4366.744339,3627.009116,7254.018232
2430.921298,2834.553343,3627.009116,7031.956449
2430.921627,1225.752797,2294.638420,6735.874072
2430.921956,689.485948,-0.000000,8290.306550
2430.922285,-1072.533697,-592.164754,8956.491898
2430.922614,-1915.238745,-2146.597232,10510.924376
2430.922943,-1838.629195,-2442.679609,9770.718434
2430.923272,-1532.190996,-2664.741391,9918.759623
2430.923601,-1915.238745,-2368.659014,10510.924376
2430.923930,-1378.971896,-1702.473667,10436.903782
2430.924259,-1455.581446,-2442.679609,11251.130318
2430.924588,-766.095498,-2146.597232,10732.986159
2430.924917,0.000000,-518.144159,9770.718434
2430.925246,76.609550,-222.061783,9474.636058
2430.925575,-842.705048,-74.020594,8734.430116
2430.925904,-536.266849,-740.205942,10214.842000
2430.926232,306.438199,518.144159,9548.656652
2430.926561,1991.848295,666.185348,7994.224174
2430.926890,2145.067394,1702.473667,6587.832884
2430.927219,2604.724693,2664.741391,6439.791695
2430.927548,2068.457845,2516.700203,6291.750507
2430.927877,1838.629195,1850.514855,6809.894666
2430.928206,1149.143247,370.102971,7550.100608
2430.928533,689.485948,-814.226536,8142.265362
2430.928862,-995.924147,-2072.576638,9474.636058
2430.929191,-1991.848295,-2590.720797,10140.821405
2430.929520,-1378.971896,-3923.091493,11103.089130
2430.929849,-1302.362347,-3034.844362,10658.965565
2430.930178,-383.047749,-2294.638420,11621.233289
2430.930507,-612.876398,-962.267725,10881.027347
2430.930836,0.000000,-592.164754,10288.862594
2430.931165,76.609550,-0.000000,10362.883188
2430.931494,919.314598,-74.020594,10584.944971
2430.931823,2068.457845,1258.350101,8808.450710
2430.932152,3294.210641,2368.659014,7402.059420
2430.932481,4136.915689,3330.926739,6883.915261
2430.932810,3677.258390,3034.844362,6439.791695
2430.933138,3370.820191,3108.864956,6365.771101
2430.933467,2221.676944,2294.638420,5921.647536
2430.933796,1302.362347,888.247130,6735.874072
2430.934125,-459.657299,-740.205942,8290.306550
2430.934454,-1762.019645,-2442.679609,9696.697840
2430.934783,-2374.896044,-3034.844362,10881.027347
2430.935112,-2145.067394,-2812.782580,10288.862594
2430.935441,-2298.286494,-3404.947333,10658.965565
2430.935770,-2145.067394,-3034.844362,11473.192101
2430.936099,-1455.581446,-1924.535449,11325.150913
2430.936428,-842.705048,-1776.494261,11103.089130
2430.936757,-306.438199,-888.247130,10436.903782
2430.937086,76.609550,518.144159,9474.636058
2430.937415,-153.219100,888.247130,9622.677246
2430.937744,-766.095498,740.205942,10066.800811
2430.938073,689.485948,444.123565,9622.677246
2430.938402,2145.067394,1702.473667,6809.894666
2430.938730,2987.772442,2220.617826,5995.668130
2430.939059,2987.772442,2368.659014,5625.565159
2430.939388,2374.896044,2368.659014,6587.832884
2430.939717,2068.457845,962.267725,7624.121203
2430.940046,383.047749,-74.020594,7772.162391
2430.940375,-612.876398,-1702.473667,9030.512492
2430.940704,-1762.019645,-2516.700203,10288.862594
2430.941033,-2221.676944,-2738.761985,10732.986159
2430.941362,-1685.410096,-2664.741391,10436.903782
2430.941691,-766.095498,-2442.679609,10881.027347
2430.942020,-383.047749,-962.267725,10955.047942
2430.942349,459.657299,-148.041188,10955.047942
2430.942678,76.609550,296.082377,10362.883188
2430.943007,459.657299,-74.020594,10510.924376
2430.943336,1915.238745,370.102971,10140.821405
2430.943665,2451.505594,2072.576638,7105.977043
2430.943994,3753.867940,2146.597232,7476.080014
2430.944322,3907.087040,3108.864956,5995.668130
2430.944651,4749.792088,3330.926739,6809.894666
2430.944980,2757.943793,2664.741391,6587.832884
2430.945309,2298.286494,2146.597232,6365.771101
2430.945638,536.266849,296.082377,8364.327145
2430.945967,-919.314598,-740.205942,8734.430116
2430.946296,-1991.848295,-2738.761985,10658.965565
2430.946625,-2451.505594,-2960.823768,10214.842000
2430.946954,-995.924147,-2812.782580,10584.944971
2430.947283,-2068.457845,-2886.803174,10658.965565
2430.947612,-2068.457845,-2294.638420,10955.047942
2430.947941,-1378.971896,-1776.494261,11325.150913
2430.948270,-612.876398,-1998.556043,10584.944971
2430.948599,306.438199,-0.000000,9992.780217
2430.948928,-459.657299,-518.144159,9696.697840
2430.949257,-306.438199,148.041188,9178.553681
2430.949585,-536.266849,-0.000000,10658.965565
2430.949914,306.438199,-74.020594,9104.533087
2430.950243,1838.629195,888.247130,7179.997637
2430.950572,2374.896044,1850.514855,6439.791695
2430.950901,2451.505594,2664.741391,5921.647536
2430.951230,2221.676944,2368.659014,6883.915261
2430.951559,1685.410096,814.226536,7550.100608
2430.951888,536.266849,-0.000000,8290.306550
2430.952217,-306.438199,-888.247130,9030.512492
2430.952546,-1378.971896,-2368.659014,10214.842000
2430.952875,-1915.238745,-3108.864956,10510.924376
2430.953204,-1532.190996,-3108.864956,10288.862594
2430.953533,-919.314598,-2590.720797,10955.047942
2430.953862,-536.266849,-1554.432478,10881.027347
2430.954191,-306.438199,-444.123565,10362.883188
2430.954520,153.219100,-222.061783,10288.862594
2430.954849,766.095498,-0.000000,9696.697840
2430.955177,2068.457845,-0.000000,9918.759623
2430.955506,2604.724693,1998.556043,7328.038826
2430.955835,3600.648841,2442.679609,7105.977043
2430.956164,3524.039291,3256.906145,6291.750507
2430.956493,3830.477490,3256.906145,6291.750507
2430.956822,2681.334243,2516.700203,6365.771101
2430.957151,1762.019645,1924.535449,6957.935855
2430.957480,689.485948,-74.020594,7994.224174
2430.957809,-1378.971896,-1258.350101,9104.533087
2430.958138,-1991.848295,-2590.720797,10732.986159
2430.958467,-2604.724693,-2738.761985,9474.636058
2430.958796,-2221.676944,-3404.947333,11103.089130
2430.959125,-1608.800546,-3330.926739,11103.089130
2430.959454,-1608.800546,-2590.720797,10807.006753
2430.959783,-1991.848295,-2294.638420,11547.212695
2430.960112,-612.876398,-1480.411884,10362.883188
2430.960440,306.438199,-148.041188,9992.780217
2430.960769,-229.828649,666.185348,9326.594869
2430.961098,-306.438199,370.102971,9696.697840
2430.961427,-306.438199,-0.000000,10066.800811
2430.961756,766.095498,1110.308913,8512.368333
2430.962085,2145.067394,1998.556043,6513.812290
2430.962414,2528.115143,2368.659014,6217.729913
2430.962743,2068.457845,2812.782580,6143.709319
2430.963072,2068.457845,2072.576638,7254.018232
2430.963401,1302.362347,1332.370696,7254.018232
2430.963730,383.047749,-0.000000,8068.244768
2430.964059,-995.924147,-1924.535449,9474.636058
2430.964388,-2068.457845,-2590.720797,10288.862594
2430.964717,-1608.800546,-2812.782580,10807.006753
2430.965046,-1225.752797,-2960.823768,10584.944971
2430.965375,-612.876398,-2368.659014,11177.109724
2430.965704,-612.876398,-666.185348,10807.006753
2430.966032,-306.438199,-0.000000,10732.986159
2430.966361,383.047749,-0.000000,9696.697840
2430.966690,919.314598,-222.061783,11103.089130
2430.967019,2298.286494,1184.329507,9178.553681
2430.967348,2987.772442,2072.576638,7402.059420
2430.967677,3600.648841,2368.659014,7105.977043
2430.968006,4366.744339,3256.906145,6513.812290
2430.968335,3907.087040,2812.782580,7031.956449
2430.968664,2451.505594,2368.659014,6513.812290
2430.968993,1838.629195,1406.391290,7105.977043
2430.969322,229.828649,-148.041188,8364.327145
2430.969651,-1378.971896,-1406.391290,9030.512492
2430.969980,-1838.629195,-3034.844362,11399.171507
2430.970309,-2451.505594,-2960.823768,10658.965565
2430.970638,-2451.505594,-2738.761985,10881.027347
2430.970967,-995.924147,-2960.823768,10732.986159
2430.971295,-1608.800546,-1776.494261,11103.089130
2430.971624,-1225.752797,-2146.597232,11473.192101
2430.971953,-306.438199,-888.247130,10436.903782
2430.972282,-153.219100,148.041188,9696.697840
2430.972611,-383.047749,-0.000000,9696.697840
2430.972940,-766.095498,370.102971,9252.574275
2430.973269,153.219100,-370.102971,9474.636058
2430.973598,1685.410096,962.267725,8290.306550
2430.973927,1991.848295,1406.391290,7031.956449
2430.974256,2374.896044,1924.535449,6513.812290
2430.974585,2374.896044,2590.720797,5995.668130
2430.974914,2451.505594,1110.308913,7254.018232
2430.975243,1072.533697,740.205942,7550.100608
2430.975572,459.657299,-0.000000,8142.265362
2430.975901,-919.314598,-1406.391290,9844.739029
2430.976230,-1762.019645,-2368.659014,9918.759623
2430.976559,-1991.848295,-3182.885551,10955.047942
2430.976887,-1302.362347,-3034.844362,11103.089130
2430.977216,-995.924147,-2368.659014,10584.944971
2430.977545,0.000000,-1406.391290,10510.924376
2430.977874,0.000000,-74.020594,10066.800811
2430.978203,536.266849,-0.000000,10288.862594
2430.978532,1762.019645,370.102971,9696.697840
2430.978861,2604.724693,1702.473667,7624.121203
2430.979190,3677.258390,2368.659014,7179.997637
2430.979519,3753.867940,2738.761985,6439.791695
2430.979848,4366.744339,2960.823768,6439.791695
2430.980177,3140.991542,2738.761985,6809.894666
2430.980506,1532.190996,2220.617826,6883.915261
2430.980835,459.657299,666.185348,8216.285956
2430.981164,-1302.362347,-814.226536,8660.409521
2430.981493,-2451.505594,-2590.720797,10140.821405
2430.981822,-2145.067394,-3256.906145,10584.944971
2430.982150,-2451.505594,-3108.864956,10066.800811
2430.982479,-2451.505594,-3775.050304,11695.253884
2430.982808,-2604.724693,-2664.741391,10807.006753
2430.983137,-1608.800546,-2220.617826,11251.130318
2430.983466,-919.314598,-1998.556043,10881.027347
2430.983795,0.000000,-518.144159,9548.656652
2430.984124,0.000000,-0.000000,10214.842000
2430.984453,0.000000,-518.144159,10658.965565
2430.984782,1838.629195,296.082377,9326.594869
2430.985111,2604.724693,2220.617826,7105.977043
2430.985440,3753.867940,2368.659014,6661.853478
2430.985769,2987.772442,3182.885551,5625.565159
2430.986098,3140.991542,3478.967927,6809.894666
2430.986427,2068.457845,2516.700203,7031.956449
2430.986756,1072.533697,592.164754,7476.080014
2430.987085,-306.438199,-666.185348,8734.430116
2430.987414,-2145.067394,-1850.514855,9770.718434
2430.987742,-2528.115143,-3182.885551,10732.986159
2430.988071,-2374.896044,-2886.803174,9696.697840
2430.988400,-1378.971896,-3108.864956,10436.903782
2430.988729,-919.314598,-2442.679609,10732.986159
2430.989058,-459.657299,-1036.288319,10881.027347
2430.989387,0.000000,-592.164754,10658.965565
2430.989716,153.219100,-444.123565,9400.615463
2430.990045,536.266849,-74.020594,11103.089130
2430.990374,2068.457845,-0.000000,9548.656652
2430.990703,3524.039291,2368.659014,6809.894666
2430.991032,5439.278036,2738.761985,7254.018232
2430.991361,4060.306139,3627.009116,5033.400406
2430.991690,5286.058936,3627.009116,6883.915261
2430.992019,2911.162892,3923.091493,6365.771101
2430.992348,2145.067394,2590.720797,6365.771101
2430.992677,0.000000,-370.102971,9178.553681
2430.993006,-2145.067394,-1258.350101,8882.471304
2430.993334,-2451.505594,-4071.132681,11769.274478
2430.993663,-3217.601092,-3849.070898,9770.718434
2430.993992,-2451.505594,-2886.803174,11103.089130
2430.994321,-3064.381992,-3330.926739,11473.192101
2430.994650,-1991.848295,-1924.535449,11103.089130
2430.994979,-1915.238745,-1702.473667,11695.253884
2430.995308,-842.705048,-1332.370696,10288.862594
2430.995637,153.219100,296.082377,10140.821405
2430.995966,-459.657299,370.102971,9178.553681
2430.996295,-919.314598,-0.000000,9992.780217
2430.996624,306.438199,-962.267725,11399.171507
2430.996953,3217.601092,1406.391290,7179.997637
2430.997282,4136.915689,1702.473667,6143.709319
2430.997611,2911.162892,2146.597232,5477.523971
2430.997940,3064.381992,3478.967927,6069.688724
2430.998269,2145.067394,1998.556043,7179.997637
2430.998597,1225.752797,1258.350101,6809.894666
2430.998926,383.047749,-592.164754,8512.368333
2430.999255,-1455.581446,-2072.576638,9696.697840
2430.999584,-2604.724693,-2516.700203,10436.903782
2430.999913,-2145.067394,-3256.906145,10658.965565
2431.000242,-1225.752797,-2886.803174,10140.821405
2431.000571,-919.314598,-2368.659014,11103.089130
2431.000900,-842.705048,-592.164754,10584.944971
2431.001229,-306.438199,-0.000000,10510.924376
2431.001558,76.609550,-814.226536,10066.800811
2431.001887,1915.238745,-296.082377,10510.924376
2431.002216,1838.629195,962.267725,9622.677246
2431.002545,2911.162892,1850.514855,7550.100608
2431.002874,3830.477490,2812.782580,7179.997637
2431.003203,3830.477490,3404.947333,6365.771101
2431.003532,3753.867940,2886.803174,6661.853478
2431.003861,3064.381992,2220.617826,6365.771101
2431.004189,1378.971896,1850.514855,7624.121203
2431.004518,0.000000,-444.123565,8956.491898
2431.004847,-2451.505594,-1776.494261,9326.594869
2431.005176,-2451.505594,-3256.906145,11399.171507
2431.005505,-2757.943793,-3256.906145,10066.800811
2431.005834,-2221.676944,-3552.988522,11251.130318
2431.006163,-2221.676944,-2590.720797,11325.150913
2431.006492,-766.095498,-2220.617826,10732.986159
2431.006821,-1608.800546,-2072.576638,11769.274478
2431.007150,-459.657299,-814.226536,10362.883188
2431.007479,0.000000,222.061783,9844.739029
2431.007808,-306.438199,148.041188,9474.636058
2431.008137,-306.438199,222.061783,9844.739029
2431.008466,842.705048,-0.000000,10658.965565
2431.008795,2374.896044,1258.350101,6809.894666
2431.009124,3370.820191,2220.617826,6365.771101
2431.009452,2911.162892,2664.741391,4811.338623
2431.009781,2298.286494,3330.926739,5847.626942
2431.010110,1302.362347,1554.432478,7254.018232
2431.010439,995.924147,962.267725,6957.935855
2431.010768,0.000000,-1036.288319,8586.388927
2431.011097,-2221.676944,-2664.741391,9696.697840
2431.011426,-2451.505594,-3404.947333,10510.924376
2431.011755,-2451.505594,-3256.906145,10362.883188
2431.012084,-1225.752797,-3330.926739,10881.027347
2431.012413,-995.924147,-1924.535449,10658.965565
2431.012742,-689.485948,-592.164754,11029.068536
2431.013071,-229.828649,148.041188,10436.903782
2431.013400,995.924147,-444.123565,9548.656652
2431.013729,1685.410096,-74.020594,11029.068536
2431.014058,2451.505594,1184.329507,8808.450710
2431.014387,3983.696590,2516.700203,7698.141797
2431.014716,4290.134789,2960.823768,6661.853478
2431.015044,4673.182538,3404.947333,5847.626942
2431.015373,4213.525239,3182.885551,6587.832884
2431.015702,3294.210641,2960.823768,6365.771101
2431.016031,1455.581446,1406.391290,7179.997637
2431.016360,-536.266849,-740.205942,9178.553681
2431.016689,-2451.505594,-1998.556043,9844.739029
2431.017018,-2834.553343,-3478.967927,11473.192101
2431.017347,-2834.553343,-2812.782580,9992.780217
2431.017676,-3217.601092,-3404.947333,11769.274478
2431.018005,-2068.457845,-2516.700203,11325.150913
2431.018334,-1685.410096,-1628.453072,11547.212695
2431.018663,-1455.581446,-1850.514855,11399.171507
2431.018992,-383.047749,-740.205942,10140.821405
2431.019321,-153.219100,814.226536,9696.697840
2431.019650,-76.609550,518.144159,9178.553681
2431.019979,-229.828649,-222.061783,10066.800811
2431.020307,1072.533697,592.164754,10214.842000
2431.020636,2681.334243,2220.617826,5995.668130
2431.020965,3677.258390,2220.617826,6143.709319
2431.021294,3064.381992,2960.823768,5107.421000
2431.021623,3140.991542,2738.761985,6513.812290
2431.021952,1838.629195,1406.391290,6439.791695
2431.022281,1532.190996,518.144159,6957.935855
2431.022610,306.438199,-1258.350101,9252.574275
2431.022939,-1608.800546,-2294.638420,9474.636058
2431.023268,-2374.896044,-3330.926739,11177.109724
2431.023597,-2068.457845,-3182.885551,10214.842000
2431.023926,-919.314598,-3182.885551,10732.986159
2431.024255,-1455.581446,-2294.638420,11399.171507
2431.024584,-306.438199,-0.000000,10584.944971
2431.024913,0.000000,-0.000000,10140.821405
2431.025242,229.828649,-740.205942,10510.924376
2431.025571,2451.505594,666.185348,9622.677246
2431.025899,3064.381992,1554.432478,7550.100608
2431.026228,4136.915689,1998.556043,7105.977043
2431.026557,4136.915689,2812.782580,6217.729913
2431.026886,4443.353888,3108.864956,6883.915261
2431.027215,3677.258390,2368.659014,5699.585753
2431.027544,2068.457845,1702.473667,6735.874072
2431.027873,229.828649,222.061783,8512.368333
2431.028202,-1302.362347,-1110.308913,8882.471304
2431.028531,-2451.505594,-3108.864956,11177.109724
2431.028860,-2757.943793,-3552.988522,10140.821405
2431.029189,-2145.067394,-3552.988522,10658.965565
2431.029518,-2604.724693,-3627.009116,11103.089130
2431.029847,-2451.505594,-2738.761985,10584.944971
2431.030176,-1762.019645,-2368.659014,11621.233289
2431.030505,-689.485948,-1480.411884,10658.965565
2431.030834,306.438199,444.123565,9770.718434
2431.031163,0.000000,444.123565,9622.677246
2431.031492,0.000000,962.267725,9252.574275
2431.031821,995.924147,-0.000000,11029.068536
2431.032150,1608.800546,1406.391290,7328.038826
2431.032479,3217.601092,2442.679609,6439.791695
2431.032807,2451.505594,2294.638420,5773.606348
2431.033136,2298.286494,3108.864956,6069.688724
2431.033465,1225.752797,1850.514855,7698.141797
2431.033794,306.438199,444.123565,7254.018232
2431.034123,0.000000,-222.061783,8290.306550
2431.034452,-1455.581446,-2146.597232,9474.636058
2431.034781,-2451.505594,-2812.782580,10066.800811
2431.035110,-2068.457845,-3108.864956,10066.800811
2431.035439,-919.314598,-2664.741391,10584.944971
2431.035768,-766.095498,-2072.576638,10807.006753
2431.036097,-689.485948,-740.205942,10955.047942
2431.036426,-229.828649,222.061783,10436.903782
2431.036755,76.609550,-814.226536,10066.800811
2431.037084,1378.971896,-74.020594,11399.171507
2431.037413,2451.505594,666.185348,8882.471304
2431.037742,3830.477490,1850.514855,7624.121203
2431.038071,4596.572988,2812.782580,6513.812290
2431.038400,5132.839837,3330.926739,6291.750507
2431.038729,3907.087040,3182.885551,6809.894666
2431.039058,2604.724693,2738.761985,6291.750507
2431.039387,1762.019645,1184.329507,6883.915261
2431.039716,-229.828649,-148.041188,9030.512492
2431.040045,-2145.067394,-1628.453072,9474.636058
2431.040374,-2451.505594,-3034.844362,11325.150913
2431.040703,-2451.505594,-2960.823768,9770.718434
2431.041032,-2298.286494,-2738.761985,11177.109724
2431.041361,-2451.505594,-2220.617826,10732.986159
2431.041690,-1532.190996,-2220.617826,10732.986159
2431.042019,-1762.019645,-2368.659014,11547.212695
2431.042348,0.000000,-888.247130,10288.862594
2431.042677,76.609550,-0.000000,10362.883188
2431.043006,0.000000,-0.000000,8882.471304
2431.043335,-612.876398,-0.000000,9622.677246
2431.043664,383.047749,-148.041188,10732.986159
2431.043993,2145.067394,518.144159,7846.182985
2431.044322,3217.601092,1924.535449,6069.688724
2431.044651,3064.381992,2886.803174,5847.626942
2431.044980,2834.553343,3552.988522,5847.626942
2431.045309,2451.505594,2442.679609,7179.997637
2431.045638,1685.410096,1628.453072,7031.956449
2431.045967,459.657299,-148.041188,8438.347739
2431.046296,-766.095498,-1998.556043,9548.656652
2431.046624,-2374.896044,-2664.741391,10362.883188
2431.046953,-2298.286494,-3701.029710,11177.109724
2431.047282,-1685.410096,-3034.844362,9992.780217
2431.047611,-1072.533697,-2738.761985,11251.130318
2431.047940,-995.924147,-1258.350101,10881.027347
2431.048269,0.000000,-370.102971,10436.903782
2431.048598,0.000000,-1036.288319,10362.883188
2431.048927,459.657299,-0.000000,9992.780217
2431.049256,1838.629195,370.102971,10584.944971
2431.049585,2374.896044,1406.391290,7476.080014
2431.049914,3983.696590,2368.659014,7846.182985
2431.050243,3677.258390,3034.844362,6291.750507
2431.050572,4290.134789,3552.988522,5995.668130
2431.050901,2987.772442,2664.741391,6735.874072
2431.051230,1915.238745,1998.556043,6513.812290
2431.051559,76.609550,-0.000000,8216.285956
2431.051888,-1608.800546,-1702.473667,9400.615463
2431.052217,-2451.505594,-3108.864956,10881.027347
2431.052546,-2681.334243,-3478.967927,10436.903782
2431.052875,-2298.286494,-3701.029710,10658.965565
2431.053204,-3294.210641,-3256.906145,10955.047942
2431.053533,-1838.629195,-2664.741391,10881.027347
2431.053862,-1378.971896,-2146.597232,11103.089130
2431.054191,-612.876398,-1110.308913,10510.924376
2431.054520,76.609550,-0.000000,9548.656652
2431.054849,-153.219100,1036.288319,8956.491898
2431.055178,-919.314598,888.247130,8438.347739
2431.055507,0.000000,-0.000000,9770.718434
2431.055836,1685.410096,296.082377,9104.533087
2431.056165,2221.676944,1776.494261,5921.647536
2431.056494,2604.724693,2146.597232,5847.626942
2431.056823,2145.067394,2590.720797,4959.379811
2431.057152,1915.238745,2220.617826,6661.853478
2431.057481,919.314598,740.205942,7698.141797
2431.057810,-766.095498,296.082377,7846.182985
2431.058139,-919.314598,-2294.638420,9474.636058
2431.058468,-2374.896044,-2886.803174,9844.739029
2431.058797,-2221.676944,-3330.926739,10732.986159
2431.059126,-1838.629195,-3108.864956,10658.965565
2431.059455,-766.095498,-2442.679609,10881.027347
2431.059784,-842.705048,-1258.350101,11621.233289
2431.060113,-153.219100,-0.000000,11251.130318
2431.060441,76.609550,-0.000000,10510.924376
2431.060770,1455.581446,-296.082377,11177.109724
2431.061099,2298.286494,1702.473667,8808.450710
2431.061428,3600.648841,2368.659014,7994.224174
2431.061757,4213.525239,2812.782580,7031.956449
2431.062086,4443.353888,3552.988522,7105.977043
2431.062415,3983.696590,2960.823768,7105.977043
2431.062744,2374.896044,2516.700203,6439.791695
2431.063073,1149.143247,1184.329507,7772.162391
2431.063402,-689.485948,-518.144159,8808.450710
2431.063731,-2068.457845,-2220.617826,10066.800811
2431.064060,-2068.457845,-2738.761985,10584.944971
2431.064389,-1762.019645,-2886.803174,9696.697840
2431.064718,-1915.238745,-2516.700203,11177.109724
2431.065047,-1838.629195,-2368.659014,10436.903782
2431.065376,-1149.143247,-1776.494261,11251.130318
2431.065705,-1302.362347,-1702.473667,10807.006753
2431.066034,0.000000,-666.185348,9844.739029
2431.066363,0.000000,-0.000000,9918.759623
2431.066692,0.000000,518.144159,8808.450710
2431.067021,0.000000,222.061783,9548.656652
2431.067350,153.219100,-0.000000,9696.697840
2431.067679,1378.971896,-74.020594,8586.388927
2431.068008,1915.238745,1332.370696,6587.832884
2431.068337,2451.505594,2368.659014,6069.688724
2431.068666,2221.676944,2886.803174,5625.565159
2431.068995,2451.505594,1776.494261,6439.791695
2431.069324,1532.190996,1184.329507,7105.977043
2431.069653,919.314598,222.061783,7550.100608
2431.069982,-306.438199,-1554.432478,9104.533087
2431.070311,-1455.581446,-2294.638420,9696.697840
2431.070640,-1762.019645,-3182.885551,10658.965565
2431.070969,-1378.971896,-3330.926739,11029.068536
2431.071298,-612.876398,-2294.638420,10732.986159
2431.071627,-229.828649,-1628.453072,11029.068536
2431.071956,-459.657299,-222.061783,10732.986159
2431.072285,76.609550,-222.061783,10288.862594
2431.072614,1225.752797,-444.123565,10807.006753
2431.072943,2068.457845,1036.288319,8512.368333
2431.073272,3294.210641,2072.576638,7846.182985
2431.073601,3907.087040,2368.659014,6439.791695
2431.073930,4060.306139,3330.926739,6439.791695
2431.074258,3447.429741,3034.844362,6957.935855
2431.074587,2374.896044,2516.700203,6291.750507
2431.074916,1225.752797,962.267725,7550.100608
2431.075245,-229.828649,-518.144159,8882.471304
2431.075574,-1991.848295,-2294.638420,9696.697840
2431.075903,-1991.848295,-3182.885551,11103.089130
2431.076232,-1991.848295,-2960.823768,9622.677246
2431.076561,-1685.410096,-3256.906145,11325.150913
2431.076890,-1991.848295,-3108.864956,11103.089130
2431.077219,-1455.581446,-1850.514855,10807.006753
2431.077548,-1225.752797,-1776.494261,11399.171507
2431.077877,-229.828649,-518.144159,9844.739029
2431.078206,76.609550,444.123565,9474.636058
2431.078535,-459.657299,814.226536,9548.656652
2431.078864,-689.485948,296.082377,9178.553681
2431.079193,153.219100,-0.000000,9548.656652
2431.079522,2068.457845,740.205942,7920.203579
2431.079851,2298.286494,1702.473667,6143.709319
2431.080180,2681.334243,2442.679609,5847.626942
2431.080509,2068.457845,2664.741391,5625.565159
2431.080838,1915.238745,1554.432478,7105.977043
2431.081167,919.314598,740.205942,7624.121203
2431.081496,0.000000,-518.144159,8068.244768
2431.081825,-1225.752797,-3034.844362,9770.718434
2431.082154,-1838.629195,-2664.741391,10510.924376
2431.082483,-1991.848295,-3182.885551,11251.130318
2431.082812,-1378.971896,-2960.823768,11103.089130
2431.083141,-766.095498,-1998.556043,11177.109724
2431.083470,-229.828649,-740.205942,11029.068536
2431.083799,0.000000,222.061783,10807.006753
2431.084128,306.438199,-0.000000,10584.944971
2431.084457,1762.019645,-74.020594,10214.842000
2431.084786,2681.334243,1628.453072,7920.203579
2431.085115,3600.648841,2072.576638,7698.141797
2431.085444,3677.258390,2664.741391,6735.874072
2431.085773,3983.696590,3108.864956,6809.894666
2431.086102,2911.162892,2664.741391,6957.935855
2431.086431,2757.943793,1998.556043,6513.812290
2431.086760,842.705048,518.144159,8216.285956
2431.087089,-995.924147,-666.185348,8882.471304
2431.087418,-1991.848295,-2368.659014,10658.965565
2431.087747,-2145.067394,-2812.782580,10214.842000
2431.088075,-2298.286494,-2368.659014,9770.718434
2431.088404,-1685.410096,-2590.720797,10732.986159
2431.088733,-1915.238745,-2368.659014,10732.986159
2431.089062,-1225.752797,-1332.370696,10955.047942
2431.089391,-842.705048,-1554.432478,10658.965565
2431.089720,0.000000,-74.020594,9918.759623
2431.090049,0.000000,-0.000000,9696.697840
2431.090378,-306.438199,-0.000000,9252.574275
2431.090707,-383.047749,-0.000000,9770.718434
2431.091036,1302.362347,-0.000000,9622.677246
2431.091365,2068.457845,888.247130,6957.935855
2431.091694,2911.162892,1998.556043,6661.853478
2431.092023,3064.381992,2960.823768,5699.585753
2431.092352,2374.896044,3034.844362,6143.709319
2431.092681,1225.752797,1332.370696,7105.977043
2431.093010,1302.362347,518.144159,7772.162391
2431.093339,0.000000,-814.226536,9104.533087
2431.093668,-1378.971896,-2516.700203,9474.636058
2431.093997,-2221.676944,-2812.782580,10510.924376
2431.094326,-1608.800546,-3627.009116,11103.089130
2431.094655,-1149.143247,-3108.864956,10584.944971
2431.094984,-536.266849,-2072.576638,11325.150913
2431.095313,-306.438199,-888.247130,10658.965565
2431.095642,-153.219100,-74.020594,10066.800811
2431.095971,459.657299,-296.082377,10658.965565
2431.096300,1838.629195,518.144159,9548.656652
2431.096629,2681.334243,1998.556043,8142.265362
2431.096958,3447.429741,2442.679609,7402.059420
2431.097287,3907.087040,3330.926739,6735.874072
2431.097616,3677.258390,3404.947333,7254.018232
2431.097945,1762.019645,2886.803174,7105.977043
2431.098274,1072.533697,1776.494261,7105.977043
2431.098603,-153.219100,-0.000000,8290.306550
2431.098932,-1532.190996,-1554.432478,9104.533087
2431.099261,-1838.629195,-3034.844362,10732.986159
2431.099590,-2068.457845,-2886.803174,9178.553681
2431.099919,-2068.457845,-3552.988522,10732.986159
2431.100248,-2604.724693,-3478.967927,10807.006753
2431.100577,-2068.457845,-2368.659014,10362.883188
2431.100906,-1378.971896,-2072.576638,11103.089130
2431.101235,-536.266849,-1258.350101,10214.842000
2431.101563,76.609550,148.041188,9770.718434
2431.101892,766.095498,814.226536,9474.636058
2431.102221,0.000000,666.185348,9400.615463
2431.102550,306.438199,444.123565,9844.739029
2431.102879,1302.362347,1258.350101,8290.306550
2431.103208,1915.238745,1702.473667,6735.874072
2431.103537,2374.896044,1702.473667,6217.729913
2431.103866,1915.238745,2368.659014,5699.585753
2431.104195,1838.629195,1554.432478,7254.018232
2431.104524,536.266849,518.144159,7624.121203
2431.104853,229.828649,-370.102971,7772.162391
2431.105182,-612.876398,-2368.659014,9252.574275
2431.105511,-1762.019645,-2220.617826,9770.718434
2431.105840,-1915.238745,-2886.803174,10881.027347
2431.106169,-1532.190996,-3034.844362,10584.944971
2431.106498,-919.314598,-2812.782580,11325.150913
2431.106827,-1072.533697,-1258.350101,11029.068536
2431.107156,0.000000,-222.061783,10288.862594
2431.107485,153.219100,-0.000000,10436.903782
2431.107814,1378.971896,-74.020594,10510.924376
2431.108143,2451.505594,1406.391290,8438.347739
2431.108472,3370.820191,2146.597232,8068.244768
2431.108801,3600.648841,2368.659014,7105.977043
2431.109130,4060.306139,3108.864956,7105.977043
2431.109459,3370.820191,3182.885551,6661.853478
2431.109788,2374.896044,2590.720797,6143.709319
2431.110117,1455.581446,1184.329507,7179.997637
2431.110446,0.000000,148.041188,7994.224174
2431.110775,-1532.190996,-1480.411884,9400.615463
2431.111104,-1991.848295,-2886.803174,11029.068536
2431.111433,-1915.238745,-2812.782580,10140.821405
2431.111762,-1072.533697,-2960.823768,10881.027347
2431.112091,-1762.019645,-2664.741391,10955.047942
2431.112420,-1532.190996,-1776.494261,10955.047942
2431.112749,-995.924147,-1924.535449,11399.171507
2431.113078,-612.876398,-666.185348,10066.800811
2431.113407,612.876398,-0.000000,9844.739029
2431.113736,0.000000,296.082377,9400.615463
2431.114065,0.000000,444.123565,9474.636058
2431.114394,612.876398,-0.000000,10214.842000
2431.114723,1532.190996,1036.288319,7476.080014
2431.115052,2757.943793,1702.473667,6883.915261
2431.115380,2528.115143,2368.659014,5921.647536
2431.115709,2757.943793,2590.720797,6439.791695
2431.116038,1838.629195,1406.391290,7328.038826
2431.116367,1149.143247,518.144159,7846.182985
2431.116696,0.000000,-0.000000,8956.491898
2431.117025,-1225.752797,-1924.535449,9770.718434
2431.117354,-2221.676944,-2442.679609,10510.924376
2431.117683,-1762.019645,-3256.906145,11473.192101
2431.118012,-1149.143247,-2738.761985,10732.986159
2431.118341,-1302.362347,-2590.720797,11177.109724
2431.118670,-766.095498,-962.267725,10881.027347
2431.118999,-153.219100,-0.000000,10140.821405
2431.119328,536.266849,-222.061783,10510.924376
2431.119657,1532.190996,740.205942,9326.594869
2431.119986,2757.943793,1702.473667,8364.327145
2431.120315,3677.258390,1998.556043,7550.100608
2431.120644,3370.820191,2442.679609,6513.812290
2431.120973,3064.381992,2812.782580,7031.956449
2431.121302,2528.115143,2738.761985,7254.018232
2431.121631,1915.238745,1850.514855,7105.977043
2431.121960,76.609550,666.185348,7846.182985
2431.122289,-1302.362347,-666.185348,8586.388927
2431.122618,-1838.629195,-1998.556043,10510.924376
2431.122947,-2528.115143,-2590.720797,10140.821405
2431.123276,-2145.067394,-3256.906145,10510.924376
2431.123605,-2451.505594,-3182.885551,11029.068536
2431.123934,-2221.676944,-2368.659014,10658.965565
2431.124263,-1302.362347,-2368.659014,10881.027347
2431.124592,-919.314598,-1702.473667,10436.903782
2431.124921,-536.266849,-222.061783,9326.594869
2431.125250,229.828649,-0.000000,9622.677246
2431.125579,229.828649,-0.000000,9844.739029
2431.125908,1608.800546,888.247130,8808.450710
2431.126237,2451.505594,1406.391290,7402.059420
2431.126566,2834.553343,1406.391290,6143.709319
2431.126895,2604.724693,2294.638420,6587.832884
2431.127224,2068.457845,2516.700203,7105.977043
2431.127553,1302.362347,1406.391290,6809.894666
2431.127882,0.000000,518.144159,7624.121203
2431.128211,-459.657299,-814.226536,9104.533087
2431.128540,-1838.629195,-2072.576638,9770.718434
2431.128869,-2221.676944,-3182.885551,10881.027347
2431.129198,-2221.676944,-2738.761985,10436.903782
2431.129527,-1532.190996,-2738.761985,10510.924376
2431.129856,-1149.143247,-2220.617826,10732.986159
2431.130185,-689.485948,-888.247130,10732.986159
2431.130514,-766.095498,-740.205942,10881.027347
2431.130843,0.000000,-592.164754,10807.006753
2431.131172,2451.505594,370.102971,9696.697840
2431.131502,3447.429741,1184.329507,8586.388927
2431.131831,4213.525239,2294.638420,7402.059420
2431.132160,4519.963438,2812.782580,7105.977043
2431.132489,4366.744339,3256.906145,6883.915261
2431.132818,3447.429741,3330.926739,6809.894666
2431.133147,2528.115143,2886.803174,6809.894666
2431.133476,1072.533697,1998.556043,7772.162391
2431.133805,-995.924147,222.061783,8660.409521
2431.134135,-2298.286494,-1628.453072,9918.759623
2431.134464,-1991.848295,-2590.720797,10140.821405
2431.134793,-2145.067394,-2812.782580,9400.615463
2431.135122,-2221.676944,-3256.906145,10510.924376
2431.135451,-1915.238745,-2812.782580,10436.903782
2431.135780,-1991.848295,-2368.659014,11029.068536
2431.136109,-1072.533697,-1850.514855,10955.047942
2431.136439,-383.047749,-592.164754,9992.780217
2431.136768,0.000000,-370.102971,9622.677246
2431.137097,-612.876398,-0.000000,9548.656652
2431.137426,-153.219100,-1110.308913,11103.089130
2431.137755,2145.067394,-0.000000,9030.512492
2431.138084,3753.867940,1258.350101,6439.791695
2431.138413,3753.867940,2368.659014,5847.626942
2431.138742,3370.820191,3182.885551,5773.606348
2431.139072,2528.115143,3182.885551,7031.956449
2431.139401,1455.581446,1480.411884,6661.853478
2431.139730,766.095498,740.205942,7846.182985
2431.140059,-995.924147,-1184.329507,9474.636058
2431.140388,-2298.286494,-2590.720797,10140.821405
2431.140717,-2681.334243,-3849.070898,11103.089130
2431.141046,-2145.067394,-2738.761985,10288.862594
2431.141375,-1532.190996,-3034.844362,10881.027347
2431.141705,-995.924147,-1850.514855,10584.944971
2431.142034,-306.438199,-148.041188,10362.883188
2431.142363,153.219100,-1332.370696,10066.800811
2431.142692,229.828649,-0.000000,10066.800811
2431.143021,1149.143247,-74.020594,10732.986159
2431.143350,2298.286494,592.164754,8438.347739
2431.143679,4136.915689,2146.597232,7772.162391
2431.144009,4290.134789,2812.782580,6587.832884
2431.144338,4673.182538,2886.803174,6143.709319
2431.144667,3907.087040,2812.782580,6439.791695
2431.144996,2604.724693,2812.782580,6809.894666
2431.145325,1378.971896,1776.494261,7476.080014
2431.145654,-766.095498,-296.082377,8586.388927
2431.145983,-2451.505594,-1776.494261,9622.677246
2431.146312,-2834.553343,-3404.947333,11399.171507
2431.146642,-2987.772442,-3034.844362,10436.903782
2431.146971,-2145.067394,-3627.009116,10955.047942
2431.147300,-2221.676944,-3034.844362,11103.089130
2431.147629,-1685.410096,-2368.659014,10807.006753
2431.147958,-1225.752797,-1628.453072,11103.089130
2431.148287,-306.438199,-148.041188,10140.821405
2431.148616,-229.828649,296.082377,9474.636058
2431.148946,0.000000,-0.000000,9696.697840
2431.149275,306.438199,-592.164754,10807.006753
2431.149604,1455.581446,444.123565,8882.471304
2431.149933,3064.381992,1480.411884,6957.935855
2431.150262,3447.429741,2294.638420,5995.668130
2431.150591,2911.162892,3034.844362,6365.771101
2431.150920,2145.067394,2812.782580,6957.935855
2431.151249,1072.533697,1776.494261,7105.977043
2431.151579,229.828649,-444.123565,8068.244768
2431.151908,-995.924147,-1850.514855,9104.533087
2431.152237,-2298.286494,-2886.803174,10140.821405
2431.152566,-2221.676944,-3478.967927,11029.068536
2431.152895,-1608.800546,-3034.844362,10362.883188
2431.153224,-1455.581446,-2886.803174,11251.130318
2431.153553,-459.657299,-1480.411884,10881.027347
2431.153882,0.000000,-444.123565,10658.965565
2431.154212,0.000000,-0.000000,10066.800811
2431.154541,1302.362347,-148.041188,10584.944971
2431.154870,2298.286494,814.226536,9474.636058
2431.155199,3677.258390,1628.453072,7772.162391
2431.155528,4673.182538,2664.741391,7179.997637
2431.155857,4826.401637,3256.906145,6513.812290
2431.156186,4596.572988,3256.906145,7031.956449
2431.156516,3524.039291,2886.803174,5847.626942
2431.156845,2221.676944,2664.741391,6809.894666
2431.157174,229.828649,1036.288319,8142.265362
2431.157503,-1378.971896,-962.267725,8882.471304
2431.157832,-2298.286494,-2812.782580,10807.006753
2431.158161,-2451.505594,-3108.864956,9992.780217
2431.158490,-2068.457845,-3404.947333,10140.821405
2431.158819,-2834.553343,-2960.823768,10881.027347
2431.159149,-2451.505594,-2294.638420,10881.027347
2431.159478,-1915.238745,-2294.638420,11177.109724
2431.159807,-842.705048,-1554.432478,10584.944971
2431.160136,0.000000,-222.061783,9696.697840
2431.160465,-383.047749,-74.020594,9622.677246
2431.160794,-689.485948,-296.082377,9918.759623
2431.161123,842.705048,-740.205942,10955.047942
2431.161452,1915.238745,444.123565,7994.224174
2431.161782,3140.991542,1554.432478,6957.935855
2431.162111,3140.991542,2146.597232,5995.668130
2431.162440,2757.943793,3404.947333,6513.812290
2431.162769,1838.629195,2146.597232,6735.874072
2431.163098,1072.533697,1850.514855,7179.997637
2431.163427,0.000000,-0.000000,8216.285956
2431.163756,-995.924147,-1258.350101,9622.677246
2431.164086,-2298.286494,-2442.679609,10658.965565
2431.164415,-2451.505594,-3034.844362,10436.903782
2431.164744,-1302.362347,-2590.720797,10140.821405
2431.165073,-1149.143247,-2368.659014,10881.027347
2431.165402,-766.095498,-1036.288319,11103.089130
2431.165731,0.000000,-0.000000,10807.006753
2431.166060,-229.828649,-666.185348,10066.800811
2431.166389,536.266849,-518.144159,10214.842000
2431.166719,1991.848295,-0.000000,10214.842000
2431.167048,2911.162892,1480.411884,7476.080014
2431.167377,4443.353888,2072.576638,7698.141797
2431.167706,4519.963438,2960.823768,6217.729913
2431.168035,4903.011187,3478.967927,6513.812290
2431.168364,3447.429741,2886.803174,6513.812290
2431.168693,2681.334243,2960.823768,6809.894666
2431.169023,1072.533697,740.205942,8290.306550
2431.169352,-1378.971896,-740.205942,8734.430116
2431.169681,-2451.505594,-2738.761985,10807.006753
2431.170010,-2604.724693,-3182.885551,10288.862594
2431.170339,-2221.676944,-3478.967927,9770.718434
2431.170668,-2298.286494,-3256.906145,10955.047942
2431.170997,-2604.724693,-2886.803174,10881.027347
2431.171326,-1455.581446,-2886.803174,11621.233289
2431.171656,-1225.752797,-1850.514855,10955.047942
2431.171985,0.000000,-296.082377,9918.759623
2431.172314,-612.876398,370.102971,9548.656652
2431.172643,-919.314598,222.061783,9474.636058
2431.172972,-153.219100,-0.000000,10955.047942
2431.173301,2298.286494,1036.288319,8512.368333
2431.173630,2757.943793,1924.535449,6439.791695
2431.173959,3064.381992,2368.659014,6069.688724
2431.174289,2528.115143,3627.009116,5699.585753
2431.174618,1991.848295,2516.700203,7179.997637
2431.174947,689.485948,1332.370696,7105.977043
2431.175276,0.000000,-148.041188,8216.285956
2431.175605,-1072.533697,-2220.617826,9622.677246
2431.175934,-2145.067394,-2812.782580,9844.739029
2431.176263,-2221.676944,-3034.844362,10140.821405
2431.176593,-1455.581446,-2664.741391,10362.883188
2431.176922,-995.924147,-2590.720797,10732.986159
2431.177251,-612.876398,-1184.329507,11103.089130
2431.177580,-306.438199,-592.164754,10807.006753
2431.177909,-842.705048,-296.082377,9696.697840
2431.178238,306.438199,-222.061783,10807.006753
2431.178567,1915.238745,370.102971,10881.027347
2431.178896,2681.334243,1850.514855,7031.956449
2431.179226,4519.963438,2368.659014,7698.141797
2431.179555,4366.744339,2960.823768,5477.523971
2431.179884,4136.915689,3404.947333,6069.688724
2431.180213,2911.162892,2886.803174,5699.585753
2431.180542,2374.896044,2442.679609,6217.729913
2431.180871,153.219100,-296.082377,8734.430116
2431.181200,-1915.238745,-1184.329507,9252.574275
2431.181529,-2374.896044,-2590.720797,10584.944971
2431.181859,-2834.553343,-3627.009116,9918.759623
2431.182188,-2451.505594,-3775.050304,10658.965565
2431.182517,-2604.724693,-3552.988522,10584.944971
2431.182846,-1991.848295,-2294.638420,11695.253884
2431.183175,-1608.800546,-2220.617826,11473.192101
2431.183504,-842.705048,-1332.370696,10881.027347
2431.183833,0.000000,-0.000000,10510.924376
2431.184163,-536.266849,740.205942,9104.533087
2431.184492,-766.095498,-222.061783,10584.944971
2431.184821,536.266849,-518.144159,10881.027347
2431.185150,2451.505594,814.226536,7031.956449
2431.185479,3524.039291,1924.535449,6661.853478
2431.185808,3140.991542,3108.864956,5107.421000
2431.186137,3294.210641,3330.926739,6069.688724
2431.186466,1302.362347,2368.659014,7105.977043
2431.186796,842.705048,1554.432478,6883.915261
2431.187125,0.000000,-222.061783,8808.450710
2431.187454,-1915.238745,-2368.659014,10066.800811
2431.187783,-2681.334243,-2590.720797,11029.068536
2431.188112,-2221.676944,-3256.906145,10510.924376
2431.188441,-1302.362347,-2738.761985,10288.862594
2431.188770,-689.485948,-2294.638420,11103.089130
2431.189100,-229.828649,-518.144159,10288.862594
2431.189429,-689.485948,-0.000000,10732.986159
2431.189758,-306.438199,-592.164754,10288.862594
2431.190087,1149.143247,-0.000000,10732.986159
2431.190416,2451.505594,814.226536,9104.533087
2431.190745,3524.039291,1480.411884,7476.080014
2431.191074,4366.744339,2368.659014,7105.977043
2431.191403,4596.572988,3256.906145,6143.709319
2431.191733,4903.011187,3627.009116,6957.935855
2431.192062,2834.553343,2590.720797,6661.853478
2431.192391,1838.629195,1776.494261,6883.915261
2431.192720,-306.438199,-296.082377,8734.430116
2431.193049,-2068.457845,-1406.391290,9474.636058
2431.193378,-2374.896044,-2960.823768,10881.027347
2431.193707,-2451.505594,-2960.823768,9992.780217
2431.194036,-2604.724693,-3775.050304,11177.109724
2431.194366,-2374.896044,-3182.885551,10732.986159
2431.194695,-2068.457845,-2368.659014,11029.068536
2431.195024,-1762.019645,-1998.556043,11325.150913
2431.195353,-459.657299,-666.185348,10066.800811
2431.195682,0.000000,370.102971,9992.780217
2431.196011,-76.609550,222.061783,9474.636058
2431.196340,-229.828649,-666.185348,10140.821405
2431.196670,689.485948,-518.144159,10436.903782
2431.196999,1991.848295,1258.350101,7031.956449
2431.197328,3064.381992,2220.617826,6661.853478
2431.197657,3064.381992,2738.761985,5329.482782
2431.197986,2911.162892,3627.009116,5921.647536
2431.198315,1915.238745,2220.617826,7031.956449
2431.198644,459.657299,592.164754,6809.894666
2431.198973,-306.438199,-888.247130,8364.327145
2431.199303,-1608.800546,-2368.659014,9548.656652
2431.199632,-2221.676944,-2960.823768,10584.944971
2431.199961,-2298.286494,-3330.926739,10362.883188
2431.200290,-1225.752797,-3256.906145,10584.944971
2431.200619,-689.485948,-2442.679609,10881.027347
2431.200948,-459.657299,-666.185348,10881.027347
2431.201277,-612.876398,-0.000000,10658.965565
2431.201606,0.000000,-222.061783,10066.800811
2431.201936,612.876398,-148.041188,10658.965565
2431.202265,1991.848295,666.185348,10288.862594
2431.202594,2757.943793,1702.473667,7179.997637
2431.202923,4903.011187,2294.638420,7994.224174
2431.203252,4903.011187,3256.906145,6217.729913
2431.203581,4519.963438,3478.967927,6439.791695
2431.203910,2451.505594,2738.761985,6439.791695
2431.204240,1532.190996,2146.597232,6809.894666
2431.204569,0.000000,-444.123565,8734.430116
2431.204898,-1915.238745,-1702.473667,9474.636058
2431.205227,-2221.676944,-3182.885551,11177.109724
2431.205556,-3600.648841,-3552.988522,10436.903782
2431.205885,-2145.067394,-3775.050304,10955.047942
2431.206214,-2451.505594,-2886.803174,11029.068536
2431.206543,-1685.410096,-2368.659014,11325.150913
2431.206873,-1762.019645,-1776.494261,11325.150913
2431.207202,-383.047749,-962.267725,10510.924376
2431.207531,-536.266849,518.144159,9622.677246
2431.207860,-536.266849,592.164754,9770.718434
2431.208189,-612.876398,-222.061783,9474.636058
2431.208518,-306.438199,-148.041188,11103.089130
2431.208847,1991.848295,888.247130,7402.059420
2431.209177,3217.601092,2294.638420,5921.647536
2431.209506,3217.601092,2590.720797,5255.462188
2431.209835,2911.162892,2960.823768,5773.606348
2431.210164,2451.505594,1924.535449,6735.874072
2431.210493,1302.362347,1406.391290,6957.935855
2431.210822,306.438199,-296.082377,7994.224174
2431.211151,-995.924147,-2368.659014,9918.759623
2431.211480,-1915.238745,-2738.761985,10584.944971
2431.211810,-1608.800546,-3330.926739,11103.089130
2431.212139,-1072.533697,-2886.803174,10214.842000
2431.212468,-306.438199,-2368.659014,11251.130318
2431.212797,-689.485948,-666.185348,10732.986159
2431.213126,-383.047749,222.061783,10510.924376
2431.213455,306.438199,-296.082377,10955.047942
2431.213784,2451.505594,-0.000000,9030.512492
2431.214113,2987.772442,2072.576638,8216.285956
2431.214443,3753.867940,2146.597232,7476.080014
2431.214772,3907.087040,2812.782580,6439.791695
2431.215101,4213.525239,2886.803174,7105.977043
2431.215430,3370.820191,3108.864956,5921.647536
2431.215759,2221.676944,1998.556043,7105.977043
2431.216088,1072.533697,-0.000000,8142.265362
2431.216417,-1225.752797,-1110.308913,8586.388927
2431.216747,-2068.457845,-2812.782580,10881.027347
2431.217076,-2374.896044,-2738.761985,10140.821405
2431.217405,-1991.848295,-2886.803174,10288.862594
2431.217734,-2068.457845,-2886.803174,11399.171507
2431.218063,-2374.896044,-2590.720797,10658.965565
2431.218392,-1225.752797,-2516.700203,11325.150913
2431.218721,-1072.533697,-1702.473667,10881.027347
2431.219050,0.000000,-0.000000,10140.821405
2431.219380,-383.047749,-0.000000,9844.739029
2431.219709,-459.657299,-148.041188,9400.615463
2431.220038,-536.266849,-74.020594,10066.800811
2431.220367,0.000000,518.144159,9400.615463
2431.220696,842.705048,370.102971,8660.409521
2431.221025,1608.800546,2072.576638,6143.709319
2431.221354,2757.943793,2886.803174,6217.729913
2431.221683,2068.457845,2738.761985,5847.626942
2431.222013,2068.457845,2072.576638,6735.874072
2431.222342,1302.362347,1110.308913,7772.162391
2431.222671,459.657299,-444.123565,8586.388927
2431.223000,-1149.143247,-1998.556043,9696.697840
2431.223329,-1991.848295,-2516.700203,10066.800811
2431.223658,-1762.019645,-3627.009116,10807.006753
2431.223987,-1532.190996,-2738.761985,10658.965565
2431.224317,-383.047749,-1998.556043,11029.068536
2431.224646,-612.876398,-1258.350101,10658.965565
2431.224975,-306.438199,-222.061783,10807.006753
2431.225304,-306.438199,-444.123565,10955.047942
2431.225633,1455.581446,-0.000000,9474.636058
2431.225962,2451.505594,1924.535449,7772.162391
2431.226291,3677.258390,2368.659014,7698.141797
2431.226620,3677.258390,2812.782580,6513.812290
2431.226950,3830.477490,3182.885551,7402.059420
2431.227279,3140.991542,2368.659014,6883.915261
2431.227608,2451.505594,1480.411884,6217.729913
2431.227937,612.876398,-0.000000,8142.265362
2431.228266,-1149.143247,-1110.308913,8660.409521
2431.228595,-1838.629195,-2886.803174,10881.027347
2431.228924,-1838.629195,-2590.720797,9918.759623
2431.229254,-1302.362347,-2664.741391,9770.718434
2431.229583,-3064.381992,-2664.741391,10955.047942
2431.229912,-2145.067394,-2220.617826,10732.986159
2431.230241,-1532.190996,-1998.556043,11843.295072
2431.230570,-842.705048,-2072.576638,11177.109724
2431.230899,-153.219100,-74.020594,10066.800811
2431.231228,-229.828649,-0.000000,9548.656652
2431.231557,-536.266849,962.267725,9548.656652
2431.231886,-689.485948,-74.020594,9844.739029
2431.232216,842.705048,444.123565,9104.533087
2431.232545,2451.505594,1258.350101,7179.997637
2431.232874,3064.381992,2368.659014,6439.791695
2431.233203,2911.162892,2960.823768,5255.462188
2431.233532,2604.724693,2516.700203,6439.791695
2431.233861,1915.238745,1110.308913,6883.915261
2431.234190,766.095498,370.102971,7920.203579
2431.234519,76.609550,-1258.350101,8290.306550
2431.234848,-1532.190996,-2146.597232,9696.697840
2431.235178,-1838.629195,-2516.700203,10214.842000
2431.235507,-1532.190996,-2738.761985,10288.862594
2431.235836,-842.705048,-2368.659014,10658.965565
2431.236165,-842.705048,-1702.473667,11325.150913
2431.236494,-766.095498,-592.164754,10807.006753
2431.236823,0.000000,-222.061783,10658.965565
2431.237152,-153.219100,-518.144159,10584.944971
2431.237481,1225.752797,-148.041188,10658.965565
2431.237810,2374.896044,1332.370696,8438.347739
2431.238140,3140.991542,2220.617826,7920.203579
2431.238469,3753.867940,2738.761985,7031.956449
2431.238798,4290.134789,3108.864956,7031.956449
2431.239127,3140.991542,2960.823768,6809.894666
2431.239456,1915.238745,1998.556043,7105.977043
2431.239785,766.095498,296.082377,7994.224174
2431.240114,-1302.362347,-1258.350101,9178.553681
2431.240443,-2145.067394,-2442.679609,10584.944971
2431.240772,-2604.724693,-2812.782580,10807.006753
2431.241102,-2145.067394,-2812.782580,10658.965565
2431.241431,-1915.238745,-3108.864956,11473.192101
2431.241760,-2221.676944,-2442.679609,11177.109724
2431.242089,-1532.190996,-2072.576638,11399.171507
2431.242418,-1302.362347,-1480.411884,10807.006753
2431.242747,0.000000,-148.041188,10214.842000
2431.243076,153.219100,-0.000000,9844.739029
2431.243405,-612.876398,666.185348,9474.636058
2431.243734,153.219100,-0.000000,9770.718434
2431.244064,459.657299,518.144159,8882.471304
2431.244393,1455.581446,1406.391290,7179.997637
2431.244722,2068.457845,2368.659014,5625.565159
2431.245051,2451.505594,2368.659014,5699.585753
2431.245380,1532.190996,1924.535449,5921.647536
2431.245709,1455.581446,592.164754,7254.018232
2431.246038,306.438199,518.144159,7179.997637
2431.246367,-383.047749,-1110.308913,8734.430116
2431.246696,-1378.971896,-2368.659014,9696.697840
2431.247025,-1685.410096,-2664.741391,9918.759623
2431.247355,-1378.971896,-3108.864956,10436.903782
2431.247684,-612.876398,-3108.864956,10955.047942
2431.248013,-306.438199,-2220.617826,11029.068536
2431.248342,76.609550,-518.144159,10881.027347
2431.248671,76.609550,-222.061783,10658.965565
2431.249000,536.266849,-148.041188,10732.986159
2431.249329,1991.848295,592.164754,9548.656652
2431.249658,2834.553343,2146.597232,7920.203579
2431.249987,3677.258390,2294.638420,6957.935855
2431.250317,4136.915689,2960.823768,6587.832884
2431.250646,4060.306139,3256.906145,6809.894666
2431.250975,2145.067394,2368.659014,6661.853478
2431.251304,1378.971896,1332.370696,7105.977043
2431.251633,-229.828649,-518.144159,8438.347739
2431.251962,-1838.629195,-1702.473667,9696.697840
2431.252291,-1991.848295,-2812.782580,11251.130318
2431.252620,-2221.676944,-2812.782580,10066.800811
2431.252949,-1685.410096,-3404.947333,11399.171507
2431.253279,-1608.800546,-2368.659014,11621.233289
2431.253608,-1532.190996,-1850.514855,11103.089130
2431.253937,-1072.533697,-1702.473667,11325.150913
2431.254266,-229.828649,-592.164754,10362.883188
2431.254595,229.828649,-0.000000,9844.739029
2431.254924,-383.047749,444.123565,9844.739029
2431.255253,-459.657299,-0.000000,9400.615463
2431.255582,919.314598,-0.000000,9844.739029
2431.255911,2298.286494,1332.370696,6809.894666
2431.256241,3217.601092,2294.638420,6217.729913
2431.256570,2757.943793,2812.782580,5773.606348
2431.256899,2451.505594,3034.844362,5847.626942
2431.257228,1838.629195,1554.432478,6809.894666
2431.257557,306.438199,814.226536,7698.141797
2431.257886,-153.219100,-1110.308913,9030.512492
2431.258215,-1532.190996,-2442.679609,9104.533087
2431.258544,-2604.724693,-2368.659014,10807.006753
2431.258873,-2145.067394,-3034.844362,11177.109724
2431.259203,-1378.971896,-2886.803174,11029.068536
2431.259532,-842.705048,-1628.453072,11177.109724
2431.259861,-459.657299,-888.247130,10732.986159
2431.260190,76.609550,-0.000000,10732.986159
2431.260519,2068.457845,592.164754,9474.636058
2431.260848,3677.258390,1480.411884,8364.327145
2431.261177,3370.820191,2072.576638,7624.121203
2431.261506,3907.087040,2368.659014,7254.018232
2431.261835,4060.306139,2368.659014,7179.997637
2431.262164,3140.991542,2738.761985,6809.894666
2431.262494,2681.334243,2072.576638,7105.977043
2431.262823,459.657299,962.267725,8438.347739
2431.263152,-842.705048,-0.000000,9326.594869
2431.263481,-2374.896044,-1776.494261,9770.718434
2431.263810,-2451.505594,-2812.782580,10807.006753
2431.264139,-2451.505594,-2442.679609,9770.718434
2431.264468,-2145.067394,-2590.720797,10732.986159
2431.264797,-1762.019645,-2590.720797,10584.944971
2431.265126,-1532.190996,-2368.659014,10955.047942
2431.265456,-1225.752797,-2072.576638,10584.944971
2431.265785,-383.047749,-444.123565,9844.739029
2431.266114,0.000000,-222.061783,9844.739029
2431.266443,383.047749,-222.061783,10140.821405
2431.266772,1532.190996,370.102971,8438.347739
2431.267101,2528.115143,1332.370696,7920.203579
2431.267430,3294.210641,1776.494261,7031.956449
2431.267759,3064.381992,2368.659014,6439.791695
2431.268088,2451.505594,2886.803174,7031.956449
2431.268418,1685.410096,2146.597232,6365.771101
2431.268747,689.485948,888.247130,7254.018232
2431.269076,-842.705048,-148.041188,8364.327145
2431.269405,-1608.800546,-1258.350101,9474.636058
2431.269734,-2451.505594,-2812.782580,10362.883188
2431.270063,-1838.629195,-3404.947333,9696.697840
2431.270392,-1991.848295,-2516.700203,10436.903782
2431.270721,-1608.800546,-2368.659014,10881.027347
2431.271050,-1225.752797,-1850.514855,10510.924376
2431.271380,-689.485948,-1258.350101,10807.006753
2431.271709,459.657299,-1184.329507,11325.150913
2431.272038,1915.238745,-0.000000,9326.594869
2431.272367,3294.210641,740.205942,9178.553681
2431.272696,3907.087040,1332.370696,7846.182985
2431.273025,4136.915689,2516.700203,7254.018232
2431.273354,4213.525239,2664.741391,7328.038826
2431.273683,3753.867940,3108.864956,7105.977043
2431.274012,2987.772442,3034.844362,7550.100608
2431.274342,919.314598,2294.638420,8290.306550
2431.274671,-842.705048,1184.329507,8660.409521
2431.275000,-1991.848295,-1036.288319,9696.697840
2431.275329,-2451.505594,-2368.659014,10362.883188
2431.275658,-2528.115143,-2442.679609,10066.800811
2431.275987,-2451.505594,-2738.761985,10140.821405
2431.276316,-2145.067394,-2294.638420,10140.821405
2431.276645,-2145.067394,-2516.700203,9918.759623
2431.276974,-1225.752797,-2294.638420,10881.027347
2431.277303,-612.876398,-1332.370696,10436.903782
2431.277633,-229.828649,-518.144159,9918.759623
2431.277962,-229.828649,-370.102971,9992.780217
2431.278291,536.266849,-666.185348,10807.006753
2431.278620,2145.067394,296.082377,8290.306550
2431.278949,3907.087040,1850.514855,7179.997637
2431.279278,3983.696590,2442.679609,5847.626942
2431.279607,3753.867940,3330.926739,6217.729913
2431.279936,2528.115143,3478.967927,6883.915261
2431.280265,1378.971896,2368.659014,6661.853478
2431.280595,153.219100,592.164754,7772.162391
2431.280924,-1915.238745,-666.185348,9178.553681
2431.281253,-1915.238745,-2590.720797,9992.780217
2431.281582,-2604.724693,-3108.864956,10214.842000
2431.281911,-2528.115143,-2812.782580,9992.780217
2431.282240,-2068.457845,-3256.906145,10658.965565
2431.282569,-1532.190996,-2146.597232,10807.006753
2431.282898,-919.314598,-1184.329507,11029.068536
2431.283227,-383.047749,-1184.329507,10436.903782
2431.283557,153.219100,222.061783,10584.944971
2431.283886,766.095498,-888.247130,11843.295072
2431.284215,2681.334243,444.123565,8586.388927
2431.284544,4673.182538,2072.576638,8216.285956
2431.284873,4826.401637,2516.700203,6587.832884
2431.285202,5286.058936,3404.947333,6365.771101
2431.285531,3830.477490,3775.050304,7031.956449
2431.285860,3294.210641,3627.009116,5921.647536
2431.286189,2298.286494,2368.659014,7328.038826
2431.286519,0.000000,518.144159,8290.306550
2431.286848,-2374.896044,-1258.350101,9400.615463
2431.287177,-3140.991542,-3478.967927,11843.295072
2431.287506,-3140.991542,-3256.906145,9548.656652
2431.287835,-2681.334243,-3256.906145,11325.150913
2431.288164,-2451.505594,-3182.885551,10436.903782
2431.288493,-2374.896044,-2146.597232,10881.027347
2431.288822,-1762.019645,-2442.679609,11325.150913
2431.289151,-842.705048,-888.247130,9992.780217
2431.289481,0.000000,370.102971,9326.594869
2431.289810,-536.266849,148.041188,9474.636058
2431.290139,-153.219100,-1332.370696,10881.027347
2431.290468,2068.457845,-518.144159,9622.677246
2431.290797,3217.601092,1924.535449,6365.771101
2431.291126,3370.820191,2072.576638,5921.647536
2431.291455,3217.601092,3182.885551,5255.462188
2431.291784,2987.772442,3849.070898,6513.812290
2431.292113,1455.581446,2220.617826,6439.791695
2431.292442,995.924147,814.226536,7105.977043
2431.292772,-766.095498,-518.144159,9104.533087
2431.293101,-2068.457845,-2146.597232,9400.615463
2431.293430,-2987.772442,-3478.967927,11325.150913
2431.293759,-2374.896044,-3034.844362,10362.883188
2431.294088,-1378.971896,-3330.926739,10955.047942
2431.294417,-1762.019645,-2220.617826,11325.150913
2431.294746,-995.924147,-592.164754,10881.027347
2431.295075,-1072.533697,-962.267725,10881.027347
2431.295404,76.609550,-814.226536,10732.986159
2431.295734,1225.752797,-148.041188,11621.233289
2431.296063,2451.505594,-0.000000,9178.553681
2431.296392,4060.306139,1702.473667,8290.306550
2431.296721,4366.744339,2294.638420,7105.977043
2431.297050,4826.401637,3404.947333,6365.771101
2431.297379,4519.963438,3330.926739,6735.874072
2431.297708,3140.991542,3330.926739,6291.750507
2431.298037,2451.505594,2960.823768,7105.977043
2431.298366,-229.828649,518.144159,7624.121203
2431.298696,-1762.019645,-1332.370696,9474.636058
2431.299025,-2681.334243,-3108.864956,11325.150913
2431.299354,-2757.943793,-3256.906145,9918.759623
2431.299683,-2451.505594,-3256.906145,10584.944971
2431.300012,-2451.505594,-2812.782580,10584.944971
2431.300341,-2221.676944,-1776.494261,11177.109724
2431.300670,-1455.581446,-2368.659014,11547.212695
2431.300999,-459.657299,-814.226536,10288.862594
2431.301328,0.000000,-0.000000,9400.615463
2431.301658,-459.657299,-0.000000,9474.636058
2431.301987,-459.657299,-592.164754,10584.944971
2431.302316,919.314598,-518.144159,9918.759623
2431.302645,2911.162892,1406.391290,6661.853478
2431.302974,4060.306139,1480.411884,6439.791695
2431.303303,3370.820191,2590.720797,4589.276840
2431.303632,3294.210641,3775.050304,6217.729913
2431.303961,1532.190996,2368.659014,6439.791695
2431.304290,612.876398,962.267725,7105.977043
2431.304620,-1302.362347,-666.185348,9030.512492
2431.304949,-2374.896044,-2368.659014,9770.718434
2431.305278,-3677.258390,-3256.906145,10955.047942
2431.305607,-2757.943793,-3034.844362,10140.821405
2431.305936,-1532.190996,-3330.926739,10658.965565
2431.306265,-1455.581446,-1850.514855,11325.150913
2431.306594,-612.876398,-518.144159,11325.150913
2431.306923,-689.485948,-148.041188,10658.965565
2431.307252,153.219100,-666.185348,10584.944971
2431.307581,459.657299,-74.020594,11177.109724
2431.307911,2221.676944,-0.000000,9622.677246
2431.308240,3830.477490,1628.453072,7772.162391
2431.308569,4673.182538,2146.597232,6957.935855
2431.308898,4519.963438,3108.864956,6143.709319
2431.309227,4979.620737,3849.070898,7105.977043
2431.309556,3294.210641,3775.050304,6143.709319
2431.309885,2451.505594,2664.741391,6809.894666
2431.310214,0.000000,740.205942,8364.327145
2431.310543,-2068.457845,-1110.308913,9178.553681
2431.310873,-2528.115143,-2886.803174,11251.130318
2431.311202,-3140.991542,-2886.803174,9770.718434
2431.311531,-2068.457845,-3182.885551,11029.068536
2431.311860,-2451.505594,-2886.803174,10881.027347
2431.312189,-2221.676944,-2146.597232,10881.027347
2431.312518,-1915.238745,-2072.576638,11177.109724
2431.312847,-995.924147,-888.247130,10584.944971
2431.313176,0.000000,-0.000000,9622.677246
2431.313505,-459.657299,370.102971,8956.491898
2431.313835,-383.047749,-444.123565,9696.697840
2431.314164,0.000000,-1406.391290,11547.212695
2431.314493,2374.896044,444.123565,7476.080014
2431.314822,3677.258390,1480.411884,5995.668130
2431.315151,3524.039291,2590.720797,5403.503377
2431.315480,2834.553343,3849.070898,6069.688724
2431.315809,2374.896044,2664.741391,7328.038826
2431.316138,1378.971896,1702.473667,6513.812290
2431.316467,689.485948,-0.000000,7994.224174
2431.316797,-1608.800546,-1850.514855,9400.615463
2431.317126,-3140.991542,-2812.782580,10732.986159
2431.317455,-2451.505594,-3627.009116,11399.171507
2431.317784,-1685.410096,-3552.988522,10214.842000
2431.318113,-1378.971896,-2812.782580,11251.130318
2431.318442,-766.095498,-1406.391290,11251.130318
2431.318771,-229.828649,-0.000000,10436.903782
2431.319100,76.609550,-444.123565,10140.821405
2431.319429,1838.629195,-888.247130,11103.089130
2431.319758,2757.943793,962.267725,8734.430116
2431.320088,4060.306139,1850.514855,7994.224174
2431.320417,4213.525239,2368.659014,6513.812290
2431.320746,4519.963438,3034.844362,6217.729913
2431.321075,4213.525239,3108.864956,6735.874072
2431.321404,3140.991542,3330.926739,6365.771101
2431.321733,1915.238745,2072.576638,7402.059420
2431.322062,0.000000,444.123565,8290.306550
2431.322391,-1915.238745,-1480.411884,9400.615463
2431.322720,-2528.115143,-3034.844362,11029.068536
2431.323050,-2834.553343,-3552.988522,10066.800811
2431.323379,-2757.943793,-3627.009116,11103.089130
2431.323708,-2528.115143,-3034.844362,10510.924376
2431.324037,-1762.019645,-2072.576638,10807.006753
2431.324366,-1532.190996,-2294.638420,11029.068536
2431.324695,-383.047749,-740.205942,10510.924376
2431.325024,-229.828649,370.102971,9770.718434
2431.325353,0.000000,-0.000000,9918.759623
2431.325682,-536.266849,-444.123565,10362.883188
2431.326012,1455.581446,296.082377,9548.656652
2431.326341,2681.334243,1332.370696,7105.977043
2431.326670,3447.429741,1998.556043,6439.791695
2431.326999,3217.601092,3182.885551,5699.585753
2431.327328,2681.334243,3478.967927,6735.874072
2431.327657,1991.848295,1702.473667,6513.812290
2431.327986,306.438199,592.164754,7179.997637
2431.328315,-1225.752797,-888.247130,9992.780217
2431.328644,-2604.724693,-2738.761985,10584.944971
2431.328974,-2604.724693,-3552.988522,10881.027347
2431.329303,-2298.286494,-3256.906145,10214.842000
2431.329632,-1455.581446,-2886.803174,10955.047942
2431.329961,-1455.581446,-1776.494261,10955.047942
2431.330290,-842.705048,-518.144159,11177.109724
2431.330619,-306.438199,-370.102971,10658.965565
2431.330948,306.438199,-0.000000,10584.944971
2431.331277,1762.019645,370.102971,11103.089130
2431.331606,2604.724693,1036.288319,8290.306550
2431.331935,4290.134789,1924.535449,8216.285956
2431.332264,4213.525239,2516.700203,6217.729913
2431.332593,4826.401637,3108.864956,6291.750507
2431.332922,3447.429741,3108.864956,5773.606348
2431.333251,2604.724693,3478.967927,6513.812290
2431.333580,1608.800546,1776.494261,7402.059420
2431.333909,-842.705048,-518.144159,8142.265362
2431.334238,-2374.896044,-1998.556043,9622.677246
2431.334567,-2068.457845,-3330.926739,10658.965565
2431.334896,-2298.286494,-3330.926739,9030.512492
2431.335225,-2374.896044,-3478.967927,10807.006753
2431.335554,-2145.067394,-2590.720797,10584.944971
2431.335883,-1915.238745,-2294.638420,10436.903782
2431.336212,-1302.362347,-1850.514855,10881.027347
2431.336541,-383.047749,-370.102971,9696.697840
2431.336870,-612.876398,222.061783,9770.718434
2431.337199,0.000000,-296.082377,9918.759623
2431.337529,-383.047749,-1110.308913,10584.944971
2431.337858,1378.971896,-370.102971,9696.697840
2431.338187,2528.115143,1406.391290,6661.853478
2431.338516,3370.820191,2072.576638,6513.812290
2431.338845,2911.162892,3108.864956,5773.606348
2431.339174,2987.772442,3330.926739,6513.812290
2431.339503,1225.752797,2294.638420,6735.874072
2431.339832,689.485948,1406.391290,7624.121203
2431.340161,-766.095498,-888.247130,9474.636058
2431.340490,-2451.505594,-2368.659014,10140.821405
2431.340819,-2451.505594,-3182.885551,11621.233289
2431.341148,-2834.553343,-3034.844362,10807.006753
2431.341477,-1455.581446,-3034.844362,11251.130318
2431.341806,-1378.971896,-1850.514855,11251.130318
2431.342135,-383.047749,-592.164754,11103.089130
2431.342464,153.219100,-0.000000,10584.944971
2431.342793,306.438199,-0.000000,10807.006753
2431.343122,1608.800546,-148.041188,11325.150913
2431.343451,2681.334243,888.247130,8438.347739
2431.343780,4443.353888,1924.535449,7698.141797
2431.344109,4749.792088,2590.720797,5995.668130
2431.344438,5056.230287,3701.029710,5921.647536
2431.344767,3983.696590,3627.009116,6809.894666
2431.345096,3370.820191,3701.029710,5995.668130
2431.345425,1302.362347,1628.453072,6957.935855
2431.345754,-689.485948,-1036.288319,8660.409521
2431.346083,-2528.115143,-2072.576638,9992.780217
2431.346412,-2528.115143,-3849.070898,11103.089130
2431.346741,-2528.115143,-3478.967927,9474.636058
2431.347070,-2681.334243,-3775.050304,11103.089130
2431.347399,-2451.505594,-3404.947333,10732.986159
2431.347728,-1762.019645,-2220.617826,10584.944971
2431.348057,-1149.143247,-2146.597232,11473.192101
2431.348387,-306.438199,-592.164754,9474.636058
2431.348716,-383.047749,148.041188,9770.718434
2431.349045,-612.876398,-0.000000,9474.636058
2431.349374,0.000000,-666.185348,10140.821405
2431.349703,1225.752797,-0.000000,10510.924376
2431.350032,2528.115143,1184.329507,6439.791695
2431.350361,3447.429741,1702.473667,5625.565159
2431.350690,2681.334243,3182.885551,5181.441594
2431.351019,2604.724693,3478.967927,6143.709319
2431.351348,1532.190996,2146.597232,6735.874072
2431.351677,919.314598,666.185348,7105.977043
2431.352006,-612.876398,-1406.391290,8956.491898
2431.352335,-2068.457845,-2516.700203,10214.842000
2431.352664,-2451.505594,-3552.988522,10807.006753
2431.352993,-2221.676944,-3330.926739,10732.986159
2431.353322,-1225.752797,-3330.926739,11103.089130
2431.353651,-1302.362347,-2072.576638,11547.212695
2431.353980,-536.266849,-518.144159,10955.047942
2431.354309,-383.047749,-0.000000,10584.944971
2431.354638,536.266849,-444.123565,10955.047942
2431.354967,2298.286494,740.205942,9992.780217
2431.355296,3140.991542,1702.473667,7920.203579
2431.355625,3830.477490,2220.617826,7476.080014
2431.355954,4290.134789,2960.823768,6365.771101
2431.356283,4290.134789,4071.132681,7105.977043
2431.356612,3064.381992,3552.988522,6365.771101
2431.356941,2834.553343,2960.823768,5921.647536
2431.357270,1762.019645,814.226536,7179.997637
2431.357599,-995.924147,-814.226536,8586.388927
2431.357928,-2298.286494,-2368.659014,10436.903782
2431.358257,-2681.334243,-3775.050304,11029.068536
2431.358586,-2604.724693,-3552.988522,10214.842000
2431.358916,-2068.457845,-3775.050304,11399.171507
2431.359245,-2451.505594,-3182.885551,11251.130318
2431.359574,-1608.800546,-1480.411884,11399.171507
2431.359903,-919.314598,-1480.411884,11399.171507
2431.360232,-306.438199,148.041188,10140.821405
2431.360561,-383.047749,370.102971,9918.759623
2431.360890,-229.828649,-222.061783,9770.718434
2431.361219,0.000000,-518.144159,10807.006753
2431.361548,1225.752797,-0.000000,8142.265362
2431.361877,3217.601092,1110.308913,6883.915261
2431.362206,3064.381992,2368.659014,5477.523971
2431.362535,2834.553343,3404.947333,5625.565159
2431.362864,2374.896044,2738.761985,6513.812290
2431.363193,1225.752797,1776.494261,6513.812290
2431.363522,536.266849,-296.082377,8068.244768
2431.363851,-536.266849,-1776.494261,8734.430116
2431.364180,-2528.115143,-3256.906145,9918.759623
2431.364509,-2451.505594,-3552.988522,11473.192101
2431.364838,-1915.238745,-2960.823768,10510.924376
2431.365167,-1378.971896,-2738.761985,11251.130318
2431.365496,-1072.533697,-1480.411884,10881.027347
2431.365825,-689.485948,-370.102971,10362.883188
2431.366154,-612.876398,-296.082377,10214.842000
2431.366483,842.705048,-0.000000,10658.965565
2431.366812,2298.286494,370.102971,9474.636058
2431.367141,3294.210641,1332.370696,7698.141797
2431.367470,4060.306139,2442.679609,6809.894666
2431.367799,4443.353888,2590.720797,5625.565159
2431.368128,4443.353888,3108.864956,6735.874072
2431.368457,3830.477490,3034.844362,5699.585753
2431.368786,2145.067394,2738.761985,6513.812290
2431.369115,383.047749,814.226536,8068.244768
2431.369445,-1149.143247,-888.247130,8660.409521
2431.369774,-2681.334243,-2590.720797,10881.027347
2431.370103,-2604.724693,-3923.091493,11103.089130
2431.370432,-2451.505594,-3108.864956,10214.842000
2431.370761,-2604.724693,-3552.988522,11695.253884
2431.371090,-1608.800546,-2812.782580,10732.986159
2431.371419,-1838.629195,-1924.535449,11547.212695
