#time,accel_x,accel_y,accel_z
2585.680885,306.438199,-222.061783,9104.533087
2585.681214,459.657299,-74.020594,9030.512492
2585.681543,383.047749,-296.082377,9178.553681
2585.681872,689.485948,-296.082377,9178.553681
2585.682201,919.314598,-592.164754,9104.533087
2585.682530,383.047749,-222.061783,9104.533087
2585.682859,229.828649,-222.061783,9326.594869
2585.683188,229.828649,-222.061783,8956.491898
2585.683517,383.047749,-296.082377,9178.553681
2585.683846,153.219100,-666.185348,9400.615463
2585.684175,1302.362347,-370.102971,9252.574275
2585.684504,229.828649,-74.020594,9178.553681
2585.684833,842.705048,-74.020594,9104.533087
2585.685162,383.047749,-0.000000,8808.450710
2585.685491,306.438199,-0.000000,8956.491898
2585.685820,306.438199,-0.000000,9030.512492
2585.686149,0.000000,-444.123565,8882.471304
2585.686478,229.828649,-148.041188,9104.533087
2585.686807,229.828649,-74.020594,8882.471304
2585.687136,0.000000,-296.082377,9104.533087
2585.687465,76.609550,-0.000000,8956.491898
2585.687794,229.828649,-0.000000,8808.450710
2585.688123,306.438199,-0.000000,9030.512492
2585.688452,536.266849,-74.020594,8956.491898
2585.688781,536.266849,-148.041188,8956.491898
2585.689110,1378.971896,-222.061783,9030.512492
2585.689439,306.438199,-222.061783,8956.491898
2585.689768,153.219100,-74.020594,8956.491898
2585.690097,229.828649,-0.000000,9030.512492
2585.690426,306.438199,-444.123565,9030.512492
2585.690755,229.828649,-518.144159,9178.553681
2585.691084,229.828649,-296.082377,9326.594869
2585.691413,229.828649,-148.041188,8882.471304
2585.691742,0.000000,-222.061783,9474.636058
2585.692071,383.047749,-74.020594,9178.553681
2585.692400,459.657299,-0.000000,9104.533087
2585.692729,306.438199,-148.041188,9030.512492
2585.693057,153.219100,-296.082377,9104.533087
2585.693386,306.438199,-148.041188,9326.594869
2585.693715,-153.219100,-222.061783,9474.636058
2585.694044,229.828649,-370.102971,9326.594869
2585.694373,153.219100,-148.041188,9326.594869
2585.694702,459.657299,-222.061783,9252.574275
2585.695031,459.657299,-148.041188,9104.533087
2585.695360,689.485948,-148.041188,9326.594869
2585.695689,229.828649,-148.041188,8956.491898
2585.696018,689.485948,-148.041188,8808.450710
2585.696347,383.047749,-0.000000,8956.491898
2585.696676,383.047749,-0.000000,8882.471304
2585.697005,306.438199,-0.000000,8808.450710
2585.697334,229.828649,-0.000000,8808.450710
2585.697663,383.047749,-148.041188,8882.471304
2585.697992,536.266849,-222.061783,8808.450710
2585.698321,306.438199,-222.061783,9104.533087
2585.698650,536.266849,-222.061783,8882.471304
2585.698979,383.047749,-148.041188,8734.430116
2585.699308,76.609550,-0.000000,9030.512492
2585.699637,229.828649,-0.000000,9030.512492
2585.699966,383.047749,-148.041188,9030.512492
2585.700295,689.485948,-222.061783,9104.533087
2585.700624,689.485948,-370.102971,8956.491898
2585.700953,536.266849,-0.000000,8956.491898
2585.701282,153.219100,-148.041188,9030.512492
2585.701611,229.828649,-148.041188,8956.491898
2585.701940,229.828649,-296.082377,9252.574275
2585.702269,383.047749,-592.164754,9178.553681
2585.702598,459.657299,-370.102971,8956.491898
2585.702927,612.876398,-444.123565,9030.512492
2585.703256,459.657299,-296.082377,9326.594869
2585.703585,383.047749,-74.020594,9178.553681
2585.703914,459.657299,-148.041188,9104.533087
2585.704243,306.438199,-0.000000,9178.553681
2585.704572,229.828649,-222.061783,9104.533087
2585.704901,306.438199,-148.041188,9178.553681
2585.705230,689.485948,-370.102971,9326.594869
2585.705559,383.047749,-222.061783,9104.533087
2585.705888,459.657299,-222.061783,9326.594869
2585.706217,153.219100,-296.082377,9178.553681
2585.706546,459.657299,-0.000000,9252.574275
2585.706875,0.000000,-518.144159,8956.491898
2585.707204,766.095498,-148.041188,8808.450710
2585.707533,689.485948,-0.000000,9030.512492
2585.707862,459.657299,74.020594,8660.409521
2585.708191,383.047749,-0.000000,8808.450710
2585.708520,229.828649,-0.000000,8660.409521
2585.708849,229.828649,-0.000000,8956.491898
2585.709178,383.047749,-148.041188,8956.491898
2585.709507,76.609550,-222.061783,9178.553681
2585.709836,459.657299,-666.185348,9104.533087
2585.710165,153.219100,-148.041188,9178.553681
2585.710494,229.828649,-148.041188,9030.512492
2585.710823,306.438199,-148.041188,8882.471304
2585.711152,383.047749,-0.000000,8956.491898
2585.711481,536.266849,148.041188,8512.368333
2585.711810,536.266849,-222.061783,8882.471304
2585.712139,612.876398,-74.020594,8956.491898
2585.712468,229.828649,-148.041188,9252.574275
2585.712796,459.657299,-222.061783,9030.512492
2585.713125,229.828649,-296.082377,8882.471304
2585.713454,459.657299,-518.144159,9178.553681
2585.713783,76.609550,-740.205942,9104.533087
2585.714112,76.609550,-296.082377,9474.636058
2585.714441,459.657299,-222.061783,9474.636058
2585.714770,536.266849,-444.123565,9178.553681
2585.715099,612.876398,-74.020594,9400.615463
2585.715428,612.876398,-0.000000,9178.553681
2585.715757,306.438199,-0.000000,9104.533087
2585.716086,536.266849,-222.061783,8734.430116
2585.716415,766.095498,-222.061783,9252.574275
2585.716744,76.609550,-222.061783,9252.574275
2585.717073,76.609550,-296.082377,9326.594869
2585.717402,153.219100,-444.123565,9104.533087
2585.717731,153.219100,-148.041188,9178.553681
2585.718060,0.000000,-222.061783,9030.512492
2585.718389,689.485948,-74.020594,9400.615463
2585.718718,536.266849,-0.000000,8734.430116
2585.719047,612.876398,-0.000000,8956.491898
2585.719376,383.047749,-0.000000,8882.471304
2585.719705,306.438199,-0.000000,8882.471304
2585.720034,306.438199,-0.000000,8882.471304
2585.720363,153.219100,-0.000000,8808.450710
2585.720692,536.266849,-148.041188,9548.656652
2585.721021,1532.190996,-1036.288319,9474.636058
2585.721350,1378.971896,-1036.288319,9474.636058
2585.721679,1685.410096,-592.164754,9400.615463
2585.722008,2374.896044,-1184.329507,9104.533087
2585.722337,2757.943793,296.082377,9104.533087
2585.722666,3600.648841,-0.000000,9104.533087
2585.722995,4443.353888,-0.000000,8438.347739
2585.723324,3524.039291,444.123565,8438.347739
2585.723653,3217.601092,740.205942,8364.327145
2585.723982,3294.210641,370.102971,8734.430116
2585.724311,3447.429741,-74.020594,9474.636058
2585.724640,2604.724693,-666.185348,9104.533087
2585.724969,1302.362347,-740.205942,9918.759623
2585.725298,1838.629195,-2072.576638,9992.780217
2585.725627,2374.896044,-1184.329507,9548.656652
2585.725956,1991.848295,-222.061783,9622.677246
2585.726285,2681.334243,-1998.556043,10140.821405
2585.726614,3600.648841,-296.082377,9474.636058
2585.726943,4443.353888,666.185348,9326.594869
2585.727272,5362.668486,592.164754,7402.059420
2585.727601,4366.744339,1332.370696,8512.368333
2585.727930,5592.497135,1110.308913,9104.533087
2585.728259,4443.353888,1184.329507,7031.956449
2585.728588,4443.353888,444.123565,8660.409521
2585.728917,3753.867940,-0.000000,8660.409521
2585.729246,2681.334243,518.144159,9178.553681
2585.729575,1532.190996,-666.185348,9770.718434
2585.729904,1532.190996,-814.226536,9326.594869
2585.730233,1378.971896,-1036.288319,9992.780217
2585.730562,459.657299,-1480.411884,9696.697840
2585.730891,1532.190996,-370.102971,9844.739029
2585.731220,1838.629195,-1184.329507,10140.821405
2585.731549,2757.943793,222.061783,7624.121203
2585.731878,3524.039291,296.082377,9844.739029
2585.732206,3830.477490,1406.391290,8142.265362
2585.732535,4136.915689,740.205942,7994.224174
2585.732864,4979.620737,1184.329507,8290.306550
2585.733193,4519.963438,222.061783,8660.409521
2585.733522,3677.258390,-0.000000,8882.471304
2585.733851,3217.601092,-1258.350101,9400.615463
2585.734180,2987.772442,-1184.329507,9474.636058
2585.734509,2528.115143,-1776.494261,10288.862594
2585.734838,2374.896044,-1702.473667,9770.718434
2585.735167,2145.067394,-1480.411884,10362.883188
2585.735496,2834.553343,-592.164754,9770.718434
2585.735825,3140.991542,-0.000000,9400.615463
2585.736154,3370.820191,666.185348,8438.347739
2585.736483,4060.306139,1480.411884,8438.347739
2585.736812,4366.744339,2294.638420,8068.244768
2585.737141,4443.353888,2442.679609,7179.997637
2585.737470,4213.525239,1702.473667,7994.224174
2585.737799,3677.258390,1258.350101,8364.327145
2585.738128,2911.162892,-148.041188,8290.306550
2585.738457,2528.115143,-1184.329507,9622.677246
2585.738786,2374.896044,-2368.659014,9992.780217
2585.739115,2068.457845,-2442.679609,10658.965565
2585.739444,1915.238745,-3034.844362,10955.047942
2585.739773,3217.601092,-2442.679609,10584.944971
2585.740102,3907.087040,-1406.391290,10584.944971
2585.740431,4903.011187,-444.123565,9474.636058
2585.740760,5515.887586,962.267725,8512.368333
2585.741089,6052.154434,2368.659014,8290.306550
2585.741418,5515.887586,2886.803174,7624.121203
2585.741747,4903.011187,3701.029710,7105.977043
2585.742076,4290.134789,3923.091493,6439.791695
2585.742405,4213.525239,2146.597232,7031.956449
2585.742734,2374.896044,592.164754,7846.182985
2585.743063,459.657299,-2590.720797,10066.800811
2585.743392,-842.705048,-3775.050304,10288.862594
2585.743721,-1149.143247,-5107.421000,11695.253884
2585.744050,-1149.143247,-4589.276840,10584.944971
2585.744379,-536.266849,-2146.597232,11029.068536
2585.744708,995.924147,-1776.494261,10807.006753
2585.745037,995.924147,-74.020594,10436.903782
2585.745366,3907.087040,444.123565,11251.130318
2585.745695,6511.811733,2072.576638,7846.182985
2585.746024,7967.393179,1850.514855,8290.306550
2585.746353,6052.154434,962.267725,7402.059420
2585.746682,6281.983084,2368.659014,6661.853478
2585.747011,6435.202183,2960.823768,7328.038826
2585.747340,5515.887586,1998.556043,6143.709319
2585.747669,4749.792088,2960.823768,5033.400406
2585.747998,4903.011187,2738.761985,5995.668130
2585.748327,4290.134789,-444.123565,7328.038826
2585.748656,0.000000,-4959.379811,10732.986159
2585.748985,-612.876398,-7994.224174,12879.583391
2585.749314,-2068.457845,-3775.050304,12065.356855
2585.749643,-1072.533697,-8438.347739,14582.057057
2585.749972,-2145.067394,-2146.597232,9770.718434
2585.750301,1149.143247,-296.082377,12805.562797
2585.750630,2528.115143,962.267725,11251.130318
2585.750959,5056.230287,2960.823768,9252.574275
2585.751288,7890.783629,1554.432478,8808.450710
2585.751617,7737.564530,2664.741391,8290.306550
2585.751945,7584.345430,3627.009116,6365.771101
2585.752274,6281.983084,4071.132681,4219.173869
2585.752603,6281.983084,1184.329507,6365.771101
2585.752932,5362.668486,3627.009116,4515.256246
2585.753261,5669.106685,2516.700203,6069.688724
2585.753590,4213.525239,2738.761985,4515.256246
2585.753919,0.000000,-2146.597232,7772.162391
2585.754248,-2834.553343,-9178.553681,13619.789333
2585.754577,-3064.381992,-1702.473667,9474.636058
2585.754906,-3600.648841,-3034.844362,11917.315666
2585.755235,-5592.497135,-4589.276840,10066.800811
2585.755564,-5362.668486,1110.308913,13767.830521
2585.755893,-1072.533697,-1776.494261,13545.768739
2585.756222,-1838.629195,2072.576638,9696.697840
2585.756551,306.438199,444.123565,9030.512492
2585.756880,1149.143247,1258.350101,7254.018232
2585.757209,995.924147,1850.514855,12509.480420
2585.757538,2834.553343,222.061783,6217.729913
2585.757867,5439.278036,666.185348,4367.215058
2585.758196,6052.154434,-148.041188,5551.544565
2585.758525,4596.572988,666.185348,3108.864956
2585.758854,3907.087040,1110.308913,9918.759623
2585.759183,-1225.752797,518.144159,7402.059420
2585.759512,459.657299,-3330.926739,11251.130318
2585.759841,-995.924147,-2072.576638,12213.398043
2585.760170,-1991.848295,-0.000000,7624.121203
2585.760499,-1685.410096,-2368.659014,13545.768739
2585.760828,-1225.752797,-592.164754,10288.862594
2585.761157,76.609550,-0.000000,11325.150913
2585.761486,-383.047749,-444.123565,10807.006753
2585.761815,-306.438199,1850.514855,9918.759623
2585.762144,76.609550,-1036.288319,11325.150913
2585.762473,1225.752797,-666.185348,9844.739029
2585.762802,459.657299,3330.926739,5329.482782
2585.763131,2528.115143,444.123565,6809.894666
2585.763460,2604.724693,1184.329507,6217.729913
2585.763789,1685.410096,2146.597232,7105.977043
2585.764118,-995.924147,-148.041188,7254.018232
2585.764447,-1915.238745,-1998.556043,9770.718434
2585.764776,-1838.629195,-4145.153275,10807.006753
2585.765105,-1915.238745,-1554.432478,9992.780217
2585.765434,-3140.991542,-148.041188,9030.512492
2585.765763,-2681.334243,-1036.288319,11177.109724
2585.766092,-306.438199,-666.185348,12287.418637
2585.766421,-306.438199,888.247130,9696.697840
2585.766750,-766.095498,518.144159,8956.491898
2585.767079,-1915.238745,518.144159,9178.553681
2585.767408,-842.705048,-1776.494261,11843.295072
2585.767738,842.705048,888.247130,8068.244768
2585.768067,1991.848295,1702.473667,6587.832884
2585.768396,1149.143247,-1258.350101,7476.080014
2585.768725,383.047749,-370.102971,7328.038826
2585.769054,612.876398,-0.000000,8882.471304
2585.769383,0.000000,-2072.576638,7328.038826
2585.769712,919.314598,-2072.576638,9178.553681
2585.770041,0.000000,-1554.432478,10584.944971
2585.770370,76.609550,-1258.350101,9696.697840
2585.770699,229.828649,-1258.350101,10288.862594
2585.771029,1838.629195,-296.082377,9178.553681
2585.771358,2298.286494,962.267725,9104.533087
2585.771687,2145.067394,1998.556043,7994.224174
2585.772016,1838.629195,2368.659014,8142.265362
2585.772345,2221.676944,1406.391290,8734.430116
2585.772674,1838.629195,1036.288319,9178.553681
2585.773003,766.095498,296.082377,8290.306550
2585.773332,-76.609550,-1776.494261,9474.636058
2585.773661,-612.876398,-1554.432478,9622.677246
2585.773991,-612.876398,-1850.514855,9696.697840
2585.774320,-383.047749,-1998.556043,8956.491898
2585.774649,153.219100,-2442.679609,9474.636058
2585.774978,612.876398,-1628.453072,10510.924376
2585.775307,1532.190996,-148.041188,10140.821405
2585.775636,1455.581446,666.185348,8586.388927
2585.775965,1991.848295,1036.288319,8734.430116
2585.776294,2145.067394,2516.700203,8364.327145
2585.776623,1991.848295,2886.803174,8216.285956
2585.776953,2298.286494,1924.535449,8438.347739
2585.777282,1991.848295,148.041188,8216.285956
2585.777611,1149.143247,-222.061783,9326.594869
2585.777940,229.828649,-518.144159,8882.471304
2585.778269,-842.705048,-1480.411884,9622.677246
2585.778598,-842.705048,-1110.308913,8956.491898
2585.778927,0.000000,-1406.391290,9104.533087
2585.779256,-229.828649,-1480.411884,9030.512492
2585.779585,-459.657299,-1036.288319,9770.718434
2585.779914,-229.828649,-74.020594,9474.636058
2585.780244,0.000000,-0.000000,8956.491898
2585.780573,-306.438199,1776.494261,9548.656652
2585.780902,-919.314598,1184.329507,9252.574275
2585.781231,-689.485948,740.205942,9400.615463
2585.781560,-919.314598,-0.000000,9918.759623
2585.781889,-383.047749,-296.082377,8660.409521
2585.782218,-383.047749,-592.164754,9474.636058
2585.782547,0.000000,-814.226536,9400.615463
2585.782876,-383.047749,-666.185348,9104.533087
2585.783206,-536.266849,-1184.329507,9474.636058
2585.783535,0.000000,-888.247130,9178.553681
2585.783864,153.219100,-666.185348,9104.533087
2585.784193,153.219100,-444.123565,8290.306550
2585.784522,0.000000,-296.082377,8290.306550
2585.784851,-766.095498,740.205942,9030.512492
2585.785180,-383.047749,592.164754,8882.471304
2585.785509,-459.657299,-0.000000,9030.512492
2585.785838,-766.095498,-222.061783,9252.574275
2585.786167,-689.485948,-148.041188,9474.636058
2585.786497,-536.266849,-444.123565,9030.512492
2585.786826,-842.705048,-296.082377,8882.471304
2585.787155,0.000000,-370.102971,8956.491898
2585.787484,383.047749,-444.123565,8512.368333
2585.787813,383.047749,-592.164754,9030.512492
2585.788142,0.000000,-518.144159,8956.491898
2585.788471,229.828649,-962.267725,8586.388927
2585.788800,383.047749,370.102971,8142.265362
2585.789129,536.266849,888.247130,8882.471304
2585.789459,383.047749,592.164754,8142.265362
2585.789788,76.609550,-222.061783,9030.512492
2585.790117,76.609550,-370.102971,9400.615463
2585.790446,306.438199,-222.061783,8438.347739
2585.790775,0.000000,-1184.329507,9252.574275
2585.791104,689.485948,-1184.329507,9770.718434
2585.791433,919.314598,-518.144159,9474.636058
2585.791762,1685.410096,-814.226536,9104.533087
2585.792091,2145.067394,-518.144159,8808.450710
2585.792421,2834.553343,-0.000000,9252.574275
2585.792750,2068.457845,592.164754,8142.265362
2585.793079,2681.334243,814.226536,8290.306550
2585.793408,2068.457845,666.185348,8882.471304
2585.793737,1455.581446,-0.000000,8956.491898
2585.794066,1455.581446,-222.061783,9918.759623
2585.794395,229.828649,-888.247130,10066.800811
2585.794724,0.000000,-962.267725,9548.656652
2585.795053,153.219100,-814.226536,9770.718434
2585.795382,0.000000,-814.226536,9844.739029
2585.795712,766.095498,-0.000000,10140.821405
2585.796041,689.485948,-518.144159,9770.718434
2585.796370,1838.629195,-0.000000,8956.491898
2585.796699,2221.676944,666.185348,8216.285956
2585.797028,2068.457845,962.267725,7994.224174
2585.797357,1455.581446,1554.432478,8068.244768
2585.797686,1608.800546,1554.432478,8290.306550
2585.798015,842.705048,740.205942,8216.285956
2585.798344,306.438199,-444.123565,9474.636058
2585.798674,-612.876398,-1110.308913,9696.697840
2585.799003,-1072.533697,-1554.432478,9326.594869
2585.799332,-1149.143247,-1184.329507,9326.594869
2585.799661,-919.314598,-740.205942,9178.553681
2585.799990,0.000000,-666.185348,9474.636058
2585.800319,229.828649,-666.185348,9326.594869
2585.800648,76.609550,-666.185348,9030.512492
2585.800977,-153.219100,-592.164754,9104.533087
2585.801306,0.000000,-518.144159,8660.409521
2585.801635,0.000000,518.144159,8290.306550
2585.801965,-229.828649,888.247130,8216.285956
2585.802294,-383.047749,296.082377,8512.368333
2585.802623,-459.657299,-148.041188,9104.533087
2585.802952,-383.047749,-444.123565,9474.636058
2585.803281,-459.657299,-1110.308913,9252.574275
2585.803610,-1072.533697,-814.226536,9178.553681
2585.803939,-919.314598,-444.123565,9474.636058
2585.804268,-459.657299,-888.247130,9474.636058
2585.804597,0.000000,-666.185348,9326.594869
2585.804927,0.000000,-1036.288319,8956.491898
2585.805256,-153.219100,-814.226536,9326.594869
2585.805585,-842.705048,-0.000000,7994.224174
2585.805914,-536.266849,148.041188,9252.574275
2585.806243,-919.314598,-0.000000,8734.430116
2585.806572,-689.485948,370.102971,9474.636058
2585.806901,-306.438199,-444.123565,9326.594869
2585.807230,-536.266849,-296.082377,8956.491898
2585.807559,0.000000,-592.164754,9622.677246
2585.807888,-229.828649,-592.164754,9474.636058
2585.808218,0.000000,-444.123565,9400.615463
2585.808547,229.828649,-814.226536,9844.739029
2585.808876,766.095498,-444.123565,9474.636058
2585.809205,919.314598,-666.185348,9844.739029
2585.809534,995.924147,-592.164754,8882.471304
2585.809863,1455.581446,666.185348,8438.347739
2585.810192,2374.896044,518.144159,8438.347739
2585.810521,2068.457845,1776.494261,7624.121203
2585.810850,1762.019645,1184.329507,8956.491898
2585.811180,1378.971896,148.041188,9252.574275
2585.811509,995.924147,-0.000000,8660.409521
2585.811838,383.047749,-666.185348,9474.636058
2585.812167,383.047749,-888.247130,9622.677246
2585.812496,536.266849,-1110.308913,9992.780217
2585.812825,612.876398,-962.267725,9770.718434
2585.813154,1838.629195,-814.226536,9252.574275
2585.813483,2068.457845,-666.185348,9326.594869
2585.813812,1915.238745,222.061783,8882.471304
2585.814142,2221.676944,148.041188,8364.327145
2585.814471,2451.505594,1628.453072,8660.409521
2585.814800,2145.067394,1554.432478,8512.368333
2585.815129,1915.238745,814.226536,8438.347739
2585.815458,995.924147,-0.000000,9326.594869
2585.815787,229.828649,-518.144159,9548.656652
2585.816116,76.609550,-1258.350101,9844.739029
2585.816445,-612.876398,-1480.411884,9770.718434
2585.816774,-306.438199,-962.267725,10140.821405
2585.817103,306.438199,-1258.350101,9770.718434
2585.817433,612.876398,-222.061783,9252.574275
2585.817762,1378.971896,-148.041188,9326.594869
2585.818091,1991.848295,296.082377,8364.327145
2585.818420,1762.019645,1036.288319,7994.224174
2585.818749,2451.505594,1480.411884,7772.162391
2585.819078,1991.848295,1332.370696,8216.285956
2585.819407,919.314598,-0.000000,8660.409521
2585.819736,229.828649,-592.164754,9030.512492
2585.820065,-229.828649,-518.144159,9030.512492
2585.820395,-1149.143247,-1184.329507,9030.512492
2585.820724,-1532.190996,-1702.473667,9326.594869
2585.821053,-1378.971896,-592.164754,9474.636058
2585.821382,-842.705048,-1258.350101,9326.594869
2585.821711,-229.828649,-1036.288319,8808.450710
2585.822040,-536.266849,-814.226536,8956.491898
2585.822369,-919.314598,-592.164754,8956.491898
2585.822698,-689.485948,-222.061783,8956.491898
2585.823027,-459.657299,444.123565,8512.368333
2585.823356,-306.438199,592.164754,8364.327145
2585.823686,-306.438199,666.185348,8882.471304
2585.824015,-919.314598,-74.020594,9400.615463
2585.824344,-383.047749,148.041188,9548.656652
2585.824673,-536.266849,-370.102971,9104.533087
2585.825002,-766.095498,-444.123565,9252.574275
2585.825331,-536.266849,-370.102971,9178.553681
2585.825660,-229.828649,-1258.350101,9474.636058
2585.825989,229.828649,-666.185348,9400.615463
2585.826318,842.705048,-888.247130,8882.471304
2585.826648,459.657299,-74.020594,9030.512492
2585.826977,0.000000,370.102971,8438.347739
2585.827306,76.609550,962.267725,8882.471304
2585.827635,-612.876398,592.164754,8586.388927
2585.827964,-1072.533697,-0.000000,9474.636058
2585.828293,-306.438199,-1184.329507,10288.862594
2585.828622,-766.095498,-666.185348,9400.615463
2585.828951,-689.485948,-592.164754,9474.636058
2585.829280,-612.876398,-666.185348,9770.718434
2585.829610,0.000000,-814.226536,9696.697840
2585.829939,1072.533697,-222.061783,9474.636058
2585.830268,2068.457845,-518.144159,8956.491898
2585.830597,2068.457845,-0.000000,8142.265362
2585.830926,2221.676944,888.247130,8586.388927
2585.831255,2068.457845,1554.432478,7698.141797
2585.831584,1378.971896,1776.494261,8216.285956
2585.831913,919.314598,1184.329507,8734.430116
2585.832242,459.657299,148.041188,9030.512492
2585.832571,-536.266849,-740.205942,9548.656652
2585.832901,-383.047749,-1258.350101,9844.739029
2585.833230,-153.219100,-1406.391290,9918.759623
2585.833559,-919.314598,-1036.288319,10436.903782
2585.833888,306.438199,-666.185348,9992.780217
2585.834217,1225.752797,-222.061783,9844.739029
2585.834546,2221.676944,-222.061783,9178.553681
2585.834875,3140.991542,592.164754,8216.285956
2585.835204,3600.648841,1036.288319,7402.059420
2585.835533,3677.258390,1332.370696,7624.121203
2585.835863,2911.162892,1776.494261,7994.224174
2585.836192,2145.067394,1628.453072,8512.368333
2585.836521,1225.752797,444.123565,8660.409521
2585.836850,229.828649,-740.205942,9474.636058
2585.837179,-306.438199,-1406.391290,10140.821405
2585.837508,-689.485948,-1332.370696,9696.697840
2585.837837,-1608.800546,-1406.391290,10214.842000
2585.838166,-1149.143247,-1110.308913,9696.697840
2585.838495,0.000000,-666.185348,9770.718434
2585.838824,153.219100,-740.205942,9474.636058
2585.839154,689.485948,-370.102971,8882.471304
2585.839483,919.314598,444.123565,8586.388927
2585.839812,1532.190996,1184.329507,7920.203579
2585.840141,1532.190996,962.267725,7550.100608
2585.840470,766.095498,1184.329507,8808.450710
2585.840799,229.828649,592.164754,8882.471304
2585.841128,-536.266849,-444.123565,9178.553681
2585.841457,-1225.752797,-814.226536,9030.512492
2585.841786,-842.705048,-1628.453072,9474.636058
2585.842116,-1225.752797,-1258.350101,9474.636058
2585.842445,-1378.971896,-666.185348,9622.677246
2585.842774,-306.438199,-888.247130,9400.615463
2585.843103,-153.219100,-444.123565,8882.471304
2585.843432,0.000000,-0.000000,9104.533087
2585.843761,229.828649,296.082377,8438.347739
2585.844090,306.438199,666.185348,8068.244768
2585.844419,612.876398,740.205942,8216.285956
2585.844748,0.000000,666.185348,8438.347739
2585.845077,-383.047749,370.102971,9104.533087
2585.845407,-383.047749,-444.123565,8956.491898
2585.845736,-995.924147,-666.185348,8660.409521
2585.846065,-1455.581446,-1036.288319,9622.677246
2585.846394,-1378.971896,-1036.288319,9622.677246
2585.846723,-1302.362347,-1258.350101,9844.739029
2585.847052,-1225.752797,-1480.411884,9326.594869
2585.847381,0.000000,-296.082377,9770.718434
2585.847710,-689.485948,-1554.432478,9252.574275
2585.848039,-306.438199,666.185348,8734.430116
2585.848369,-459.657299,-0.000000,8734.430116
2585.848698,-919.314598,962.267725,8882.471304
2585.849027,-229.828649,222.061783,9252.574275
2585.849356,-536.266849,-0.000000,9548.656652
2585.849685,-612.876398,-296.082377,9474.636058
2585.850014,-306.438199,-444.123565,9992.780217
2585.850343,-612.876398,-1184.329507,9548.656652
2585.850672,-229.828649,-888.247130,9548.656652
2585.851001,306.438199,-740.205942,9400.615463
2585.851331,1378.971896,-666.185348,9326.594869
2585.851660,2068.457845,-148.041188,8660.409521
2585.851989,2911.162892,-0.000000,8290.306550
2585.852318,2451.505594,740.205942,7920.203579
2585.852647,2528.115143,740.205942,7846.182985
2585.852976,1915.238745,1628.453072,8068.244768
2585.853305,1149.143247,518.144159,8660.409521
2585.853634,842.705048,-0.000000,9030.512492
2585.853963,459.657299,-592.164754,9696.697840
2585.854292,76.609550,-1184.329507,9992.780217
2585.854622,383.047749,-1850.514855,9474.636058
2585.854951,0.000000,-888.247130,9400.615463
2585.855280,842.705048,-370.102971,9326.594869
2585.855609,1838.629195,-592.164754,9030.512492
2585.855938,2528.115143,-222.061783,8142.265362
2585.856267,3140.991542,148.041188,7994.224174
2585.856596,2987.772442,296.082377,7994.224174
2585.856925,2068.457845,888.247130,7772.162391
2585.857254,1762.019645,592.164754,8808.450710
2585.857584,1302.362347,518.144159,8660.409521
2585.857913,459.657299,296.082377,9622.677246
2585.858242,229.828649,-74.020594,9622.677246
2585.858571,153.219100,-592.164754,9696.697840
2585.858900,-229.828649,-1406.391290,10066.800811
2585.859229,-459.657299,-444.123565,9030.512492
2585.859558,-306.438199,-1036.288319,10510.924376
2585.859887,459.657299,-1036.288319,10066.800811
2585.860216,1225.752797,-296.082377,9252.574275
2585.860545,995.924147,-296.082377,8956.491898
2585.860875,1378.971896,370.102971,8290.306550
2585.861204,1532.190996,1036.288319,9030.512492
2585.861533,995.924147,962.267725,8068.244768
2585.861862,612.876398,1332.370696,9104.533087
2585.862191,76.609550,-370.102971,9770.718434
2585.862520,-536.266849,-0.000000,9326.594869
2585.862849,-995.924147,-1036.288319,9474.636058
2585.863178,-1225.752797,-666.185348,9548.656652
2585.863507,-919.314598,-518.144159,9326.594869
2585.863837,-459.657299,-814.226536,9770.718434
2585.864166,-1149.143247,-814.226536,9252.574275
2585.864495,-766.095498,-370.102971,9326.594869
2585.864824,-689.485948,-518.144159,9104.533087
2585.865153,-995.924147,148.041188,8734.430116
2585.865482,-1072.533697,222.061783,8512.368333
2585.865811,-229.828649,666.185348,8216.285956
2585.866140,-919.314598,-666.185348,8808.450710
2585.866469,-919.314598,-592.164754,9252.574275
2585.866799,-995.924147,-222.061783,8512.368333
2585.867128,-1072.533697,-888.247130,8808.450710
2585.867457,-1072.533697,-518.144159,8882.471304
2585.867786,-383.047749,-74.020594,9252.574275
2585.868115,-229.828649,-666.185348,9252.574275
2585.868444,919.314598,-0.000000,9030.512492
2585.868773,1149.143247,-444.123565,9030.512492
2585.869101,1302.362347,444.123565,8068.244768
2585.869430,1149.143247,518.144159,7846.182985
2585.869759,919.314598,1184.329507,8586.388927
2585.870088,612.876398,814.226536,8734.430116
2585.870417,76.609550,518.144159,9252.574275
2585.870746,-536.266849,-592.164754,9474.636058
2585.871075,-766.095498,-1258.350101,9918.759623
2585.871404,-1149.143247,-1554.432478,9696.697840
2585.871733,-766.095498,-1184.329507,9474.636058
2585.872062,-612.876398,-1406.391290,9770.718434
2585.872391,229.828649,-962.267725,9400.615463
2585.872720,689.485948,-666.185348,8660.409521
2585.873049,2221.676944,-444.123565,8882.471304
2585.873378,2145.067394,222.061783,8216.285956
2585.873707,2145.067394,1554.432478,7698.141797
2585.874036,1838.629195,1702.473667,8512.368333
2585.874365,1685.410096,2072.576638,8142.265362
2585.874694,1302.362347,1036.288319,8808.450710
2585.875023,689.485948,-0.000000,9696.697840
2585.875352,229.828649,-814.226536,9252.574275
2585.875680,0.000000,-1998.556043,9992.780217
2585.876009,-383.047749,-1554.432478,10214.842000
2585.876338,-383.047749,-814.226536,9992.780217
2585.876667,536.266849,-888.247130,9622.677246
2585.876996,1608.800546,-814.226536,9252.574275
2585.877325,1838.629195,-148.041188,8956.491898
2585.877654,3524.039291,-0.000000,8142.265362
2585.877983,2987.772442,1184.329507,7624.121203
2585.878312,2757.943793,1554.432478,7550.100608
2585.878641,2528.115143,1554.432478,8438.347739
2585.878970,1149.143247,666.185348,8808.450710
2585.879299,766.095498,-0.000000,9326.594869
2585.879628,-229.828649,-814.226536,9474.636058
2585.879957,0.000000,-1776.494261,9474.636058
2585.880286,-229.828649,-1036.288319,10066.800811
2585.880615,-689.485948,-888.247130,9770.718434
2585.880944,-536.266849,-962.267725,9918.759623
2585.881273,153.219100,-1258.350101,9844.739029
2585.881602,842.705048,-518.144159,8882.471304
2585.881931,1608.800546,-222.061783,8438.347739
2585.882259,1072.533697,518.144159,8438.347739
2585.882588,995.924147,518.144159,8512.368333
2585.882917,842.705048,888.247130,8734.430116
2585.883246,0.000000,592.164754,8586.388927
2585.883575,-536.266849,-74.020594,9548.656652
2585.883904,-766.095498,-666.185348,9474.636058
2585.884233,-842.705048,-592.164754,9326.594869
2585.884562,-1302.362347,-222.061783,9400.615463
2585.884891,-1072.533697,-370.102971,9918.759623
2585.885220,-383.047749,-666.185348,9474.636058
2585.885549,0.000000,-0.000000,8734.430116
2585.885878,229.828649,-444.123565,9104.533087
2585.886207,459.657299,-296.082377,8142.265362
2585.886536,459.657299,814.226536,7994.224174
2585.886865,689.485948,888.247130,7920.203579
2585.887194,229.828649,592.164754,8216.285956
2585.887523,-153.219100,-0.000000,8956.491898
2585.887852,-842.705048,-222.061783,9326.594869
2585.888181,-612.876398,-518.144159,8882.471304
2585.888510,-919.314598,-592.164754,8956.491898
2585.888838,-612.876398,-0.000000,9622.677246
2585.889167,-612.876398,-592.164754,9770.718434
2585.889496,-689.485948,-814.226536,9326.594869
2585.889825,-153.219100,-1110.308913,9696.697840
2585.890154,-306.438199,-592.164754,9178.553681
2585.890483,-612.876398,-518.144159,9474.636058
2585.890812,-383.047749,-0.000000,8734.430116
2585.891141,76.609550,296.082377,9030.512492
2585.891470,153.219100,740.205942,8586.388927
2585.891799,0.000000,740.205942,9252.574275
2585.892128,0.000000,-0.000000,9474.636058
2585.892457,-229.828649,-518.144159,8734.430116
2585.892786,-153.219100,-888.247130,9178.553681
2585.893115,-153.219100,-1110.308913,9474.636058
2585.893444,-153.219100,-740.205942,9622.677246
2585.893773,612.876398,-740.205942,9696.697840
2585.894102,1455.581446,-370.102971,9178.553681
2585.894431,2298.286494,-444.123565,9474.636058
2585.894760,2298.286494,370.102971,8512.368333
2585.895089,1762.019645,1110.308913,8808.450710
2585.895417,1762.019645,1480.411884,8808.450710
2585.895746,1378.971896,1110.308913,8808.450710
2585.896075,1225.752797,518.144159,9326.594869
2585.896404,842.705048,-592.164754,9696.697840
2585.896733,536.266849,-592.164754,9548.656652
2585.897062,0.000000,-962.267725,9770.718434
2585.897391,459.657299,-370.102971,9474.636058
2585.897720,612.876398,-518.144159,9474.636058
2585.898049,1302.362347,-148.041188,9030.512492
2585.898378,1915.238745,-518.144159,9178.553681
2585.898707,1608.800546,370.102971,7846.182985
2585.899036,1072.533697,296.082377,8956.491898
2585.899365,995.924147,222.061783,9622.677246
2585.899694,229.828649,814.226536,9400.615463
2585.900023,919.314598,222.061783,8956.491898
2585.900352,-689.485948,-0.000000,8290.306550
2585.900681,0.000000,-0.000000,10288.862594
2585.901010,-689.485948,-444.123565,9918.759623
2585.901339,-306.438199,-222.061783,9178.553681
2585.901668,-612.876398,-1184.329507,9400.615463
2585.901996,76.609550,-814.226536,9252.574275
2585.902325,306.438199,-740.205942,9400.615463
2585.902654,1302.362347,-1332.370696,8956.491898
2585.902983,1225.752797,-0.000000,8216.285956
2585.903312,1455.581446,-148.041188,8142.265362
2585.903641,1608.800546,-0.000000,8290.306550
2585.903970,1455.581446,1184.329507,7994.224174
2585.904299,766.095498,518.144159,9104.533087
2585.904628,229.828649,296.082377,8808.450710
2585.904957,0.000000,-666.185348,9548.656652
2585.905286,-766.095498,-814.226536,9400.615463
2585.905615,-1072.533697,-1184.329507,9844.739029
2585.905944,-995.924147,-888.247130,9474.636058
2585.906273,-612.876398,-1110.308913,9548.656652
2585.906602,-229.828649,-666.185348,9252.574275
2585.906931,-306.438199,-592.164754,9252.574275
2585.907260,-383.047749,-666.185348,9474.636058
2585.907589,-536.266849,-592.164754,8882.471304
2585.907918,76.609550,592.164754,8734.430116
2585.908247,153.219100,1110.308913,8290.306550
2585.908575,306.438199,666.185348,8216.285956
2585.908904,76.609550,370.102971,8734.430116
2585.909233,0.000000,-0.000000,8512.368333
2585.909562,-306.438199,-370.102971,8438.347739
2585.909891,-612.876398,-740.205942,8512.368333
2585.910220,-689.485948,-518.144159,9178.553681
2585.910549,-306.438199,-666.185348,9622.677246
2585.910878,-383.047749,-888.247130,9104.533087
2585.911207,-459.657299,-1184.329507,9622.677246
2585.911536,0.000000,-296.082377,9400.615463
2585.911865,0.000000,-0.000000,8956.491898
2585.912194,0.000000,518.144159,9030.512492
2585.912523,76.609550,444.123565,8808.450710
2585.912852,-306.438199,-0.000000,9104.533087
2585.913181,76.609550,-0.000000,9548.656652
2585.913510,229.828649,-518.144159,9474.636058
2585.913839,-383.047749,-74.020594,9326.594869
2585.914168,153.219100,-888.247130,9252.574275
2585.914497,-153.219100,-888.247130,9474.636058
2585.914826,229.828649,-666.185348,9770.718434
2585.915154,1455.581446,-1406.391290,9474.636058
2585.915483,1302.362347,-0.000000,9474.636058
2585.915812,1378.971896,-0.000000,9400.615463
2585.916141,1455.581446,814.226536,8586.388927
2585.916470,1072.533697,1036.288319,8586.388927
2585.916799,919.314598,1776.494261,8808.450710
2585.917128,995.924147,814.226536,9030.512492
2585.917457,383.047749,222.061783,9918.759623
2585.917786,0.000000,-518.144159,9622.677246
2585.918115,0.000000,-1036.288319,9696.697840
2585.918444,-306.438199,-1258.350101,9696.697840
2585.918773,-153.219100,-888.247130,9548.656652
2585.919102,536.266849,-666.185348,9622.677246
2585.919431,1455.581446,-666.185348,9030.512492
2585.919760,2451.505594,-444.123565,8808.450710
2585.920089,2374.896044,518.144159,7994.224174
2585.920418,2911.162892,814.226536,7920.203579
2585.920747,2911.162892,1480.411884,7772.162391
2585.921076,2451.505594,1776.494261,7994.224174
2585.921405,2145.067394,962.267725,8438.347739
2585.921733,1762.019645,518.144159,8882.471304
2585.922062,689.485948,-518.144159,9178.553681
2585.922391,229.828649,-1702.473667,9030.512492
2585.922720,-306.438199,-1554.432478,9400.615463
2585.923049,-612.876398,-1110.308913,9474.636058
2585.923378,-153.219100,-1110.308913,9548.656652
2585.923707,0.000000,-1332.370696,9178.553681
2585.924036,612.876398,-666.185348,9104.533087
2585.924365,612.876398,-296.082377,9104.533087
2585.924694,842.705048,-0.000000,8068.244768
2585.925023,1072.533697,444.123565,8660.409521
2585.925352,689.485948,1258.350101,8586.388927
2585.925681,153.219100,740.205942,8808.450710
2585.926010,0.000000,148.041188,9548.656652
2585.926339,-536.266849,-444.123565,9474.636058
2585.926668,-766.095498,-740.205942,9696.697840
2585.926997,-842.705048,-1184.329507,9326.594869
2585.927326,-766.095498,-814.226536,9844.739029
2585.927655,-153.219100,-814.226536,10362.883188
2585.927984,76.609550,-962.267725,8956.491898
2585.928312,76.609550,-518.144159,9622.677246
2585.928641,1225.752797,-222.061783,8364.327145
2585.928970,306.438199,666.185348,8290.306550
2585.929299,229.828649,888.247130,8586.388927
2585.929628,842.705048,370.102971,8512.368333
2585.929957,153.219100,666.185348,9252.574275
2585.930286,-306.438199,-0.000000,9178.553681
2585.930615,0.000000,-296.082377,9178.553681
2585.930944,-1225.752797,-814.226536,9252.574275
2585.931273,-766.095498,-518.144159,9252.574275
2585.931602,-1225.752797,-740.205942,9474.636058
2585.931931,-229.828649,-518.144159,9474.636058
2585.932260,459.657299,-740.205942,9030.512492
2585.932589,383.047749,-74.020594,8734.430116
2585.932918,0.000000,-0.000000,8068.244768
2585.933247,229.828649,444.123565,8216.285956
2585.933576,229.828649,592.164754,8734.430116
2585.933905,306.438199,592.164754,8438.347739
2585.934234,0.000000,-296.082377,8882.471304
2585.934563,-536.266849,-296.082377,9400.615463
2585.934891,-919.314598,-740.205942,9474.636058
2585.935220,-1225.752797,-1258.350101,9178.553681
2585.935549,-1225.752797,-1332.370696,9770.718434
2585.935878,-612.876398,-814.226536,9474.636058
2585.936207,-76.609550,-518.144159,9474.636058
2585.936536,919.314598,-1406.391290,9474.636058
2585.936865,1455.581446,-592.164754,8512.368333
2585.937194,1991.848295,-74.020594,8142.265362
2585.937523,2145.067394,592.164754,7772.162391
2585.937852,1991.848295,1628.453072,8216.285956
2585.938181,1991.848295,1184.329507,8068.244768
2585.938510,1455.581446,296.082377,8882.471304
2585.938839,689.485948,-666.185348,9918.759623
2585.939168,229.828649,-740.205942,9400.615463
2585.939497,153.219100,-962.267725,9474.636058
2585.939826,-229.828649,-1036.288319,9918.759623
2585.940155,0.000000,-740.205942,9918.759623
2585.940484,766.095498,-888.247130,9548.656652
2585.940813,1532.190996,-592.164754,8882.471304
2585.941142,2451.505594,-370.102971,8882.471304
2585.941470,2451.505594,148.041188,8142.265362
2585.941799,2451.505594,1036.288319,8512.368333
2585.942128,1915.238745,1702.473667,7994.224174
2585.942457,1149.143247,1480.411884,8364.327145
2585.942786,919.314598,444.123565,9400.615463
2585.943115,76.609550,-74.020594,9326.594869
2585.943444,229.828649,-814.226536,9400.615463
2585.943773,306.438199,-1184.329507,9178.553681
2585.944102,-995.924147,-962.267725,9622.677246
2585.944431,-306.438199,-1184.329507,9992.780217
2585.944760,612.876398,-518.144159,9400.615463
2585.945089,1225.752797,-592.164754,8734.430116
2585.945418,1455.581446,-148.041188,8734.430116
2585.945747,1685.410096,-0.000000,8364.327145
2585.946076,2068.457845,222.061783,7994.224174
2585.946405,1608.800546,666.185348,7994.224174
2585.946734,919.314598,592.164754,8734.430116
2585.947063,153.219100,-296.082377,9326.594869
2585.947392,-383.047749,-740.205942,9474.636058
2585.947721,-995.924147,-740.205942,9474.636058
2585.948049,-1072.533697,-1776.494261,9622.677246
2585.948378,-1225.752797,-1036.288319,9770.718434
2585.948707,-612.876398,-1332.370696,9918.759623
2585.949036,0.000000,-888.247130,9918.759623
2585.949365,459.657299,-444.123565,9326.594869
2585.949694,919.314598,-0.000000,8882.471304
2585.950023,995.924147,444.123565,8512.368333
2585.950352,1072.533697,888.247130,7772.162391
2585.950681,536.266849,1258.350101,8142.265362
2585.951010,306.438199,962.267725,8660.409521
2585.951339,0.000000,222.061783,8808.450710
2585.951668,-919.314598,-444.123565,9326.594869
2585.951997,-1302.362347,-740.205942,9474.636058
2585.952326,-1225.752797,-1332.370696,9326.594869
2585.952655,-1608.800546,-814.226536,9548.656652
2585.952984,-1072.533697,-814.226536,9770.718434
2585.953313,-459.657299,-888.247130,9622.677246
2585.953642,0.000000,-0.000000,9400.615463
2585.953971,-383.047749,-296.082377,9474.636058
2585.954300,0.000000,-0.000000,8956.491898
2585.954629,229.828649,814.226536,8364.327145
2585.954957,995.924147,1036.288319,8364.327145
2585.955286,153.219100,740.205942,8586.388927
2585.955615,229.828649,666.185348,9400.615463
2585.955944,229.828649,-444.123565,9696.697840
2585.956273,-153.219100,-518.144159,8882.471304
2585.956602,-612.876398,-592.164754,9104.533087
2585.956931,-919.314598,-888.247130,9326.594869
2585.957260,0.000000,-592.164754,9548.656652
2585.957589,306.438199,-1258.350101,9474.636058
2585.957918,612.876398,-888.247130,9030.512492
2585.958247,1149.143247,-814.226536,8956.491898
2585.958576,919.314598,148.041188,8734.430116
2585.958905,536.266849,740.205942,8216.285956
2585.959234,842.705048,1184.329507,8586.388927
2585.959563,689.485948,1184.329507,8882.471304
2585.959892,1072.533697,-0.000000,10140.821405
2585.960221,-229.828649,-592.164754,10140.821405
2585.960550,-842.705048,-1924.535449,9326.594869
2585.960879,0.000000,-1184.329507,10288.862594
2585.961208,-306.438199,-1184.329507,10140.821405
2585.961536,306.438199,-888.247130,8882.471304
2585.961865,1149.143247,-666.185348,9104.533087
2585.962194,1838.629195,-148.041188,8586.388927
2585.962523,2528.115143,-74.020594,8216.285956
2585.962852,2451.505594,592.164754,8216.285956
2585.963181,2298.286494,740.205942,8068.244768
2585.963510,1991.848295,1702.473667,8290.306550
2585.963839,1378.971896,740.205942,8734.430116
2585.964168,1532.190996,-148.041188,9400.615463
2585.964497,536.266849,-296.082377,9622.677246
2585.964826,459.657299,-814.226536,9474.636058
2585.965155,-306.438199,-888.247130,9474.636058
2585.965484,-153.219100,-1036.288319,9696.697840
2585.965813,153.219100,-740.205942,9474.636058
2585.966142,995.924147,-962.267725,9326.594869
2585.966471,1378.971896,-666.185348,8882.471304
2585.966800,1685.410096,-370.102971,8734.430116
2585.967129,1915.238745,518.144159,8290.306550
2585.967458,1762.019645,1110.308913,8068.244768
2585.967788,1378.971896,962.267725,8364.327145
2585.968117,766.095498,518.144159,8808.450710
2585.968446,-383.047749,-0.000000,9252.574275
2585.968775,-612.876398,-592.164754,9104.533087
2585.969104,-1072.533697,-888.247130,9548.656652
2585.969433,-1532.190996,-1554.432478,10362.883188
2585.969763,-1072.533697,-1184.329507,9844.739029
2585.970092,-995.924147,-1184.329507,10140.821405
2585.970421,0.000000,-1036.288319,9474.636058
2585.970750,383.047749,-296.082377,9030.512492
2585.971079,766.095498,-0.000000,8734.430116
2585.971408,689.485948,222.061783,8290.306550
2585.971738,1302.362347,666.185348,7846.182985
2585.972067,536.266849,1406.391290,8216.285956
2585.972396,689.485948,962.267725,8364.327145
2585.972725,0.000000,-0.000000,9178.553681
2585.973054,-842.705048,-518.144159,9326.594869
2585.973383,-1608.800546,-888.247130,9178.553681
2585.973712,-1302.362347,-814.226536,9474.636058
2585.974042,-1072.533697,-888.247130,9918.759623
2585.974371,-842.705048,-518.144159,9400.615463
2585.974700,-766.095498,-518.144159,9548.656652
2585.975029,0.000000,-518.144159,9326.594869
2585.975358,766.095498,-74.020594,8586.388927
2585.975687,689.485948,888.247130,7920.203579
2585.976017,-76.609550,1332.370696,8068.244768
2585.976346,383.047749,1184.329507,8364.327145
2585.976675,0.000000,962.267725,8660.409521
2585.977004,-153.219100,370.102971,9104.533087
2585.977333,-842.705048,-148.041188,9104.533087
2585.977662,-1072.533697,-1036.288319,10658.965565
2585.977992,-1685.410096,-1702.473667,10436.903782
2585.978321,-1608.800546,-1406.391290,10584.944971
2585.978650,-383.047749,-962.267725,10214.842000
2585.978979,-383.047749,-1258.350101,8142.265362
2585.979308,1455.581446,-296.082377,9400.615463
2585.979637,1762.019645,222.061783,9178.553681
2585.979967,1072.533697,518.144159,7846.182985
2585.980296,2068.457845,1184.329507,8364.327145
2585.980625,1685.410096,1258.350101,8142.265362
2585.980954,1455.581446,1184.329507,8216.285956
2585.981283,1608.800546,-0.000000,9844.739029
2585.981612,383.047749,-740.205942,9252.574275
2585.981942,153.219100,-740.205942,9474.636058
2585.982271,153.219100,-1332.370696,9770.718434
2585.982600,-383.047749,-1110.308913,9696.697840
2585.982929,612.876398,-1406.391290,10066.800811
2585.983258,459.657299,-592.164754,9548.656652
2585.983587,1915.238745,-296.082377,8808.450710
2585.983917,2145.067394,148.041188,8586.388927
2585.984246,2451.505594,814.226536,7920.203579
2585.984575,1915.238745,2072.576638,7920.203579
2585.984904,1685.410096,1332.370696,8068.244768
2585.985233,1685.410096,888.247130,8586.388927
2585.985562,766.095498,-0.000000,9474.636058
2585.985891,0.000000,-222.061783,9770.718434
2585.986221,-689.485948,-1184.329507,9696.697840
2585.986550,-459.657299,-1850.514855,9770.718434
2585.986879,-306.438199,-740.205942,9474.636058
2585.987208,0.000000,-1110.308913,9400.615463
2585.987537,1149.143247,-814.226536,8882.471304
2585.987866,1838.629195,-444.123565,8660.409521
2585.988196,2604.724693,296.082377,7846.182985
2585.988525,2451.505594,592.164754,7698.141797
2585.988854,2068.457845,1258.350101,7624.121203
2585.989183,1455.581446,1406.391290,8142.265362
2585.989512,612.876398,740.205942,8734.430116
2585.989841,-153.219100,-370.102971,9104.533087
2585.990171,383.047749,-1184.329507,9696.697840
2585.990500,-1149.143247,-1258.350101,9622.677246
2585.990829,-1149.143247,-1258.350101,9770.718434
2585.991158,-1302.362347,-1036.288319,9770.718434
2585.991487,-536.266849,-740.205942,8882.471304
2585.991816,-459.657299,-1258.350101,9918.759623
2585.992146,76.609550,-1110.308913,9918.759623
2585.992475,383.047749,-296.082377,8734.430116
2585.992804,536.266849,-518.144159,8364.327145
2585.993133,76.609550,814.226536,7772.162391
2585.993462,689.485948,1554.432478,8808.450710
2585.993791,-306.438199,666.185348,8586.388927
2585.994121,-536.266849,370.102971,9326.594869
2585.994450,-689.485948,-666.185348,9696.697840
2585.994779,-1302.362347,-740.205942,9104.533087
2585.995108,-1455.581446,-1406.391290,9992.780217
2585.995437,-1532.190996,-666.185348,9992.780217
2585.995766,-689.485948,-666.185348,9548.656652
2585.996096,229.828649,-814.226536,9474.636058
2585.996425,536.266849,-222.061783,8660.409521
2585.996754,383.047749,-0.000000,8290.306550
2585.997083,766.095498,518.144159,8216.285956
2585.997412,1302.362347,592.164754,8290.306550
2585.997741,229.828649,962.267725,8586.388927
2585.998070,0.000000,-0.000000,8882.471304
2585.998400,-612.876398,-222.061783,9400.615463
2585.998729,-689.485948,-740.205942,9622.677246
2585.999058,-842.705048,-666.185348,9622.677246
2585.999387,-1838.629195,-814.226536,10066.800811
2585.999716,-306.438199,-518.144159,9844.739029
2586.000045,229.828649,-814.226536,9474.636058
2586.000375,689.485948,-518.144159,9030.512492
2586.000704,1225.752797,-148.041188,8586.388927
2586.001033,1455.581446,296.082377,8290.306550
2586.001362,1378.971896,148.041188,7402.059420
2586.001691,842.705048,1258.350101,8142.265362
2586.002020,1225.752797,444.123565,8734.430116
2586.002350,689.485948,222.061783,8808.450710
2586.002679,229.828649,-296.082377,9474.636058
2586.003008,76.609550,-1036.288319,9696.697840
2586.003337,-306.438199,-1258.350101,9474.636058
2586.003666,-689.485948,-1110.308913,10214.842000
2586.003995,383.047749,-1184.329507,10066.800811
2586.004325,995.924147,-444.123565,9474.636058
2586.004654,2068.457845,-592.164754,8882.471304
2586.004983,2528.115143,-0.000000,8734.430116
2586.005312,2604.724693,518.144159,8290.306550
2586.005641,2757.943793,888.247130,7846.182985
2586.005970,2221.676944,1480.411884,8142.265362
2586.006300,2068.457845,1184.329507,8512.368333
2586.006629,1455.581446,-0.000000,8512.368333
2586.006958,153.219100,-740.205942,9548.656652
2586.007287,-306.438199,-740.205942,9548.656652
2586.007616,-536.266849,-1258.350101,9548.656652
2586.007945,-995.924147,-1184.329507,10066.800811
2586.008275,-689.485948,-666.185348,9992.780217
2586.008604,76.609550,-888.247130,9548.656652
2586.008933,1072.533697,-740.205942,9696.697840
2586.009262,1072.533697,-222.061783,8882.471304
2586.009591,1378.971896,666.185348,8438.347739
2586.009920,1762.019645,1036.288319,7550.100608
2586.010249,1762.019645,1702.473667,7698.141797
2586.010579,1378.971896,1702.473667,7846.182985
2586.010908,842.705048,518.144159,8438.347739
2586.011237,383.047749,-74.020594,9104.533087
2586.011566,-689.485948,-518.144159,9400.615463
2586.011895,-1225.752797,-1554.432478,9622.677246
2586.012224,-1532.190996,-1332.370696,9622.677246
2586.012554,-919.314598,-666.185348,9548.656652
2586.012883,0.000000,-1258.350101,9326.594869
2586.013212,0.000000,-888.247130,9104.533087
2586.013541,0.000000,-518.144159,9844.739029
2586.013870,76.609550,-666.185348,8882.471304
2586.014199,536.266849,370.102971,8216.285956
2586.014529,689.485948,1332.370696,8290.306550
2586.014858,306.438199,1184.329507,8216.285956
2586.015187,383.047749,592.164754,9326.594869
2586.015516,536.266849,222.061783,9104.533087
2586.015845,229.828649,-222.061783,8808.450710
2586.016174,-306.438199,-370.102971,9474.636058
2586.016504,-1072.533697,-962.267725,9326.594869
2586.016833,-1149.143247,-814.226536,9622.677246
2586.017162,-689.485948,-1258.350101,9474.636058
2586.017491,-612.876398,-1036.288319,9474.636058
2586.017820,0.000000,-888.247130,9030.512492
2586.018149,0.000000,-296.082377,8882.471304
2586.018479,229.828649,222.061783,8216.285956
2586.018808,0.000000,740.205942,9104.533087
2586.019137,76.609550,1110.308913,8290.306550
2586.019466,-229.828649,666.185348,8734.430116
2586.019795,-229.828649,296.082377,9696.697840
2586.020124,-689.485948,-296.082377,9474.636058
2586.020454,-766.095498,-592.164754,9696.697840
2586.020783,-689.485948,-1036.288319,9474.636058
2586.021112,76.609550,-740.205942,9474.636058
2586.021441,842.705048,-962.267725,8882.471304
2586.021770,1072.533697,-296.082377,8734.430116
2586.022099,1532.190996,-148.041188,8808.450710
2586.022428,1838.629195,370.102971,8364.327145
2586.022758,1991.848295,592.164754,8438.347739
2586.023087,1149.143247,1406.391290,8216.285956
2586.023416,919.314598,740.205942,8660.409521
2586.023745,689.485948,-222.061783,9548.656652
2586.024074,229.828649,-666.185348,9548.656652
2586.024403,153.219100,-888.247130,9178.553681
2586.024733,-612.876398,-1480.411884,9474.636058
2586.025062,-536.266849,-1406.391290,9548.656652
2586.025391,536.266849,-1184.329507,9252.574275
2586.025720,1149.143247,-740.205942,9104.533087
2586.026049,1608.800546,-666.185348,9104.533087
2586.026378,2068.457845,-0.000000,8956.491898
2586.026708,2221.676944,666.185348,8290.306550
2586.027037,1608.800546,888.247130,8142.265362
2586.027366,689.485948,1332.370696,8956.491898
2586.027695,612.876398,814.226536,9178.553681
2586.028024,459.657299,222.061783,9326.594869
2586.028353,0.000000,-518.144159,9992.780217
2586.028683,0.000000,-1110.308913,9696.697840
2586.029012,0.000000,-1110.308913,9696.697840
2586.029341,-306.438199,-518.144159,9992.780217
2586.029670,-153.219100,-1036.288319,9770.718434
2586.029999,536.266849,-296.082377,9474.636058
2586.030328,1378.971896,-0.000000,8808.450710
2586.030658,1915.238745,148.041188,8216.285956
2586.030987,995.924147,814.226536,8660.409521
2586.031316,2068.457845,814.226536,8660.409521
2586.031645,1685.410096,962.267725,8364.327145
2586.031974,1072.533697,518.144159,8734.430116
2586.032303,0.000000,666.185348,8734.430116
2586.032633,0.000000,-592.164754,10140.821405
2586.032962,-1149.143247,-1702.473667,9770.718434
2586.033291,-1915.238745,-444.123565,9696.697840
2586.033620,0.000000,-2220.617826,9844.739029
2586.033949,-1378.971896,-370.102971,8290.306550
2586.034278,306.438199,-148.041188,9252.574275
2586.034607,459.657299,-666.185348,9548.656652
2586.034937,612.876398,-296.082377,7994.224174
2586.035266,919.314598,962.267725,8290.306550
2586.035595,1225.752797,814.226536,7328.038826
2586.035924,383.047749,1184.329507,7994.224174
2586.036253,153.219100,296.082377,8882.471304
2586.036582,-1149.143247,-0.000000,9252.574275
2586.036912,-1225.752797,-592.164754,9770.718434
2586.037241,-1302.362347,-1110.308913,9326.594869
2586.037570,-1455.581446,-1406.391290,9770.718434
2586.037899,-1149.143247,-1628.453072,9992.780217
2586.038228,-459.657299,-1184.329507,9770.718434
2586.038557,-459.657299,-1406.391290,9400.615463
2586.038887,383.047749,-666.185348,9252.574275
2586.039216,1302.362347,-0.000000,8734.430116
2586.039545,1302.362347,814.226536,7772.162391
2586.039874,1302.362347,1258.350101,7846.182985
2586.040203,1455.581446,1850.514855,7698.141797
2586.040532,919.314598,1110.308913,8364.327145
2586.040862,153.219100,296.082377,8956.491898
2586.041191,0.000000,-74.020594,9326.594869
2586.041520,-842.705048,-888.247130,9474.636058
2586.041849,-1072.533697,-888.247130,9474.636058
2586.042178,-1532.190996,-1036.288319,10214.842000
2586.042507,-612.876398,-1036.288319,9696.697840
2586.042837,0.000000,-1110.308913,9696.697840
2586.043166,689.485948,-1332.370696,9474.636058
2586.043495,1225.752797,-74.020594,8586.388927
2586.043824,919.314598,740.205942,8734.430116
2586.044153,1685.410096,1406.391290,7550.100608
2586.044482,1915.238745,1702.473667,7920.203579
2586.044812,1608.800546,1184.329507,8586.388927
2586.045141,1072.533697,444.123565,9178.553681
2586.045470,536.266849,-518.144159,9696.697840
2586.045799,-766.095498,-1184.329507,9696.697840
2586.046128,-689.485948,-1110.308913,9844.739029
2586.046457,-459.657299,-962.267725,9992.780217
2586.046786,0.000000,-1406.391290,9992.780217
2586.047116,919.314598,-1184.329507,9400.615463
2586.047445,1608.800546,-740.205942,8956.491898
2586.047774,1378.971896,-148.041188,8586.388927
2586.048103,2451.505594,-0.000000,8290.306550
2586.048432,2374.896044,1332.370696,8142.265362
2586.048761,1378.971896,1110.308913,8512.368333
2586.049091,1532.190996,740.205942,9104.533087
2586.049420,995.924147,-0.000000,9474.636058
2586.049749,229.828649,-370.102971,9622.677246
2586.050078,536.266849,-666.185348,9474.636058
2586.050407,-229.828649,-1480.411884,9548.656652
2586.050736,-229.828649,-370.102971,9696.697840
2586.051066,0.000000,-1036.288319,9622.677246
2586.051395,153.219100,-740.205942,9474.636058
2586.051724,536.266849,-740.205942,8808.450710
2586.052053,919.314598,-222.061783,8512.368333
2586.052382,919.314598,-0.000000,8142.265362
2586.052711,842.705048,518.144159,7846.182985
2586.053041,0.000000,888.247130,8512.368333
2586.053370,153.219100,740.205942,8660.409521
2586.053699,0.000000,222.061783,8956.491898
2586.054028,-383.047749,-0.000000,9178.553681
2586.054357,-612.876398,-592.164754,9178.553681
2586.054686,-1149.143247,-962.267725,9252.574275
2586.055016,-842.705048,-666.185348,9400.615463
2586.055345,-536.266849,-740.205942,9474.636058
2586.055674,383.047749,-592.164754,8956.491898
2586.056003,995.924147,-518.144159,8512.368333
2586.056332,766.095498,-148.041188,8142.265362
2586.056661,842.705048,222.061783,7994.224174
2586.056991,689.485948,370.102971,8734.430116
2586.057320,612.876398,666.185348,8364.327145
2586.057649,0.000000,-0.000000,9030.512492
2586.057978,-306.438199,-296.082377,9474.636058
2586.058307,-689.485948,-814.226536,9474.636058
2586.058636,-995.924147,-814.226536,9770.718434
2586.058966,-536.266849,-740.205942,9770.718434
2586.059295,-919.314598,-518.144159,9844.739029
2586.059624,0.000000,-592.164754,9844.739029
2586.059953,153.219100,-888.247130,9400.615463
2586.060282,536.266849,-148.041188,8586.388927
2586.060611,459.657299,222.061783,8586.388927
2586.060940,229.828649,666.185348,7994.224174
2586.061270,-153.219100,666.185348,8142.265362
2586.061599,-306.438199,888.247130,9252.574275
2586.061928,-766.095498,148.041188,9326.594869
2586.062257,-1378.971896,-814.226536,9770.718434
2586.062586,-1225.752797,-888.247130,9918.759623
2586.062915,-1149.143247,-962.267725,9992.780217
2586.063245,-1302.362347,-814.226536,9770.718434
2586.063574,-383.047749,-592.164754,9770.718434
2586.063903,536.266849,-666.185348,9844.739029
2586.064232,1455.581446,-370.102971,8882.471304
2586.064561,1915.238745,-74.020594,8882.471304
2586.064890,2298.286494,666.185348,7846.182985
2586.065220,2145.067394,1702.473667,7624.121203
2586.065549,2068.457845,1924.535449,7772.162391
2586.065878,1378.971896,1258.350101,7920.203579
2586.066207,1302.362347,370.102971,9030.512492
2586.066536,842.705048,-666.185348,9622.677246
2586.066865,536.266849,-1184.329507,9696.697840
2586.067195,-306.438199,-1776.494261,9622.677246
2586.067524,-612.876398,-1110.308913,9770.718434
2586.067853,-383.047749,-1184.329507,10140.821405
2586.068182,536.266849,-814.226536,9622.677246
2586.068511,995.924147,-148.041188,9622.677246
2586.068840,1838.629195,-222.061783,8364.327145
2586.069169,2221.676944,666.185348,7994.224174
2586.069499,2451.505594,814.226536,7920.203579
2586.069828,1762.019645,1332.370696,8142.265362
2586.070157,1225.752797,1184.329507,8512.368333
2586.070486,1532.190996,666.185348,8586.388927
2586.070815,459.657299,-814.226536,9474.636058
2586.071144,0.000000,-1406.391290,9474.636058
2586.071473,-612.876398,-1554.432478,9918.759623
2586.071803,-536.266849,-1702.473667,9918.759623
2586.072132,-153.219100,-1258.350101,9844.739029
2586.072461,612.876398,-740.205942,9400.615463
2586.072790,1302.362347,-296.082377,9326.594869
2586.073119,1991.848295,-222.061783,9474.636058
2586.073448,2374.896044,370.102971,7920.203579
2586.073777,2451.505594,1480.411884,8290.306550
2586.074107,2068.457845,1776.494261,7772.162391
2586.074436,1378.971896,962.267725,8364.327145
2586.074765,689.485948,-0.000000,8882.471304
2586.075094,-306.438199,-740.205942,9474.636058
2586.075423,-919.314598,-1184.329507,9918.759623
2586.075752,-1225.752797,-1406.391290,9474.636058
2586.076081,-1532.190996,-1184.329507,10066.800811
2586.076410,-1302.362347,-1036.288319,9474.636058
2586.076740,-689.485948,-1036.288319,9622.677246
2586.077069,383.047749,-518.144159,9030.512492
2586.077398,306.438199,-148.041188,8734.430116
2586.077727,612.876398,518.144159,8142.265362
2586.078056,383.047749,518.144159,8068.244768
2586.078385,536.266849,1258.350101,8142.265362
2586.078714,0.000000,1110.308913,8290.306550
2586.079044,-229.828649,518.144159,9178.553681
2586.079373,-995.924147,-370.102971,9474.636058
2586.079702,-1378.971896,-814.226536,9696.697840
2586.080031,-995.924147,-1702.473667,10214.842000
2586.080360,-1608.800546,-1702.473667,9992.780217
2586.080689,-2221.676944,-1480.411884,9770.718434
2586.081018,0.000000,-962.267725,9696.697840
2586.081348,459.657299,-814.226536,8438.347739
2586.081677,459.657299,-0.000000,9030.512492
2586.082006,1455.581446,592.164754,8586.388927
2586.082335,1455.581446,1332.370696,7994.224174
2586.082664,536.266849,1924.535449,8512.368333
2586.082993,995.924147,1702.473667,8512.368333
2586.083322,383.047749,-0.000000,9474.636058
2586.083652,-612.876398,-518.144159,9548.656652
2586.083981,-919.314598,-740.205942,9622.677246
2586.084310,-1302.362347,-1184.329507,10140.821405
2586.084639,-1532.190996,-1406.391290,10436.903782
2586.084968,-1072.533697,-1110.308913,10214.842000
2586.085297,0.000000,-888.247130,9474.636058
2586.085626,383.047749,-814.226536,9178.553681
2586.085955,1149.143247,-0.000000,8586.388927
2586.086285,1149.143247,962.267725,8290.306550
2586.086614,1608.800546,814.226536,7698.141797
2586.086943,1608.800546,2220.617826,7772.162391
2586.087272,229.828649,740.205942,9178.553681
2586.087601,153.219100,-592.164754,9992.780217
2586.087930,-306.438199,-0.000000,8882.471304
2586.088259,-383.047749,-1702.473667,9400.615463
2586.088589,-459.657299,-1184.329507,9474.636058
2586.088918,0.000000,-1184.329507,10214.842000
2586.089247,-229.828649,-1850.514855,9548.656652
2586.089576,1378.971896,-518.144159,9030.512492
2586.089905,1991.848295,-1184.329507,8142.265362
2586.090234,2911.162892,592.164754,7920.203579
2586.090563,3140.991542,296.082377,7772.162391
2586.090893,2528.115143,1332.370696,7624.121203
2586.091222,2374.896044,1480.411884,7920.203579
2586.091551,2145.067394,1184.329507,8734.430116
2586.091880,1149.143247,-148.041188,9474.636058
2586.092209,306.438199,-444.123565,9992.780217
2586.092538,229.828649,-1258.350101,9770.718434
2586.092867,-459.657299,-1628.453072,9992.780217
2586.093197,-459.657299,-1480.411884,9992.780217
2586.093526,-229.828649,-1480.411884,10140.821405
2586.093855,459.657299,-1332.370696,9474.636058
2586.094184,1915.238745,-1110.308913,8216.285956
2586.094513,1608.800546,-0.000000,8438.347739
2586.094842,1455.581446,296.082377,7920.203579
2586.095171,1685.410096,1480.411884,7550.100608
2586.095501,1149.143247,1036.288319,8512.368333
2586.095830,689.485948,888.247130,8512.368333
2586.096159,-383.047749,-148.041188,9622.677246
2586.096488,-536.266849,-1332.370696,10288.862594
2586.096817,-1225.752797,-1628.453072,9400.615463
2586.097146,-995.924147,-1554.432478,9992.780217
2586.097475,-1302.362347,-1480.411884,9622.677246
2586.097804,-612.876398,-888.247130,9844.739029
2586.098134,459.657299,-666.185348,9178.553681
2586.098463,1225.752797,-296.082377,8512.368333
2586.098792,1685.410096,370.102971,7994.224174
2586.099121,1455.581446,1184.329507,7179.997637
2586.099450,1532.190996,1850.514855,7402.059420
2586.099779,919.314598,1924.535449,8068.244768
2586.100108,229.828649,1036.288319,8734.430116
2586.100438,-842.705048,-74.020594,9252.574275
2586.100767,-1378.971896,-592.164754,9992.780217
2586.101096,-1685.410096,-1628.453072,9622.677246
2586.101425,-1838.629195,-1850.514855,10288.862594
2586.101754,-1608.800546,-814.226536,10140.821405
2586.102083,-1302.362347,-888.247130,9696.697840
2586.102412,-919.314598,-222.061783,9104.533087
2586.102742,0.000000,-888.247130,9844.739029
2586.103071,1225.752797,-518.144159,8808.450710
2586.103400,383.047749,444.123565,8364.327145
2586.103729,689.485948,592.164754,8290.306550
2586.104058,76.609550,1110.308913,7772.162391
2586.104387,459.657299,1480.411884,8956.491898
2586.104716,-612.876398,222.061783,9400.615463
2586.105046,-612.876398,-222.061783,9400.615463
2586.105375,-1532.190996,-1850.514855,9992.780217
2586.105704,-995.924147,-740.205942,9178.553681
2586.106033,-1455.581446,-1480.411884,10658.965565
2586.106362,-842.705048,-1110.308913,10214.842000
2586.106691,153.219100,-962.267725,9474.636058
2586.107020,1302.362347,-222.061783,9474.636058
2586.107349,1685.410096,-0.000000,8068.244768
2586.107679,2145.067394,740.205942,7772.162391
2586.108008,1378.971896,888.247130,7476.080014
2586.108337,2145.067394,1554.432478,7846.182985
2586.108666,1302.362347,1258.350101,8586.388927
2586.108995,766.095498,-0.000000,8956.491898
2586.109324,229.828649,-296.082377,9474.636058
2586.109653,0.000000,-888.247130,9548.656652
2586.109983,153.219100,-1258.350101,9474.636058
2586.110312,-153.219100,-1554.432478,9548.656652
2586.110641,459.657299,-814.226536,10214.842000
2586.110970,1302.362347,-592.164754,8956.491898
2586.111299,1991.848295,-444.123565,8808.450710
2586.111628,2451.505594,222.061783,7846.182985
2586.111957,2528.115143,814.226536,7402.059420
2586.112287,1991.848295,1480.411884,7698.141797
2586.112616,1608.800546,1258.350101,8068.244768
2586.112945,1302.362347,666.185348,8808.450710
2586.113274,229.828649,-148.041188,9770.718434
2586.113603,0.000000,-962.267725,9992.780217
2586.113932,-766.095498,-1332.370696,10066.800811
2586.114261,-995.924147,-1258.350101,9844.739029
2586.114591,-459.657299,-1702.473667,10362.883188
2586.114920,0.000000,-1554.432478,10510.924376
2586.115249,1072.533697,-1036.288319,9844.739029
2586.115578,1838.629195,-296.082377,8956.491898
2586.115907,2068.457845,-0.000000,7994.224174
2586.116236,2145.067394,962.267725,8142.265362
2586.116565,2298.286494,1480.411884,7698.141797
2586.116894,1762.019645,1776.494261,7772.162391
2586.117224,1378.971896,-0.000000,8808.450710
2586.117553,842.705048,-444.123565,9104.533087
2586.117882,0.000000,-444.123565,9918.759623
2586.118211,-842.705048,-1110.308913,9992.780217
2586.118540,-1225.752797,-1258.350101,9696.697840
2586.118869,-1378.971896,-1110.308913,10214.842000
2586.119198,-612.876398,-1110.308913,8808.450710
2586.119528,-306.438199,-962.267725,9474.636058
2586.119857,229.828649,-370.102971,9548.656652
2586.120186,459.657299,-222.061783,7994.224174
2586.120515,842.705048,518.144159,8438.347739
2586.120844,383.047749,1554.432478,8438.347739
2586.121173,229.828649,1184.329507,8142.265362
2586.121502,76.609550,1184.329507,8586.388927
2586.121832,0.000000,-0.000000,9104.533087
2586.122161,-1225.752797,-370.102971,9030.512492
2586.122490,-1302.362347,-1110.308913,9326.594869
2586.122819,-1532.190996,-1110.308913,9474.636058
2586.123148,-1378.971896,-962.267725,9548.656652
2586.123477,-995.924147,-888.247130,9548.656652
2586.123806,-383.047749,-1258.350101,9474.636058
2586.124136,-383.047749,-370.102971,9252.574275
2586.124465,919.314598,296.082377,8512.368333
2586.124794,612.876398,740.205942,8142.265362
2586.125123,919.314598,888.247130,8216.285956
2586.125452,766.095498,1332.370696,8512.368333
2586.125781,76.609550,518.144159,8586.388927
2586.126110,-383.047749,-888.247130,9104.533087
2586.126439,-306.438199,-740.205942,9400.615463
2586.126769,-1072.533697,-962.267725,9696.697840
2586.127098,-1378.971896,-1184.329507,9622.677246
2586.127427,-842.705048,-1406.391290,9622.677246
2586.127756,-229.828649,-1036.288319,9400.615463
2586.128085,459.657299,-740.205942,9474.636058
2586.128414,1225.752797,-296.082377,8808.450710
2586.128743,1302.362347,592.164754,8216.285956
2586.129073,1378.971896,1110.308913,8216.285956
2586.129402,306.438199,1480.411884,8438.347739
2586.129731,689.485948,1258.350101,8734.430116
2586.130060,229.828649,666.185348,9178.553681
2586.130389,0.000000,-296.082377,9548.656652
2586.130718,-383.047749,-1036.288319,9918.759623
2586.131047,0.000000,-1628.453072,9622.677246
2586.131377,-306.438199,-1702.473667,9918.759623
2586.131706,153.219100,-1110.308913,9474.636058
2586.132035,842.705048,-592.164754,9030.512492
2586.132364,1838.629195,-296.082377,9030.512492
2586.132693,2987.772442,-0.000000,8290.306550
2586.133022,2911.162892,1110.308913,7846.182985
2586.133351,2757.943793,1332.370696,7846.182985
2586.133681,2987.772442,1184.329507,8216.285956
2586.134010,1991.848295,1924.535449,8438.347739
2586.134339,1762.019645,888.247130,9326.594869
2586.134668,766.095498,-296.082377,9548.656652
2586.134997,-229.828649,-1110.308913,10140.821405
2586.135326,229.828649,-1332.370696,9918.759623
2586.135655,-306.438199,-1036.288319,9326.594869
2586.135984,-76.609550,-1258.350101,9844.739029
2586.136314,459.657299,-962.267725,9400.615463
2586.136643,1302.362347,-888.247130,9252.574275
2586.136972,1608.800546,222.061783,8956.491898
2586.137301,1991.848295,740.205942,8216.285956
2586.137630,1302.362347,962.267725,8142.265362
2586.137959,383.047749,1554.432478,8364.327145
2586.138288,0.000000,1480.411884,9326.594869
2586.138618,-612.876398,-148.041188,9918.759623
2586.138947,-919.314598,-592.164754,10214.842000
2586.139276,-1149.143247,-1258.350101,9918.759623
2586.139605,-1608.800546,-1406.391290,9770.718434
2586.139934,-1608.800546,-1480.411884,9844.739029
2586.140263,-1225.752797,-1258.350101,9918.759623
2586.140592,0.000000,-222.061783,9696.697840
2586.140922,995.924147,-296.082377,8734.430116
2586.141251,1455.581446,296.082377,8364.327145
2586.141580,1685.410096,666.185348,7624.121203
2586.141909,1532.190996,1850.514855,7476.080014
2586.142238,1455.581446,1702.473667,7624.121203
2586.142567,1072.533697,1332.370696,8660.409521
2586.142896,0.000000,444.123565,9400.615463
2586.143226,0.000000,-666.185348,9252.574275
2586.143555,-1072.533697,-888.247130,9622.677246
2586.143884,-1378.971896,-1776.494261,9474.636058
2586.144213,-1532.190996,-888.247130,9622.677246
2586.144542,-995.924147,-1406.391290,9844.739029
2586.144871,76.609550,-1258.350101,9030.512492
2586.145200,995.924147,-814.226536,8808.450710
2586.145529,536.266849,-222.061783,8290.306550
2586.145859,1149.143247,740.205942,7550.100608
2586.146188,1072.533697,962.267725,7476.080014
2586.146517,766.095498,1480.411884,7920.203579
2586.146846,-306.438199,814.226536,8660.409521
2586.147175,-842.705048,-444.123565,9548.656652
2586.147504,-766.095498,-1258.350101,9992.780217
2586.147833,-1608.800546,-1332.370696,10066.800811
2586.148163,-1532.190996,-2294.638420,10140.821405
2586.148492,-1685.410096,-1406.391290,9992.780217
2586.148821,-689.485948,-888.247130,10140.821405
2586.149150,0.000000,-740.205942,9696.697840
2586.149479,995.924147,-296.082377,8956.491898
2586.149808,1915.238745,-0.000000,8290.306550
2586.150137,2451.505594,666.185348,7772.162391
2586.150467,1838.629195,962.267725,7328.038826
2586.150796,1455.581446,1184.329507,7920.203579
2586.151125,1149.143247,814.226536,8956.491898
2586.151454,612.876398,222.061783,9400.615463
2586.151783,0.000000,-814.226536,9770.718434
2586.152112,-919.314598,-1110.308913,9622.677246
2586.152441,-536.266849,-1184.329507,10140.821405
2586.152771,-383.047749,-1036.288319,10140.821405
2586.153100,0.000000,-518.144159,9696.697840
2586.153429,919.314598,-444.123565,8882.471304
2586.153758,1455.581446,-444.123565,9178.553681
2586.154087,2451.505594,-148.041188,8364.327145
2586.154416,2528.115143,1110.308913,7105.977043
2586.154745,2374.896044,1184.329507,7476.080014
2586.155074,1915.238745,2072.576638,7920.203579
2586.155404,1302.362347,1406.391290,8808.450710
2586.155733,153.219100,-222.061783,9178.553681
2586.156062,-229.828649,-666.185348,9548.656652
2586.156391,-919.314598,-2220.617826,10362.883188
2586.156720,-766.095498,-1480.411884,10288.862594
2586.157049,-842.705048,-1332.370696,10807.006753
2586.157378,-459.657299,-666.185348,10140.821405
2586.157708,612.876398,-444.123565,9400.615463
2586.158037,1608.800546,-0.000000,9252.574275
2586.158366,1915.238745,-0.000000,8438.347739
2586.158695,2604.724693,1036.288319,7698.141797
2586.159024,2451.505594,1110.308913,7846.182985
2586.159353,2451.505594,1998.556043,7698.141797
2586.159682,1149.143247,1110.308913,8216.285956
2586.160012,153.219100,-0.000000,9326.594869
2586.160341,-766.095498,-740.205942,9696.697840
2586.160670,-1225.752797,-1184.329507,10214.842000
2586.160999,-1762.019645,-1480.411884,10436.903782
2586.161328,-1608.800546,-1480.411884,10732.986159
2586.161657,-1149.143247,-1110.308913,9844.739029
2586.161986,-536.266849,-1332.370696,9918.759623
2586.162316,612.876398,-666.185348,9252.574275
2586.162645,995.924147,592.164754,8142.265362
2586.162974,1762.019645,1554.432478,7624.121203
2586.163303,1378.971896,2072.576638,7179.997637
2586.163632,1378.971896,2072.576638,8142.265362
2586.163961,612.876398,1036.288319,8142.265362
2586.164290,0.000000,444.123565,8956.491898
2586.164619,-536.266849,-592.164754,9104.533087
2586.164949,-1072.533697,-1110.308913,9400.615463
2586.165278,-1762.019645,-1628.453072,9696.697840
2586.165607,-2145.067394,-1480.411884,10066.800811
2586.165936,-1225.752797,-1332.370696,9548.656652
2586.166265,-612.876398,-1406.391290,9474.636058
2586.166594,-689.485948,-148.041188,9326.594869
2586.166923,-383.047749,-666.185348,9252.574275
2586.167253,0.000000,-0.000000,8512.368333
2586.167582,842.705048,1036.288319,7994.224174
2586.167911,612.876398,888.247130,8216.285956
2586.168240,536.266849,444.123565,8734.430116
2586.168569,689.485948,-0.000000,9178.553681
2586.168898,383.047749,-370.102971,9104.533087
2586.169227,76.609550,-592.164754,8882.471304
2586.169556,-689.485948,-962.267725,9252.574275
2586.169886,-459.657299,-888.247130,9548.656652
2586.170215,0.000000,-1110.308913,9400.615463
2586.170544,383.047749,-1332.370696,9252.574275
2586.170873,536.266849,-1332.370696,9474.636058
2586.171202,536.266849,-888.247130,9326.594869
2586.171531,383.047749,444.123565,8734.430116
2586.171860,76.609550,370.102971,8586.388927
2586.172190,76.609550,1184.329507,8734.430116
2586.172519,0.000000,296.082377,9548.656652
2586.172848,0.000000,-74.020594,9696.697840
2586.173177,-536.266849,-1036.288319,9918.759623
2586.173506,-306.438199,-1258.350101,9548.656652
2586.173835,-153.219100,-962.267725,9474.636058
2586.174164,229.828649,-518.144159,9178.553681
2586.174493,995.924147,-740.205942,9326.594869
2586.174823,2374.896044,-370.102971,8660.409521
2586.175152,2528.115143,370.102971,7920.203579
2586.175481,2987.772442,666.185348,6809.894666
2586.175810,2757.943793,1110.308913,7698.141797
2586.176139,2068.457845,1554.432478,7994.224174
2586.176468,1455.581446,1258.350101,8438.347739
2586.176797,612.876398,-0.000000,9474.636058
2586.177126,0.000000,-592.164754,9770.718434
2586.177456,0.000000,-1184.329507,10140.821405
2586.177785,-612.876398,-1110.308913,10066.800811
2586.178114,0.000000,-1110.308913,9918.759623
2586.178443,153.219100,-962.267725,10066.800811
2586.178772,1302.362347,-74.020594,9400.615463
2586.179101,1915.238745,-222.061783,8808.450710
2586.179430,2604.724693,-0.000000,7772.162391
2586.179760,2374.896044,444.123565,7772.162391
2586.180089,3140.991542,1406.391290,7624.121203
2586.180418,1915.238745,1480.411884,8142.265362
2586.180747,919.314598,1406.391290,8512.368333
2586.181076,0.000000,-0.000000,9474.636058
2586.181405,-1072.533697,-740.205942,10066.800811
2586.181734,-1991.848295,-1480.411884,10362.883188
2586.182063,-2298.286494,-1998.556043,10362.883188
2586.182393,-2221.676944,-1110.308913,11325.150913
2586.182722,-1608.800546,-1258.350101,10732.986159
2586.183051,-919.314598,-1036.288319,10362.883188
2586.183380,0.000000,-592.164754,9326.594869
2586.183709,1225.752797,-0.000000,8438.347739
2586.184038,1532.190996,666.185348,7772.162391
2586.184367,1991.848295,1332.370696,7105.977043
2586.184696,2145.067394,2294.638420,8142.265362
2586.185026,1225.752797,1406.391290,8216.285956
2586.185355,306.438199,518.144159,9030.512492
2586.185684,0.000000,-518.144159,9326.594869
2586.186013,-995.924147,-888.247130,9326.594869
2586.186342,-1685.410096,-1480.411884,9474.636058
2586.186671,-1838.629195,-1332.370696,9992.780217
2586.187000,-1532.190996,-2072.576638,9844.739029
2586.187329,-689.485948,-1036.288319,9400.615463
2586.187659,0.000000,-888.247130,8882.471304
2586.187988,612.876398,-296.082377,8586.388927
2586.188317,919.314598,444.123565,7920.203579
2586.188646,1225.752797,2072.576638,7624.121203
2586.188975,842.705048,1850.514855,8142.265362
2586.189304,766.095498,888.247130,8734.430116
2586.189633,0.000000,518.144159,8512.368333
2586.189963,-1072.533697,-740.205942,9622.677246
2586.190292,-1378.971896,-1258.350101,9474.636058
2586.190621,-1838.629195,-1850.514855,9918.759623
2586.190950,-2068.457845,-1702.473667,10066.800811
2586.191279,-1225.752797,-1110.308913,10362.883188
2586.191608,-383.047749,-1036.288319,9770.718434
2586.191937,459.657299,-888.247130,8734.430116
2586.192266,1302.362347,-0.000000,8290.306550
2586.192596,1455.581446,518.144159,8290.306550
2586.192925,2068.457845,1332.370696,8068.244768
2586.193254,2068.457845,1554.432478,8216.285956
2586.193583,1762.019645,1258.350101,8956.491898
2586.193912,919.314598,666.185348,9474.636058
2586.194241,612.876398,-592.164754,9548.656652
2586.194570,-536.266849,-962.267725,9992.780217
2586.194899,-842.705048,-1184.329507,10288.862594
2586.195229,-306.438199,-1628.453072,9918.759623
2586.195558,0.000000,-1332.370696,9548.656652
2586.195887,383.047749,-370.102971,10140.821405
2586.196216,842.705048,-962.267725,9696.697840
2586.196545,2681.334243,-0.000000,8512.368333
2586.196874,2834.553343,888.247130,7105.977043
2586.197203,3217.601092,1998.556043,7254.018232
2586.197533,2528.115143,2146.597232,7550.100608
2586.197862,2145.067394,2220.617826,8216.285956
2586.198191,842.705048,814.226536,9252.574275
2586.198520,0.000000,-296.082377,9400.615463
2586.198849,-459.657299,-1628.453072,9918.759623
2586.199178,-1225.752797,-2072.576638,10510.924376
2586.199507,-1455.581446,-1998.556043,10288.862594
2586.199836,-612.876398,-1406.391290,9992.780217
2586.200166,229.828649,-1110.308913,9400.615463
2586.200495,1838.629195,-962.267725,8734.430116
2586.200824,2757.943793,-0.000000,8142.265362
2586.201153,3064.381992,666.185348,7550.100608
2586.201482,2528.115143,1258.350101,7105.977043
2586.201811,2298.286494,1702.473667,7328.038826
2586.202140,1991.848295,1998.556043,7772.162391
2586.202469,995.924147,444.123565,8882.471304
2586.202799,-229.828649,-888.247130,9474.636058
2586.203128,0.000000,-1776.494261,10288.862594
2586.203457,-1302.362347,-1924.535449,10288.862594
2586.203786,-1838.629195,-2146.597232,10658.965565
2586.204115,-1378.971896,-1554.432478,10436.903782
2586.204444,-536.266849,-888.247130,9548.656652
2586.204773,459.657299,-592.164754,9252.574275
2586.205102,919.314598,-0.000000,8586.388927
2586.205432,1608.800546,740.205942,7624.121203
2586.205761,1532.190996,1702.473667,7179.997637
2586.206090,919.314598,2294.638420,7550.100608
2586.206419,689.485948,1332.370696,8216.285956
2586.206748,-383.047749,148.041188,8882.471304
2586.207077,-1378.971896,-444.123565,9474.636058
2586.207406,-1532.190996,-1258.350101,9992.780217
2586.207736,-2451.505594,-1036.288319,10436.903782
2586.208065,-2145.067394,-1332.370696,10436.903782
2586.208394,-1608.800546,-1406.391290,9474.636058
2586.208723,-1685.410096,-962.267725,9918.759623
2586.209052,-1072.533697,-888.247130,9622.677246
2586.209381,-306.438199,-0.000000,9030.512492
2586.209710,-229.828649,370.102971,8512.368333
2586.210039,919.314598,814.226536,7846.182985
2586.210369,612.876398,1702.473667,7772.162391
2586.210698,766.095498,1036.288319,8512.368333
2586.211027,76.609550,666.185348,8512.368333
2586.211356,383.047749,296.082377,9474.636058
2586.211685,-459.657299,-444.123565,9178.553681
2586.212014,0.000000,-888.247130,9474.636058
2586.212343,-995.924147,-1332.370696,9992.780217
2586.212672,-536.266849,-1036.288319,9474.636058
2586.213002,0.000000,-962.267725,9696.697840
2586.213331,306.438199,-888.247130,9252.574275
2586.213660,536.266849,-444.123565,8882.471304
2586.213989,1072.533697,592.164754,8808.450710
2586.214318,919.314598,370.102971,8216.285956
2586.214647,842.705048,1258.350101,7772.162391
2586.214976,1225.752797,296.082377,8956.491898
2586.215306,766.095498,-74.020594,9326.594869
2586.215635,229.828649,-222.061783,9474.636058
2586.215964,229.828649,-1110.308913,9400.615463
2586.216293,76.609550,-1110.308913,9474.636058
2586.216622,76.609550,-1110.308913,9918.759623
2586.216951,842.705048,-1258.350101,9918.759623
2586.217280,1762.019645,-1110.308913,9178.553681
2586.217609,1991.848295,-592.164754,8512.368333
2586.217939,2374.896044,296.082377,8438.347739
2586.218268,2451.505594,814.226536,8216.285956
2586.218597,2451.505594,1110.308913,8290.306550
2586.218926,2451.505594,1258.350101,8216.285956
2586.219255,2068.457845,962.267725,8660.409521
2586.219584,1072.533697,148.041188,8512.368333
2586.219913,995.924147,-444.123565,9474.636058
2586.220242,306.438199,-814.226536,9696.697840
2586.220572,0.000000,-1332.370696,9474.636058
2586.220901,0.000000,-1258.350101,9992.780217
2586.221230,153.219100,-740.205942,9474.636058
2586.221559,766.095498,-444.123565,9696.697840
2586.221888,1685.410096,-296.082377,9104.533087
2586.222217,1838.629195,-296.082377,8068.244768
2586.222546,1685.410096,814.226536,7994.224174
2586.222875,1532.190996,1702.473667,7476.080014
2586.223205,1378.971896,1776.494261,8364.327145
2586.223534,1072.533697,962.267725,8734.430116
2586.223863,-766.095498,-0.000000,9622.677246
2586.224192,0.000000,-1406.391290,9770.718434
2586.224521,-919.314598,-962.267725,9918.759623
2586.224850,-1225.752797,-1480.411884,9992.780217
2586.225179,-1532.190996,-1258.350101,10140.821405
2586.225509,-766.095498,-962.267725,9992.780217
2586.225838,612.876398,-1036.288319,9326.594869
2586.226167,1149.143247,-666.185348,8956.491898
2586.226496,995.924147,666.185348,8586.388927
2586.226825,1225.752797,592.164754,8364.327145
2586.227154,1225.752797,1480.411884,7772.162391
2586.227483,766.095498,1554.432478,8290.306550
2586.227812,-229.828649,666.185348,9326.594869
2586.228142,-689.485948,-74.020594,9326.594869
2586.228471,-995.924147,-1184.329507,9844.739029
2586.228800,-1685.410096,-1332.370696,9918.759623
2586.229129,-2068.457845,-962.267725,10288.862594
2586.229458,-1762.019645,-1036.288319,9548.656652
2586.229787,-766.095498,-296.082377,9622.677246
2586.230116,76.609550,-962.267725,9104.533087
2586.230445,306.438199,-0.000000,8586.388927
2586.230775,459.657299,592.164754,8512.368333
2586.231104,612.876398,814.226536,7920.203579
2586.231433,306.438199,1628.453072,7698.141797
2586.231762,383.047749,1628.453072,8438.347739
2586.232091,-153.219100,444.123565,8808.450710
2586.232420,-766.095498,-0.000000,9548.656652
2586.232749,-1149.143247,-1332.370696,9770.718434
2586.233079,-1455.581446,-1480.411884,9474.636058
2586.233408,-1762.019645,-1480.411884,9918.759623
2586.233737,-1225.752797,-1480.411884,10066.800811
2586.234066,-536.266849,-1332.370696,9696.697840
2586.234395,0.000000,-1258.350101,9326.594869
2586.234724,1225.752797,-296.082377,9178.553681
2586.235053,1762.019645,-0.000000,7772.162391
2586.235382,1532.190996,814.226536,7772.162391
2586.235712,1302.362347,814.226536,8216.285956
2586.236041,1378.971896,814.226536,8586.388927
2586.236370,0.000000,296.082377,9400.615463
2586.236699,0.000000,-592.164754,9548.656652
2586.237028,-383.047749,-1184.329507,9992.780217
2586.237357,0.000000,-1480.411884,10214.842000
2586.237686,-306.438199,-1554.432478,9770.718434
2586.238015,-153.219100,-666.185348,10140.821405
2586.238345,612.876398,-1184.329507,8364.327145
2586.238674,1685.410096,-148.041188,9030.512492
2586.239003,2911.162892,814.226536,8882.471304
2586.239332,2451.505594,-0.000000,8216.285956
2586.239661,2528.115143,814.226536,7698.141797
2586.239990,2451.505594,1776.494261,7476.080014
2586.240319,1762.019645,1480.411884,8290.306550
2586.240648,1378.971896,814.226536,8586.388927
2586.240978,0.000000,-592.164754,9548.656652
2586.241307,-459.657299,-1184.329507,9474.636058
2586.241636,-536.266849,-1480.411884,9992.780217
2586.241965,-536.266849,-1924.535449,9918.759623
2586.242294,-306.438199,-1406.391290,9770.718434
2586.242623,383.047749,-1036.288319,9548.656652
2586.242952,1762.019645,-592.164754,8660.409521
2586.243282,2145.067394,-0.000000,8290.306550
2586.243611,2145.067394,518.144159,7772.162391
2586.243940,2757.943793,962.267725,7698.141797
2586.244269,2451.505594,1702.473667,7179.997637
2586.244598,1838.629195,1702.473667,7994.224174
2586.244927,919.314598,222.061783,9178.553681
2586.245256,0.000000,148.041188,9400.615463
2586.245585,-383.047749,-1554.432478,9770.718434
2586.245915,-1225.752797,-1776.494261,10140.821405
2586.246244,-1991.848295,-1554.432478,9992.780217
2586.246573,-1608.800546,-888.247130,10066.800811
2586.246902,-919.314598,-1258.350101,9548.656652
2586.247231,-306.438199,-1036.288319,9548.656652
2586.247560,689.485948,-1110.308913,8882.471304
2586.247889,536.266849,222.061783,8438.347739
2586.248218,689.485948,962.267725,7846.182985
2586.248548,919.314598,1480.411884,8068.244768
2586.248877,383.047749,2072.576638,8364.327145
2586.249206,0.000000,814.226536,9252.574275
2586.249535,-842.705048,222.061783,9474.636058
2586.249864,-919.314598,-1036.288319,10140.821405
2586.250193,-1455.581446,-444.123565,9770.718434
2586.250522,-1991.848295,-1776.494261,10214.842000
2586.250852,-1302.362347,-888.247130,10510.924376
2586.251181,-995.924147,-740.205942,9696.697840
2586.251510,0.000000,-592.164754,9400.615463
2586.251839,536.266849,-296.082377,9104.533087
2586.252168,842.705048,518.144159,8364.327145
2586.252497,612.876398,1258.350101,7994.224174
2586.252826,1532.190996,1258.350101,7698.141797
2586.253155,1072.533697,1776.494261,7994.224174
2586.253485,76.609550,592.164754,8660.409521
2586.253814,-153.219100,-222.061783,9178.553681
2586.254143,-766.095498,-962.267725,9696.697840
2586.254472,-1608.800546,-1258.350101,9770.718434
2586.254801,-1225.752797,-1480.411884,9326.594869
2586.255130,-842.705048,-814.226536,9992.780217
2586.255459,-383.047749,-1332.370696,9252.574275
2586.255788,306.438199,-1036.288319,9178.553681
2586.256118,842.705048,-814.226536,8734.430116
2586.256447,1225.752797,-0.000000,7698.141797
2586.256776,1149.143247,814.226536,7402.059420
2586.257105,1378.971896,1036.288319,6809.894666
2586.257434,919.314598,1110.308913,8142.265362
2586.257763,842.705048,-0.000000,8808.450710
2586.258092,306.438199,-74.020594,8882.471304
2586.258421,-229.828649,-1258.350101,9844.739029
2586.258751,-766.095498,-1406.391290,9770.718434
2586.259080,0.000000,-1480.411884,9992.780217
2586.259409,0.000000,-1628.453072,10288.862594
2586.259738,536.266849,-888.247130,9548.656652
2586.260067,1455.581446,-814.226536,9252.574275
2586.260396,2374.896044,-370.102971,8882.471304
2586.260725,2145.067394,592.164754,7698.141797
2586.261055,2681.334243,1258.350101,8216.285956
2586.261384,1915.238745,1258.350101,7772.162391
2586.261713,1838.629195,1850.514855,8734.430116
2586.262042,1762.019645,-296.082377,9178.553681
2586.262371,995.924147,-666.185348,9104.533087
2586.262700,153.219100,-666.185348,9622.677246
2586.263029,-153.219100,-1184.329507,9548.656652
2586.263358,-306.438199,-1332.370696,9770.718434
2586.263688,-229.828649,-962.267725,10510.924376
2586.264017,919.314598,-222.061783,9474.636058
2586.264346,536.266849,-518.144159,9326.594869
2586.264675,1225.752797,-592.164754,8660.409521
2586.265004,1149.143247,814.226536,8290.306550
2586.265333,1302.362347,962.267725,8290.306550
2586.265662,1378.971896,1702.473667,7920.203579
2586.265991,842.705048,1480.411884,8438.347739
2586.266321,153.219100,740.205942,9326.594869
2586.266650,229.828649,-222.061783,9104.533087
2586.266979,-459.657299,-814.226536,9622.677246
2586.267308,-1072.533697,-1258.350101,9918.759623
2586.267637,-1072.533697,-1480.411884,9992.780217
2586.267966,-995.924147,-1184.329507,9918.759623
2586.268295,0.000000,-1184.329507,9548.656652
2586.268625,459.657299,-888.247130,9326.594869
2586.268954,995.924147,-0.000000,8734.430116
2586.269287,1225.752797,592.164754,7772.162391
2586.269616,1685.410096,1184.329507,7846.182985
2586.269945,1302.362347,2072.576638,7772.162391
2586.270274,919.314598,1554.432478,8512.368333
2586.270603,229.828649,518.144159,9104.533087
2586.270932,-383.047749,-814.226536,9474.636058
2586.271261,-1302.362347,-1332.370696,10362.883188
2586.271590,-1608.800546,-1036.288319,9696.697840
2586.271919,-1991.848295,-1998.556043,10584.944971
2586.272248,-1378.971896,-1258.350101,9992.780217
2586.272577,-1225.752797,-1406.391290,9918.759623
2586.272906,-459.657299,-1332.370696,9622.677246
2586.273235,76.609550,-296.082377,8882.471304
2586.273564,76.609550,740.205942,8290.306550
2586.273893,153.219100,1184.329507,7994.224174
2586.274222,842.705048,1998.556043,7624.121203
2586.274551,536.266849,1110.308913,8142.265362
2586.274880,306.438199,1184.329507,9178.553681
2586.275210,0.000000,-296.082377,8882.471304
2586.275539,-766.095498,-592.164754,9178.553681
2586.275868,-1072.533697,-1480.411884,9326.594869
2586.276197,-1378.971896,-1480.411884,9696.697840
2586.276526,-995.924147,-1406.391290,9770.718434
2586.276855,0.000000,-1628.453072,9178.553681
2586.277184,383.047749,-1406.391290,8956.491898
2586.277513,995.924147,-888.247130,8660.409521
2586.277842,1225.752797,-0.000000,8290.306550
2586.278171,1455.581446,518.144159,7624.121203
2586.278500,1762.019645,1554.432478,8290.306550
2586.278829,1532.190996,888.247130,8438.347739
2586.279158,1302.362347,-148.041188,8808.450710
2586.279487,1072.533697,-148.041188,9104.533087
2586.279816,919.314598,-1184.329507,9104.533087
2586.280145,0.000000,-1406.391290,9474.636058
2586.280474,383.047749,-1702.473667,9622.677246
2586.280803,76.609550,-1110.308913,9696.697840
2586.281132,842.705048,-1332.370696,9474.636058
2586.281461,1302.362347,-962.267725,8660.409521
2586.281790,1225.752797,-222.061783,8512.368333
2586.282119,1455.581446,888.247130,8438.347739
2586.282448,1072.533697,222.061783,8142.265362
2586.282778,1608.800546,888.247130,8660.409521
2586.283107,919.314598,888.247130,9104.533087
2586.283436,306.438199,-74.020594,9696.697840
2586.283765,0.000000,-296.082377,9474.636058
2586.284094,0.000000,-666.185348,9696.697840
2586.284423,-459.657299,-1110.308913,9992.780217
2586.284752,0.000000,-1776.494261,9918.759623
2586.285081,536.266849,-592.164754,9770.718434
2586.285410,1762.019645,-0.000000,9030.512492
2586.285739,2298.286494,592.164754,8586.388927
2586.286068,2451.505594,814.226536,8512.368333
2586.286397,2145.067394,1480.411884,8068.244768
2586.286726,2374.896044,1702.473667,8364.327145
2586.287055,1608.800546,1850.514855,8216.285956
2586.287384,995.924147,1036.288319,8734.430116
2586.287713,0.000000,-222.061783,9474.636058
2586.288042,-612.876398,-962.267725,9622.677246
2586.288371,-1608.800546,-1036.288319,10140.821405
2586.288700,-1532.190996,-1332.370696,9844.739029
2586.289029,-1532.190996,-888.247130,10362.883188
2586.289358,-1302.362347,-1036.288319,9992.780217
2586.289687,229.828649,-1628.453072,9326.594869
2586.290016,766.095498,-740.205942,8808.450710
2586.290345,919.314598,-74.020594,8068.244768
2586.290675,1378.971896,1110.308913,7624.121203
2586.291004,1149.143247,1332.370696,7624.121203
2586.291333,995.924147,1702.473667,8438.347739
2586.291662,-919.314598,1258.350101,8512.368333
2586.291991,-689.485948,-0.000000,9548.656652
2586.292320,-1532.190996,-962.267725,9474.636058
2586.292649,-1762.019645,-1332.370696,9696.697840
2586.292978,-2451.505594,-1776.494261,9770.718434
2586.293307,-2374.896044,-1850.514855,8734.430116
2586.293636,-1608.800546,-1702.473667,10140.821405
2586.293965,0.000000,-1480.411884,9178.553681
2586.294294,919.314598,-1036.288319,8586.388927
2586.294623,1225.752797,370.102971,8290.306550
2586.294952,1225.752797,814.226536,7254.018232
2586.295281,2221.676944,1184.329507,7846.182985
2586.295610,1608.800546,2368.659014,7920.203579
2586.295939,1532.190996,962.267725,9104.533087
2586.296268,919.314598,518.144159,9918.759623
2586.296597,689.485948,-222.061783,9400.615463
2586.296926,-612.876398,-444.123565,9622.677246
2586.297255,-919.314598,-592.164754,9474.636058
2586.297584,-1378.971896,-1110.308913,9696.697840
2586.297913,-229.828649,-1184.329507,9548.656652
2586.298243,0.000000,-1406.391290,8882.471304
2586.298572,1378.971896,-1184.329507,8660.409521
2586.298901,1149.143247,-148.041188,8216.285956
2586.299230,1149.143247,296.082377,8660.409521
2586.299559,1072.533697,1554.432478,7328.038826
2586.299888,536.266849,1184.329507,7698.141797
2586.300217,153.219100,666.185348,9474.636058
2586.300546,76.609550,-222.061783,10214.842000
2586.300875,-383.047749,-666.185348,9622.677246
2586.301204,-306.438199,-814.226536,10214.842000
2586.301533,0.000000,-518.144159,9770.718434
2586.301862,-153.219100,-1184.329507,10362.883188
2586.302191,766.095498,-1184.329507,10510.924376
2586.302520,1685.410096,-0.000000,8216.285956
2586.302849,2681.334243,-370.102971,7994.224174
2586.303178,2068.457845,740.205942,7550.100608
2586.303507,3294.210641,1258.350101,8808.450710
2586.303836,2221.676944,962.267725,8290.306550
2586.304165,1455.581446,1184.329507,8290.306550
2586.304494,842.705048,222.061783,9474.636058
2586.304823,153.219100,-740.205942,9696.697840
2586.305152,-536.266849,-962.267725,11029.068536
2586.305481,0.000000,-1998.556043,10214.842000
2586.305811,-536.266849,-814.226536,9992.780217
2586.306140,-383.047749,-888.247130,10214.842000
2586.306469,76.609550,-666.185348,9696.697840
2586.306798,1072.533697,-222.061783,9104.533087
2586.307127,2374.896044,-0.000000,8438.347739
2586.307456,2298.286494,666.185348,7031.956449
2586.307785,2374.896044,1184.329507,7254.018232
2586.308114,1991.848295,1480.411884,7328.038826
2586.308443,1225.752797,1184.329507,8142.265362
2586.308772,76.609550,592.164754,8290.306550
2586.309101,-306.438199,-740.205942,9326.594869
2586.309430,-1378.971896,-1258.350101,9400.615463
2586.309759,-2145.067394,-2072.576638,9844.739029
2586.310088,-1838.629195,-1998.556043,9844.739029
2586.310417,-2221.676944,-1776.494261,10288.862594
2586.310746,-766.095498,-1036.288319,9622.677246
2586.311075,459.657299,-666.185348,9178.553681
2586.311404,1302.362347,148.041188,8364.327145
2586.311733,2068.457845,888.247130,7179.997637
2586.312062,2374.896044,1702.473667,7402.059420
2586.312391,1915.238745,2516.700203,7254.018232
2586.312720,1532.190996,1850.514855,8290.306550
2586.313049,842.705048,888.247130,8512.368333
2586.313378,0.000000,-296.082377,8956.491898
2586.313708,-1608.800546,-740.205942,9918.759623
2586.314037,-1608.800546,-1998.556043,10214.842000
2586.314366,-2604.724693,-1850.514855,10584.944971
2586.314695,-2221.676944,-1554.432478,10658.965565
2586.315024,-612.876398,-1554.432478,9844.739029
2586.315353,-536.266849,-1110.308913,9474.636058
2586.315682,0.000000,-222.061783,9030.512492
2586.316011,229.828649,592.164754,8438.347739
2586.316340,919.314598,666.185348,8364.327145
2586.316669,689.485948,1850.514855,8142.265362
2586.316998,-229.828649,962.267725,9104.533087
2586.317327,229.828649,-0.000000,9474.636058
2586.317656,-306.438199,444.123565,9918.759623
2586.317985,-919.314598,-518.144159,9992.780217
2586.318314,-1532.190996,-740.205942,10510.924376
2586.318643,-1685.410096,-1702.473667,10584.944971
2586.318972,-842.705048,-740.205942,10288.862594
2586.319301,76.609550,-2072.576638,9770.718434
2586.319630,0.000000,-592.164754,9474.636058
2586.319959,1225.752797,-740.205942,9030.512492
2586.320288,1455.581446,444.123565,8512.368333
2586.320617,2221.676944,1110.308913,7550.100608
2586.320946,2298.286494,1702.473667,7031.956449
2586.321276,1915.238745,1258.350101,8216.285956
2586.321605,1991.848295,814.226536,9104.533087
2586.321934,1378.971896,-740.205942,8290.306550
2586.322263,919.314598,-592.164754,9474.636058
2586.322592,0.000000,-1110.308913,9400.615463
2586.322921,-306.438199,-1628.453072,9696.697840
2586.323250,76.609550,-1258.350101,9844.739029
2586.323579,612.876398,-1258.350101,8882.471304
2586.323908,1608.800546,-592.164754,9400.615463
2586.324237,1532.190996,-222.061783,9030.512492
2586.324566,1762.019645,370.102971,8068.244768
2586.324895,1685.410096,1036.288319,7254.018232
2586.325224,1149.143247,1258.350101,8216.285956
2586.325553,1149.143247,1184.329507,8438.347739
2586.325882,842.705048,-0.000000,9326.594869
2586.326211,76.609550,-740.205942,9474.636058
2586.326540,-536.266849,-1332.370696,9770.718434
2586.326869,-689.485948,-1554.432478,9992.780217
2586.327198,-612.876398,-1184.329507,9696.697840
2586.327527,0.000000,-1036.288319,9696.697840
2586.327856,919.314598,-814.226536,9400.615463
2586.328185,1762.019645,-518.144159,8586.388927
2586.328514,2451.505594,-74.020594,8068.244768
2586.328843,2298.286494,518.144159,7624.121203
2586.329173,1915.238745,1406.391290,7476.080014
2586.329502,1762.019645,1924.535449,7994.224174
2586.329831,1302.362347,1110.308913,8734.430116
2586.330160,459.657299,222.061783,9104.533087
2586.330489,0.000000,-592.164754,10214.842000
2586.330818,-766.095498,-1036.288319,10362.883188
2586.331147,-1225.752797,-1406.391290,10140.821405
2586.331476,-1608.800546,-1406.391290,10140.821405
2586.331805,-766.095498,-1184.329507,9992.780217
2586.332134,-153.219100,-518.144159,9474.636058
2586.332463,1072.533697,-740.205942,8956.491898
2586.332792,1455.581446,-148.041188,8734.430116
2586.333121,842.705048,592.164754,7920.203579
2586.333450,1685.410096,740.205942,7772.162391
2586.333779,842.705048,2072.576638,8290.306550
2586.334108,153.219100,1110.308913,8512.368333
2586.334437,-306.438199,814.226536,9326.594869
2586.334766,-1072.533697,-518.144159,9474.636058
2586.335095,-2068.457845,-1258.350101,10140.821405
2586.335424,-1762.019645,-1702.473667,9918.759623
2586.335753,-1991.848295,-1702.473667,10214.842000
2586.336082,-1991.848295,-1702.473667,9844.739029
2586.336411,-842.705048,-1110.308913,9474.636058
2586.336741,229.828649,-888.247130,9104.533087
2586.337070,766.095498,-0.000000,8068.244768
2586.337399,1532.190996,592.164754,7772.162391
2586.337728,995.924147,814.226536,7476.080014
2586.338057,1455.581446,1554.432478,7994.224174
2586.338386,536.266849,1036.288319,8808.450710
2586.338715,0.000000,-0.000000,9474.636058
2586.339044,-766.095498,-592.164754,9548.656652
2586.339373,-995.924147,-1110.308913,9474.636058
2586.339702,-1762.019645,-1258.350101,9548.656652
2586.340031,-1302.362347,-1332.370696,9844.739029
2586.340360,-919.314598,-962.267725,9696.697840
2586.340689,0.000000,-1332.370696,9030.512492
2586.341018,919.314598,-888.247130,9104.533087
2586.341347,919.314598,-74.020594,8438.347739
2586.341676,1149.143247,814.226536,7476.080014
2586.342005,1072.533697,1406.391290,7846.182985
2586.342334,919.314598,1702.473667,8068.244768
2586.342663,383.047749,740.205942,8438.347739
2586.342992,-153.219100,-518.144159,9622.677246
2586.343321,-612.876398,-1110.308913,9918.759623
2586.343650,-612.876398,-1480.411884,9474.636058
2586.343979,-536.266849,-1628.453072,9844.739029
2586.344309,-306.438199,-1184.329507,9770.718434
2586.344638,919.314598,-444.123565,9252.574275
2586.344967,2145.067394,-370.102971,8808.450710
2586.345296,2911.162892,-0.000000,8290.306550
2586.345625,3217.601092,518.144159,7624.121203
2586.345954,2911.162892,1184.329507,7402.059420
2586.346283,2604.724693,1332.370696,7698.141797
2586.346612,2374.896044,1332.370696,8364.327145
2586.346941,1608.800546,518.144159,9178.553681
2586.347270,842.705048,-814.226536,9770.718434
2586.347599,229.828649,-1702.473667,10288.862594
2586.347928,-383.047749,-1776.494261,10214.842000
2586.348257,-536.266849,-1628.453072,10214.842000
2586.348586,-459.657299,-1332.370696,10140.821405
2586.348915,383.047749,-814.226536,9992.780217
2586.349244,1838.629195,-444.123565,9474.636058
2586.349573,2451.505594,-0.000000,8956.491898
2586.349902,2528.115143,740.205942,8290.306550
2586.350231,2681.334243,1258.350101,7772.162391
2586.350560,2451.505594,1776.494261,7698.141797
2586.350889,1915.238745,2072.576638,8216.285956
2586.351218,766.095498,740.205942,8956.491898
2586.351547,153.219100,-148.041188,10288.862594
2586.351876,-306.438199,-1036.288319,9696.697840
2586.352206,-1762.019645,-962.267725,10066.800811
2586.352535,-1838.629195,-2146.597232,10362.883188
2586.352864,-1608.800546,-1776.494261,9992.780217
2586.353193,-995.924147,-1184.329507,9770.718434
2586.353522,153.219100,-962.267725,9030.512492
2586.353851,459.657299,-0.000000,8586.388927
2586.354180,1378.971896,666.185348,8216.285956
2586.354509,1838.629195,1554.432478,7772.162391
2586.354838,1685.410096,1776.494261,7402.059420
2586.355167,1225.752797,1924.535449,7772.162391
2586.355496,536.266849,1332.370696,8882.471304
2586.355825,-76.609550,-444.123565,9622.677246
2586.356154,-1149.143247,-666.185348,9400.615463
2586.356483,-1455.581446,-1258.350101,9548.656652
2586.356812,-1838.629195,-1406.391290,9992.780217
2586.357141,-1838.629195,-1184.329507,9548.656652
2586.357470,-1532.190996,-1406.391290,9474.636058
2586.357799,-689.485948,-1406.391290,9326.594869
2586.358128,-612.876398,-1184.329507,8956.491898
2586.358457,-229.828649,-518.144159,8586.388927
2586.358786,-383.047749,444.123565,7846.182985
2586.359115,0.000000,1110.308913,7550.100608
2586.359444,-689.485948,1924.535449,7846.182985
2586.359774,-1532.190996,1184.329507,8734.430116
2586.360103,-2221.676944,-0.000000,9548.656652
2586.360432,-2987.772442,-592.164754,9474.636058
2586.360761,-2834.553343,-1554.432478,9770.718434
2586.361090,-3907.087040,-1406.391290,9622.677246
2586.361419,-3524.039291,-1554.432478,9844.739029
2586.361748,-3447.429741,-962.267725,9622.677246
2586.362077,-2451.505594,-888.247130,8956.491898
2586.362406,-2604.724693,-814.226536,8586.388927
2586.362735,-3064.381992,-1110.308913,8882.471304
2586.363064,-2987.772442,-888.247130,8882.471304
2586.363393,-2834.553343,-222.061783,9252.574275
2586.363722,-3217.601092,-0.000000,9104.533087
2586.364051,-2757.943793,740.205942,8734.430116
2586.364380,-2834.553343,222.061783,9548.656652
2586.364709,-2451.505594,-0.000000,9474.636058
2586.365038,-1685.410096,-444.123565,9548.656652
2586.365367,-1762.019645,-444.123565,9178.553681
2586.365696,-1532.190996,-444.123565,9548.656652
2586.366025,-1685.410096,-0.000000,8956.491898
2586.366354,-1608.800546,518.144159,8660.409521
2586.366683,-612.876398,222.061783,8660.409521
2586.367012,-383.047749,-740.205942,8956.491898
2586.367341,0.000000,-666.185348,8512.368333
2586.367671,153.219100,-0.000000,7698.141797
2586.368000,-229.828649,888.247130,7698.141797
2586.368329,-1532.190996,1480.411884,8364.327145
2586.368658,-1378.971896,1480.411884,9178.553681
2586.368987,-2757.943793,1480.411884,8882.471304
2586.369316,-2604.724693,296.082377,9992.780217
2586.369645,-2911.162892,-0.000000,8586.388927
2586.369975,-2911.162892,-740.205942,9474.636058
2586.370304,-3217.601092,-1702.473667,10140.821405
2586.370633,-3370.820191,-1850.514855,10288.862594
2586.370962,-2528.115143,-2368.659014,11251.130318
2586.371291,-2451.505594,-1258.350101,9622.677246
2586.371620,-1915.238745,-518.144159,9474.636058
2586.371949,-2528.115143,148.041188,8512.368333
2586.372279,-1915.238745,-0.000000,9474.636058
2586.372608,-1838.629195,444.123565,10436.903782
2586.372937,-1149.143247,-148.041188,9178.553681
2586.373266,-2145.067394,-0.000000,9030.512492
2586.373595,-2681.334243,296.082377,8882.471304
2586.373924,-2834.553343,-0.000000,8882.471304
2586.374253,-2911.162892,-592.164754,8290.306550
2586.374583,-2757.943793,-370.102971,9030.512492
2586.374912,-2604.724693,666.185348,9104.533087
2586.375241,-2604.724693,444.123565,8586.388927
2586.375570,-2987.772442,666.185348,8364.327145
2586.375899,-3447.429741,296.082377,8586.388927
2586.376228,-3064.381992,-0.000000,8808.450710
2586.376557,-2757.943793,-592.164754,8660.409521
2586.376887,-1991.848295,-740.205942,9178.553681
2586.377216,-2681.334243,-444.123565,8734.430116
2586.377545,-1608.800546,-666.185348,8882.471304
2586.377874,-1838.629195,-370.102971,8882.471304
2586.378203,-1838.629195,-444.123565,9104.533087
2586.378532,-1991.848295,-74.020594,9252.574275
2586.378861,-2145.067394,-0.000000,9622.677246
2586.379191,-3064.381992,-296.082377,9474.636058
2586.379520,-2604.724693,-0.000000,9252.574275
2586.379849,-2987.772442,-0.000000,8808.450710
2586.380178,-3064.381992,-0.000000,8586.388927
2586.380507,-3294.210641,-0.000000,8512.368333
2586.380836,-3600.648841,296.082377,7846.182985
2586.381165,-3294.210641,-0.000000,8512.368333
2586.381495,-4060.306139,-1258.350101,8882.471304
2586.381824,-3830.477490,-1998.556043,9326.594869
2586.382153,-4136.915689,-2368.659014,9770.718434
2586.382482,-4290.134789,-2220.617826,9696.697840
2586.382811,-4213.525239,-1998.556043,9992.780217
2586.383140,-4136.915689,-1332.370696,10214.842000
2586.383469,-3447.429741,-296.082377,10066.800811
2586.383799,-2451.505594,-370.102971,9918.759623
2586.384128,-1915.238745,518.144159,9400.615463
2586.384457,-2068.457845,1406.391290,9622.677246
2586.384786,-2145.067394,1924.535449,8438.347739
2586.385115,-2145.067394,1776.494261,8512.368333
2586.385444,-1991.848295,1850.514855,7698.141797
2586.385774,-2374.896044,1184.329507,7994.224174
2586.386103,-2221.676944,444.123565,7550.100608
2586.386432,-1532.190996,-222.061783,7550.100608
2586.386761,-2374.896044,-0.000000,7550.100608
2586.387090,-2451.505594,-0.000000,7772.162391
2586.387419,-2757.943793,-0.000000,8586.388927
2586.387748,-3064.381992,518.144159,8882.471304
2586.388078,-2451.505594,1332.370696,9030.512492
2586.388407,-2757.943793,1480.411884,9252.574275
2586.388736,-2681.334243,1406.391290,9992.780217
2586.389065,-2298.286494,2368.659014,9696.697840
2586.389394,-2451.505594,1554.432478,9992.780217
2586.389723,-2374.896044,1406.391290,10881.027347
2586.390052,-1838.629195,592.164754,10510.924376
2586.390382,-1455.581446,444.123565,9622.677246
2586.390711,-995.924147,296.082377,9474.636058
2586.391040,-383.047749,1184.329507,8882.471304
2586.391369,-919.314598,-296.082377,11029.068536
2586.391698,1225.752797,1628.453072,9326.594869
2586.392027,2528.115143,2590.720797,6883.915261
2586.392356,3524.039291,3478.967927,7031.956449
2586.392686,2757.943793,4515.256246,6143.709319
2586.393015,4673.182538,4663.297435,8364.327145
2586.393344,2451.505594,4515.256246,6957.935855
2586.393673,1608.800546,3997.112087,9252.574275
2586.394002,229.828649,1776.494261,10066.800811
2586.394331,-1302.362347,2960.823768,10066.800811
2586.394660,-2145.067394,814.226536,11843.295072
2586.394990,-1378.971896,1554.432478,10436.903782
2586.395319,-1225.752797,962.267725,10881.027347
2586.395648,-689.485948,962.267725,9770.718434
2586.395977,0.000000,2738.761985,9474.636058
2586.396306,383.047749,2664.741391,7772.162391
2586.396635,1838.629195,3404.947333,8068.244768
2586.396964,2068.457845,5625.565159,5773.606348
2586.397294,2681.334243,5033.400406,7031.956449
2586.397623,1532.190996,4515.256246,7698.141797
2586.397952,76.609550,4293.194464,7846.182985
2586.398281,-1302.362347,2812.782580,9030.512492
2586.398610,-3064.381992,2368.659014,9770.718434
2586.398939,-2987.772442,740.205942,11473.192101
2586.399268,-3907.087040,2072.576638,10140.821405
2586.399598,-2987.772442,3108.864956,10140.821405
2586.399927,-3217.601092,2220.617826,10955.047942
2586.400256,-3140.991542,2146.597232,10214.842000
2586.400585,-2451.505594,2738.761985,10881.027347
2586.400914,-1608.800546,2368.659014,9918.759623
2586.401243,-536.266849,2664.741391,8586.388927
2586.401572,-1608.800546,3330.926739,7994.224174
2586.401902,-536.266849,2664.741391,10288.862594
2586.402231,1072.533697,1776.494261,13027.624579
2586.402560,2604.724693,4959.379811,6513.812290
2586.402889,4979.620737,5033.400406,7476.080014
2586.403218,3294.210641,5181.441594,5181.441594
2586.403547,3753.867940,6883.915261,7476.080014
2586.403876,2374.896044,6735.874072,7994.224174
2586.404206,2145.067394,5403.503377,8290.306550
2586.404535,1225.752797,5477.523971,8438.347739
2586.404864,306.438199,5625.565159,7179.997637
2586.405193,-842.705048,1998.556043,9548.656652
2586.405522,-2911.162892,-74.020594,12213.398043
2586.405851,-1149.143247,666.185348,10362.883188
2586.406180,-1302.362347,-962.267725,12065.356855
2586.406510,-1991.848295,740.205942,10584.944971
2586.406839,-1149.143247,3478.967927,10881.027347
2586.407168,842.705048,1628.453072,9326.594869
2586.407497,1762.019645,4811.338623,7772.162391
2586.407826,3677.258390,3627.009116,7772.162391
2586.408155,4290.134789,4219.173869,7328.038826
2586.408484,2911.162892,5181.441594,7179.997637
2586.408814,2681.334243,5403.503377,7179.997637
2586.409143,766.095498,3627.009116,7031.956449
2586.409472,689.485948,2516.700203,10066.800811
2586.409801,-1608.800546,296.082377,11621.233289
2586.410130,-1991.848295,-0.000000,11547.212695
2586.410459,-2911.162892,1110.308913,11029.068536
2586.410789,-1991.848295,-814.226536,10881.027347
2586.411118,-2451.505594,1702.473667,10140.821405
2586.411447,-1302.362347,1480.411884,9770.718434
2586.411776,-1072.533697,2812.782580,8290.306550
2586.412105,842.705048,370.102971,12583.501014
2586.412434,3447.429741,2072.576638,7920.203579
2586.412763,5822.325785,3478.967927,8438.347739
2586.413093,3217.601092,3775.050304,5255.462188
2586.413422,3830.477490,3256.906145,4737.318029
2586.413751,3600.648841,4885.359217,8660.409521
2586.414080,2834.553343,3923.091493,7105.977043
2586.414409,2451.505594,4885.359217,7328.038826
2586.414738,612.876398,1628.453072,10214.842000
2586.415067,-3217.601092,-1924.535449,11473.192101
2586.415397,-3907.087040,-3256.906145,12361.439231
2586.415726,-2834.553343,-0.000000,11917.315666
2586.416055,-3370.820191,-2146.597232,11843.295072
2586.416384,-3677.258390,1258.350101,10140.821405
2586.416713,-842.705048,2072.576638,8586.388927
2586.417042,-153.219100,2146.597232,8290.306550
2586.417371,0.000000,2146.597232,8734.430116
2586.417701,3907.087040,814.226536,10881.027347
2586.418030,2911.162892,2886.803174,4293.194464
2586.418359,4136.915689,3256.906145,8512.368333
2586.418688,3064.381992,2590.720797,5107.421000
2586.419017,5209.449386,4219.173869,6661.853478
2586.419346,3217.601092,1628.453072,7105.977043
2586.419675,3064.381992,4811.338623,4589.276840
2586.420005,459.657299,1332.370696,9696.697840
2586.420334,-4213.525239,-1332.370696,10288.862594
2586.420663,-4979.620737,-1702.473667,12805.562797
2586.420992,-5822.325785,-1258.350101,10658.965565
2586.421321,-5132.839837,-1850.514855,10881.027347
2586.421650,-5286.058936,-2516.700203,13249.686362
2586.421979,-2757.943793,-1110.308913,9548.656652
2586.422309,-1302.362347,370.102971,11547.212695
2586.422638,-766.095498,-740.205942,7328.038826
2586.422967,-153.219100,1998.556043,7550.100608
2586.423296,3524.039291,-0.000000,17172.777854
2586.423625,2451.505594,4737.318029,-1184.329507
2586.423954,6818.249932,1998.556043,10288.862594
2586.424283,5592.497135,3552.988522,3849.070898
2586.424613,7814.174080,5699.585753,4737.318029
2586.424942,1838.629195,1184.329507,8882.471304
2586.425271,612.876398,7031.956449,4663.297435
2586.425600,-612.876398,-148.041188,12805.562797
2586.425929,-5362.668486,-1628.453072,11843.295072
2586.426258,-4213.525239,-814.226536,11547.212695
2586.426587,-4136.915689,-4071.132681,11769.274478
2586.426917,-1455.581446,-2590.720797,11325.150913
2586.427246,-3524.039291,-2294.638420,13693.809927
2586.427575,-689.485948,-1850.514855,9104.533087
2586.427904,-2987.772442,2442.679609,7846.182985
2586.428233,-689.485948,-4737.318029,12435.459826
2586.428562,4366.744339,222.061783,7846.182985
2586.428891,5286.058936,4737.318029,5477.523971
2586.429221,6281.983084,666.185348,5921.647536
2586.429550,2374.896044,1998.556043,5625.565159
2586.429879,4213.525239,4367.215058,10584.944971
2586.430208,383.047749,5107.421000,4959.379811
2586.430537,1915.238745,3330.926739,8364.327145
2586.430866,-1225.752797,-518.144159,9474.636058
2586.431195,-1532.190996,-3627.009116,10732.986159
2586.431525,-3370.820191,-2368.659014,11917.315666
2586.431854,-3677.258390,-3849.070898,10362.883188
2586.432183,-2451.505594,-4737.318029,9622.677246
2586.432512,-2451.505594,-1924.535449,12065.356855
2586.432841,1991.848295,-370.102971,7105.977043
2586.433170,2757.943793,-814.226536,7846.182985
2586.433500,4290.134789,-1998.556043,6513.812290
2586.433829,4979.620737,3552.988522,6217.729913
2586.434158,3907.087040,3256.906145,7550.100608
2586.434487,2298.286494,2590.720797,6883.915261
2586.434816,1762.019645,2516.700203,7105.977043
2586.435145,1608.800546,1184.329507,9696.697840
2586.435474,-766.095498,-1110.308913,10288.862594
2586.435804,-1302.362347,-3627.009116,12805.562797
2586.436133,-2528.115143,-1554.432478,11251.130318
2586.436462,-2298.286494,-4145.153275,12657.521608
2586.436791,-2757.943793,-2220.617826,9696.697840
2586.437120,-1149.143247,-3108.864956,10436.903782
2586.437449,-153.219100,-222.061783,9104.533087
2586.437778,2068.457845,-444.123565,7254.018232
2586.438108,3294.210641,1776.494261,5699.585753
2586.438437,3830.477490,1258.350101,6661.853478
2586.438766,2298.286494,1776.494261,7105.977043
2586.439095,306.438199,370.102971,8142.265362
2586.439424,-689.485948,-1554.432478,11103.089130
2586.439753,-995.924147,-2516.700203,11473.192101
2586.440082,-1072.533697,-1480.411884,11103.089130
2586.440412,-1915.238745,-1702.473667,11177.109724
2586.440741,-2374.896044,-1406.391290,10881.027347
2586.441070,-1762.019645,148.041188,10807.006753
2586.441399,0.000000,-74.020594,9770.718434
2586.441728,919.314598,-74.020594,9400.615463
2586.442057,2221.676944,-0.000000,7698.141797
2586.442386,3447.429741,1554.432478,6587.832884
2586.442716,3140.991542,1850.514855,6217.729913
2586.443045,1838.629195,1480.411884,6809.894666
2586.443374,919.314598,-0.000000,7402.059420
2586.443703,153.219100,-518.144159,8956.491898
2586.444032,-689.485948,-1480.411884,9696.697840
2586.444361,-1225.752797,-2886.803174,10584.944971
2586.444690,-1762.019645,-3108.864956,10732.986159
2586.445020,-1378.971896,-2072.576638,10658.965565
2586.445349,-1149.143247,-740.205942,10362.883188
2586.445678,306.438199,-222.061783,10288.862594
2586.446007,1302.362347,370.102971,8956.491898
2586.446336,1762.019645,1850.514855,7920.203579
2586.446665,2145.067394,2368.659014,7254.018232
2586.446994,1915.238745,2072.576638,7105.977043
2586.447324,1608.800546,1702.473667,7624.121203
2586.447653,383.047749,296.082377,7698.141797
2586.447982,0.000000,-740.205942,8364.327145
2586.448311,-919.314598,-592.164754,9474.636058
2586.448640,-1685.410096,-2220.617826,9844.739029
2586.448969,-1608.800546,-2812.782580,9474.636058
2586.449298,-1608.800546,-2664.741391,10066.800811
2586.449628,-612.876398,-2368.659014,10362.883188
2586.449957,0.000000,-1184.329507,9622.677246
2586.450286,1149.143247,-0.000000,9474.636058
2586.450615,1762.019645,1628.453072,8290.306550
2586.450944,1532.190996,2664.741391,7920.203579
2586.451273,1532.190996,3182.885551,8290.306550
2586.451602,689.485948,2368.659014,8216.285956
2586.451932,536.266849,1480.411884,9252.574275
2586.452261,459.657299,-74.020594,9474.636058
2586.452590,0.000000,-222.061783,9696.697840
2586.452919,-842.705048,-1702.473667,9178.553681
2586.453248,-1149.143247,-2220.617826,8882.471304
2586.453577,-842.705048,-1332.370696,8956.491898
2586.453906,0.000000,-1036.288319,8956.491898
2586.454236,1072.533697,-666.185348,8586.388927
2586.454565,1685.410096,-0.000000,8882.471304
2586.454894,1838.629195,-0.000000,9178.553681
2586.455223,1378.971896,1702.473667,8216.285956
2586.455552,766.095498,2220.617826,8734.430116
2586.455881,0.000000,2072.576638,9474.636058
2586.456211,0.000000,1998.556043,10066.800811
2586.456540,0.000000,444.123565,10214.842000
2586.456869,76.609550,-444.123565,9992.780217
2586.457198,-229.828649,-1258.350101,9474.636058
2586.457527,-842.705048,-962.267725,9178.553681
2586.457856,-459.657299,-814.226536,8882.471304
2586.458185,995.924147,-1110.308913,8216.285956
2586.458515,1685.410096,-814.226536,7624.121203
2586.458844,2145.067394,-962.267725,7772.162391
2586.459173,2068.457845,-666.185348,8216.285956
2586.459502,2068.457845,-74.020594,7994.224174
2586.459831,612.876398,666.185348,8882.471304
2586.460160,0.000000,518.144159,9252.574275
2586.460489,-383.047749,-0.000000,10807.006753
2586.460819,-306.438199,-666.185348,10732.986159
2586.461148,-383.047749,-814.226536,10362.883188
2586.461477,-459.657299,-888.247130,10362.883188
2586.461806,-459.657299,-592.164754,9992.780217
2586.462135,919.314598,-666.185348,9474.636058
2586.462464,1225.752797,-296.082377,8586.388927
2586.462793,2068.457845,-370.102971,8142.265362
2586.463123,2068.457845,-666.185348,7476.080014
2586.463452,2068.457845,-74.020594,7105.977043
2586.463781,1685.410096,-296.082377,7179.997637
2586.464110,536.266849,-74.020594,8216.285956
2586.464439,-612.876398,-444.123565,8956.491898
2586.464768,-1378.971896,-1332.370696,10066.800811
2586.465097,-1838.629195,-1480.411884,10510.924376
2586.465427,-1608.800546,-1332.370696,10288.862594
2586.465756,-1838.629195,-1406.391290,10140.821405
2586.466085,-1762.019645,-962.267725,10510.924376
2586.466414,-306.438199,-888.247130,9770.718434
2586.466743,459.657299,-370.102971,8734.430116
2586.467072,1608.800546,-0.000000,8068.244768
2586.467401,1915.238745,592.164754,7624.121203
2586.467731,1915.238745,740.205942,6957.935855
2586.468060,1378.971896,666.185348,6809.894666
2586.468389,919.314598,518.144159,7476.080014
2586.468718,-536.266849,-74.020594,7698.141797
2586.469047,-536.266849,-814.226536,8956.491898
2586.469376,-842.705048,-1480.411884,9548.656652
2586.469705,-1378.971896,-1776.494261,10140.821405
2586.470035,-1685.410096,-1406.391290,10066.800811
2586.470364,-1302.362347,-1184.329507,9992.780217
2586.470693,-612.876398,-518.144159,9696.697840
2586.471022,919.314598,148.041188,9178.553681
2586.471351,1762.019645,-0.000000,9326.594869
2586.471680,2145.067394,740.205942,8142.265362
2586.472010,2298.286494,814.226536,7994.224174
2586.472339,1608.800546,1554.432478,7402.059420
2586.472668,459.657299,1480.411884,8290.306550
2586.472997,-306.438199,444.123565,9030.512492
2586.473326,0.000000,-0.000000,9844.739029
2586.473655,-383.047749,-1036.288319,9844.739029
2586.473984,-766.095498,-1554.432478,10214.842000
2586.474314,-1302.362347,-1924.535449,10362.883188
2586.474643,-766.095498,-1702.473667,9622.677246
2586.474972,306.438199,-444.123565,9474.636058
2586.475301,1532.190996,-0.000000,9030.512492
2586.475630,2068.457845,814.226536,8438.347739
2586.475959,2528.115143,1406.391290,8438.347739
2586.476288,2451.505594,1628.453072,7476.080014
2586.476618,1915.238745,2146.597232,7772.162391
2586.476947,842.705048,1628.453072,8512.368333
2586.477276,-306.438199,814.226536,9326.594869
2586.477605,-689.485948,-962.267725,10214.842000
2586.477934,-766.095498,-1702.473667,10140.821405
2586.478263,-1072.533697,-2294.638420,10510.924376
2586.478593,-1685.410096,-1702.473667,10288.862594
2586.478922,-612.876398,-740.205942,9104.533087
2586.479251,383.047749,-444.123565,8882.471304
2586.479580,1378.971896,962.267725,8142.265362
2586.479909,2681.334243,666.185348,8512.368333
2586.480238,2604.724693,1110.308913,8216.285956
2586.480567,2681.334243,1554.432478,8068.244768
2586.480897,1685.410096,1776.494261,7772.162391
2586.481226,306.438199,962.267725,8882.471304
2586.481555,-689.485948,-0.000000,9918.759623
2586.481884,-995.924147,-888.247130,10584.944971
2586.482213,-1149.143247,-1036.288319,10881.027347
2586.482542,-766.095498,-1406.391290,10288.862594
2586.482871,-842.705048,-1406.391290,9400.615463
2586.483201,-919.314598,-888.247130,9178.553681
2586.483530,229.828649,-740.205942,8734.430116
2586.483859,1455.581446,-0.000000,7920.203579
2586.484188,2451.505594,-0.000000,7994.224174
2586.484517,2834.553343,-222.061783,7772.162391
2586.484846,1762.019645,1036.288319,7772.162391
2586.485176,1455.581446,1110.308913,7624.121203
2586.485505,612.876398,296.082377,8512.368333
2586.485834,-612.876398,888.247130,8956.491898
2586.486163,-1225.752797,-666.185348,10881.027347
2586.486492,-1532.190996,-1036.288319,10658.965565
2586.486821,-2145.067394,-1850.514855,10140.821405
2586.487150,-2451.505594,-1702.473667,9696.697840
2586.487480,-1685.410096,-1480.411884,9474.636058
2586.487809,-689.485948,-962.267725,9474.636058
2586.488138,612.876398,-1258.350101,8808.450710
2586.488467,1608.800546,-666.185348,7994.224174
2586.488796,2374.896044,-74.020594,7772.162391
2586.489125,2068.457845,518.144159,7402.059420
2586.489455,1838.629195,1776.494261,7179.997637
2586.489784,995.924147,1258.350101,8216.285956
2586.490113,0.000000,962.267725,9104.533087
2586.490442,-689.485948,-0.000000,10362.883188
2586.490771,-995.924147,-1332.370696,10807.006753
2586.491100,-1378.971896,-1776.494261,10288.862594
2586.491429,-1378.971896,-2442.679609,10584.944971
2586.491759,-995.924147,-2294.638420,10584.944971
2586.492088,-612.876398,-814.226536,9844.739029
2586.492417,1072.533697,-518.144159,8808.450710
2586.492746,1685.410096,-0.000000,8142.265362
2586.493075,2374.896044,444.123565,8364.327145
2586.493404,2145.067394,592.164754,7402.059420
2586.493733,1762.019645,1036.288319,7994.224174
2586.494063,612.876398,1036.288319,8586.388927
2586.494392,-306.438199,370.102971,9474.636058
2586.494721,-612.876398,-962.267725,9992.780217
2586.495050,-766.095498,-1036.288319,10584.944971
2586.495379,-919.314598,-1258.350101,10362.883188
2586.495708,-1149.143247,-814.226536,9918.759623
2586.496038,-229.828649,-518.144159,9548.656652
2586.496367,919.314598,-0.000000,8660.409521
2586.496696,1838.629195,-0.000000,8882.471304
2586.497025,2221.676944,592.164754,8290.306550
2586.497354,2221.676944,296.082377,8438.347739
2586.497683,1991.848295,814.226536,7550.100608
2586.498012,1532.190996,962.267725,7624.121203
2586.498342,229.828649,1258.350101,8586.388927
2586.498671,-536.266849,296.082377,9178.553681
2586.499000,-306.438199,-518.144159,9992.780217
2586.499329,-766.095498,-1554.432478,10362.883188
2586.499658,-459.657299,-1184.329507,9844.739029
2586.499987,-306.438199,-1184.329507,9326.594869
2586.500317,306.438199,-370.102971,8956.491898
2586.500646,1455.581446,296.082377,8734.430116
2586.500975,2374.896044,666.185348,8660.409521
2586.501304,2834.553343,444.123565,7920.203579
2586.501633,3294.210641,1036.288319,7476.080014
2586.501962,2145.067394,1702.473667,7179.997637
2586.502291,1072.533697,1184.329507,8290.306550
2586.502621,-153.219100,444.123565,8734.430116
2586.502950,-1225.752797,-592.164754,9918.759623
2586.503279,-1838.629195,-1924.535449,10584.944971
2586.503608,-1225.752797,-1998.556043,10214.842000
2586.503937,-2604.724693,-1776.494261,10510.924376
2586.504266,-1762.019645,-1110.308913,9992.780217
2586.504595,-766.095498,-592.164754,9326.594869
2586.504925,153.219100,-0.000000,9252.574275
2586.505254,1685.410096,1110.308913,8216.285956
2586.505583,2298.286494,1406.391290,8882.471304
2586.505912,1991.848295,1702.473667,8364.327145
2586.506241,1838.629195,1406.391290,7920.203579
2586.506570,1225.752797,1480.411884,8364.327145
2586.506900,0.000000,1258.350101,9104.533087
2586.507229,-919.314598,222.061783,9992.780217
2586.507558,-1149.143247,-814.226536,10732.986159
2586.507887,-1378.971896,-1036.288319,11177.109724
2586.508216,-1608.800546,-1258.350101,10510.924376
2586.508545,-2145.067394,-1406.391290,10214.842000
2586.508874,-1225.752797,-814.226536,9400.615463
