#time,accel_x,accel_y,accel_z
2403.531245,612.876398,-296.082377,8882.471304
2403.531574,306.438199,-74.020594,8734.430116
2403.531903,153.219100,-148.041188,8956.491898
2403.532232,229.828649,-148.041188,9030.512492
2403.532561,536.266849,-222.061783,8882.471304
2403.532890,459.657299,-370.102971,8660.409521
2403.533219,536.266849,-0.000000,9178.553681
2403.533548,153.219100,-296.082377,9252.574275
2403.533877,229.828649,-0.000000,9030.512492
2403.534206,383.047749,-222.061783,9030.512492
2403.534535,536.266849,-148.041188,9104.533087
2403.534863,689.485948,-0.000000,9030.512492
2403.535192,612.876398,-148.041188,9326.594869
2403.535521,306.438199,-518.144159,9104.533087
2403.535850,459.657299,370.102971,9030.512492
2403.536179,229.828649,-222.061783,9104.533087
2403.536508,383.047749,-148.041188,9178.553681
2403.536837,229.828649,-222.061783,9178.553681
2403.537166,536.266849,-444.123565,9178.553681
2403.537495,383.047749,-518.144159,9326.594869
2403.537824,229.828649,-296.082377,9178.553681
2403.538153,459.657299,-444.123565,9178.553681
2403.538482,612.876398,-222.061783,9252.574275
2403.538810,459.657299,-370.102971,9252.574275
2403.539139,383.047749,-74.020594,8956.491898
2403.539468,153.219100,-0.000000,9252.574275
2403.539797,383.047749,-74.020594,9104.533087
2403.540126,306.438199,-0.000000,9030.512492
2403.540455,-306.438199,-296.082377,8882.471304
2403.540784,689.485948,-222.061783,9326.594869
2403.541113,689.485948,-222.061783,9178.553681
2403.541442,383.047749,-0.000000,8882.471304
2403.541771,459.657299,-74.020594,8882.471304
2403.542100,229.828649,-74.020594,8882.471304
2403.542428,-383.047749,-0.000000,8882.471304
2403.542757,536.266849,-74.020594,8734.430116
2403.543086,612.876398,444.123565,9326.594869
2403.543415,536.266849,-148.041188,9252.574275
2403.543744,153.219100,-74.020594,8882.471304
2403.544073,229.828649,-0.000000,9104.533087
2403.544402,229.828649,-444.123565,8808.450710
2403.544731,383.047749,-148.041188,9104.533087
2403.545060,229.828649,-148.041188,9326.594869
2403.545389,459.657299,-0.000000,9178.553681
2403.545718,383.047749,-518.144159,9326.594869
2403.546047,383.047749,-0.000000,9030.512492
2403.546375,383.047749,-0.000000,9030.512492
2403.546704,306.438199,-74.020594,9252.574275
2403.547033,153.219100,-222.061783,9178.553681
2403.547362,536.266849,-296.082377,9252.574275
2403.547691,459.657299,-222.061783,8956.491898
2403.548020,306.438199,-222.061783,9474.636058
2403.548349,76.609550,-296.082377,9400.615463
2403.548678,306.438199,-148.041188,9326.594869
2403.549007,383.047749,-148.041188,9252.574275
2403.549336,536.266849,-148.041188,9178.553681
2403.549665,536.266849,-444.123565,8956.491898
2403.549994,919.314598,-148.041188,9104.533087
2403.550322,536.266849,-444.123565,9178.553681
2403.550651,229.828649,-0.000000,9104.533087
2403.550980,306.438199,-222.061783,8956.491898
2403.551309,306.438199,-74.020594,9030.512492
2403.551638,229.828649,-148.041188,9104.533087
2403.551967,0.000000,-296.082377,9030.512492
2403.552296,459.657299,-222.061783,9178.553681
2403.552625,306.438199,-370.102971,9326.594869
2403.552954,459.657299,-74.020594,8882.471304
2403.553283,153.219100,-0.000000,8956.491898
2403.553612,383.047749,-0.000000,8586.388927
2403.553940,229.828649,-0.000000,8660.409521
2403.554269,76.609550,-0.000000,9104.533087
2403.554598,383.047749,-0.000000,8956.491898
2403.554927,229.828649,-444.123565,8956.491898
2403.555256,76.609550,-222.061783,8734.430116
2403.555585,536.266849,-148.041188,9178.553681
2403.555914,689.485948,-888.247130,9696.697840
2403.556243,1685.410096,-962.267725,9474.636058
2403.556572,1991.848295,-518.144159,9178.553681
2403.556901,2068.457845,-740.205942,9548.656652
2403.557230,2757.943793,-518.144159,8882.471304
2403.557559,3370.820191,370.102971,8956.491898
2403.557887,3753.867940,-0.000000,8882.471304
2403.558216,3983.696590,-0.000000,8438.347739
2403.558545,3064.381992,296.082377,8882.471304
2403.558874,2911.162892,222.061783,8586.388927
2403.559203,2604.724693,-296.082377,9030.512492
2403.559532,3064.381992,-1036.288319,9474.636058
2403.559861,1378.971896,-740.205942,9400.615463
2403.560190,1225.752797,-1406.391290,10288.862594
2403.560519,2068.457845,-2146.597232,9696.697840
2403.560848,2451.505594,-222.061783,9474.636058
2403.561177,2298.286494,-888.247130,9844.739029
2403.561505,2451.505594,-962.267725,9400.615463
2403.561834,3753.867940,814.226536,9548.656652
2403.562163,5209.449386,1184.329507,8512.368333
2403.562492,5515.887586,962.267725,7105.977043
2403.562821,4596.572988,1628.453072,9030.512492
2403.563150,5209.449386,1110.308913,8068.244768
2403.563479,4136.915689,666.185348,7476.080014
2403.563808,3677.258390,148.041188,8882.471304
2403.564137,2528.115143,370.102971,8364.327145
2403.564466,1991.848295,-222.061783,9770.718434
2403.564795,76.609550,-1110.308913,9104.533087
2403.565124,919.314598,-666.185348,9770.718434
2403.565452,0.000000,-1184.329507,9326.594869
2403.565781,-383.047749,-814.226536,9252.574275
2403.566110,0.000000,-444.123565,9696.697840
2403.566439,689.485948,-148.041188,9474.636058
2403.566768,842.705048,296.082377,8142.265362
2403.567097,1225.752797,444.123565,9844.739029
2403.567426,1532.190996,1036.288319,8142.265362
2403.567755,995.924147,222.061783,8512.368333
2403.568084,2221.676944,888.247130,8882.471304
2403.568413,842.705048,-814.226536,9252.574275
2403.568742,1149.143247,-0.000000,8586.388927
2403.569071,766.095498,-1406.391290,9844.739029
2403.569399,153.219100,-444.123565,8882.471304
2403.569728,383.047749,-1184.329507,9696.697840
2403.570057,-383.047749,-1480.411884,9326.594869
2403.570386,76.609550,-1036.288319,9474.636058
2403.570715,536.266849,-1776.494261,9326.594869
2403.571044,0.000000,-1184.329507,8956.491898
2403.571373,0.000000,-444.123565,9326.594869
2403.571702,842.705048,-296.082377,9696.697840
2403.572031,766.095498,518.144159,8438.347739
2403.572360,995.924147,370.102971,9104.533087
2403.572689,1608.800546,592.164754,8734.430116
2403.573017,1225.752797,814.226536,8660.409521
2403.573346,1455.581446,1036.288319,8808.450710
2403.573675,1455.581446,814.226536,8290.306550
2403.574004,1072.533697,1184.329507,8216.285956
2403.574333,766.095498,1036.288319,8586.388927
2403.574662,459.657299,592.164754,8734.430116
2403.574991,76.609550,370.102971,8660.409521
2403.575320,0.000000,222.061783,8808.450710
2403.575649,-229.828649,-222.061783,8882.471304
2403.575978,-1149.143247,-740.205942,9548.656652
2403.576307,-689.485948,-296.082377,9326.594869
2403.576636,-689.485948,-888.247130,9474.636058
2403.576964,-612.876398,-740.205942,9992.780217
2403.577293,-306.438199,-1184.329507,10066.800811
2403.577622,-919.314598,-888.247130,9770.718434
2403.577951,689.485948,-222.061783,10510.924376
2403.578280,1072.533697,-444.123565,9918.759623
2403.578609,1685.410096,148.041188,9252.574275
2403.578938,2298.286494,666.185348,8734.430116
2403.579267,3140.991542,1480.411884,8438.347739
2403.579596,2911.162892,1702.473667,7920.203579
2403.579925,3217.601092,1406.391290,7624.121203
2403.580254,2528.115143,1776.494261,7994.224174
2403.580582,2068.457845,1554.432478,8438.347739
2403.580911,689.485948,518.144159,8290.306550
2403.581240,-766.095498,-148.041188,8734.430116
2403.581569,-1378.971896,-1184.329507,9548.656652
2403.581898,-1225.752797,-1998.556043,9696.697840
2403.582227,-842.705048,-1628.453072,9252.574275
2403.582556,-1072.533697,-1850.514855,9474.636058
2403.582885,-1149.143247,-1554.432478,9844.739029
2403.583214,-1149.143247,-1702.473667,9992.780217
2403.583543,-842.705048,-1480.411884,10214.842000
2403.583872,-459.657299,-1332.370696,9400.615463
2403.584201,-153.219100,-1036.288319,9474.636058
2403.584529,0.000000,-740.205942,9696.697840
2403.584858,306.438199,-814.226536,9622.677246
2403.585187,153.219100,-740.205942,8808.450710
2403.585516,919.314598,-370.102971,8734.430116
2403.585845,1225.752797,-74.020594,8216.285956
2403.586174,1378.971896,666.185348,7402.059420
2403.586503,1838.629195,740.205942,7105.977043
2403.586832,1838.629195,370.102971,7476.080014
2403.587161,1302.362347,296.082377,8216.285956
2403.587490,766.095498,148.041188,7698.141797
2403.587819,76.609550,-0.000000,8290.306550
2403.588148,-306.438199,-518.144159,8882.471304
2403.588476,-995.924147,-592.164754,9178.553681
2403.588805,-612.876398,-740.205942,9252.574275
2403.589134,-689.485948,-222.061783,9252.574275
2403.589463,-612.876398,296.082377,9844.739029
2403.589792,-1149.143247,592.164754,9474.636058
2403.590121,-612.876398,444.123565,9326.594869
2403.590450,-612.876398,370.102971,9474.636058
2403.590779,-383.047749,-222.061783,9474.636058
2403.591108,-306.438199,-888.247130,9474.636058
2403.591437,76.609550,-814.226536,9548.656652
2403.591766,229.828649,-296.082377,9918.759623
2403.592094,536.266849,-740.205942,9844.739029
2403.592423,842.705048,-444.123565,9474.636058
2403.592752,1608.800546,-74.020594,9474.636058
2403.593081,2221.676944,370.102971,9030.512492
2403.593410,2221.676944,-0.000000,9326.594869
2403.593739,2757.943793,1110.308913,8956.491898
2403.594068,3140.991542,1406.391290,8808.450710
2403.594397,2681.334243,1702.473667,8734.430116
2403.594726,2068.457845,1554.432478,8808.450710
2403.595055,1532.190996,1258.350101,8586.388927
2403.595384,919.314598,666.185348,9030.512492
2403.595713,0.000000,-74.020594,9400.615463
2403.596041,-612.876398,-666.185348,9400.615463
2403.596370,-1302.362347,-1036.288319,9992.780217
2403.596699,-536.266849,-1554.432478,9622.677246
2403.597028,-919.314598,-1628.453072,9326.594869
2403.597357,-1072.533697,-1776.494261,9548.656652
2403.597686,-612.876398,-1554.432478,9474.636058
2403.598015,-383.047749,-1554.432478,9992.780217
2403.598344,153.219100,-1258.350101,9622.677246
2403.598673,0.000000,-1110.308913,9474.636058
2403.599002,0.000000,-1036.288319,9326.594869
2403.599331,229.828649,-592.164754,9400.615463
2403.599659,459.657299,-370.102971,9252.574275
2403.599988,1455.581446,148.041188,8364.327145
2403.600317,1991.848295,370.102971,7846.182985
2403.600646,1915.238745,740.205942,7402.059420
2403.600975,1685.410096,1110.308913,7328.038826
2403.601305,1685.410096,666.185348,7105.977043
2403.601634,919.314598,666.185348,7624.121203
2403.601963,306.438199,-0.000000,8142.265362
2403.602292,-536.266849,-518.144159,8660.409521
2403.602621,-842.705048,-962.267725,8882.471304
2403.602950,-919.314598,-888.247130,9178.553681
2403.603279,-995.924147,-296.082377,9252.574275
2403.603609,-995.924147,-74.020594,9474.636058
2403.603938,-612.876398,-0.000000,9400.615463
2403.604267,-766.095498,222.061783,9696.697840
2403.604596,-842.705048,-148.041188,9770.718434
2403.604925,-306.438199,-296.082377,9474.636058
2403.605254,-612.876398,-666.185348,9474.636058
2403.605584,-306.438199,-518.144159,9474.636058
2403.605913,0.000000,-592.164754,9992.780217
2403.606242,76.609550,-1036.288319,9326.594869
2403.606571,459.657299,-666.185348,9400.615463
2403.606900,612.876398,-222.061783,9400.615463
2403.607229,766.095498,-370.102971,9326.594869
2403.607558,1378.971896,222.061783,8882.471304
2403.607888,1915.238745,1702.473667,9030.512492
2403.608217,2068.457845,2072.576638,8660.409521
2403.608546,2298.286494,1702.473667,8290.306550
2403.608875,2374.896044,1924.535449,8512.368333
2403.609204,2068.457845,1998.556043,8438.347739
2403.609533,1608.800546,962.267725,8660.409521
2403.609863,306.438199,592.164754,8956.491898
2403.610192,-612.876398,-222.061783,9252.574275
2403.610521,-842.705048,-1110.308913,9918.759623
2403.610850,-1302.362347,-1110.308913,9252.574275
2403.611179,-1378.971896,-1776.494261,9696.697840
2403.611508,-995.924147,-1776.494261,9622.677246
2403.611837,-1149.143247,-1480.411884,9548.656652
2403.612167,-1072.533697,-1480.411884,9696.697840
2403.612496,-459.657299,-1702.473667,9622.677246
2403.612825,-306.438199,-1332.370696,9548.656652
2403.613154,0.000000,-1036.288319,9918.759623
2403.613483,0.000000,-592.164754,9474.636058
2403.613812,0.000000,-444.123565,9474.636058
2403.614142,153.219100,-370.102971,9696.697840
2403.614471,-536.266849,-0.000000,9474.636058
2403.614800,612.876398,-0.000000,9178.553681
2403.615129,1302.362347,666.185348,8512.368333
2403.615458,1838.629195,814.226536,7402.059420
2403.615787,2068.457845,1110.308913,7624.121203
2403.616116,2068.457845,1406.391290,7031.956449
2403.616446,2068.457845,888.247130,7624.121203
2403.616775,1378.971896,740.205942,7920.203579
2403.617104,153.219100,444.123565,8068.244768
2403.617433,-536.266849,-370.102971,8882.471304
2403.617762,-536.266849,-518.144159,8956.491898
2403.618091,-766.095498,-296.082377,9622.677246
2403.618421,-689.485948,-592.164754,9252.574275
2403.618750,-153.219100,-74.020594,9326.594869
2403.619079,-229.828649,-592.164754,9474.636058
2403.619408,153.219100,-592.164754,9474.636058
2403.619737,-383.047749,-592.164754,9326.594869
2403.620066,-459.657299,-962.267725,9326.594869
2403.620395,153.219100,-962.267725,9474.636058
2403.620725,0.000000,-1184.329507,9474.636058
2403.621054,229.828649,-962.267725,9474.636058
2403.621383,1072.533697,-740.205942,9696.697840
2403.621712,995.924147,-666.185348,9474.636058
2403.622041,1838.629195,-74.020594,9326.594869
2403.622370,2145.067394,888.247130,8216.285956
2403.622700,2528.115143,1554.432478,8142.265362
2403.623029,2834.553343,2146.597232,7920.203579
2403.623358,2911.162892,2368.659014,7920.203579
2403.623687,2374.896044,1776.494261,7920.203579
2403.624016,1302.362347,888.247130,7994.224174
2403.624345,612.876398,-0.000000,9030.512492
2403.624674,-612.876398,-518.144159,9474.636058
2403.625004,-1149.143247,-1628.453072,10436.903782
2403.625333,-1072.533697,-1702.473667,9770.718434
2403.625662,-1225.752797,-1628.453072,9548.656652
2403.625991,-1302.362347,-1998.556043,10214.842000
2403.626320,-1149.143247,-1554.432478,9992.780217
2403.626649,-1072.533697,-1406.391290,10288.862594
2403.626979,-842.705048,-1332.370696,10140.821405
2403.627308,-766.095498,-1406.391290,9918.759623
2403.627637,-306.438199,-888.247130,9918.759623
2403.627966,0.000000,-370.102971,9992.780217
2403.628295,76.609550,-148.041188,9992.780217
2403.628624,0.000000,-444.123565,9696.697840
2403.628953,76.609550,-0.000000,9252.574275
2403.629283,383.047749,-0.000000,8808.450710
2403.629612,383.047749,148.041188,8734.430116
2403.629941,612.876398,-0.000000,7920.203579
2403.630270,1455.581446,1036.288319,8068.244768
2403.630599,1532.190996,1184.329507,7624.121203
2403.630928,1915.238745,1110.308913,7179.997637
2403.631258,1685.410096,888.247130,7254.018232
2403.631587,1378.971896,1110.308913,7550.100608
2403.631916,1072.533697,962.267725,7772.162391
2403.632245,153.219100,222.061783,8438.347739
2403.632574,-306.438199,-518.144159,9474.636058
2403.632903,-919.314598,-296.082377,9770.718434
2403.633232,-612.876398,-592.164754,9474.636058
2403.633562,-612.876398,-814.226536,9474.636058
2403.633891,-459.657299,-814.226536,9548.656652
2403.634220,0.000000,-444.123565,9474.636058
2403.634549,76.609550,-740.205942,9622.677246
2403.634878,0.000000,-1480.411884,9548.656652
2403.635207,612.876398,-888.247130,9622.677246
2403.635537,229.828649,-518.144159,9992.780217
2403.635866,0.000000,-592.164754,9918.759623
2403.636195,995.924147,-740.205942,9918.759623
2403.636524,2145.067394,-0.000000,8882.471304
2403.636853,2911.162892,888.247130,8438.347739
2403.637182,2757.943793,1258.350101,7994.224174
2403.637511,3064.381992,1998.556043,8142.265362
2403.637841,2604.724693,2146.597232,7846.182985
2403.638170,2221.676944,2072.576638,8364.327145
2403.638499,1072.533697,1258.350101,8808.450710
2403.638828,-229.828649,-0.000000,9178.553681
2403.639157,-995.924147,-1036.288319,9844.739029
2403.639486,-1532.190996,-2442.679609,10807.006753
2403.639816,-995.924147,-2368.659014,9548.656652
2403.640145,-612.876398,-1702.473667,9770.718434
2403.640474,-689.485948,-1258.350101,9844.739029
2403.640803,-919.314598,-814.226536,9622.677246
2403.641132,-995.924147,-1480.411884,10214.842000
2403.641461,-459.657299,-1406.391290,9770.718434
2403.641790,-229.828649,-1184.329507,10362.883188
2403.642120,-153.219100,-1258.350101,10510.924376
2403.642449,-383.047749,-962.267725,8882.471304
2403.642778,229.828649,-518.144159,9326.594869
2403.643107,153.219100,-74.020594,9400.615463
2403.643436,229.828649,370.102971,8734.430116
2403.643765,229.828649,518.144159,8512.368333
2403.644095,919.314598,1110.308913,7476.080014
2403.644424,1455.581446,592.164754,7698.141797
2403.644753,919.314598,962.267725,7254.018232
2403.645082,1455.581446,1184.329507,7105.977043
2403.645411,1532.190996,814.226536,7328.038826
2403.645740,1072.533697,962.267725,7698.141797
2403.646069,536.266849,148.041188,7994.224174
2403.646399,76.609550,-222.061783,8734.430116
2403.646728,0.000000,-592.164754,9474.636058
2403.647057,-766.095498,-888.247130,9844.739029
2403.647386,-995.924147,-518.144159,9918.759623
2403.647715,-536.266849,-222.061783,9474.636058
2403.648044,-689.485948,-814.226536,9548.656652
2403.648374,-842.705048,-518.144159,9844.739029
2403.648703,-536.266849,-888.247130,9622.677246
2403.649032,229.828649,-1406.391290,9400.615463
2403.649361,153.219100,-1036.288319,9770.718434
2403.649690,-306.438199,-666.185348,9844.739029
2403.650019,0.000000,-814.226536,9548.656652
2403.650348,459.657299,-592.164754,9844.739029
2403.650678,1225.752797,-444.123565,9696.697840
2403.651007,1762.019645,-0.000000,9030.512492
2403.651336,2451.505594,1110.308913,8734.430116
2403.651665,3217.601092,1850.514855,8068.244768
2403.651994,3447.429741,2146.597232,8068.244768
2403.652323,2681.334243,2146.597232,8364.327145
2403.652653,2221.676944,2072.576638,8290.306550
2403.652982,1762.019645,1036.288319,8734.430116
2403.653311,689.485948,222.061783,9104.533087
2403.653640,-689.485948,-740.205942,9474.636058
2403.653969,-842.705048,-2072.576638,10288.862594
2403.654298,-766.095498,-1702.473667,9992.780217
2403.654627,-536.266849,-1332.370696,9474.636058
2403.654957,-842.705048,-1258.350101,9474.636058
2403.655286,-919.314598,-814.226536,9326.594869
2403.655615,-842.705048,-1258.350101,10066.800811
2403.655944,-153.219100,-1258.350101,9696.697840
2403.656273,0.000000,-888.247130,9992.780217
2403.656602,-229.828649,-962.267725,9770.718434
2403.656932,-229.828649,-370.102971,9252.574275
2403.657261,-306.438199,-666.185348,9548.656652
2403.657590,-383.047749,-222.061783,9252.574275
2403.657919,612.876398,-0.000000,8660.409521
2403.658248,919.314598,-0.000000,9178.553681
2403.658577,766.095498,370.102971,8438.347739
2403.658906,1455.581446,666.185348,7328.038826
2403.659236,1685.410096,962.267725,7328.038826
2403.659565,1762.019645,1628.453072,6957.935855
2403.659894,1378.971896,1036.288319,7846.182985
2403.660223,842.705048,370.102971,7698.141797
2403.660552,536.266849,592.164754,8586.388927
2403.660881,0.000000,-888.247130,9178.553681
2403.661211,-1072.533697,-962.267725,9400.615463
2403.661540,-459.657299,-888.247130,9992.780217
2403.661869,-766.095498,-444.123565,9696.697840
2403.662198,-383.047749,-148.041188,9696.697840
2403.662527,-766.095498,-740.205942,9696.697840
2403.662856,-153.219100,-0.000000,9622.677246
2403.663185,0.000000,-518.144159,9992.780217
2403.663515,-459.657299,-962.267725,9844.739029
2403.663844,229.828649,-444.123565,9178.553681
2403.664173,459.657299,-518.144159,9548.656652
2403.664502,459.657299,-444.123565,9548.656652
2403.664831,1685.410096,-148.041188,9104.533087
2403.665160,3064.381992,444.123565,8290.306550
2403.665490,2987.772442,962.267725,7994.224174
2403.665819,3217.601092,1332.370696,8290.306550
2403.666148,2757.943793,1850.514855,7994.224174
2403.666477,2221.676944,1998.556043,8364.327145
2403.666806,1455.581446,1554.432478,8512.368333
2403.667135,459.657299,370.102971,9252.574275
2403.667464,-229.828649,-444.123565,9770.718434
2403.667794,-1072.533697,-1998.556043,10288.862594
2403.668123,-1225.752797,-1998.556043,10584.944971
2403.668452,-1302.362347,-1554.432478,9844.739029
2403.668781,-995.924147,-1628.453072,9918.759623
2403.669110,-842.705048,-888.247130,9548.656652
2403.669439,-919.314598,-1332.370696,9992.780217
2403.669769,-1149.143247,-1480.411884,10288.862594
2403.670098,-766.095498,-1702.473667,9770.718434
2403.670427,0.000000,-1480.411884,9770.718434
2403.670756,-229.828649,-1110.308913,9474.636058
2403.671085,-306.438199,-814.226536,9474.636058
2403.671414,0.000000,-740.205942,9548.656652
2403.671743,-153.219100,222.061783,9474.636058
2403.672073,612.876398,-0.000000,9400.615463
2403.672402,383.047749,222.061783,8438.347739
2403.672731,1302.362347,1184.329507,7624.121203
2403.673060,1991.848295,1110.308913,7402.059420
2403.673389,1915.238745,1554.432478,6957.935855
2403.673718,1915.238745,1406.391290,7105.977043
2403.674048,1685.410096,1258.350101,7402.059420
2403.674377,536.266849,1258.350101,7772.162391
2403.674706,0.000000,-222.061783,8364.327145
2403.675035,-689.485948,-296.082377,8808.450710
2403.675364,-766.095498,-888.247130,9474.636058
2403.675693,-766.095498,-1110.308913,9696.697840
2403.676022,-612.876398,-518.144159,9252.574275
2403.676352,-459.657299,-518.144159,9400.615463
2403.676681,-459.657299,-592.164754,9326.594869
2403.677010,-459.657299,-740.205942,9696.697840
2403.677339,-306.438199,-888.247130,9770.718434
2403.677668,153.219100,-888.247130,9400.615463
2403.677997,153.219100,-518.144159,9622.677246
2403.678327,153.219100,-666.185348,9696.697840
2403.678656,536.266849,-1184.329507,9844.739029
2403.678985,1685.410096,-222.061783,9252.574275
2403.679314,2528.115143,-0.000000,8586.388927
2403.679643,2757.943793,814.226536,8142.265362
2403.679972,2681.334243,1776.494261,8142.265362
2403.680302,2987.772442,2146.597232,8216.285956
2403.680631,2451.505594,1850.514855,8068.244768
2403.680960,1838.629195,1332.370696,8586.388927
2403.681289,766.095498,592.164754,9104.533087
2403.681618,0.000000,-0.000000,9548.656652
2403.681947,-1532.190996,-814.226536,10362.883188
2403.682276,-1149.143247,-1702.473667,10584.944971
2403.682606,-1378.971896,-1776.494261,9770.718434
2403.682935,-995.924147,-1332.370696,10066.800811
2403.683264,-995.924147,-1184.329507,9622.677246
2403.683593,-689.485948,-1184.329507,9770.718434
2403.683922,-842.705048,-1702.473667,10214.842000
2403.684251,0.000000,-1332.370696,9474.636058
2403.684581,-306.438199,-1258.350101,9992.780217
2403.684910,-229.828649,-1184.329507,9474.636058
2403.685239,-153.219100,-592.164754,9178.553681
2403.685568,153.219100,-444.123565,9474.636058
2403.685897,459.657299,-148.041188,8956.491898
2403.686226,536.266849,296.082377,8734.430116
2403.686555,612.876398,592.164754,8734.430116
2403.686885,1302.362347,814.226536,7846.182985
2403.687214,1302.362347,888.247130,7550.100608
2403.687543,1991.848295,1110.308913,7328.038826
2403.687872,1838.629195,1628.453072,6809.894666
2403.688201,1838.629195,1036.288319,7402.059420
2403.688530,1072.533697,1406.391290,7402.059420
2403.688860,612.876398,370.102971,7179.997637
2403.689189,229.828649,-148.041188,8660.409521
2403.689518,-536.266849,-444.123565,8956.491898
2403.689847,-766.095498,-1184.329507,9622.677246
2403.690176,-766.095498,-1258.350101,9474.636058
2403.690505,-459.657299,-888.247130,9474.636058
2403.690834,-306.438199,-222.061783,10288.862594
2403.691164,-229.828649,-888.247130,9844.739029
2403.691493,0.000000,-888.247130,9400.615463
2403.691822,153.219100,-888.247130,9622.677246
2403.692151,536.266849,-666.185348,9696.697840
2403.692480,919.314598,-888.247130,10066.800811
2403.692809,1455.581446,-148.041188,9030.512492
2403.693139,2145.067394,-0.000000,9104.533087
2403.693468,2374.896044,148.041188,8290.306550
2403.693797,2911.162892,814.226536,8438.347739
2403.694126,2451.505594,1110.308913,8364.327145
2403.694455,2374.896044,1332.370696,8512.368333
2403.694784,1838.629195,1554.432478,8956.491898
2403.695113,1072.533697,888.247130,9178.553681
2403.695443,383.047749,-0.000000,9252.574275
2403.695772,0.000000,-296.082377,10362.883188
2403.696101,-1225.752797,-814.226536,9918.759623
2403.696430,-1302.362347,-1184.329507,10066.800811
2403.696759,-1302.362347,-888.247130,9918.759623
2403.697088,-1149.143247,-888.247130,9548.656652
2403.697418,-919.314598,-1332.370696,9474.636058
2403.697747,-1455.581446,-814.226536,9178.553681
2403.698076,-459.657299,-740.205942,9696.697840
2403.698405,-612.876398,-1258.350101,9474.636058
2403.698734,-689.485948,-1036.288319,9474.636058
2403.699063,-306.438199,-1184.329507,9252.574275
2403.699392,-383.047749,-740.205942,9326.594869
2403.699722,0.000000,-296.082377,9622.677246
2403.700051,-383.047749,-592.164754,9030.512492
2403.700380,995.924147,-0.000000,9178.553681
2403.700709,919.314598,444.123565,8660.409521
2403.701038,1608.800546,1184.329507,7328.038826
2403.701367,1532.190996,962.267725,7328.038826
2403.701697,1455.581446,1332.370696,7105.977043
2403.702026,1532.190996,1258.350101,7846.182985
2403.702355,2068.457845,444.123565,7994.224174
2403.702684,766.095498,-0.000000,8068.244768
2403.703013,0.000000,-74.020594,8734.430116
2403.703342,-612.876398,-518.144159,8956.491898
2403.703671,-919.314598,-740.205942,9696.697840
2403.704001,-995.924147,-814.226536,9400.615463
2403.704330,-536.266849,-518.144159,9400.615463
2403.704659,-766.095498,-518.144159,9770.718434
2403.704988,-459.657299,-518.144159,9326.594869
2403.705317,-459.657299,-444.123565,9474.636058
2403.705646,-306.438199,-814.226536,9696.697840
2403.705976,-459.657299,-370.102971,9770.718434
2403.706305,536.266849,-666.185348,9400.615463
2403.706634,1149.143247,-296.082377,9104.533087
2403.706963,1608.800546,-518.144159,9104.533087
2403.707292,1991.848295,222.061783,9104.533087
2403.707621,2451.505594,370.102971,8808.450710
2403.707950,2528.115143,1110.308913,8438.347739
2403.708280,2451.505594,1110.308913,8586.388927
2403.708609,1685.410096,1258.350101,8882.471304
2403.708938,1838.629195,1332.370696,8734.430116
2403.709267,1072.533697,962.267725,9030.512492
2403.709596,536.266849,370.102971,9326.594869
2403.709925,0.000000,-0.000000,8956.491898
2403.710255,-536.266849,-0.000000,9474.636058
2403.710584,-1225.752797,-370.102971,9844.739029
2403.710913,-1302.362347,-1036.288319,9992.780217
2403.711242,-1149.143247,-1628.453072,9770.718434
2403.711571,-995.924147,-814.226536,9696.697840
2403.711900,-919.314598,-1332.370696,9918.759623
2403.712229,-842.705048,-1776.494261,9622.677246
2403.712559,-766.095498,-1480.411884,9992.780217
2403.712888,-153.219100,-1480.411884,9622.677246
2403.713217,0.000000,-1110.308913,9400.615463
2403.713546,383.047749,-814.226536,9252.574275
2403.713875,536.266849,-518.144159,9696.697840
2403.714204,689.485948,-148.041188,8882.471304
2403.714533,1532.190996,1258.350101,8290.306550
2403.714862,1762.019645,740.205942,7920.203579
2403.715191,1378.971896,1184.329507,7476.080014
2403.715520,1149.143247,1184.329507,7994.224174
2403.715850,1072.533697,518.144159,8290.306550
2403.716179,689.485948,-0.000000,8290.306550
2403.716508,0.000000,-0.000000,8734.430116
2403.716837,-1072.533697,-296.082377,8882.471304
2403.717166,-995.924147,-1036.288319,9326.594869
2403.717495,-842.705048,-888.247130,9104.533087
2403.717824,-536.266849,-444.123565,8956.491898
2403.718153,-153.219100,-666.185348,9178.553681
2403.718482,-612.876398,-592.164754,9030.512492
2403.718811,0.000000,222.061783,9104.533087
2403.719141,459.657299,-0.000000,8808.450710
2403.719470,689.485948,-0.000000,8734.430116
2403.719799,919.314598,-74.020594,8586.388927
2403.720128,995.924147,-74.020594,8660.409521
2403.720457,1608.800546,-222.061783,8438.347739
2403.720786,1685.410096,-666.185348,8586.388927
2403.721115,1378.971896,-370.102971,8882.471304
2403.721444,1149.143247,-444.123565,8882.471304
2403.721773,1149.143247,-148.041188,9030.512492
2403.722102,995.924147,-222.061783,9474.636058
2403.722432,842.705048,-148.041188,9474.636058
2403.722761,919.314598,296.082377,9400.615463
2403.723090,995.924147,592.164754,9474.636058
2403.723419,1225.752797,1628.453072,9104.533087
2403.723748,1455.581446,962.267725,8956.491898
2403.724077,919.314598,1332.370696,9178.553681
2403.724406,536.266849,888.247130,9178.553681
2403.724735,0.000000,-0.000000,9252.574275
2403.725064,-459.657299,-592.164754,9178.553681
2403.725393,-995.924147,-1332.370696,9622.677246
2403.725723,-1532.190996,-1850.514855,9622.677246
2403.726052,-1991.848295,-2294.638420,9770.718434
2403.726381,-1532.190996,-1998.556043,9770.718434
2403.726710,-919.314598,-1850.514855,9622.677246
2403.727039,-766.095498,-1258.350101,9918.759623
2403.727368,0.000000,-888.247130,9992.780217
2403.727697,76.609550,-962.267725,9548.656652
2403.728026,0.000000,-666.185348,9548.656652
2403.728355,76.609550,-518.144159,9844.739029
2403.728684,842.705048,-0.000000,8882.471304
2403.729014,1532.190996,814.226536,8438.347739
2403.729343,2068.457845,1332.370696,7994.224174
2403.729672,1915.238745,1184.329507,7550.100608
2403.730001,1685.410096,1036.288319,7920.203579
2403.730330,689.485948,1184.329507,7920.203579
2403.730659,1072.533697,592.164754,7772.162391
2403.730988,0.000000,148.041188,8734.430116
2403.731317,-689.485948,-444.123565,8364.327145
2403.731646,-612.876398,-740.205942,9178.553681
2403.731975,-612.876398,-666.185348,8882.471304
2403.732305,-383.047749,-814.226536,9104.533087
2403.732634,0.000000,-518.144159,8734.430116
2403.732963,-229.828649,-0.000000,9030.512492
2403.733292,0.000000,-0.000000,9400.615463
2403.733621,153.219100,-74.020594,9104.533087
2403.733950,306.438199,-0.000000,8882.471304
2403.734279,842.705048,-296.082377,8808.450710
2403.734608,229.828649,-370.102971,9252.574275
2403.734937,1225.752797,-666.185348,9178.553681
2403.735266,1838.629195,-666.185348,9104.533087
2403.735596,1532.190996,-370.102971,9030.512492
2403.735925,1302.362347,-74.020594,9400.615463
2403.736254,1455.581446,-0.000000,9400.615463
2403.736583,1685.410096,-0.000000,9326.594869
2403.736912,1378.971896,-0.000000,9548.656652
2403.737241,1532.190996,370.102971,9326.594869
2403.737570,1225.752797,592.164754,9178.553681
2403.737899,1225.752797,666.185348,9326.594869
2403.738228,1072.533697,888.247130,9400.615463
2403.738557,612.876398,518.144159,9400.615463
2403.738887,0.000000,-0.000000,9178.553681
2403.739216,0.000000,-370.102971,9326.594869
2403.739545,-612.876398,-1036.288319,9178.553681
2403.739874,-919.314598,-1406.391290,9696.697840
2403.740203,-1455.581446,-1850.514855,9622.677246
2403.740532,-995.924147,-1924.535449,9696.697840
2403.740861,-689.485948,-1554.432478,9474.636058
2403.741190,-612.876398,-1406.391290,9696.697840
2403.741519,-612.876398,-666.185348,9474.636058
2403.741848,0.000000,-814.226536,9696.697840
2403.742178,229.828649,-740.205942,9474.636058
2403.742507,842.705048,-222.061783,8882.471304
2403.742836,1149.143247,370.102971,8290.306550
2403.743165,1608.800546,592.164754,8216.285956
2403.743494,1378.971896,814.226536,8068.244768
2403.743823,1762.019645,740.205942,7920.203579
2403.744152,1225.752797,814.226536,7994.224174
2403.744481,306.438199,370.102971,7994.224174
2403.744810,0.000000,-0.000000,8142.265362
2403.745139,-612.876398,-518.144159,8512.368333
2403.745469,-689.485948,-518.144159,8882.471304
2403.745798,-689.485948,-666.185348,9178.553681
2403.746127,-689.485948,-666.185348,9104.533087
2403.746456,-689.485948,-518.144159,9178.553681
2403.746785,0.000000,-148.041188,8956.491898
2403.747114,0.000000,-0.000000,9474.636058
2403.747443,229.828649,148.041188,9178.553681
2403.747772,536.266849,296.082377,8734.430116
2403.748101,1225.752797,296.082377,9030.512492
2403.748430,1225.752797,-0.000000,8808.450710
2403.748760,1378.971896,-296.082377,9252.574275
2403.749089,1149.143247,-592.164754,8882.471304
2403.749418,766.095498,-592.164754,9326.594869
2403.749747,766.095498,-666.185348,9548.656652
2403.750076,612.876398,-592.164754,9548.656652
2403.750405,536.266849,-444.123565,9696.697840
2403.750734,842.705048,-0.000000,9992.780217
2403.751063,1149.143247,592.164754,9696.697840
2403.751392,1608.800546,814.226536,9400.615463
2403.751721,1762.019645,962.267725,8882.471304
2403.752051,1532.190996,1554.432478,8734.430116
2403.752380,1378.971896,1554.432478,8660.409521
2403.752709,842.705048,1406.391290,8586.388927
2403.753038,153.219100,740.205942,8956.491898
2403.753367,-153.219100,-0.000000,9252.574275
2403.753696,0.000000,-1036.288319,9400.615463
2403.754025,-1225.752797,-1480.411884,9474.636058
2403.754354,-1378.971896,-1998.556043,9622.677246
2403.754683,-1302.362347,-1850.514855,9548.656652
2403.755012,-1072.533697,-1702.473667,9918.759623
2403.755342,-612.876398,-1702.473667,9474.636058
2403.755671,-689.485948,-1036.288319,9548.656652
2403.756000,-306.438199,-962.267725,9918.759623
2403.756329,0.000000,-740.205942,9474.636058
2403.756658,-153.219100,-370.102971,9474.636058
2403.756987,76.609550,-296.082377,9548.656652
2403.757316,995.924147,-296.082377,9326.594869
2403.757645,1532.190996,370.102971,8364.327145
2403.757974,2145.067394,1406.391290,7624.121203
2403.758303,2145.067394,1036.288319,7476.080014
2403.758633,2298.286494,1258.350101,7624.121203
2403.758962,1455.581446,1258.350101,7550.100608
2403.759291,995.924147,666.185348,7920.203579
2403.759620,536.266849,-0.000000,8586.388927
2403.759949,-459.657299,-296.082377,8734.430116
2403.760278,-612.876398,-740.205942,9252.574275
2403.760607,-1149.143247,-1036.288319,9474.636058
2403.760936,-536.266849,-666.185348,9992.780217
2403.761265,-612.876398,-666.185348,9548.656652
2403.761594,-689.485948,-0.000000,9252.574275
2403.761924,-306.438199,-0.000000,9474.636058
2403.762253,-229.828649,-0.000000,9474.636058
2403.762582,-536.266849,-370.102971,9178.553681
2403.762911,229.828649,-518.144159,9474.636058
2403.763240,459.657299,-666.185348,9178.553681
2403.763569,689.485948,-740.205942,9104.533087
2403.763898,1378.971896,-444.123565,8882.471304
2403.764227,1685.410096,-74.020594,8808.450710
2403.764556,1991.848295,-0.000000,8882.471304
2403.764885,1991.848295,444.123565,8808.450710
2403.765215,2068.457845,592.164754,8956.491898
2403.765544,1302.362347,962.267725,9326.594869
2403.765873,1225.752797,814.226536,9326.594869
2403.766202,1455.581446,962.267725,8956.491898
2403.766531,995.924147,888.247130,8882.471304
2403.766860,842.705048,592.164754,9030.512492
2403.767189,229.828649,666.185348,9326.594869
2403.767518,0.000000,-74.020594,9104.533087
2403.767847,-306.438199,-444.123565,9104.533087
2403.768176,-1072.533697,-1258.350101,9474.636058
2403.768506,-1302.362347,-1924.535449,9770.718434
2403.768835,-1378.971896,-1850.514855,9474.636058
2403.769164,-995.924147,-1998.556043,9474.636058
2403.769493,-842.705048,-1850.514855,9770.718434
2403.769822,-612.876398,-1628.453072,9992.780217
2403.770151,-536.266849,-1110.308913,9770.718434
2403.770480,76.609550,-888.247130,9474.636058
2403.770809,0.000000,-370.102971,9696.697840
2403.771138,0.000000,-296.082377,9844.739029
2403.771467,689.485948,-0.000000,9252.574275
2403.771797,1378.971896,518.144159,8216.285956
2403.772126,2145.067394,592.164754,7920.203579
2403.772455,2145.067394,740.205942,7550.100608
2403.772784,1608.800546,1184.329507,7550.100608
2403.773113,995.924147,1184.329507,8068.244768
2403.773442,689.485948,370.102971,7698.141797
2403.773771,229.828649,-74.020594,8290.306550
2403.774100,0.000000,-666.185348,8438.347739
2403.774429,-306.438199,-888.247130,8882.471304
2403.774758,-766.095498,-888.247130,9474.636058
2403.775088,-612.876398,-296.082377,9178.553681
2403.775417,-306.438199,-0.000000,9104.533087
2403.775746,-306.438199,370.102971,9178.553681
2403.776075,-383.047749,-0.000000,9474.636058
2403.776404,0.000000,-74.020594,9178.553681
2403.776733,306.438199,-0.000000,8956.491898
2403.777062,612.876398,-666.185348,8808.450710
2403.777391,842.705048,-518.144159,8808.450710
2403.777720,1225.752797,-370.102971,8660.409521
2403.778049,1455.581446,-222.061783,8660.409521
2403.778379,1378.971896,-74.020594,8956.491898
2403.778708,1302.362347,-296.082377,8882.471304
2403.779037,1378.971896,-74.020594,8364.327145
2403.779366,1455.581446,370.102971,9474.636058
2403.779695,1225.752797,-0.000000,9548.656652
2403.780024,995.924147,592.164754,9474.636058
2403.780353,842.705048,814.226536,9252.574275
2403.780682,1072.533697,1184.329507,9252.574275
2403.781011,536.266849,592.164754,9104.533087
2403.781340,153.219100,666.185348,9178.553681
2403.781670,0.000000,-0.000000,9104.533087
2403.781999,-689.485948,-74.020594,9326.594869
2403.782328,-1225.752797,-888.247130,9844.739029
2403.782657,-1455.581446,-1480.411884,9548.656652
2403.782986,-1378.971896,-2072.576638,9400.615463
2403.783315,-1072.533697,-2072.576638,10140.821405
2403.783644,-842.705048,-2368.659014,9770.718434
2403.783973,-1149.143247,-2072.576638,9770.718434
2403.784302,-612.876398,-1406.391290,9696.697840
2403.784631,0.000000,-888.247130,9696.697840
2403.784961,0.000000,-592.164754,9474.636058
2403.785290,0.000000,-74.020594,9474.636058
2403.785619,842.705048,-0.000000,9770.718434
2403.785948,1072.533697,296.082377,8660.409521
2403.786277,1072.533697,814.226536,8216.285956
2403.786606,2221.676944,1184.329507,7105.977043
2403.786935,2145.067394,1480.411884,7254.018232
2403.787264,1455.581446,1110.308913,7698.141797
2403.787593,689.485948,814.226536,7328.038826
2403.787922,766.095498,296.082377,7846.182985
2403.788252,0.000000,-0.000000,8290.306550
2403.788581,-612.876398,-1036.288319,8808.450710
2403.788910,-919.314598,-962.267725,9178.553681
2403.789239,-766.095498,-814.226536,8882.471304
2403.789568,-306.438199,-666.185348,9326.594869
2403.789897,-612.876398,-0.000000,9326.594869
2403.790226,-536.266849,370.102971,9178.553681
2403.790555,-536.266849,-0.000000,9622.677246
2403.790884,76.609550,-0.000000,9474.636058
2403.791213,76.609550,-222.061783,9104.533087
2403.791543,689.485948,-296.082377,9178.553681
2403.791872,1072.533697,-518.144159,9104.533087
2403.792201,842.705048,-444.123565,9252.574275
2403.792530,1072.533697,-370.102971,8882.471304
2403.792859,1608.800546,-444.123565,8956.491898
2403.793188,1991.848295,-148.041188,9474.636058
2403.793517,1915.238745,-74.020594,9252.574275
2403.793846,1455.581446,518.144159,9104.533087
2403.794175,1302.362347,888.247130,9326.594869
2403.794504,1072.533697,962.267725,9474.636058
2403.794834,842.705048,962.267725,9474.636058
2403.795163,842.705048,666.185348,9252.574275
2403.795492,536.266849,740.205942,8882.471304
2403.795821,-229.828649,666.185348,9252.574275
2403.796150,-229.828649,-74.020594,9548.656652
2403.796479,-612.876398,-148.041188,9400.615463
2403.796808,-995.924147,-1036.288319,9474.636058
2403.797137,-1225.752797,-1554.432478,9622.677246
2403.797466,-995.924147,-2220.617826,9400.615463
2403.797795,-612.876398,-1850.514855,9474.636058
2403.798125,-383.047749,-1554.432478,9548.656652
2403.798454,-459.657299,-1258.350101,9474.636058
2403.798783,0.000000,-1110.308913,9474.636058
2403.799112,0.000000,-740.205942,9178.553681
2403.799441,459.657299,-296.082377,9474.636058
2403.799770,995.924147,222.061783,9474.636058
2403.800099,1225.752797,444.123565,8808.450710
2403.800428,1838.629195,296.082377,7994.224174
2403.800757,2145.067394,740.205942,7772.162391
2403.801086,1685.410096,962.267725,7920.203579
2403.801416,995.924147,814.226536,7698.141797
2403.801745,842.705048,592.164754,7772.162391
2403.802074,459.657299,222.061783,8142.265362
2403.802403,0.000000,-814.226536,8660.409521
2403.802732,-766.095498,-1184.329507,8438.347739
2403.803061,-612.876398,-888.247130,9104.533087
2403.803390,-612.876398,-814.226536,9252.574275
2403.803719,-383.047749,-296.082377,9326.594869
2403.804048,-459.657299,-296.082377,9104.533087
2403.804377,0.000000,-74.020594,9474.636058
2403.804706,0.000000,-0.000000,9770.718434
2403.805035,306.438199,-0.000000,9178.553681
2403.805364,536.266849,370.102971,8882.471304
2403.805693,842.705048,-0.000000,9178.553681
2403.806022,1072.533697,-222.061783,9104.533087
2403.806351,919.314598,-518.144159,8882.471304
2403.806680,1225.752797,-370.102971,9400.615463
2403.807009,1225.752797,-296.082377,9474.636058
2403.807338,1225.752797,-518.144159,9400.615463
2403.807667,919.314598,-74.020594,9178.553681
2403.807996,1455.581446,296.082377,9178.553681
2403.808325,1455.581446,592.164754,9474.636058
2403.808654,919.314598,444.123565,9178.553681
2403.808983,1225.752797,814.226536,9104.533087
2403.809312,1072.533697,1036.288319,9252.574275
2403.809641,842.705048,1036.288319,9030.512492
2403.809970,0.000000,1036.288319,9400.615463
2403.810299,76.609550,444.123565,8956.491898
2403.810628,-536.266849,-0.000000,8882.471304
2403.810957,-995.924147,-666.185348,9622.677246
2403.811286,-995.924147,-1406.391290,9474.636058
2403.811615,-1072.533697,-2072.576638,9844.739029
2403.811944,-842.705048,-2442.679609,9474.636058
2403.812273,-766.095498,-1776.494261,9622.677246
2403.812602,-536.266849,-1776.494261,9474.636058
2403.812931,-306.438199,-1184.329507,9548.656652
2403.813260,0.000000,-888.247130,9548.656652
2403.813589,229.828649,-592.164754,9474.636058
2403.813918,842.705048,-814.226536,9474.636058
2403.814247,995.924147,-74.020594,8956.491898
2403.814576,1302.362347,370.102971,8734.430116
2403.814905,1608.800546,740.205942,8290.306550
2403.815234,2068.457845,1332.370696,7550.100608
2403.815563,1455.581446,1258.350101,7772.162391
2403.815892,612.876398,814.226536,7624.121203
2403.816221,459.657299,370.102971,8068.244768
2403.816550,536.266849,-222.061783,8364.327145
2403.816879,-306.438199,-148.041188,8512.368333
2403.817208,-689.485948,-740.205942,9326.594869
2403.817537,-842.705048,-740.205942,8956.491898
2403.817866,-842.705048,-444.123565,8956.491898
2403.818195,-229.828649,-148.041188,9400.615463
2403.818524,-459.657299,222.061783,9178.553681
2403.818853,-459.657299,-0.000000,9400.615463
2403.819182,153.219100,-0.000000,9252.574275
2403.819511,229.828649,222.061783,9178.553681
2403.819840,306.438199,-370.102971,9030.512492
2403.820169,612.876398,-370.102971,8808.450710
2403.820498,612.876398,-296.082377,9104.533087
2403.820827,612.876398,-740.205942,9178.553681
2403.821156,1072.533697,-370.102971,9326.594869
2403.821485,1532.190996,-148.041188,9326.594869
2403.821814,1455.581446,-0.000000,8808.450710
2403.822143,1532.190996,-0.000000,9178.553681
2403.822473,1455.581446,518.144159,9030.512492
2403.822802,1149.143247,592.164754,9104.533087
2403.823131,1455.581446,1110.308913,8882.471304
2403.823460,1302.362347,1184.329507,9326.594869
2403.823789,842.705048,222.061783,9252.574275
2403.824118,612.876398,888.247130,8956.491898
2403.824447,0.000000,592.164754,9178.553681
2403.824776,-383.047749,-148.041188,9400.615463
2403.825105,-766.095498,-814.226536,9474.636058
2403.825434,-612.876398,-1258.350101,9770.718434
2403.825763,-1302.362347,-1850.514855,10140.821405
2403.826092,-766.095498,-2442.679609,9992.780217
2403.826421,-919.314598,-1998.556043,9622.677246
2403.826750,-842.705048,-1702.473667,9622.677246
2403.827079,-383.047749,-1332.370696,9918.759623
2403.827408,-383.047749,-1110.308913,9622.677246
2403.827737,306.438199,-666.185348,9178.553681
2403.828066,536.266849,-666.185348,9770.718434
2403.828395,536.266849,-370.102971,9326.594869
2403.828724,1225.752797,148.041188,8438.347739
2403.829053,1685.410096,888.247130,8142.265362
2403.829382,1762.019645,1332.370696,7624.121203
2403.829711,1991.848295,1184.329507,8216.285956
2403.830040,1225.752797,1184.329507,7624.121203
2403.830369,536.266849,888.247130,8142.265362
2403.830698,383.047749,-0.000000,8438.347739
2403.831027,-153.219100,-74.020594,8512.368333
2403.831356,-842.705048,-296.082377,8882.471304
2403.831685,-612.876398,-444.123565,8660.409521
2403.832014,-383.047749,-296.082377,9030.512492
2403.832343,-229.828649,-222.061783,9252.574275
2403.832672,-459.657299,-0.000000,9030.512492
2403.833001,0.000000,-0.000000,9030.512492
2403.833330,-459.657299,-74.020594,9326.594869
2403.833659,76.609550,-0.000000,9474.636058
2403.833988,153.219100,-148.041188,9104.533087
2403.834317,306.438199,-222.061783,9104.533087
2403.834646,1072.533697,-592.164754,9474.636058
2403.834975,1225.752797,-444.123565,9030.512492
2403.835304,1225.752797,-518.144159,9104.533087
2403.835633,919.314598,-0.000000,9326.594869
2403.835962,1378.971896,-74.020594,9400.615463
2403.836291,1225.752797,-0.000000,9474.636058
2403.836620,1302.362347,518.144159,9178.553681
2403.836949,1455.581446,666.185348,9474.636058
2403.837278,1455.581446,592.164754,9474.636058
2403.837607,1302.362347,518.144159,9252.574275
2403.837936,995.924147,592.164754,9030.512492
2403.838265,689.485948,592.164754,9400.615463
2403.838594,0.000000,370.102971,9474.636058
2403.838923,0.000000,-74.020594,9326.594869
2403.839252,-612.876398,-592.164754,9400.615463
2403.839581,-766.095498,-1036.288319,9400.615463
2403.839910,-689.485948,-1628.453072,9474.636058
2403.840239,-919.314598,-1702.473667,9474.636058
2403.840568,-1149.143247,-1184.329507,9770.718434
2403.840897,-766.095498,-1628.453072,9770.718434
2403.841226,-459.657299,-1406.391290,9474.636058
2403.841555,-459.657299,-962.267725,9252.574275
2403.841884,153.219100,-592.164754,9178.553681
2403.842213,383.047749,-444.123565,9622.677246
2403.842542,612.876398,148.041188,9696.697840
2403.842871,1225.752797,-74.020594,8660.409521
2403.843200,1378.971896,518.144159,8290.306550
2403.843529,1762.019645,814.226536,7920.203579
2403.843859,1762.019645,1036.288319,7328.038826
2403.844188,1685.410096,1110.308913,7624.121203
2403.844517,842.705048,666.185348,7772.162391
2403.844846,1608.800546,296.082377,8290.306550
2403.845175,459.657299,-222.061783,8068.244768
2403.845504,-612.876398,-148.041188,8364.327145
2403.845833,-766.095498,-592.164754,9030.512492
2403.846162,-612.876398,-518.144159,9104.533087
2403.846491,-536.266849,-444.123565,9104.533087
2403.846820,76.609550,-296.082377,9326.594869
2403.847149,-153.219100,-148.041188,9326.594869
2403.847478,-459.657299,-444.123565,9474.636058
2403.847807,-153.219100,-148.041188,9474.636058
2403.848136,0.000000,-74.020594,9252.574275
2403.848465,0.000000,-740.205942,9696.697840
2403.848794,153.219100,-666.185348,9474.636058
2403.849123,459.657299,-888.247130,9474.636058
2403.849452,1072.533697,-740.205942,9474.636058
2403.849781,1302.362347,-814.226536,9030.512492
2403.850110,1685.410096,-0.000000,9326.594869
2403.850439,1608.800546,370.102971,8734.430116
2403.850768,1532.190996,814.226536,9030.512492
2403.851097,2145.067394,1036.288319,8808.450710
2403.851426,1378.971896,666.185348,8734.430116
2403.851755,1072.533697,1184.329507,9918.759623
2403.852084,1302.362347,592.164754,9622.677246
2403.852413,612.876398,592.164754,8956.491898
2403.852742,76.609550,518.144159,9104.533087
2403.853071,-153.219100,296.082377,9474.636058
2403.853400,-766.095498,-296.082377,9622.677246
2403.853729,-766.095498,-444.123565,9992.780217
2403.854058,-1302.362347,-1110.308913,9474.636058
2403.854387,-459.657299,-1480.411884,9326.594869
2403.854716,-766.095498,-1850.514855,10140.821405
2403.855045,-842.705048,-1480.411884,9474.636058
2403.855374,-842.705048,-1480.411884,9326.594869
2403.855703,-306.438199,-1184.329507,9548.656652
2403.856032,-459.657299,-1184.329507,9474.636058
2403.856361,0.000000,-518.144159,9474.636058
2403.856690,153.219100,-518.144159,9400.615463
2403.857019,612.876398,-0.000000,9474.636058
2403.857348,995.924147,296.082377,9030.512492
2403.857677,1225.752797,518.144159,8142.265362
2403.858006,1608.800546,888.247130,7698.141797
2403.858335,1455.581446,740.205942,8216.285956
2403.858664,1072.533697,592.164754,8142.265362
2403.858993,1302.362347,222.061783,8142.265362
2403.859322,459.657299,74.020594,8142.265362
2403.859651,76.609550,-0.000000,8734.430116
2403.859980,-536.266849,-518.144159,8734.430116
2403.860309,-919.314598,-740.205942,8956.491898
2403.860638,-383.047749,-888.247130,9326.594869
2403.860967,-689.485948,-518.144159,9400.615463
2403.861296,-459.657299,-370.102971,9548.656652
2403.861625,-383.047749,-296.082377,9252.574275
2403.861954,0.000000,-74.020594,9400.615463
2403.862283,229.828649,-0.000000,9400.615463
2403.862612,383.047749,-74.020594,9252.574275
2403.862941,995.924147,-222.061783,9178.553681
2403.863270,842.705048,-592.164754,9030.512492
2403.863599,1149.143247,-296.082377,9104.533087
2403.863928,919.314598,-370.102971,8660.409521
2403.864257,1225.752797,-296.082377,8808.450710
2403.864586,1225.752797,-0.000000,8882.471304
2403.864915,1532.190996,222.061783,9104.533087
2403.865245,1991.848295,-0.000000,9030.512492
2403.865574,1838.629195,666.185348,9104.533087
2403.865903,842.705048,962.267725,9326.594869
2403.866232,536.266849,1036.288319,9104.533087
2403.866561,919.314598,1110.308913,8956.491898
2403.866890,612.876398,814.226536,9178.553681
2403.867219,0.000000,444.123565,9104.533087
2403.867548,0.000000,-0.000000,9326.594869
2403.867877,-842.705048,-888.247130,9326.594869
2403.868206,-1608.800546,-1406.391290,9770.718434
2403.868535,-1455.581446,-1850.514855,9918.759623
2403.868864,-1685.410096,-1924.535449,9770.718434
2403.869193,-1532.190996,-1924.535449,9770.718434
2403.869522,-766.095498,-1554.432478,9770.718434
2403.869851,0.000000,-1332.370696,9992.780217
2403.870180,0.000000,-1258.350101,9770.718434
2403.870509,766.095498,-888.247130,9770.718434
2403.870838,1149.143247,-296.082377,9400.615463
2403.871167,1762.019645,518.144159,8882.471304
2403.871496,1915.238745,1110.308913,8142.265362
2403.871825,2068.457845,1110.308913,8068.244768
2403.872154,2451.505594,962.267725,8068.244768
2403.872483,1608.800546,814.226536,8068.244768
2403.872812,76.609550,518.144159,8438.347739
2403.873141,229.828649,-0.000000,8734.430116
2403.873470,-459.657299,-148.041188,8734.430116
2403.873799,-1072.533697,-666.185348,9178.553681
2403.874128,-766.095498,-740.205942,8808.450710
2403.874457,-842.705048,-888.247130,8956.491898
2403.874786,-383.047749,-444.123565,9030.512492
2403.875115,76.609550,-0.000000,8586.388927
2403.875444,0.000000,-0.000000,8956.491898
2403.875773,612.876398,592.164754,8586.388927
2403.876102,689.485948,592.164754,8438.347739
2403.876431,766.095498,370.102971,8142.265362
2403.876760,1072.533697,296.082377,8142.265362
2403.877089,1302.362347,-222.061783,8734.430116
2403.877418,536.266849,-1184.329507,8956.491898
2403.877747,383.047749,-1184.329507,9252.574275
2403.878076,0.000000,-814.226536,9104.533087
2403.878405,76.609550,-666.185348,9622.677246
2403.878734,76.609550,-592.164754,9622.677246
2403.879063,536.266849,-592.164754,9474.636058
2403.879392,842.705048,-0.000000,9622.677246
2403.879721,1532.190996,-0.000000,9326.594869
2403.880050,1608.800546,222.061783,9104.533087
2403.880379,1991.848295,1184.329507,8438.347739
2403.880708,1991.848295,1332.370696,8586.388927
2403.881037,1762.019645,962.267725,8586.388927
2403.881366,1685.410096,1110.308913,9178.553681
2403.881695,1072.533697,296.082377,8882.471304
2403.882024,0.000000,-370.102971,9326.594869
2403.882353,-995.924147,-1628.453072,10066.800811
2403.882682,-1225.752797,-1702.473667,9992.780217
2403.883011,-1762.019645,-1998.556043,9992.780217
2403.883340,-1455.581446,-2146.597232,10362.883188
2403.883669,-1302.362347,-2072.576638,9844.739029
2403.883998,-1915.238745,-1850.514855,9992.780217
2403.884327,-689.485948,-888.247130,10140.821405
2403.884656,0.000000,-666.185348,9548.656652
2403.884985,536.266849,-370.102971,9474.636058
2403.885314,1149.143247,370.102971,9030.512492
2403.885643,1762.019645,888.247130,8216.285956
2403.885972,1838.629195,1554.432478,8216.285956
2403.886301,1762.019645,1332.370696,8142.265362
2403.886631,2068.457845,814.226536,8290.306550
2403.886960,1685.410096,962.267725,8068.244768
2403.887289,766.095498,666.185348,8216.285956
2403.887618,0.000000,-0.000000,8290.306550
2403.887947,-459.657299,-222.061783,8586.388927
2403.888276,-459.657299,-222.061783,8882.471304
2403.888605,-1302.362347,-444.123565,9326.594869
2403.888934,-766.095498,-222.061783,9400.615463
2403.889263,-459.657299,-518.144159,9104.533087
2403.889592,0.000000,-0.000000,8808.450710
2403.889921,0.000000,-0.000000,8882.471304
2403.890250,536.266849,-0.000000,8734.430116
2403.890579,612.876398,148.041188,8438.347739
2403.890908,1225.752797,-0.000000,9030.512492
2403.891237,1072.533697,-0.000000,9104.533087
2403.891566,1455.581446,-444.123565,9178.553681
2403.891895,1149.143247,-444.123565,9178.553681
2403.892224,766.095498,-740.205942,9178.553681
2403.892553,766.095498,-592.164754,9474.636058
2403.892882,612.876398,-666.185348,9400.615463
2403.893211,919.314598,-592.164754,9474.636058
2403.893540,995.924147,-296.082377,9622.677246
2403.893869,995.924147,-148.041188,9474.636058
2403.894198,995.924147,370.102971,9104.533087
2403.894527,1072.533697,740.205942,9326.594869
2403.894856,1072.533697,814.226536,8882.471304
2403.895185,766.095498,666.185348,9104.533087
2403.895514,689.485948,370.102971,9178.553681
2403.895843,153.219100,222.061783,8956.491898
2403.896172,-383.047749,-740.205942,9326.594869
2403.896501,-1149.143247,-666.185348,9252.574275
2403.896830,-995.924147,-1332.370696,9622.677246
2403.897159,-1302.362347,-1850.514855,9548.656652
2403.897488,-1378.971896,-1702.473667,9622.677246
2403.897817,-766.095498,-1554.432478,9696.697840
2403.898146,-612.876398,-1776.494261,9326.594869
2403.898475,-229.828649,-1036.288319,9696.697840
2403.898804,0.000000,-592.164754,9326.594869
2403.899133,766.095498,-370.102971,8882.471304
2403.899462,1149.143247,148.041188,8882.471304
2403.899791,1455.581446,296.082377,8438.347739
2403.900120,1838.629195,296.082377,8142.265362
2403.900449,1762.019645,370.102971,7772.162391
2403.900778,1915.238745,518.144159,8438.347739
2403.901107,1072.533697,666.185348,8364.327145
2403.901436,536.266849,296.082377,8438.347739
2403.901765,306.438199,-0.000000,8734.430116
2403.902094,76.609550,-0.000000,8808.450710
2403.902423,-612.876398,-74.020594,9548.656652
2403.902752,0.000000,-444.123565,9030.512492
2403.903081,229.828649,-296.082377,9104.533087
2403.903410,-383.047749,-0.000000,8882.471304
2403.903738,0.000000,-0.000000,9104.533087
2403.904067,-153.219100,296.082377,8956.491898
2403.904396,459.657299,-148.041188,8808.450710
2403.904726,153.219100,-0.000000,9326.594869
2403.905055,383.047749,-444.123565,8660.409521
2403.905384,0.000000,-444.123565,8882.471304
2403.905713,0.000000,-444.123565,9400.615463
2403.906042,0.000000,-666.185348,9622.677246
2403.906371,153.219100,-888.247130,9696.697840
2403.906700,153.219100,-888.247130,9696.697840
2403.907029,995.924147,-740.205942,9474.636058
2403.907358,919.314598,-222.061783,9474.636058
2403.907687,1608.800546,296.082377,9178.553681
2403.908016,2221.676944,666.185348,8586.388927
2403.908345,2374.896044,1258.350101,8734.430116
2403.908674,2298.286494,1628.453072,8512.368333
2403.909003,2221.676944,1554.432478,8216.285956
2403.909332,1762.019645,1406.391290,8586.388927
2403.909661,229.828649,962.267725,8734.430116
2403.909991,383.047749,222.061783,8882.471304
2403.910320,-306.438199,-518.144159,9104.533087
2403.910649,-995.924147,-1110.308913,9474.636058
2403.910978,-1455.581446,-1776.494261,9770.718434
2403.911307,-1838.629195,-2072.576638,9622.677246
2403.911636,-1991.848295,-2368.659014,9992.780217
2403.911965,-1378.971896,-2146.597232,9992.780217
2403.912294,-689.485948,-1406.391290,9844.739029
2403.912623,-229.828649,-1258.350101,9918.759623
2403.912952,0.000000,-740.205942,9400.615463
2403.913281,459.657299,-444.123565,9326.594869
2403.913610,1072.533697,-74.020594,9178.553681
2403.913939,1608.800546,-74.020594,8586.388927
2403.914268,1915.238745,444.123565,8216.285956
2403.914597,1838.629195,1554.432478,8290.306550
2403.914926,1685.410096,740.205942,8364.327145
2403.915256,919.314598,222.061783,7994.224174
2403.915585,383.047749,148.041188,8142.265362
2403.915914,-153.219100,-0.000000,8808.450710
2403.916243,-689.485948,-888.247130,9104.533087
2403.916572,-842.705048,-1110.308913,9474.636058
2403.916901,-229.828649,-740.205942,9178.553681
2403.917230,-612.876398,-592.164754,8956.491898
2403.917559,-536.266849,-222.061783,9178.553681
2403.917888,0.000000,296.082377,8808.450710
2403.918217,229.828649,592.164754,8734.430116
2403.918546,842.705048,814.226536,9104.533087
2403.918875,612.876398,296.082377,8734.430116
2403.919204,689.485948,592.164754,8660.409521
2403.919533,229.828649,-0.000000,8808.450710
2403.919862,612.876398,-222.061783,9178.553681
2403.920191,0.000000,-666.185348,9252.574275
2403.920521,229.828649,-962.267725,9178.553681
2403.920850,153.219100,-740.205942,9548.656652
2403.921179,383.047749,-592.164754,9696.697840
2403.921508,229.828649,-666.185348,9474.636058
2403.921837,612.876398,296.082377,9696.697840
2403.922166,1149.143247,370.102971,9474.636058
2403.922495,1685.410096,592.164754,8956.491898
2403.922824,1685.410096,1036.288319,8734.430116
2403.923153,1838.629195,1110.308913,8586.388927
2403.923482,1608.800546,1258.350101,8660.409521
2403.923811,919.314598,1184.329507,8808.450710
2403.924140,153.219100,370.102971,8882.471304
2403.924469,-306.438199,-0.000000,9178.553681
2403.924798,-766.095498,-592.164754,9400.615463
2403.925127,-1302.362347,-1332.370696,9696.697840
2403.925456,-1302.362347,-1998.556043,9770.718434
2403.925786,-1225.752797,-2220.617826,9844.739029
2403.926115,-1378.971896,-1850.514855,9992.780217
2403.926444,-919.314598,-1702.473667,9696.697840
2403.926773,-842.705048,-1332.370696,9622.677246
2403.927102,-306.438199,-888.247130,9992.780217
2403.927431,-229.828649,-888.247130,9696.697840
2403.927760,306.438199,-592.164754,9770.718434
2403.928089,1455.581446,-592.164754,9104.533087
2403.928418,1455.581446,148.041188,8512.368333
2403.928747,1608.800546,518.144159,8512.368333
2403.929076,1991.848295,1036.288319,7994.224174
2403.929405,2068.457845,1036.288319,7846.182985
2403.929734,1455.581446,888.247130,7772.162391
2403.930063,919.314598,518.144159,8068.244768
2403.930392,383.047749,-0.000000,8438.347739
2403.930721,0.000000,-296.082377,8586.388927
2403.931051,-459.657299,-370.102971,9030.512492
2403.931380,-612.876398,-370.102971,8586.388927
2403.931709,-842.705048,-148.041188,8808.450710
2403.932038,-612.876398,-0.000000,8808.450710
2403.932367,-383.047749,296.082377,8882.471304
2403.932696,0.000000,-0.000000,8956.491898
2403.933025,-153.219100,-0.000000,8808.450710
2403.933354,0.000000,-0.000000,9326.594869
2403.933683,0.000000,-222.061783,9178.553681
2403.934012,0.000000,-370.102971,8882.471304
2403.934341,306.438199,-444.123565,9104.533087
2403.934670,766.095498,-666.185348,9178.553681
2403.934999,1072.533697,-666.185348,9326.594869
2403.935328,1455.581446,-666.185348,9474.636058
2403.935657,1838.629195,-74.020594,9400.615463
2403.935986,1532.190996,-0.000000,9252.574275
2403.936316,1378.971896,370.102971,9326.594869
2403.936645,1838.629195,518.144159,9400.615463
2403.936974,1915.238745,962.267725,9030.512492
2403.937303,1915.238745,888.247130,9474.636058
2403.937632,1838.629195,888.247130,9178.553681
2403.937961,919.314598,370.102971,8956.491898
2403.938290,766.095498,518.144159,9252.574275
2403.938619,0.000000,222.061783,9474.636058
2403.938948,-766.095498,-370.102971,9400.615463
2403.939277,-995.924147,-888.247130,9696.697840
2403.939606,-1149.143247,-1110.308913,10066.800811
2403.939935,-766.095498,-1554.432478,9770.718434
2403.940264,-1455.581446,-2072.576638,9918.759623
2403.940593,-842.705048,-1702.473667,9918.759623
2403.940922,-459.657299,-1184.329507,9622.677246
2403.941251,-689.485948,-1332.370696,9770.718434
2403.941581,-766.095498,-888.247130,9474.636058
2403.941910,229.828649,-444.123565,9178.553681
2403.942239,919.314598,-74.020594,9400.615463
2403.942568,1608.800546,370.102971,8660.409521
2403.942897,1915.238745,666.185348,8142.265362
2403.943226,2068.457845,1036.288319,7772.162391
2403.943555,1915.238745,1036.288319,7698.141797
2403.943884,1302.362347,814.226536,7624.121203
2403.944213,995.924147,296.082377,7698.141797
2403.944542,919.314598,148.041188,8438.347739
2403.944871,-229.828649,-148.041188,8660.409521
2403.945200,-689.485948,-518.144159,8956.491898
2403.945529,-919.314598,-592.164754,8956.491898
2403.945858,-612.876398,-666.185348,9326.594869
2403.946187,-842.705048,-370.102971,9252.574275
2403.946517,0.000000,-222.061783,9104.533087
2403.946846,0.000000,296.082377,9252.574275
2403.947175,153.219100,444.123565,9400.615463
2403.947504,612.876398,222.061783,9104.533087
2403.947833,612.876398,222.061783,8586.388927
2403.948162,1072.533697,296.082377,8882.471304
2403.948491,919.314598,-0.000000,9030.512492
2403.948820,229.828649,-444.123565,9474.636058
2403.949149,1072.533697,-1036.288319,9622.677246
2403.949478,1149.143247,-962.267725,9326.594869
2403.949807,612.876398,-740.205942,9770.718434
2403.950136,459.657299,-518.144159,9622.677246
2403.950465,383.047749,-74.020594,9696.697840
2403.950794,995.924147,148.041188,9400.615463
2403.951123,1302.362347,-0.000000,9474.636058
2403.951452,1302.362347,1702.473667,9474.636058
2403.951782,1302.362347,1406.391290,9326.594869
2403.952111,1685.410096,1702.473667,8660.409521
2403.952440,1149.143247,1036.288319,8586.388927
2403.952769,612.876398,888.247130,8512.368333
2403.953098,0.000000,296.082377,8660.409521
2403.953427,-229.828649,-592.164754,9030.512492
2403.953756,-1149.143247,-1184.329507,10066.800811
2403.954085,-1149.143247,-2294.638420,9844.739029
2403.954414,-1225.752797,-2220.617826,9622.677246
2403.954743,-1378.971896,-1998.556043,9844.739029
2403.955072,-766.095498,-1850.514855,9474.636058
2403.955401,-536.266849,-1332.370696,9548.656652
2403.955730,459.657299,-888.247130,9548.656652
2403.956059,0.000000,-888.247130,9326.594869
2403.956388,153.219100,-740.205942,9918.759623
2403.956717,919.314598,-0.000000,8882.471304
2403.957047,1608.800546,370.102971,8216.285956
2403.957376,1915.238745,592.164754,8364.327145
2403.957705,1838.629195,1184.329507,7624.121203
2403.958034,1915.238745,740.205942,7994.224174
2403.958363,995.924147,814.226536,7624.121203
2403.958692,919.314598,-148.041188,8216.285956
2403.959021,0.000000,-74.020594,8512.368333
2403.959350,-306.438199,-370.102971,8734.430116
2403.959679,-766.095498,-740.205942,9326.594869
2403.960008,-689.485948,-592.164754,9326.594869
2403.960337,-612.876398,-444.123565,9548.656652
2403.960666,-842.705048,-0.000000,9474.636058
2403.960995,-383.047749,518.144159,8882.471304
2403.961324,-229.828649,-0.000000,9104.533087
2403.961653,0.000000,370.102971,9104.533087
2403.961982,229.828649,592.164754,8882.471304
2403.962312,306.438199,-0.000000,8882.471304
2403.962641,306.438199,-370.102971,9030.512492
2403.962970,536.266849,-0.000000,9326.594869
2403.963299,536.266849,-740.205942,9326.594869
2403.963628,689.485948,-666.185348,9474.636058
2403.963957,842.705048,-518.144159,9474.636058
2403.964286,766.095498,-222.061783,9474.636058
2403.964615,1225.752797,-0.000000,9400.615463
2403.964944,1608.800546,-0.000000,9474.636058
2403.965273,1838.629195,962.267725,9030.512492
2403.965602,2374.896044,740.205942,8808.450710
2403.965931,2145.067394,1332.370696,8882.471304
2403.966260,1838.629195,1480.411884,8734.430116
2403.966589,1532.190996,1184.329507,8290.306550
2403.966918,1149.143247,1110.308913,8586.388927
2403.967247,0.000000,740.205942,8808.450710
2403.967577,-383.047749,-666.185348,9178.553681
2403.967906,-919.314598,-1332.370696,9548.656652
2403.968235,-1532.190996,-2072.576638,9696.697840
2403.968564,-1838.629195,-2516.700203,9770.718434
2403.968893,-1532.190996,-2368.659014,10066.800811
2403.969222,-1302.362347,-1998.556043,9696.697840
2403.969551,-842.705048,-1702.473667,9844.739029
2403.969880,-459.657299,-1406.391290,9992.780217
2403.970209,-306.438199,-592.164754,9548.656652
2403.970538,0.000000,-740.205942,9918.759623
2403.970867,766.095498,-370.102971,9622.677246
2403.971196,1915.238745,-0.000000,8586.388927
2403.971525,1991.848295,518.144159,8216.285956
2403.971854,1915.238745,1036.288319,7550.100608
2403.972183,2145.067394,1110.308913,8068.244768
2403.972512,1302.362347,962.267725,7624.121203
2403.972842,1225.752797,444.123565,7550.100608
2403.973171,612.876398,-296.082377,8364.327145
2403.973500,0.000000,-222.061783,8364.327145
2403.973829,-842.705048,-666.185348,9400.615463
2403.974158,-1149.143247,-370.102971,9178.553681
2403.974487,-766.095498,-370.102971,9326.594869
2403.974816,-536.266849,-370.102971,9326.594869
2403.975145,-383.047749,-0.000000,9326.594869
2403.975474,-612.876398,518.144159,9030.512492
2403.975803,-612.876398,148.041188,9252.574275
2403.976132,0.000000,444.123565,8808.450710
2403.976461,306.438199,-0.000000,8660.409521
2403.976790,612.876398,222.061783,8512.368333
2403.977119,919.314598,-74.020594,8660.409521
2403.977448,689.485948,-1036.288319,9030.512492
2403.977777,919.314598,-962.267725,9030.512492
2403.978107,995.924147,-814.226536,9178.553681
2403.978436,842.705048,-592.164754,9474.636058
2403.978765,536.266849,-296.082377,9400.615463
2403.979094,766.095498,-0.000000,9474.636058
2403.979423,1608.800546,-0.000000,9474.636058
2403.979752,1838.629195,-0.000000,9696.697840
2403.980081,1455.581446,740.205942,9474.636058
2403.980410,766.095498,740.205942,9252.574275
2403.980739,1225.752797,962.267725,8734.430116
2403.981068,919.314598,1110.308913,8808.450710
2403.981397,306.438199,592.164754,9178.553681
2403.981726,76.609550,-0.000000,9252.574275
2403.982055,-306.438199,-592.164754,9474.636058
2403.982384,-1762.019645,-1332.370696,10214.842000
2403.982713,-1455.581446,-1998.556043,9918.759623
2403.983043,-1455.581446,-2220.617826,9622.677246
2403.983372,-1149.143247,-1776.494261,9844.739029
2403.983701,-995.924147,-1850.514855,9770.718434
2403.984030,-612.876398,-1258.350101,9918.759623
2403.984359,229.828649,-962.267725,9918.759623
2403.984688,153.219100,-666.185348,9918.759623
2403.985017,0.000000,-370.102971,9770.718434
2403.985346,919.314598,-370.102971,9548.656652
2403.985675,1378.971896,296.082377,8216.285956
2403.986004,1915.238745,888.247130,8290.306550
2403.986333,2451.505594,1184.329507,8068.244768
2403.986662,2528.115143,1184.329507,7772.162391
2403.986991,1685.410096,962.267725,7624.121203
2403.987320,995.924147,592.164754,7402.059420
2403.987649,612.876398,-0.000000,7846.182985
2403.987978,0.000000,-0.000000,8216.285956
2403.988308,-689.485948,-370.102971,8808.450710
2403.988637,-995.924147,-814.226536,9400.615463
2403.988966,-842.705048,-666.185348,9326.594869
2403.989295,-383.047749,-0.000000,9178.553681
2403.989624,-459.657299,-222.061783,8956.491898
2403.989953,-612.876398,-0.000000,8956.491898
2403.990282,-383.047749,-0.000000,9178.553681
2403.990611,0.000000,296.082377,9178.553681
2403.990940,306.438199,-0.000000,9326.594869
2403.991269,383.047749,-444.123565,9474.636058
2403.991598,536.266849,-666.185348,9326.594869
2403.991927,766.095498,-1036.288319,8660.409521
2403.992256,919.314598,-666.185348,9178.553681
2403.992585,1149.143247,-518.144159,9326.594869
2403.992914,1378.971896,-296.082377,9178.553681
2403.993243,1455.581446,-74.020594,9474.636058
2403.993573,1225.752797,-0.000000,9326.594869
2403.993902,1532.190996,296.082377,9696.697840
2403.994231,1378.971896,592.164754,9178.553681
2403.994560,1532.190996,740.205942,9326.594869
2403.994889,1149.143247,1036.288319,9178.553681
2403.995218,1149.143247,888.247130,9104.533087
2403.995547,919.314598,962.267725,9252.574275
2403.995876,1072.533697,370.102971,9178.553681
2403.996205,-229.828649,-0.000000,9474.636058
2403.996534,-689.485948,-296.082377,9622.677246
2403.996863,-919.314598,-1036.288319,9548.656652
2403.997192,-1072.533697,-1480.411884,9696.697840
2403.997521,-1149.143247,-1480.411884,9696.697840
2403.997850,-1072.533697,-1702.473667,9474.636058
2403.998179,-689.485948,-1628.453072,9400.615463
2403.998508,-383.047749,-1258.350101,9844.739029
2403.998838,0.000000,-1258.350101,9474.636058
2403.999167,0.000000,-444.123565,9326.594869
2403.999496,0.000000,-518.144159,9474.636058
2403.999825,306.438199,-222.061783,9474.636058
2404.000154,766.095498,-0.000000,8734.430116
2404.000483,1532.190996,518.144159,8068.244768
2404.000812,1532.190996,666.185348,7624.121203
2404.001141,1072.533697,1480.411884,7698.141797
2404.001470,1149.143247,1110.308913,7920.203579
2404.001799,1072.533697,666.185348,7402.059420
2404.002128,383.047749,296.082377,8142.265362
2404.002457,-153.219100,-296.082377,8660.409521
2404.002786,-459.657299,-814.226536,9030.512492
2404.003115,-1762.019645,-814.226536,9622.677246
2404.003444,-1072.533697,-888.247130,9474.636058
2404.003773,-689.485948,-518.144159,9326.594869
2404.004103,-536.266849,-148.041188,9252.574275
2404.004432,-306.438199,-74.020594,9400.615463
2404.004761,-383.047749,-296.082377,9770.718434
2404.005090,-229.828649,-444.123565,9918.759623
2404.005419,153.219100,-222.061783,9474.636058
2404.005748,306.438199,-370.102971,9252.574275
2404.006077,612.876398,-296.082377,9178.553681
2404.006406,766.095498,-370.102971,9252.574275
2404.006735,919.314598,-370.102971,8882.471304
2404.007064,1455.581446,-592.164754,8660.409521
2404.007393,1455.581446,222.061783,8956.491898
2404.007722,1225.752797,-0.000000,9030.512492
2404.008051,1915.238745,148.041188,9178.553681
2404.008380,1762.019645,444.123565,9104.533087
2404.008709,1378.971896,666.185348,8956.491898
2404.009038,1072.533697,814.226536,8882.471304
2404.009367,842.705048,814.226536,8660.409521
2404.009696,766.095498,1110.308913,8734.430116
2404.010025,229.828649,296.082377,8882.471304
2404.010354,0.000000,-222.061783,9252.574275
2404.010683,-766.095498,-0.000000,9474.636058
2404.011012,-1072.533697,-1110.308913,9992.780217
2404.011341,-919.314598,-1628.453072,9474.636058
2404.011670,-1072.533697,-1406.391290,9178.553681
2404.011999,-995.924147,-1850.514855,9696.697840
2404.012328,-459.657299,-1628.453072,9548.656652
2404.012657,-842.705048,-1554.432478,9622.677246
2404.012986,-306.438199,-1110.308913,9844.739029
2404.013315,76.609550,-1036.288319,9400.615463
2404.013645,0.000000,-814.226536,9992.780217
2404.013974,459.657299,-666.185348,9992.780217
2404.014303,1072.533697,-0.000000,8660.409521
2404.014632,1838.629195,888.247130,8512.368333
2404.014961,2451.505594,1036.288319,7772.162391
2404.015290,1991.848295,1406.391290,7550.100608
2404.015619,2068.457845,1332.370696,7846.182985
2404.015948,1455.581446,1110.308913,7624.121203
2404.016277,459.657299,444.123565,8142.265362
2404.016606,-153.219100,-148.041188,8586.388927
2404.016935,-689.485948,-518.144159,8734.430116
2404.017264,-842.705048,-1258.350101,9326.594869
2404.017593,-919.314598,-1554.432478,9178.553681
2404.017922,-842.705048,-666.185348,8808.450710
2404.018251,-383.047749,-74.020594,9104.533087
2404.018580,-306.438199,370.102971,9252.574275
2404.018909,-612.876398,-0.000000,9400.615463
2404.019238,-306.438199,296.082377,9104.533087
2404.019567,229.828649,296.082377,9178.553681
2404.019896,-153.219100,-518.144159,9622.677246
2404.020225,536.266849,-444.123565,9400.615463
2404.020554,995.924147,-740.205942,8660.409521
2404.020883,1302.362347,-518.144159,8808.450710
2404.021212,1378.971896,-296.082377,8956.491898
2404.021541,1608.800546,-0.000000,9104.533087
2404.021870,1685.410096,296.082377,8956.491898
2404.022199,1991.848295,444.123565,8438.347739
2404.022528,1915.238745,592.164754,9252.574275
2404.022857,1225.752797,592.164754,9104.533087
2404.023186,1762.019645,1110.308913,9030.512492
2404.023515,1532.190996,814.226536,8808.450710
2404.023844,1072.533697,740.205942,8956.491898
2404.024173,0.000000,518.144159,9400.615463
2404.024503,229.828649,-0.000000,9252.574275
2404.024832,0.000000,-666.185348,9326.594869
2404.025161,-919.314598,-1036.288319,9696.697840
2404.025490,-1225.752797,-1628.453072,9770.718434
2404.025819,-1302.362347,-1998.556043,9696.697840
2404.026148,-1072.533697,-2220.617826,10140.821405
2404.026477,-1149.143247,-1776.494261,9992.780217
2404.026806,-229.828649,-1776.494261,9696.697840
2404.027135,0.000000,-1184.329507,9918.759623
2404.027464,-306.438199,-962.267725,9844.739029
2404.027793,0.000000,-592.164754,9474.636058
2404.028122,459.657299,-222.061783,9622.677246
2404.028451,1149.143247,222.061783,9178.553681
2404.028780,1762.019645,592.164754,8734.430116
2404.029109,1762.019645,962.267725,7994.224174
2404.029438,2374.896044,1332.370696,7402.059420
2404.029767,1532.190996,1332.370696,8068.244768
2404.030096,1225.752797,1036.288319,7624.121203
2404.030425,1072.533697,592.164754,7846.182985
2404.030754,459.657299,222.061783,7920.203579
2404.031083,229.828649,-222.061783,8734.430116
2404.031412,-536.266849,-74.020594,9474.636058
2404.031741,-842.705048,-592.164754,9252.574275
2404.032070,-612.876398,-592.164754,9104.533087
2404.032399,-306.438199,-74.020594,9252.574275
2404.032728,-459.657299,-0.000000,9252.574275
2404.033057,-536.266849,-0.000000,9252.574275
2404.033386,-229.828649,-0.000000,9548.656652
2404.033715,0.000000,-296.082377,9400.615463
2404.034044,842.705048,-814.226536,8734.430116
2404.034373,689.485948,-148.041188,9104.533087
2404.034702,1225.752797,-296.082377,8734.430116
2404.035031,1072.533697,-370.102971,8956.491898
2404.035360,1225.752797,-444.123565,8956.491898
2404.035690,1455.581446,-296.082377,9178.553681
2404.036019,1455.581446,-0.000000,9252.574275
2404.036348,1149.143247,148.041188,9252.574275
2404.036677,919.314598,-0.000000,9326.594869
2404.037006,995.924147,444.123565,9400.615463
2404.037335,995.924147,296.082377,9326.594869
2404.037664,689.485948,666.185348,9104.533087
2404.037993,689.485948,740.205942,9030.512492
2404.038322,-842.705048,888.247130,9400.615463
2404.038651,76.609550,-0.000000,9622.677246
2404.038980,-459.657299,-148.041188,8956.491898
2404.039309,-1072.533697,-666.185348,9474.636058
2404.039638,-1225.752797,-1332.370696,9770.718434
2404.039967,-1532.190996,-1702.473667,9992.780217
2404.040296,-1838.629195,-2294.638420,9770.718434
2404.040625,-1149.143247,-1776.494261,10066.800811
2404.040954,-383.047749,-2072.576638,9622.677246
2404.041283,0.000000,-1110.308913,9548.656652
2404.041612,0.000000,-1036.288319,9622.677246
2404.041941,689.485948,-296.082377,9030.512492
2404.042270,1302.362347,-0.000000,8956.491898
2404.042599,1915.238745,370.102971,8808.450710
2404.042928,2068.457845,1184.329507,7624.121203
2404.043257,2374.896044,1406.391290,8068.244768
2404.043586,2221.676944,888.247130,8364.327145
2404.043915,1455.581446,888.247130,7772.162391
2404.044244,459.657299,592.164754,8142.265362
2404.044573,76.609550,-0.000000,8216.285956
2404.044902,-612.876398,-370.102971,9104.533087
2404.045231,-383.047749,-740.205942,9104.533087
2404.045560,-536.266849,-814.226536,8808.450710
2404.045889,-842.705048,-592.164754,9030.512492
2404.046218,-919.314598,-370.102971,9030.512492
2404.046547,-919.314598,-74.020594,8956.491898
2404.046877,-383.047749,-0.000000,9104.533087
2404.047206,306.438199,666.185348,9178.553681
2404.047535,689.485948,-0.000000,9178.553681
2404.047864,919.314598,370.102971,9030.512492
2404.048193,1072.533697,444.123565,8808.450710
2404.048522,842.705048,148.041188,8882.471304
2404.048851,842.705048,-148.041188,9178.553681
2404.049180,536.266849,-592.164754,9178.553681
2404.049509,842.705048,-814.226536,9326.594869
2404.049838,459.657299,-666.185348,9696.697840
2404.050167,995.924147,-814.226536,9844.739029
2404.050496,536.266849,-666.185348,9770.718434
2404.050825,995.924147,-74.020594,9622.677246
2404.051154,1225.752797,592.164754,9474.636058
2404.051483,1378.971896,666.185348,9326.594869
2404.051812,1608.800546,814.226536,8586.388927
2404.052141,2068.457845,888.247130,8882.471304
2404.052470,1685.410096,888.247130,9030.512492
2404.052799,919.314598,1258.350101,8956.491898
2404.053128,536.266849,518.144159,8734.430116
2404.053457,0.000000,-0.000000,9030.512492
2404.053786,-689.485948,-666.185348,9548.656652
2404.054115,-1225.752797,-1702.473667,9548.656652
2404.054444,-1455.581446,-2146.597232,9400.615463
2404.054773,-1225.752797,-2072.576638,10066.800811
2404.055102,-1302.362347,-1628.453072,9622.677246
2404.055431,-1225.752797,-1480.411884,9474.636058
2404.055760,-689.485948,-1036.288319,9474.636058
2404.056089,-383.047749,-1036.288319,9474.636058
2404.056418,0.000000,-1036.288319,9548.656652
2404.056747,459.657299,-592.164754,9252.574275
2404.057076,1149.143247,-0.000000,8734.430116
2404.057405,1532.190996,666.185348,8586.388927
2404.057734,1762.019645,814.226536,8216.285956
2404.058064,1762.019645,814.226536,8216.285956
2404.058393,1302.362347,740.205942,8142.265362
2404.058722,1149.143247,592.164754,8438.347739
2404.059051,689.485948,-148.041188,8808.450710
2404.059380,0.000000,-0.000000,8586.388927
2404.059709,229.828649,-74.020594,9252.574275
2404.060038,-689.485948,-296.082377,9252.574275
2404.060367,-459.657299,-370.102971,8956.491898
2404.060696,-612.876398,-222.061783,9178.553681
2404.061025,-229.828649,-148.041188,8808.450710
2404.061354,76.609550,-222.061783,9252.574275
2404.061683,153.219100,-296.082377,9104.533087
2404.062012,536.266849,-0.000000,8512.368333
2404.062341,306.438199,-0.000000,8956.491898
2404.062670,459.657299,-0.000000,9178.553681
2404.062999,536.266849,-222.061783,8956.491898
2404.063328,689.485948,-370.102971,9252.574275
2404.063657,766.095498,-814.226536,9178.553681
2404.063986,766.095498,-370.102971,9622.677246
2404.064315,919.314598,-296.082377,9400.615463
2404.064644,1072.533697,-0.000000,8882.471304
2404.064973,1072.533697,370.102971,9178.553681
2404.065302,1302.362347,592.164754,9030.512492
2404.065631,1455.581446,814.226536,8290.306550
2404.065960,1455.581446,1036.288319,8734.430116
2404.066289,1225.752797,1332.370696,8808.450710
2404.066618,1072.533697,962.267725,8290.306550
2404.066947,536.266849,592.164754,8734.430116
2404.067276,0.000000,296.082377,9030.512492
2404.067605,-689.485948,-666.185348,9400.615463
2404.067934,-1072.533697,-1406.391290,9622.677246
2404.068263,-1378.971896,-1628.453072,9992.780217
2404.068592,-1685.410096,-2146.597232,9918.759623
2404.068921,-2068.457845,-2294.638420,10066.800811
2404.069251,-1302.362347,-1850.514855,10140.821405
2404.069580,-842.705048,-1702.473667,9770.718434
2404.069909,-229.828649,-1258.350101,9770.718434
2404.070238,153.219100,-1110.308913,10140.821405
2404.070567,919.314598,-814.226536,9770.718434
2404.070896,1915.238745,-74.020594,8290.306550
2404.071225,2374.896044,444.123565,8660.409521
2404.071554,2068.457845,1110.308913,7994.224174
2404.071883,2221.676944,1110.308913,8142.265362
2404.072212,1838.629195,962.267725,8142.265362
2404.072541,1072.533697,666.185348,8068.244768
2404.072870,229.828649,-0.000000,8364.327145
2404.073199,-612.876398,-370.102971,8660.409521
2404.073528,-1072.533697,-666.185348,9178.553681
2404.073857,-1302.362347,-814.226536,9400.615463
2404.074186,-1149.143247,-814.226536,9104.533087
2404.074515,-919.314598,-296.082377,9030.512492
2404.074844,-536.266849,-74.020594,9104.533087
2404.075173,-383.047749,-148.041188,8882.471304
2404.075502,-229.828649,222.061783,9252.574275
2404.075831,459.657299,592.164754,8882.471304
2404.076160,612.876398,592.164754,8734.430116
2404.076489,919.314598,370.102971,8512.368333
2404.076818,1149.143247,296.082377,8142.265362
2404.077147,1225.752797,-0.000000,8364.327145
2404.077476,612.876398,-740.205942,8808.450710
2404.077805,842.705048,-1110.308913,8660.409521
2404.078134,842.705048,-1110.308913,9104.533087
2404.078463,459.657299,-518.144159,9178.553681
2404.078792,229.828649,-740.205942,9474.636058
2404.079121,536.266849,-444.123565,9622.677246
2404.079450,1149.143247,-0.000000,9326.594869
2404.079779,1915.238745,518.144159,9474.636058
2404.080109,1608.800546,518.144159,9326.594869
2404.080438,2068.457845,1184.329507,8808.450710
2404.080767,1915.238745,1184.329507,8734.430116
2404.081096,1762.019645,1184.329507,8586.388927
2404.081425,919.314598,666.185348,8956.491898
2404.081754,76.609550,-0.000000,8882.471304
2404.082083,-612.876398,-888.247130,9400.615463
2404.082412,-1072.533697,-1332.370696,9696.697840
2404.082741,-2221.676944,-1998.556043,10066.800811
2404.083070,-1685.410096,-2146.597232,9844.739029
2404.083399,-1455.581446,-1998.556043,9992.780217
2404.083728,-1149.143247,-1702.473667,9918.759623
2404.084057,-1378.971896,-1184.329507,9696.697840
2404.084386,-306.438199,-518.144159,9992.780217
2404.084715,-536.266849,-222.061783,9844.739029
2404.085044,0.000000,-518.144159,10288.862594
2404.085373,459.657299,-370.102971,9104.533087
2404.085702,1302.362347,518.144159,8512.368333
2404.086031,1915.238745,592.164754,8290.306550
2404.086360,1915.238745,1036.288319,7772.162391
2404.086689,1991.848295,740.205942,7846.182985
2404.087018,1762.019645,1184.329507,7328.038826
2404.087347,1608.800546,888.247130,8216.285956
2404.087676,689.485948,518.144159,8216.285956
2404.088005,0.000000,-0.000000,8290.306550
2404.088334,-306.438199,-370.102971,8882.471304
2404.088663,-536.266849,-518.144159,8882.471304
2404.088992,-229.828649,-740.205942,8882.471304
2404.089321,-689.485948,-296.082377,8734.430116
2404.089650,-306.438199,-0.000000,9400.615463
2404.089979,-383.047749,-222.061783,9104.533087
2404.090308,0.000000,-148.041188,9178.553681
2404.090637,229.828649,-0.000000,8882.471304
2404.090966,689.485948,-222.061783,8734.430116
2404.091296,612.876398,-666.185348,9178.553681
2404.091625,766.095498,-518.144159,9030.512492
2404.091954,842.705048,-814.226536,9326.594869
2404.092283,842.705048,-370.102971,9178.553681
2404.092612,766.095498,-444.123565,9400.615463
2404.092941,995.924147,-370.102971,9400.615463
2404.093270,1072.533697,370.102971,9400.615463
2404.093599,1532.190996,296.082377,9400.615463
2404.093928,1072.533697,592.164754,9326.594869
2404.094257,842.705048,740.205942,9474.636058
2404.094586,1149.143247,962.267725,8808.450710
2404.094915,1072.533697,1036.288319,8808.450710
2404.095244,459.657299,296.082377,9178.553681
2404.095573,0.000000,148.041188,8882.471304
2404.095902,-689.485948,-148.041188,9474.636058
2404.096231,-689.485948,-888.247130,9400.615463
2404.096560,-919.314598,-1332.370696,9400.615463
2404.096889,-995.924147,-1480.411884,9770.718434
2404.097218,-1072.533697,-1924.535449,9474.636058
2404.097547,-995.924147,-1554.432478,9474.636058
2404.097876,-842.705048,-1628.453072,9770.718434
2404.098205,0.000000,-1332.370696,9104.533087
2404.098534,689.485948,-1332.370696,9400.615463
2404.098863,995.924147,-740.205942,9400.615463
2404.099192,1072.533697,-222.061783,8734.430116
2404.099521,1608.800546,148.041188,8734.430116
2404.099850,1991.848295,740.205942,8216.285956
2404.100179,1685.410096,666.185348,8068.244768
2404.100508,995.924147,296.082377,8290.306550
2404.100837,1072.533697,444.123565,8290.306550
2404.101166,536.266849,-0.000000,7920.203579
2404.101495,0.000000,-0.000000,8660.409521
2404.101824,-612.876398,-370.102971,8660.409521
2404.102153,-766.095498,-666.185348,9104.533087
2404.102483,-689.485948,-666.185348,9252.574275
2404.102812,-612.876398,-518.144159,9104.533087
2404.103141,-689.485948,-0.000000,9178.553681
2404.103470,-383.047749,370.102971,9178.553681
2404.103799,-383.047749,296.082377,9474.636058
2404.104128,0.000000,296.082377,9104.533087
2404.104457,383.047749,518.144159,8734.430116
2404.104786,612.876398,592.164754,8808.450710
2404.105114,919.314598,370.102971,8808.450710
2404.105443,842.705048,-148.041188,9104.533087
2404.105772,842.705048,-74.020594,8808.450710
2404.106101,766.095498,-296.082377,9400.615463
2404.106430,229.828649,-814.226536,9696.697840
2404.106759,383.047749,-666.185348,9548.656652
2404.107088,229.828649,-518.144159,9622.677246
2404.107417,766.095498,-592.164754,9844.739029
2404.107746,1378.971896,-444.123565,9918.759623
2404.108075,1608.800546,740.205942,9474.636058
2404.108404,1762.019645,962.267725,8956.491898
2404.108733,2068.457845,1258.350101,8438.347739
2404.109062,1838.629195,1554.432478,8290.306550
2404.109391,1991.848295,1628.453072,8142.265362
2404.109720,842.705048,1110.308913,8512.368333
2404.110049,536.266849,592.164754,8808.450710
2404.110378,306.438199,-444.123565,8882.471304
2404.110707,-995.924147,-666.185348,9474.636058
2404.111035,-995.924147,-1406.391290,9622.677246
2404.111364,-1532.190996,-1924.535449,9770.718434
2404.111693,-1608.800546,-1850.514855,9844.739029
2404.112022,-766.095498,-1924.535449,9400.615463
2404.112351,-612.876398,-1480.411884,9622.677246
2404.112680,-306.438199,-1480.411884,10066.800811
2404.113009,-306.438199,-962.267725,9770.718434
2404.113338,-229.828649,-740.205942,9474.636058
2404.113667,306.438199,-888.247130,10214.842000
2404.113996,1072.533697,-74.020594,8956.491898
2404.114325,2145.067394,518.144159,8438.347739
2404.114654,1608.800546,518.144159,7772.162391
2404.114983,2145.067394,814.226536,8142.265362
2404.115312,1762.019645,1184.329507,8290.306550
2404.115641,1302.362347,740.205942,7772.162391
2404.115970,1149.143247,370.102971,8142.265362
2404.116299,229.828649,-0.000000,8808.450710
2404.116628,0.000000,-740.205942,8808.450710
2404.116956,-383.047749,-518.144159,9400.615463
2404.117285,-919.314598,-370.102971,9326.594869
2404.117614,-612.876398,-518.144159,9326.594869
2404.117943,-383.047749,-74.020594,9326.594869
2404.118272,-383.047749,222.061783,8882.471304
2404.118601,0.000000,-74.020594,8956.491898
2404.118930,153.219100,-0.000000,9030.512492
2404.119259,612.876398,-0.000000,8660.409521
2404.119588,1072.533697,-296.082377,8808.450710
2404.119917,459.657299,-0.000000,8882.471304
2404.120246,459.657299,-444.123565,9178.553681
2404.120575,612.876398,-370.102971,8734.430116
2404.120904,612.876398,-444.123565,8808.450710
2404.121233,842.705048,-222.061783,9400.615463
2404.121562,1608.800546,-444.123565,9400.615463
2404.121891,1149.143247,222.061783,9104.533087
2404.122220,1455.581446,296.082377,8956.491898
2404.122548,1455.581446,666.185348,9104.533087
2404.122877,1455.581446,592.164754,8808.450710
2404.123206,1532.190996,1036.288319,8586.388927
2404.123535,1455.581446,666.185348,8734.430116
2404.123864,919.314598,1258.350101,9178.553681
2404.124193,536.266849,370.102971,9252.574275
2404.124522,-383.047749,-148.041188,9400.615463
2404.124851,-689.485948,-814.226536,9474.636058
2404.125180,-1149.143247,-1406.391290,9918.759623
2404.125509,-1762.019645,-1924.535449,10066.800811
2404.125838,-1532.190996,-1554.432478,9844.739029
2404.126167,-1532.190996,-1702.473667,10288.862594
2404.126496,-919.314598,-1924.535449,10510.924376
2404.126825,-689.485948,-1184.329507,9474.636058
2404.127154,-306.438199,-814.226536,9474.636058
2404.127483,153.219100,-962.267725,9918.759623
2404.127812,689.485948,-370.102971,9178.553681
2404.128141,1685.410096,-0.000000,9030.512492
2404.128469,1762.019645,296.082377,8068.244768
2404.128798,995.924147,666.185348,8290.306550
2404.129127,1685.410096,666.185348,8512.368333
2404.129456,1378.971896,1036.288319,7698.141797
2404.129785,842.705048,666.185348,7920.203579
2404.130114,153.219100,148.041188,8882.471304
2404.130443,0.000000,-148.041188,8438.347739
2404.130772,229.828649,-740.205942,8734.430116
2404.131101,-306.438199,-592.164754,8882.471304
2404.131430,-612.876398,-222.061783,8956.491898
2404.131759,-689.485948,-74.020594,8734.430116
2404.132088,-612.876398,296.082377,8586.388927
2404.132417,0.000000,296.082377,9178.553681
2404.132746,0.000000,-74.020594,8882.471304
2404.133075,0.000000,666.185348,8512.368333
2404.133404,919.314598,370.102971,8512.368333
2404.133733,919.314598,370.102971,8438.347739
2404.134061,689.485948,-148.041188,8734.430116
2404.134390,612.876398,-444.123565,8882.471304
2404.134719,689.485948,-666.185348,9104.533087
2404.135048,459.657299,-1258.350101,9326.594869
2404.135377,-76.609550,-592.164754,9844.739029
2404.135706,612.876398,-740.205942,9326.594869
2404.136035,612.876398,-370.102971,10066.800811
2404.136364,919.314598,-74.020594,9548.656652
2404.136693,1302.362347,518.144159,9326.594869
2404.137022,1378.971896,962.267725,9030.512492
2404.137351,1608.800546,1184.329507,9030.512492
2404.137680,1378.971896,1258.350101,8882.471304
2404.138009,2068.457845,1406.391290,8364.327145
2404.138338,766.095498,740.205942,8438.347739
2404.138667,76.609550,518.144159,9178.553681
2404.138996,-995.924147,-518.144159,9548.656652
2404.139325,-1378.971896,-1036.288319,9474.636058
2404.139654,-1608.800546,-1850.514855,9770.718434
2404.139982,-1608.800546,-1776.494261,9918.759623
2404.140311,-1915.238745,-2294.638420,10436.903782
2404.140640,-383.047749,-1850.514855,9696.697840
2404.140969,-536.266849,-1406.391290,9622.677246
2404.141298,-536.266849,-962.267725,9770.718434
2404.141627,-383.047749,-370.102971,9252.574275
2404.141956,153.219100,-592.164754,9474.636058
2404.142285,459.657299,-518.144159,9326.594869
2404.142614,1302.362347,296.082377,8660.409521
2404.142943,2298.286494,666.185348,8290.306550
2404.143272,2374.896044,888.247130,6883.915261
2404.143601,2298.286494,1184.329507,7846.182985
2404.143930,1378.971896,888.247130,7846.182985
2404.144259,1149.143247,740.205942,7846.182985
2404.144588,536.266849,296.082377,8142.265362
2404.144917,0.000000,-148.041188,8438.347739
2404.145246,-612.876398,-296.082377,9252.574275
2404.145575,-919.314598,-592.164754,9400.615463
2404.145903,-1072.533697,-592.164754,9400.615463
2404.146232,-459.657299,-370.102971,9474.636058
2404.146561,-306.438199,-0.000000,9178.553681
2404.146890,0.000000,148.041188,9326.594869
2404.147219,153.219100,-0.000000,9326.594869
2404.147548,459.657299,222.061783,9474.636058
2404.147877,612.876398,592.164754,9104.533087
2404.148206,766.095498,-0.000000,8734.430116
2404.148535,689.485948,-74.020594,9178.553681
2404.148864,689.485948,-518.144159,9252.574275
2404.149193,919.314598,-888.247130,9252.574275
2404.149522,536.266849,-814.226536,9474.636058
2404.149851,612.876398,-444.123565,9622.677246
2404.150180,459.657299,-592.164754,9252.574275
2404.150509,689.485948,-0.000000,9474.636058
2404.150838,1302.362347,370.102971,9474.636058
2404.151167,1378.971896,666.185348,9400.615463
2404.151495,1378.971896,740.205942,9326.594869
2404.151824,1455.581446,1184.329507,8882.471304
2404.152153,1378.971896,962.267725,8438.347739
2404.152482,919.314598,1184.329507,8956.491898
2404.152811,459.657299,666.185348,8882.471304
2404.153140,0.000000,-0.000000,8808.450710
2404.153469,-689.485948,-518.144159,9252.574275
2404.153798,-995.924147,-1628.453072,9696.697840
2404.154127,-1302.362347,-2294.638420,9474.636058
2404.154456,-1149.143247,-2368.659014,9844.739029
2404.154785,-995.924147,-1924.535449,9400.615463
2404.155114,-995.924147,-1406.391290,9696.697840
2404.155443,-612.876398,-1184.329507,9548.656652
2404.155772,-306.438199,-814.226536,9400.615463
2404.156101,-383.047749,-592.164754,9548.656652
2404.156430,536.266849,-592.164754,9622.677246
2404.156759,1532.190996,-296.082377,8216.285956
2404.157088,1915.238745,296.082377,8216.285956
2404.157416,1608.800546,740.205942,7920.203579
2404.157745,1608.800546,740.205942,8216.285956
2404.158074,1302.362347,740.205942,7698.141797
2404.158403,1302.362347,888.247130,7920.203579
2404.158732,766.095498,-0.000000,8660.409521
2404.159061,383.047749,-296.082377,8512.368333
2404.159390,-383.047749,-444.123565,8882.471304
2404.159719,-842.705048,-592.164754,9178.553681
2404.160048,-766.095498,-518.144159,9474.636058
2404.160377,-842.705048,-444.123565,9326.594869
2404.160706,-383.047749,-222.061783,9030.512492
2404.161035,0.000000,-0.000000,9474.636058
2404.161364,-76.609550,-0.000000,9326.594869
2404.161693,459.657299,222.061783,9030.512492
2404.162022,306.438199,518.144159,9178.553681
2404.162351,689.485948,296.082377,9104.533087
2404.162680,459.657299,-148.041188,8956.491898
2404.163008,536.266849,-518.144159,9252.574275
2404.163337,459.657299,-592.164754,9326.594869
2404.163666,919.314598,-888.247130,9400.615463
2404.163995,459.657299,-888.247130,9770.718434
2404.164324,689.485948,-148.041188,9548.656652
2404.164653,1072.533697,-0.000000,9400.615463
2404.164982,1378.971896,222.061783,9252.574275
2404.165311,1685.410096,962.267725,9178.553681
2404.165640,1915.238745,814.226536,8660.409521
2404.165969,1685.410096,1480.411884,8512.368333
2404.166298,1838.629195,1258.350101,8660.409521
2404.166627,1302.362347,1184.329507,8586.388927
2404.166956,766.095498,888.247130,8438.347739
2404.167285,306.438199,-0.000000,8882.471304
2404.167614,-536.266849,-814.226536,9252.574275
2404.167943,-995.924147,-1184.329507,9474.636058
2404.168272,-1608.800546,-1850.514855,9844.739029
2404.168601,-1302.362347,-2146.597232,9918.759623
2404.168929,-1762.019645,-2146.597232,9918.759623
2404.169258,-995.924147,-1702.473667,9622.677246
2404.169587,-1072.533697,-1406.391290,9548.656652
2404.169916,-383.047749,-666.185348,10362.883188
2404.170245,-842.705048,-740.205942,9992.780217
2404.170574,536.266849,-370.102971,9844.739029
2404.170903,919.314598,-518.144159,9252.574275
2404.171232,1762.019645,222.061783,8512.368333
2404.171561,1838.629195,370.102971,8068.244768
2404.171890,1915.238745,962.267725,7920.203579
2404.172219,2221.676944,962.267725,8512.368333
2404.172548,612.876398,962.267725,8068.244768
2404.172877,1149.143247,592.164754,8142.265362
2404.173206,612.876398,-0.000000,8438.347739
2404.173535,0.000000,-370.102971,8438.347739
2404.173864,-612.876398,-444.123565,8956.491898
2404.174193,-766.095498,-222.061783,9104.533087
2404.174522,-1149.143247,-148.041188,9252.574275
2404.174850,-306.438199,-296.082377,9104.533087
2404.175179,-306.438199,296.082377,9030.512492
2404.175508,-766.095498,-0.000000,9030.512492
2404.175837,76.609550,-74.020594,8882.471304
2404.176166,306.438199,370.102971,9178.553681
2404.176495,612.876398,-0.000000,8882.471304
2404.176824,612.876398,-74.020594,9104.533087
2404.177153,1072.533697,-592.164754,8956.491898
2404.177482,76.609550,-148.041188,9326.594869
2404.177811,1149.143247,-444.123565,8882.471304
2404.178140,919.314598,-518.144159,9104.533087
2404.178469,1225.752797,-0.000000,9252.574275
2404.178798,612.876398,-0.000000,9178.553681
2404.179127,459.657299,-222.061783,9622.677246
2404.179456,1685.410096,-0.000000,9474.636058
2404.179785,1149.143247,518.144159,9326.594869
2404.180114,1072.533697,296.082377,9400.615463
2404.180442,919.314598,666.185348,9030.512492
2404.180771,766.095498,814.226536,9030.512492
2404.181100,536.266849,592.164754,8882.471304
2404.181429,76.609550,518.144159,9326.594869
2404.181758,-229.828649,-222.061783,9252.574275
2404.182087,-459.657299,-814.226536,9326.594869
2404.182416,-689.485948,-1776.494261,9770.718434
2404.182745,-766.095498,-2072.576638,9548.656652
2404.183074,-1685.410096,-2146.597232,9474.636058
2404.183403,-842.705048,-1554.432478,9696.697840
2404.183732,-842.705048,-1554.432478,9622.677246
2404.184061,-536.266849,-962.267725,9548.656652
2404.184390,-459.657299,-888.247130,9548.656652
2404.184719,383.047749,-370.102971,9548.656652
2404.185048,383.047749,-296.082377,9400.615463
2404.185377,1302.362347,-222.061783,8734.430116
2404.185706,1378.971896,666.185348,8142.265362
2404.186035,1455.581446,1036.288319,7994.224174
2404.186363,1532.190996,888.247130,8142.265362
2404.186692,1072.533697,1036.288319,7772.162391
2404.187021,919.314598,-0.000000,7624.121203
2404.187350,383.047749,-0.000000,8216.285956
2404.187679,153.219100,-148.041188,8660.409521
2404.188008,-536.266849,-592.164754,8808.450710
2404.188337,-536.266849,-444.123565,8734.430116
2404.188666,-536.266849,-296.082377,8882.471304
2404.188995,-306.438199,-222.061783,8882.471304
2404.189324,-229.828649,518.144159,8882.471304
2404.189653,153.219100,-0.000000,8956.491898
2404.189982,306.438199,222.061783,8956.491898
2404.190311,229.828649,666.185348,8956.491898
2404.190640,536.266849,370.102971,8512.368333
2404.190969,536.266849,-0.000000,8882.471304
2404.191298,612.876398,-0.000000,9696.697840
2404.191627,306.438199,-370.102971,9400.615463
2404.191955,383.047749,-814.226536,9622.677246
2404.192284,612.876398,-888.247130,9844.739029
2404.192613,383.047749,-888.247130,9918.759623
2404.192942,383.047749,-740.205942,9696.697840
2404.193271,766.095498,-444.123565,9844.739029
2404.193600,1149.143247,-0.000000,9844.739029
2404.193929,1532.190996,148.041188,9474.636058
2404.194258,1838.629195,1036.288319,8808.450710
2404.194587,2145.067394,1480.411884,8956.491898
2404.194916,1915.238745,1554.432478,8808.450710
2404.195245,1532.190996,1776.494261,8808.450710
2404.195574,995.924147,1036.288319,8586.388927
2404.195903,229.828649,518.144159,8512.368333
2404.196232,-459.657299,-814.226536,9400.615463
2404.196561,-612.876398,-1332.370696,9474.636058
2404.196890,-1072.533697,-1702.473667,9474.636058
2404.197219,-1225.752797,-1850.514855,9622.677246
2404.197548,-1072.533697,-1850.514855,9474.636058
2404.197876,-766.095498,-1628.453072,9400.615463
2404.198205,-229.828649,-1184.329507,9474.636058
2404.198534,-153.219100,-666.185348,10140.821405
2404.198863,-612.876398,-666.185348,9178.553681
2404.199192,0.000000,-740.205942,9474.636058
2404.199521,306.438199,-370.102971,9474.636058
2404.199850,842.705048,-0.000000,8956.491898
2404.200179,1455.581446,296.082377,8586.388927
2404.200508,1608.800546,592.164754,7698.141797
2404.200837,2374.896044,962.267725,7698.141797
2404.201166,1838.629195,962.267725,7846.182985
2404.201495,1838.629195,518.144159,7550.100608
2404.201824,995.924147,444.123565,7624.121203
2404.202153,383.047749,-74.020594,8068.244768
2404.202482,76.609550,-0.000000,8586.388927
2404.202811,-612.876398,-592.164754,9178.553681
2404.203140,-766.095498,-740.205942,8956.491898
2404.203469,-306.438199,-814.226536,9178.553681
2404.203797,-459.657299,-518.144159,9474.636058
2404.204126,-689.485948,-370.102971,9474.636058
2404.204455,-612.876398,-222.061783,9400.615463
2404.204784,-229.828649,-0.000000,9400.615463
2404.205113,229.828649,-0.000000,9326.594869
2404.205442,383.047749,-370.102971,9030.512492
2404.205771,459.657299,-740.205942,8956.491898
2404.206100,995.924147,-814.226536,9030.512492
2404.206429,995.924147,-814.226536,8734.430116
2404.206758,1149.143247,-444.123565,8734.430116
2404.207087,1532.190996,-0.000000,9030.512492
2404.207416,1149.143247,148.041188,9030.512492
2404.207745,1532.190996,444.123565,9252.574275
2404.208074,1225.752797,222.061783,8882.471304
2404.208403,919.314598,666.185348,9252.574275
2404.208732,689.485948,1110.308913,9548.656652
2404.209061,536.266849,962.267725,8956.491898
2404.209390,689.485948,1110.308913,8882.471304
2404.209719,306.438199,814.226536,9104.533087
2404.210047,-306.438199,666.185348,9474.636058
2404.210376,-229.828649,-444.123565,9252.574275
2404.210705,-1378.971896,-814.226536,9400.615463
2404.211034,-1072.533697,-1480.411884,9474.636058
2404.211363,-1532.190996,-1702.473667,9992.780217
2404.211692,-1302.362347,-1850.514855,9622.677246
2404.212021,-1225.752797,-1702.473667,9622.677246
2404.212350,-919.314598,-1776.494261,10140.821405
2404.212679,0.000000,-1480.411884,10066.800811
2404.213008,76.609550,-888.247130,9918.759623
2404.213337,1149.143247,-296.082377,9104.533087
2404.213666,1455.581446,222.061783,8956.491898
2404.213995,1838.629195,592.164754,8512.368333
2404.214324,1991.848295,888.247130,7846.182985
2404.214653,2068.457845,888.247130,8586.388927
2404.214982,2221.676944,592.164754,8512.368333
2404.215311,1455.581446,222.061783,8364.327145
2404.215640,229.828649,222.061783,8512.368333
2404.215969,0.000000,-148.041188,8808.450710
2404.216298,-536.266849,-444.123565,8882.471304
2404.216626,-842.705048,-814.226536,9178.553681
2404.216955,-1378.971896,-888.247130,9548.656652
2404.217284,-612.876398,-444.123565,9252.574275
2404.217613,-383.047749,444.123565,9178.553681
2404.217942,-153.219100,222.061783,8956.491898
2404.218271,459.657299,740.205942,9104.533087
2404.218600,689.485948,444.123565,8512.368333
2404.218929,766.095498,740.205942,8660.409521
2404.219258,919.314598,370.102971,8512.368333
2404.219587,1302.362347,-666.185348,7994.224174
2404.219916,1072.533697,-370.102971,8956.491898
2404.220245,229.828649,-740.205942,9326.594869
2404.220574,76.609550,-1184.329507,9104.533087
2404.220903,229.828649,-962.267725,9326.594869
2404.221232,459.657299,-592.164754,9474.636058
2404.221561,842.705048,-962.267725,9474.636058
2404.221890,536.266849,-592.164754,9474.636058
2404.222219,919.314598,222.061783,9400.615463
2404.222548,1608.800546,592.164754,9030.512492
2404.222877,1532.190996,1110.308913,8438.347739
2404.223205,1762.019645,1554.432478,8512.368333
2404.223534,1762.019645,1480.411884,8586.388927
2404.223863,2068.457845,1332.370696,8734.430116
2404.224192,383.047749,592.164754,8882.471304
2404.224521,-306.438199,-222.061783,9178.553681
2404.224850,-766.095498,-888.247130,9474.636058
2404.225179,-1685.410096,-1628.453072,9918.759623
2404.225508,-1685.410096,-1998.556043,9918.759623
2404.225837,-1762.019645,-1850.514855,9918.759623
2404.226166,-1608.800546,-1924.535449,10362.883188
2404.226495,-1072.533697,-1702.473667,10362.883188
2404.226824,-689.485948,-1776.494261,9992.780217
2404.227153,-766.095498,-1258.350101,9696.697840
2404.227482,0.000000,-1036.288319,9770.718434
2404.227811,612.876398,-814.226536,9696.697840
2404.228140,1608.800546,222.061783,8512.368333
2404.228469,2451.505594,592.164754,8216.285956
2404.228798,2298.286494,1036.288319,7994.224174
2404.229127,2757.943793,1332.370696,7994.224174
2404.229456,2145.067394,962.267725,7624.121203
2404.229784,1455.581446,1258.350101,7624.121203
2404.230113,689.485948,370.102971,8660.409521
2404.230442,0.000000,-0.000000,8660.409521
2404.230771,-766.095498,-740.205942,9326.594869
2404.231100,-612.876398,-888.247130,9104.533087
2404.231429,-919.314598,-814.226536,9474.636058
2404.231758,-995.924147,-666.185348,9178.553681
2404.232087,-306.438199,-148.041188,8956.491898
2404.232416,153.219100,296.082377,9030.512492
2404.232745,459.657299,148.041188,8882.471304
2404.233074,1378.971896,740.205942,8660.409521
2404.233403,1225.752797,592.164754,8660.409521
2404.233732,1532.190996,296.082377,8290.306550
2404.234061,766.095498,-0.000000,8586.388927
2404.234390,919.314598,-148.041188,8734.430116
2404.234719,766.095498,-370.102971,8808.450710
2404.235048,153.219100,-666.185348,9326.594869
2404.235377,-229.828649,-962.267725,9548.656652
2404.235706,-306.438199,-888.247130,9696.697840
2404.236035,-229.828649,-444.123565,10140.821405
2404.236363,76.609550,-518.144159,9918.759623
2404.236692,459.657299,-74.020594,9548.656652
2404.237021,842.705048,296.082377,9326.594869
2404.237350,1455.581446,666.185348,9326.594869
2404.237679,1762.019645,962.267725,8956.491898
2404.238008,1455.581446,1184.329507,8734.430116
2404.238337,1532.190996,1110.308913,8438.347739
2404.238666,842.705048,370.102971,8512.368333
2404.238995,383.047749,-0.000000,9178.553681
2404.239324,-459.657299,-740.205942,9252.574275
2404.239653,-1149.143247,-1628.453072,9696.697840
2404.239982,-1532.190996,-2220.617826,10140.821405
2404.240311,-1762.019645,-2146.597232,10214.842000
2404.240640,-1532.190996,-1998.556043,10362.883188
2404.240969,-1225.752797,-1702.473667,10066.800811
2404.241298,-842.705048,-1036.288319,9844.739029
2404.241627,-306.438199,-888.247130,9474.636058
2404.241956,306.438199,-296.082377,9474.636058
2404.242285,1149.143247,-0.000000,9474.636058
2404.242614,1532.190996,296.082377,8808.450710
2404.242942,1915.238745,370.102971,8216.285956
2404.243271,1915.238745,1258.350101,7772.162391
2404.243600,1915.238745,962.267725,7772.162391
2404.243929,1455.581446,740.205942,7624.121203
2404.244258,1149.143247,592.164754,7846.182985
2404.244587,612.876398,222.061783,8142.265362
2404.244916,0.000000,-444.123565,8438.347739
2404.245245,-689.485948,-518.144159,8734.430116
2404.245574,-919.314598,-148.041188,9548.656652
2404.245903,-1149.143247,-148.041188,9030.512492
2404.246232,-536.266849,-444.123565,9252.574275
2404.246561,-689.485948,-222.061783,8660.409521
2404.246890,76.609550,-0.000000,9104.533087
2404.247219,0.000000,-148.041188,9252.574275
2404.247548,0.000000,296.082377,9178.553681
2404.247877,306.438199,-222.061783,9030.512492
2404.248206,689.485948,-148.041188,8956.491898
2404.248535,383.047749,-592.164754,9400.615463
2404.248864,612.876398,-370.102971,9474.636058
2404.249193,995.924147,-1406.391290,8882.471304
2404.249521,689.485948,-814.226536,9326.594869
2404.249850,919.314598,-740.205942,9474.636058
2404.250179,1072.533697,-222.061783,9548.656652
2404.250508,1302.362347,-0.000000,9400.615463
2404.250837,1608.800546,814.226536,9178.553681
2404.251166,1532.190996,888.247130,8956.491898
2404.251495,1762.019645,962.267725,9030.512492
2404.251824,1532.190996,1110.308913,8586.388927
2404.252153,1302.362347,1036.288319,8290.306550
2404.252482,1072.533697,814.226536,8808.450710
2404.252811,383.047749,222.061783,8882.471304
2404.253140,-306.438199,-222.061783,9104.533087
2404.253469,-766.095498,-1036.288319,9474.636058
2404.253798,-536.266849,-1258.350101,9548.656652
2404.254127,-1072.533697,-1998.556043,9548.656652
2404.254456,-1225.752797,-2294.638420,9770.718434
2404.254785,-1149.143247,-1480.411884,10140.821405
2404.255114,-612.876398,-1184.329507,9548.656652
2404.255443,-383.047749,-1036.288319,9474.636058
2404.255772,-153.219100,-592.164754,9548.656652
2404.256100,766.095498,-592.164754,9474.636058
2404.256429,536.266849,-444.123565,8882.471304
2404.256758,1455.581446,296.082377,8660.409521
2404.257087,1991.848295,-0.000000,8660.409521
2404.257416,1532.190996,222.061783,8512.368333
2404.257745,1072.533697,148.041188,8586.388927
2404.258074,1149.143247,-0.000000,8512.368333
2404.258403,459.657299,-296.082377,8364.327145
2404.258732,229.828649,-370.102971,8734.430116
2404.259061,153.219100,-370.102971,9104.533087
2404.259390,0.000000,-740.205942,8956.491898
2404.259719,0.000000,-0.000000,9104.533087
2404.260048,0.000000,-0.000000,9104.533087
2404.260377,76.609550,296.082377,8734.430116
2404.260706,612.876398,592.164754,8586.388927
2404.261035,689.485948,666.185348,8808.450710
2404.261364,536.266849,444.123565,9104.533087
2404.261693,612.876398,370.102971,8734.430116
2404.262022,536.266849,370.102971,8734.430116
2404.262351,229.828649,-74.020594,8956.491898
2404.262679,-383.047749,-592.164754,9030.512492
2404.263008,76.609550,-888.247130,9474.636058
2404.263337,76.609550,-1184.329507,9474.636058
2404.263666,306.438199,-1110.308913,9844.739029
2404.263995,76.609550,-888.247130,9696.697840
2404.264324,153.219100,-296.082377,9400.615463
2404.264653,919.314598,-0.000000,9696.697840
2404.264982,1608.800546,518.144159,9252.574275
2404.265311,2068.457845,1110.308913,8734.430116
2404.265640,1762.019645,1480.411884,8882.471304
2404.265969,2068.457845,1554.432478,8512.368333
2404.266298,2068.457845,1554.432478,8438.347739
2404.266627,1762.019645,1184.329507,7994.224174
2404.266956,842.705048,740.205942,8438.347739
2404.267285,0.000000,-0.000000,9030.512492
2404.267614,-612.876398,-296.082377,9770.718434
2404.267943,-1302.362347,-1776.494261,10140.821405
2404.268272,-1838.629195,-2294.638420,9918.759623
2404.268601,-1378.971896,-1628.453072,9918.759623
2404.268930,-1455.581446,-2072.576638,9992.780217
2404.269258,-1532.190996,-1850.514855,9844.739029
2404.269587,-612.876398,-1628.453072,10066.800811
2404.269916,-459.657299,-1406.391290,10362.883188
2404.270245,-919.314598,-962.267725,10066.800811
2404.270574,612.876398,-962.267725,10214.842000
2404.270903,1225.752797,-74.020594,8882.471304
2404.271232,1991.848295,518.144159,8586.388927
2404.271561,1991.848295,666.185348,7846.182985
2404.271890,2757.943793,1258.350101,7476.080014
2404.272219,2451.505594,1184.329507,8068.244768
2404.272548,1685.410096,1184.329507,7698.141797
2404.272877,1225.752797,296.082377,8216.285956
2404.273206,306.438199,-222.061783,8216.285956
2404.273535,-766.095498,-222.061783,8956.491898
2404.273864,-383.047749,-962.267725,9548.656652
2404.274193,-919.314598,-962.267725,9030.512492
2404.274522,-995.924147,-518.144159,9178.553681
2404.274851,-612.876398,-74.020594,9178.553681
2404.275180,-383.047749,296.082377,9030.512492
2404.275509,-153.219100,-0.000000,9030.512492
2404.275837,0.000000,222.061783,8660.409521
2404.276166,612.876398,-0.000000,8734.430116
2404.276495,612.876398,444.123565,8808.450710
2404.276824,612.876398,-74.020594,8438.347739
2404.277153,689.485948,-222.061783,8586.388927
2404.277482,689.485948,-444.123565,8882.471304
2404.277811,1072.533697,-1332.370696,8586.388927
2404.278140,919.314598,-888.247130,9178.553681
2404.278469,842.705048,-444.123565,9326.594869
2404.278798,842.705048,-370.102971,9548.656652
2404.279127,919.314598,-444.123565,9474.636058
2404.279456,1225.752797,222.061783,9178.553681
2404.279785,1455.581446,370.102971,9030.512492
2404.280114,1378.971896,888.247130,8882.471304
2404.280443,2068.457845,814.226536,8438.347739
2404.280772,1685.410096,1036.288319,8734.430116
2404.281101,1072.533697,1184.329507,8956.491898
2404.281430,0.000000,444.123565,9178.553681
2404.281759,-612.876398,-370.102971,9474.636058
2404.282088,-995.924147,-814.226536,9548.656652
2404.282416,-1149.143247,-1184.329507,9992.780217
2404.282745,-919.314598,-2146.597232,10436.903782
2404.283074,-1455.581446,-1776.494261,9770.718434
2404.283403,-842.705048,-1998.556043,10288.862594
2404.283732,-612.876398,-1406.391290,9992.780217
2404.284061,-536.266849,-962.267725,9770.718434
2404.284390,-306.438199,-592.164754,9326.594869
2404.284719,229.828649,-518.144159,9918.759623
2404.285048,919.314598,-0.000000,9696.697840
2404.285377,1455.581446,-296.082377,8586.388927
2404.285706,2068.457845,592.164754,8142.265362
2404.286035,2068.457845,962.267725,7624.121203
2404.286364,2068.457845,1184.329507,7994.224174
2404.286693,1685.410096,518.144159,7920.203579
2404.287022,1302.362347,888.247130,7254.018232
2404.287351,536.266849,148.041188,7846.182985
2404.287680,0.000000,-296.082377,8882.471304
2404.288009,-459.657299,-370.102971,8956.491898
2404.288338,-766.095498,-518.144159,8882.471304
2404.288667,-689.485948,-296.082377,9252.574275
2404.288995,-383.047749,-296.082377,9326.594869
2404.289324,-612.876398,-0.000000,9104.533087
2404.289653,-383.047749,148.041188,9104.533087
2404.289982,-229.828649,-0.000000,9548.656652
2404.290311,229.828649,296.082377,8882.471304
2404.290640,536.266849,592.164754,8512.368333
2404.290969,536.266849,-0.000000,8956.491898
2404.291298,766.095498,-74.020594,9030.512492
2404.291627,689.485948,-740.205942,9400.615463
2404.291956,536.266849,-1036.288319,9104.533087
2404.292285,766.095498,-740.205942,9474.636058
2404.292614,689.485948,-814.226536,9326.594869
2404.292943,536.266849,-148.041188,9548.656652
2404.293272,842.705048,-0.000000,9474.636058
2404.293601,1225.752797,-74.020594,9622.677246
2404.293930,1455.581446,444.123565,9548.656652
2404.294259,306.438199,814.226536,9474.636058
2404.294588,1762.019645,1110.308913,9104.533087
2404.294917,1915.238745,1332.370696,9030.512492
2404.295246,1302.362347,1184.329507,9030.512492
2404.295574,536.266849,962.267725,8956.491898
2404.295903,76.609550,222.061783,8882.471304
2404.296232,-689.485948,-370.102971,9622.677246
2404.296561,-995.924147,-1258.350101,9696.697840
2404.296890,-1608.800546,-1776.494261,9770.718434
2404.297219,-1378.971896,-1850.514855,9696.697840
2404.297548,-1532.190996,-1628.453072,9770.718434
2404.297877,-1072.533697,-1480.411884,9548.656652
2404.298206,-766.095498,-1332.370696,9252.574275
2404.298535,-459.657299,-888.247130,9474.636058
2404.298864,-229.828649,-1110.308913,9400.615463
2404.299193,229.828649,-814.226536,9770.718434
2404.299522,689.485948,-296.082377,9178.553681
2404.299851,1302.362347,296.082377,8586.388927
2404.300180,1838.629195,740.205942,7846.182985
2404.300509,2068.457845,1036.288319,7698.141797
2404.300838,2374.896044,1480.411884,7476.080014
2404.301167,1915.238745,962.267725,7328.038826
2404.301496,1072.533697,444.123565,7846.182985
2404.301825,536.266849,-0.000000,7624.121203
2404.302153,0.000000,-296.082377,8512.368333
2404.302482,-383.047749,-740.205942,9104.533087
2404.302811,-995.924147,-814.226536,9104.533087
2404.303140,-689.485948,-1184.329507,9326.594869
2404.303469,-612.876398,-814.226536,8882.471304
2404.303798,-766.095498,-148.041188,9326.594869
2404.304127,-842.705048,-0.000000,9400.615463
2404.304456,0.000000,222.061783,9104.533087
2404.304785,0.000000,370.102971,9030.512492
2404.305114,459.657299,148.041188,9104.533087
2404.305443,536.266849,-370.102971,9178.553681
2404.305772,306.438199,-370.102971,9400.615463
2404.306101,306.438199,-518.144159,9400.615463
2404.306430,612.876398,-888.247130,8734.430116
2404.306759,612.876398,-814.226536,9178.553681
2404.307088,842.705048,-296.082377,9326.594869
2404.307417,1072.533697,-296.082377,9474.636058
2404.307746,995.924147,-74.020594,9252.574275
2404.308075,1149.143247,-0.000000,9252.574275
2404.308404,1532.190996,888.247130,8956.491898
2404.308733,1685.410096,1110.308913,9104.533087
2404.309062,1685.410096,1258.350101,8734.430116
2404.309391,1532.190996,1184.329507,8438.347739
2404.309720,1149.143247,1332.370696,8882.471304
2404.310049,536.266849,518.144159,9030.512492
2404.310378,0.000000,-370.102971,9030.512492
2404.310707,-842.705048,-666.185348,9178.553681
2404.311036,-919.314598,-1258.350101,9918.759623
2404.311365,-1915.238745,-2146.597232,9622.677246
2404.311694,-1302.362347,-2146.597232,9844.739029
2404.312023,-1608.800546,-1924.535449,9992.780217
2404.312352,-689.485948,-1702.473667,9622.677246
2404.312681,-612.876398,-1554.432478,9844.739029
2404.313010,0.000000,-962.267725,9696.697840
2404.313339,536.266849,-888.247130,9770.718434
2404.313668,1149.143247,-518.144159,8734.430116
2404.313997,1991.848295,296.082377,8956.491898
2404.314326,1838.629195,444.123565,8512.368333
2404.314655,2068.457845,1184.329507,7920.203579
2404.314984,1915.238745,962.267725,8142.265362
2404.315313,1225.752797,814.226536,7846.182985
2404.315642,1072.533697,518.144159,7920.203579
2404.315972,383.047749,-0.000000,8364.327145
2404.316301,0.000000,-444.123565,8956.491898
2404.316630,-689.485948,-814.226536,9178.553681
2404.316959,-689.485948,-444.123565,9104.533087
2404.317288,-689.485948,-296.082377,9104.533087
2404.317617,-612.876398,-296.082377,9104.533087
2404.317946,-306.438199,-0.000000,9326.594869
2404.318275,-612.876398,-0.000000,9548.656652
2404.318604,383.047749,-0.000000,8956.491898
2404.318933,536.266849,592.164754,9178.553681
2404.319262,612.876398,666.185348,8586.388927
2404.319591,995.924147,592.164754,8586.388927
2404.319920,1072.533697,444.123565,8734.430116
2404.320249,1302.362347,-296.082377,8512.368333
2404.320578,459.657299,-370.102971,8882.471304
2404.320907,459.657299,-444.123565,9178.553681
2404.321236,612.876398,-444.123565,9474.636058
2404.321565,306.438199,-444.123565,9326.594869
2404.321894,306.438199,-444.123565,9400.615463
2404.322223,689.485948,-0.000000,9474.636058
2404.322552,1149.143247,-296.082377,9474.636058
2404.322881,919.314598,444.123565,9326.594869
2404.323210,1072.533697,888.247130,8956.491898
2404.323539,1302.362347,888.247130,8956.491898
2404.323868,1455.581446,888.247130,8882.471304
2404.324197,766.095498,592.164754,8734.430116
2404.324527,306.438199,296.082377,8956.491898
2404.324856,0.000000,-518.144159,9770.718434
2404.325185,-306.438199,-888.247130,9770.718434
2404.325514,-842.705048,-1924.535449,9918.759623
2404.325843,-1378.971896,-2294.638420,9474.636058
2404.326172,-1608.800546,-2146.597232,10140.821405
2404.326501,-1302.362347,-1924.535449,10140.821405
2404.326830,-536.266849,-1924.535449,9918.759623
2404.327159,-153.219100,-962.267725,9696.697840
2404.327488,76.609550,-888.247130,9696.697840
2404.327817,689.485948,-740.205942,9474.636058
2404.328146,1072.533697,222.061783,9252.574275
2404.328475,1685.410096,592.164754,8364.327145
2404.328804,1838.629195,1036.288319,7994.224174
2404.329133,1991.848295,1036.288319,7624.121203
2404.329462,2298.286494,962.267725,7550.100608
2404.329791,1532.190996,666.185348,7846.182985
2404.330120,1072.533697,296.082377,8290.306550
2404.330449,306.438199,-0.000000,8512.368333
2404.330778,-536.266849,-148.041188,8438.347739
2404.331107,-612.876398,-518.144159,8956.491898
2404.331436,-689.485948,-518.144159,9178.553681
2404.331765,-919.314598,-444.123565,8734.430116
2404.332094,-536.266849,-74.020594,9252.574275
2404.332423,-306.438199,222.061783,8956.491898
2404.332752,153.219100,-0.000000,9178.553681
2404.333082,0.000000,-0.000000,8660.409521
2404.333411,306.438199,444.123565,9030.512492
2404.333740,383.047749,-0.000000,8882.471304
2404.334069,0.000000,-0.000000,8956.491898
2404.334398,919.314598,-666.185348,8956.491898
2404.334727,1072.533697,-814.226536,9104.533087
2404.335056,536.266849,-962.267725,9474.636058
2404.335385,612.876398,-814.226536,9400.615463
2404.335714,919.314598,-592.164754,9400.615463
2404.336043,919.314598,-370.102971,9474.636058
2404.336372,1302.362347,-74.020594,9844.739029
2404.336701,1532.190996,370.102971,9474.636058
2404.337030,1225.752797,666.185348,9474.636058
2404.337359,1915.238745,296.082377,8956.491898
2404.337688,1378.971896,1110.308913,9178.553681
2404.338017,1302.362347,1258.350101,8956.491898
2404.338346,919.314598,1110.308913,8882.471304
2404.338675,459.657299,666.185348,9474.636058
2404.339004,-612.876398,-148.041188,9400.615463
2404.339333,-1532.190996,-1036.288319,9474.636058
2404.339662,-1302.362347,-1554.432478,9622.677246
2404.339991,-1532.190996,-1850.514855,10214.842000
2404.340320,-1532.190996,-1998.556043,9992.780217
2404.340649,-1302.362347,-1776.494261,9696.697840
2404.340978,-995.924147,-1184.329507,9548.656652
2404.341308,-459.657299,-1406.391290,9844.739029
2404.341637,-229.828649,-962.267725,9474.636058
2404.341966,536.266849,-740.205942,8808.450710
2404.342295,919.314598,-222.061783,9844.739029
2404.342624,1072.533697,222.061783,8438.347739
2404.342953,1532.190996,444.123565,8216.285956
2404.343282,1915.238745,814.226536,7476.080014
2404.343611,2374.896044,962.267725,7846.182985
2404.343940,2451.505594,740.205942,7846.182985
2404.344269,1302.362347,962.267725,7624.121203
2404.344598,995.924147,-0.000000,7698.141797
2404.344927,229.828649,-74.020594,8216.285956
2404.345256,-536.266849,-444.123565,8660.409521
2404.345585,-995.924147,-1036.288319,9400.615463
2404.345914,-995.924147,-1184.329507,8734.430116
2404.346243,-766.095498,-592.164754,9400.615463
2404.346572,0.000000,-592.164754,9252.574275
2404.346901,-306.438199,-74.020594,9030.512492
2404.347230,0.000000,-0.000000,9178.553681
2404.347559,229.828649,296.082377,9326.594869
2404.347888,689.485948,370.102971,8808.450710
2404.348217,1149.143247,370.102971,9030.512492
2404.348546,1149.143247,-222.061783,8808.450710
2404.348875,1225.752797,-148.041188,8956.491898
2404.349204,919.314598,-518.144159,9030.512492
2404.349533,919.314598,-592.164754,9030.512492
2404.349863,995.924147,-518.144159,9178.553681
2404.350192,612.876398,-296.082377,9474.636058
2404.350521,919.314598,-370.102971,9474.636058
2404.350850,1072.533697,-370.102971,9622.677246
2404.351179,1378.971896,518.144159,9548.656652
2404.351508,842.705048,740.205942,9326.594869
2404.351837,919.314598,1036.288319,8882.471304
2404.352166,1149.143247,1258.350101,8882.471304
2404.352495,766.095498,1110.308913,8734.430116
2404.352824,689.485948,1258.350101,9178.553681
2404.353153,306.438199,222.061783,8956.491898
2404.353482,-306.438199,-296.082377,9030.512492
2404.353811,-1072.533697,-666.185348,9696.697840
2404.354140,-1302.362347,-1850.514855,9548.656652
2404.354469,-1225.752797,-1776.494261,9548.656652
2404.354798,-1149.143247,-1776.494261,9844.739029
2404.355127,-612.876398,-1702.473667,9770.718434
2404.355456,-229.828649,-2146.597232,9622.677246
2404.355785,-536.266849,-1110.308913,9696.697840
2404.356114,153.219100,-592.164754,9474.636058
2404.356443,153.219100,-296.082377,9918.759623
2404.356772,459.657299,-296.082377,9400.615463
2404.357101,1149.143247,444.123565,8364.327145
2404.357430,1608.800546,370.102971,8586.388927
2404.357759,1762.019645,888.247130,7772.162391
2404.358088,1838.629195,962.267725,7846.182985
2404.358418,1455.581446,888.247130,7994.224174
2404.358747,995.924147,592.164754,8142.265362
2404.359076,459.657299,222.061783,8290.306550
2404.359405,-306.438199,-370.102971,8512.368333
2404.359734,-536.266849,-962.267725,9030.512492
2404.360063,-1225.752797,-1406.391290,9400.615463
2404.360392,-995.924147,-1036.288319,9474.636058
2404.360721,-1149.143247,-444.123565,9104.533087
2404.361050,-766.095498,-0.000000,9178.553681
2404.361379,-612.876398,-74.020594,9474.636058
2404.361708,-459.657299,-0.000000,9474.636058
2404.362037,76.609550,-222.061783,9400.615463
2404.362366,229.828649,-0.000000,9400.615463
2404.362695,229.828649,-222.061783,9326.594869
2404.363024,459.657299,-518.144159,9104.533087
2404.363353,919.314598,-518.144159,8956.491898
2404.363682,1302.362347,-592.164754,8882.471304
2404.364011,1455.581446,-444.123565,8882.471304
2404.364340,842.705048,-370.102971,9030.512492
2404.364669,1762.019645,-148.041188,9030.512492
2404.364998,1991.848295,370.102971,8734.430116
2404.365327,1378.971896,296.082377,9104.533087
2404.365656,1685.410096,518.144159,8808.450710
2404.365985,1685.410096,1258.350101,8660.409521
