#time,accel_x,accel_y,accel_z
2735.312295,536.266849,-222.061783,9030.512492
2735.312624,383.047749,-148.041188,9104.533087
2735.312953,459.657299,-370.102971,9252.574275
2735.313282,306.438199,-444.123565,9400.615463
2735.313612,383.047749,-296.082377,9252.574275
2735.313941,459.657299,-74.020594,9252.574275
2735.314270,383.047749,-148.041188,9104.533087
2735.314600,306.438199,-0.000000,9252.574275
2735.314929,536.266849,-0.000000,9474.636058
2735.315258,536.266849,518.144159,9252.574275
2735.315587,0.000000,-370.102971,9474.636058
2735.315917,153.219100,-148.041188,9104.533087
2735.316246,76.609550,-0.000000,9104.533087
2735.316575,306.438199,-0.000000,9030.512492
2735.316904,306.438199,-0.000000,9104.533087
2735.317234,153.219100,222.061783,9104.533087
2735.317563,76.609550,-74.020594,9178.553681
2735.317892,383.047749,-0.000000,9252.574275
2735.318221,306.438199,-74.020594,8956.491898
2735.318551,459.657299,-0.000000,8882.471304
2735.318880,229.828649,-148.041188,8586.388927
2735.319209,306.438199,148.041188,8882.471304
2735.319538,76.609550,-222.061783,8808.450710
2735.319868,229.828649,-296.082377,8882.471304
2735.320197,306.438199,-296.082377,8882.471304
2735.320526,0.000000,-0.000000,9326.594869
2735.320855,383.047749,-222.061783,8808.450710
2735.321185,383.047749,-148.041188,9104.533087
2735.321514,383.047749,-222.061783,9104.533087
2735.321843,306.438199,-296.082377,8956.491898
2735.322172,306.438199,148.041188,9252.574275
2735.322502,306.438199,-222.061783,9326.594869
2735.322831,306.438199,-222.061783,9104.533087
2735.323160,306.438199,-222.061783,9178.553681
2735.323490,306.438199,-148.041188,9400.615463
2735.323819,459.657299,-222.061783,9178.553681
2735.324148,306.438199,-0.000000,9400.615463
2735.324477,536.266849,-148.041188,9548.656652
2735.324807,306.438199,-370.102971,8882.471304
2735.325136,229.828649,-296.082377,9326.594869
2735.325465,459.657299,-296.082377,9178.553681
2735.325794,383.047749,-222.061783,9252.574275
2735.326124,229.828649,-0.000000,9252.574275
2735.326453,76.609550,-666.185348,9030.512492
2735.326782,383.047749,-296.082377,8882.471304
2735.327111,153.219100,-222.061783,9030.512492
2735.327441,0.000000,-222.061783,9252.574275
2735.327770,306.438199,-0.000000,9178.553681
2735.328099,229.828649,-0.000000,9030.512492
2735.328428,306.438199,-0.000000,8882.471304
2735.328758,306.438199,-222.061783,9030.512492
2735.329087,459.657299,-0.000000,8956.491898
2735.329416,0.000000,-74.020594,9104.533087
2735.329745,306.438199,-74.020594,8882.471304
2735.330075,306.438199,-148.041188,8734.430116
2735.330404,383.047749,-0.000000,8734.430116
2735.330733,76.609550,-0.000000,8586.388927
2735.331063,76.609550,-296.082377,8808.450710
2735.331392,383.047749,-148.041188,9030.512492
2735.331721,153.219100,-444.123565,8956.491898
2735.332050,153.219100,-74.020594,9178.553681
2735.332380,383.047749,-222.061783,9030.512492
2735.332709,383.047749,-222.061783,9030.512492
2735.333038,306.438199,-222.061783,9030.512492
2735.333367,689.485948,-74.020594,9104.533087
2735.333697,919.314598,-0.000000,9030.512492
2735.334026,306.438199,-370.102971,9030.512492
2735.334355,536.266849,-222.061783,9104.533087
2735.334684,153.219100,-370.102971,9252.574275
2735.335014,229.828649,-222.061783,9326.594869
2735.335343,229.828649,-296.082377,9326.594869
2735.335672,0.000000,-814.226536,9326.594869
2735.336001,842.705048,-518.144159,9178.553681
2735.336331,459.657299,-444.123565,9178.553681
2735.336660,689.485948,-148.041188,9104.533087
2735.336989,306.438199,-296.082377,9104.533087
2735.337318,229.828649,-370.102971,9178.553681
2735.337648,306.438199,-148.041188,9030.512492
2735.337977,306.438199,-0.000000,9178.553681
2735.338306,536.266849,-370.102971,9400.615463
2735.338635,1455.581446,-740.205942,9622.677246
2735.338965,1532.190996,-740.205942,9474.636058
2735.339294,1608.800546,-740.205942,9474.636058
2735.339623,1991.848295,-370.102971,9104.533087
2735.339953,2451.505594,-0.000000,8734.430116
2735.340282,3370.820191,-0.000000,9104.533087
2735.340611,4290.134789,-222.061783,8734.430116
2735.340940,3447.429741,-74.020594,8512.368333
2735.341270,3600.648841,666.185348,8290.306550
2735.341599,3140.991542,-0.000000,7920.203579
2735.341928,3370.820191,-74.020594,9178.553681
2735.342257,2681.334243,-222.061783,8882.471304
2735.342587,1532.190996,-592.164754,9326.594869
2735.342916,1915.238745,-1924.535449,9696.697840
2735.343245,2528.115143,-1554.432478,9400.615463
2735.343574,2451.505594,-666.185348,9474.636058
2735.343904,2528.115143,-1554.432478,9918.759623
2735.344233,2757.943793,-444.123565,9104.533087
2735.344562,4136.915689,666.185348,9548.656652
2735.344891,5056.230287,518.144159,7328.038826
2735.345221,4290.134789,1258.350101,8438.347739
2735.345550,4903.011187,962.267725,9252.574275
2735.345879,4519.963438,592.164754,7476.080014
2735.346208,4136.915689,666.185348,9030.512492
2735.346538,3753.867940,-0.000000,8512.368333
2735.346867,2757.943793,666.185348,9104.533087
2735.347196,1685.410096,-592.164754,9622.677246
2735.347525,1685.410096,-888.247130,9548.656652
2735.347855,1608.800546,-444.123565,10362.883188
2735.348184,689.485948,-1184.329507,9992.780217
2735.348513,1762.019645,-518.144159,9844.739029
2735.348843,1762.019645,-592.164754,10658.965565
2735.349172,2681.334243,518.144159,7994.224174
2735.349501,3370.820191,148.041188,9770.718434
2735.349830,3677.258390,1332.370696,8808.450710
2735.350160,4366.744339,296.082377,8438.347739
2735.350489,4673.182538,666.185348,8438.347739
2735.350818,4443.353888,444.123565,8364.327145
2735.351147,3907.087040,-0.000000,8882.471304
2735.351477,3447.429741,-814.226536,9326.594869
2735.351806,3064.381992,-888.247130,9326.594869
2735.352135,2834.553343,-1110.308913,9992.780217
2735.352464,2221.676944,-1850.514855,9696.697840
2735.352794,2528.115143,-1776.494261,10214.842000
2735.353123,2528.115143,-962.267725,9548.656652
2735.353452,3447.429741,-74.020594,9030.512492
2735.353781,3140.991542,444.123565,8512.368333
2735.354111,3753.867940,1554.432478,8734.430116
2735.354440,4366.744339,2294.638420,7920.203579
2735.354769,4290.134789,2590.720797,7624.121203
2735.355098,3830.477490,1924.535449,7772.162391
2735.355428,3907.087040,1258.350101,8068.244768
2735.355757,3370.820191,222.061783,8142.265362
2735.356086,2911.162892,-888.247130,9474.636058
2735.356415,2451.505594,-1998.556043,9844.739029
2735.356745,2221.676944,-2812.782580,10214.842000
2735.357074,2451.505594,-3034.844362,10955.047942
2735.357403,2681.334243,-3034.844362,10510.924376
2735.357733,3907.087040,-1702.473667,10066.800811
2735.358062,5056.230287,-444.123565,9400.615463
2735.358391,5515.887586,1110.308913,8956.491898
2735.358720,5822.325785,1702.473667,8438.347739
2735.359050,5132.839837,2738.761985,7920.203579
2735.359379,4979.620737,3330.926739,7254.018232
2735.359708,4596.572988,2886.803174,7031.956449
2735.360037,3677.258390,2368.659014,6735.874072
2735.360367,2987.772442,1184.329507,7550.100608
2735.360696,1378.971896,-1924.535449,9622.677246
2735.361025,-536.266849,-3923.091493,10214.842000
2735.361354,-1225.752797,-4145.153275,11547.212695
2735.361684,-1225.752797,-4959.379811,12213.398043
2735.362013,-995.924147,-2220.617826,10584.944971
2735.362342,689.485948,-1702.473667,11547.212695
2735.362671,1302.362347,-370.102971,9770.718434
2735.363001,3983.696590,1184.329507,10732.986159
2735.363330,6435.202183,1776.494261,8290.306550
2735.363659,7354.516781,1776.494261,8142.265362
2735.363988,5669.106685,1258.350101,7476.080014
2735.364318,6588.421283,2294.638420,6217.729913
2735.364647,6281.983084,2960.823768,7328.038826
2735.364976,5515.887586,1406.391290,6143.709319
2735.365306,4979.620737,2886.803174,6069.688724
2735.365635,4826.401637,1776.494261,6587.832884
2735.365964,4366.744339,1776.494261,5255.462188
2735.366293,3294.210641,-2664.741391,9326.594869
2735.366623,-383.047749,-7328.038826,12731.542202
2735.366952,-1225.752797,-4145.153275,11325.150913
2735.367281,-1608.800546,-5403.503377,14656.077652
2735.367610,-1532.190996,-6143.709319,13249.686362
2735.367940,-689.485948,592.164754,11103.089130
2735.368269,2834.553343,-444.123565,11843.295072
2735.368598,3447.429741,1998.556043,8956.491898
2735.368927,7124.688131,1110.308913,9992.780217
2735.369257,7507.735880,1184.329507,9474.636058
2735.369586,7507.735880,4589.276840,5625.565159
2735.369915,8273.831378,4441.235652,5995.668130
2735.370244,7890.783629,1554.432478,4737.318029
2735.370574,7507.735880,2590.720797,5033.400406
2735.370903,6205.373534,962.267725,7476.080014
2735.371232,4519.963438,1110.308913,6809.894666
2735.371561,3907.087040,2146.597232,6143.709319
2735.371891,2374.896044,-2516.700203,9696.697840
2735.372220,-1225.752797,-5699.585753,13101.645173
2735.372549,-3600.648841,-2590.720797,11621.233289
2735.372878,-1838.629195,-3478.967927,14508.036463
2735.373208,-1378.971896,-4885.359217,11695.253884
2735.373537,-459.657299,2072.576638,12139.377449
2735.373866,1838.629195,-148.041188,10510.924376
2735.374196,-842.705048,3108.864956,10140.821405
2735.374525,4979.620737,-1628.453072,14211.954086
2735.374854,7814.174080,1998.556043,3997.112087
2735.375183,8427.050478,1406.391290,9252.574275
2735.375513,5362.668486,1184.329507,5699.585753
2735.375842,7890.783629,2960.823768,4663.297435
2735.376171,6588.421283,518.144159,8512.368333
2735.376500,6665.030833,1628.453072,4145.153275
2735.376830,5209.449386,2960.823768,8438.347739
2735.377159,3294.210641,888.247130,7105.977043
2735.377488,3600.648841,2072.576638,7179.997637
2735.377817,2757.943793,518.144159,9548.656652
2735.378147,2145.067394,-3330.926739,11991.336260
2735.378476,0.000000,-1480.411884,10807.006753
2735.378805,-459.657299,-3997.112087,14137.933492
2735.379134,-689.485948,-4293.194464,11621.233289
2735.379464,-153.219100,-296.082377,10436.903782
2735.379793,995.924147,-0.000000,11325.150913
2735.380122,1378.971896,1258.350101,8438.347739
2735.380451,2681.334243,592.164754,8438.347739
2735.380781,4060.306139,962.267725,8438.347739
2735.381110,4979.620737,2960.823768,7328.038826
2735.381439,4596.572988,888.247130,7772.162391
2735.381768,4519.963438,-888.247130,6883.915261
2735.382098,4060.306139,-2368.659014,9030.512492
2735.382427,2987.772442,-1998.556043,10362.883188
2735.382756,2374.896044,-1036.288319,9696.697840
2735.383085,1762.019645,-962.267725,10214.842000
2735.383415,2757.943793,1110.308913,10288.862594
2735.383744,2987.772442,1332.370696,9326.594869
2735.384073,3064.381992,370.102971,9548.656652
2735.384402,3753.867940,1258.350101,8956.491898
2735.384731,5056.230287,1850.514855,8364.327145
2735.385061,5515.887586,1258.350101,8586.388927
2735.385390,4903.011187,592.164754,8216.285956
2735.385719,4213.525239,-592.164754,8068.244768
2735.386048,3753.867940,-740.205942,8142.265362
2735.386377,2528.115143,-296.082377,8216.285956
2735.386707,1149.143247,-1184.329507,9474.636058
2735.387036,459.657299,-1480.411884,9918.759623
2735.387365,766.095498,-1702.473667,9918.759623
2735.387694,1532.190996,-1702.473667,9992.780217
2735.388023,1608.800546,-1480.411884,9696.697840
2735.388353,1762.019645,-1702.473667,11103.089130
2735.388682,2604.724693,-518.144159,10510.924376
2735.389011,4826.401637,1480.411884,9178.553681
2735.389340,6511.811733,1924.535449,7846.182985
2735.389669,5439.278036,2220.617826,8216.285956
2735.389999,4673.182538,1332.370696,9178.553681
2735.390328,4366.744339,1480.411884,7105.977043
2735.390657,5822.325785,518.144159,8068.244768
2735.390986,5132.839837,-148.041188,7402.059420
2735.391315,4749.792088,-0.000000,8512.368333
2735.391645,3447.429741,-1036.288319,8734.430116
2735.391974,3294.210641,-1628.453072,8882.471304
2735.392303,1991.848295,-1702.473667,9992.780217
2735.392632,1838.629195,-1850.514855,12065.356855
2735.392961,1072.533697,-740.205942,10881.027347
2735.393291,2068.457845,370.102971,10140.821405
2735.393620,2757.943793,-444.123565,9548.656652
2735.393949,3600.648841,-0.000000,10584.944971
2735.394278,5056.230287,814.226536,9474.636058
2735.394608,4596.572988,1776.494261,7624.121203
2735.394937,4290.134789,1924.535449,7846.182985
2735.395266,4826.401637,1628.453072,8216.285956
2735.395595,4749.792088,1332.370696,8734.430116
2735.395924,3294.210641,1258.350101,7402.059420
2735.396254,2757.943793,-1702.473667,8512.368333
2735.396583,842.705048,-962.267725,9178.553681
2735.396912,1149.143247,-1554.432478,11325.150913
2735.397241,689.485948,-3627.009116,10066.800811
2735.397570,-1072.533697,-1036.288319,8586.388927
2735.397900,0.000000,-888.247130,9474.636058
2735.398229,1149.143247,-148.041188,10510.924376
2735.398558,2068.457845,-888.247130,10658.965565
2735.398887,3064.381992,296.082377,9548.656652
2735.399216,4596.572988,-0.000000,8956.491898
2735.399546,4213.525239,666.185348,7846.182985
2735.399875,4826.401637,444.123565,7994.224174
2735.400204,5439.278036,666.185348,8586.388927
2735.400533,5822.325785,1110.308913,7476.080014
2735.400862,5669.106685,1332.370696,7624.121203
2735.401192,5209.449386,296.082377,8364.327145
2735.401521,5132.839837,-592.164754,8216.285956
2735.401850,3600.648841,-814.226536,8512.368333
2735.402179,2604.724693,-666.185348,9992.780217
2735.402508,842.705048,-1628.453072,9252.574275
2735.402838,2451.505594,-1924.535449,9844.739029
2735.403167,1915.238745,-444.123565,9622.677246
2735.403496,2451.505594,-74.020594,9696.697840
2735.403825,2221.676944,-0.000000,8068.244768
2735.404155,1532.190996,962.267725,9326.594869
2735.404484,2757.943793,2146.597232,9474.636058
2735.404813,2681.334243,2294.638420,7179.997637
2735.405142,919.314598,888.247130,8438.347739
2735.405471,536.266849,-0.000000,9844.739029
2735.405801,766.095498,-888.247130,8660.409521
2735.406130,-1072.533697,-962.267725,7476.080014
2735.406459,0.000000,-1776.494261,10807.006753
2735.406788,-1532.190996,-1702.473667,10066.800811
2735.407117,-766.095498,-2294.638420,9474.636058
2735.407447,-459.657299,-2146.597232,9030.512492
2735.407776,0.000000,-1184.329507,9918.759623
2735.408105,459.657299,-962.267725,9030.512492
2735.408434,0.000000,-222.061783,8956.491898
2735.408763,459.657299,-814.226536,10732.986159
2735.409093,689.485948,1406.391290,7920.203579
2735.409422,2145.067394,518.144159,7920.203579
2735.409751,1991.848295,666.185348,8956.491898
2735.410080,2068.457845,1258.350101,7846.182985
2735.410409,1762.019645,296.082377,8216.285956
2735.410739,1072.533697,518.144159,8216.285956
2735.411068,995.924147,-666.185348,9548.656652
2735.411397,153.219100,-1850.514855,8882.471304
2735.411726,995.924147,-1406.391290,10140.821405
2735.412055,-306.438199,-1850.514855,10658.965565
2735.412385,0.000000,-1332.370696,8808.450710
2735.412714,689.485948,-1628.453072,10362.883188
2735.413043,689.485948,148.041188,10066.800811
2735.413372,1685.410096,-222.061783,8586.388927
2735.413701,3140.991542,-740.205942,9178.553681
2735.414031,3217.601092,1554.432478,8216.285956
2735.414360,2987.772442,2368.659014,7624.121203
2735.414689,2681.334243,1850.514855,9252.574275
2735.415018,1532.190996,814.226536,8364.327145
2735.415348,1072.533697,592.164754,8142.265362
2735.415677,459.657299,-740.205942,10066.800811
2735.416006,-459.657299,-1036.288319,9918.759623
2735.416335,-1838.629195,-1776.494261,9622.677246
2735.416664,-1915.238745,-814.226536,9696.697840
2735.416994,-1072.533697,-1184.329507,8512.368333
2735.417323,-1225.752797,-962.267725,9178.553681
2735.417652,-1225.752797,-296.082377,9326.594869
2735.417981,-536.266849,-222.061783,9548.656652
2735.418310,-383.047749,-0.000000,8068.244768
2735.418640,-995.924147,666.185348,9622.677246
2735.418969,-1225.752797,-370.102971,10658.965565
2735.419298,-919.314598,592.164754,8290.306550
2735.419627,76.609550,-148.041188,9844.739029
2735.419956,995.924147,-0.000000,9400.615463
2735.420286,76.609550,-0.000000,7105.977043
2735.420615,766.095498,-222.061783,9992.780217
2735.420944,1608.800546,-0.000000,8216.285956
2735.421273,842.705048,296.082377,7920.203579
2735.421602,612.876398,-0.000000,9696.697840
2735.421932,766.095498,-74.020594,9178.553681
2735.422261,229.828649,-0.000000,8290.306550
2735.422590,0.000000,444.123565,8512.368333
2735.422919,306.438199,-444.123565,10881.027347
2735.423248,-383.047749,-222.061783,9622.677246
2735.423578,-459.657299,-0.000000,9178.553681
2735.423907,0.000000,-518.144159,10658.965565
2735.424236,-383.047749,370.102971,9400.615463
2735.424565,0.000000,-518.144159,8586.388927
2735.424895,689.485948,-0.000000,10214.842000
2735.425224,842.705048,-370.102971,8956.491898
2735.425553,1378.971896,-444.123565,8290.306550
2735.425882,2068.457845,-0.000000,9252.574275
2735.426211,1302.362347,592.164754,7328.038826
2735.426541,766.095498,296.082377,8068.244768
2735.426870,689.485948,-666.185348,9252.574275
2735.427199,76.609550,-222.061783,8290.306550
2735.427528,-383.047749,-518.144159,9104.533087
2735.427857,-1149.143247,-2220.617826,10066.800811
2735.428187,-1302.362347,-962.267725,9474.636058
2735.428516,-383.047749,-888.247130,9400.615463
2735.428845,-459.657299,-518.144159,9622.677246
2735.429174,-1455.581446,-296.082377,9178.553681
2735.429503,0.000000,-740.205942,9770.718434
2735.429833,612.876398,-370.102971,8142.265362
2735.430162,229.828649,-74.020594,8068.244768
2735.430491,842.705048,-1258.350101,8734.430116
2735.430820,1532.190996,370.102971,8882.471304
2735.431149,1378.971896,-0.000000,8956.491898
2735.431479,1532.190996,592.164754,7476.080014
2735.431808,1915.238745,-444.123565,9326.594869
2735.432137,1915.238745,740.205942,8290.306550
2735.432466,842.705048,-74.020594,7994.224174
2735.432795,459.657299,-1184.329507,9622.677246
2735.433125,229.828649,444.123565,8660.409521
2735.433454,612.876398,-814.226536,9326.594869
2735.433783,0.000000,-370.102971,9992.780217
2735.434112,536.266849,296.082377,8586.388927
2735.434441,689.485948,-222.061783,8660.409521
2735.434771,383.047749,-0.000000,9104.533087
2735.435100,0.000000,-370.102971,10362.883188
2735.435429,1302.362347,-444.123565,8364.327145
2735.435758,76.609550,-0.000000,9474.636058
2735.436088,612.876398,-1036.288319,9696.697840
2735.436417,0.000000,740.205942,7994.224174
2735.436746,766.095498,-592.164754,9474.636058
2735.437075,612.876398,-0.000000,9400.615463
2735.437404,612.876398,-444.123565,9178.553681
2735.437734,229.828649,-222.061783,9696.697840
2735.438063,1532.190996,-74.020594,10214.842000
2735.438392,689.485948,888.247130,7994.224174
2735.438721,306.438199,444.123565,8808.450710
2735.439050,-383.047749,296.082377,10214.842000
2735.439380,0.000000,1036.288319,9548.656652
2735.439709,-229.828649,-296.082377,8142.265362
2735.440038,-459.657299,-1110.308913,9326.594869
2735.440367,-842.705048,-962.267725,9474.636058
2735.440696,-383.047749,-0.000000,8512.368333
2735.441026,-459.657299,-888.247130,9770.718434
2735.441355,76.609550,-0.000000,8882.471304
2735.441684,459.657299,-518.144159,8512.368333
2735.442013,1991.848295,296.082377,10214.842000
2735.442342,1378.971896,-0.000000,7550.100608
2735.442672,1762.019645,370.102971,8216.285956
2735.443001,1302.362347,740.205942,9252.574275
2735.443330,919.314598,1850.514855,8142.265362
2735.443659,229.828649,-0.000000,8586.388927
2735.443988,0.000000,-370.102971,8882.471304
2735.444318,-536.266849,-1110.308913,9696.697840
2735.444647,-1685.410096,-518.144159,8734.430116
2735.444976,-1149.143247,-1480.411884,9992.780217
2735.445305,-1608.800546,-1702.473667,10066.800811
2735.445635,-1302.362347,-740.205942,8364.327145
2735.445964,-1072.533697,-888.247130,10288.862594
2735.446293,-612.876398,-444.123565,9992.780217
2735.446622,-689.485948,222.061783,8512.368333
2735.446951,0.000000,-222.061783,9622.677246
2735.447281,0.000000,444.123565,10436.903782
2735.447610,0.000000,592.164754,8734.430116
2735.447939,995.924147,-0.000000,9548.656652
2735.448268,1302.362347,592.164754,9178.553681
2735.448597,766.095498,1258.350101,7772.162391
2735.448927,1149.143247,-0.000000,9104.533087
2735.449256,1072.533697,888.247130,9622.677246
2735.449585,1072.533697,-222.061783,8882.471304
2735.449914,0.000000,-444.123565,8734.430116
2735.450243,536.266849,-666.185348,9326.594869
2735.450573,-306.438199,-666.185348,8216.285956
2735.450902,0.000000,-592.164754,9178.553681
2735.451231,-306.438199,-1258.350101,10140.821405
2735.451560,459.657299,-518.144159,8808.450710
2735.451889,306.438199,-1406.391290,9696.697840
2735.452219,1149.143247,-740.205942,10436.903782
2735.452548,1225.752797,370.102971,7698.141797
2735.452877,1532.190996,518.144159,8216.285956
2735.453206,2145.067394,814.226536,9548.656652
2735.453535,1838.629195,740.205942,8364.327145
2735.453865,2604.724693,-0.000000,7328.038826
2735.454194,2145.067394,740.205942,8142.265362
2735.454523,1225.752797,-222.061783,10288.862594
2735.454852,689.485948,-1184.329507,7846.182985
2735.455181,-1532.190996,-0.000000,9918.759623
2735.455511,-459.657299,-1702.473667,10436.903782
2735.455840,-1532.190996,-666.185348,7550.100608
2735.456169,-995.924147,-1036.288319,9992.780217
2735.456498,-1302.362347,-444.123565,9992.780217
2735.456828,-612.876398,-888.247130,9548.656652
2735.457157,-1225.752797,-444.123565,10066.800811
2735.457486,-306.438199,-0.000000,8956.491898
2735.457815,-153.219100,-222.061783,9696.697840
2735.458144,1225.752797,-0.000000,8660.409521
2735.458474,1455.581446,888.247130,8956.491898
2735.458803,919.314598,296.082377,8216.285956
2735.459132,0.000000,148.041188,9104.533087
2735.459461,459.657299,-222.061783,8808.450710
2735.459790,0.000000,-1110.308913,7846.182985
2735.460120,-919.314598,-592.164754,9770.718434
2735.460449,-306.438199,-1998.556043,9770.718434
2735.460778,-1072.533697,-222.061783,9400.615463
2735.461107,-1915.238745,-1776.494261,10732.986159
2735.461436,-229.828649,296.082377,8882.471304
2735.461766,0.000000,-1554.432478,9918.759623
2735.462095,1149.143247,666.185348,10510.924376
2735.462424,2374.896044,222.061783,8142.265362
2735.462753,1991.848295,962.267725,7550.100608
2735.463082,1532.190996,962.267725,7920.203579
2735.463412,2451.505594,1628.453072,8882.471304
2735.463741,1378.971896,-74.020594,7772.162391
2735.464070,1608.800546,-0.000000,8290.306550
2735.464399,842.705048,-444.123565,9622.677246
2735.464728,0.000000,-518.144159,8660.409521
2735.465058,-995.924147,-1036.288319,8882.471304
2735.465387,-536.266849,-962.267725,11251.130318
2735.465716,-459.657299,-148.041188,8808.450710
2735.466045,-306.438199,-370.102971,9178.553681
2735.466375,0.000000,-0.000000,9918.759623
2735.466704,536.266849,740.205942,8512.368333
2735.467033,1072.533697,222.061783,8660.409521
2735.467362,1378.971896,666.185348,8956.491898
2735.467691,612.876398,1258.350101,8512.368333
2735.468021,1072.533697,-666.185348,8808.450710
2735.468350,1225.752797,74.020594,8660.409521
2735.468679,919.314598,-370.102971,8364.327145
2735.469008,-306.438199,-296.082377,9030.512492
2735.469337,0.000000,-666.185348,10140.821405
2735.469667,-612.876398,-888.247130,9696.697840
2735.469996,0.000000,-1258.350101,8882.471304
2735.470325,536.266849,-666.185348,9474.636058
2735.470654,0.000000,-296.082377,9770.718434
2735.470983,0.000000,-444.123565,8956.491898
2735.471313,153.219100,-592.164754,9918.759623
2735.471642,459.657299,296.082377,8734.430116
2735.471971,995.924147,296.082377,9178.553681
2735.472300,919.314598,-888.247130,10362.883188
2735.472629,1072.533697,592.164754,8290.306550
2735.472959,1991.848295,592.164754,7994.224174
2735.473288,2374.896044,-0.000000,9844.739029
2735.473617,1225.752797,-0.000000,9030.512492
2735.473946,2068.457845,740.205942,8142.265362
2735.474275,1838.629195,-0.000000,9104.533087
2735.474605,1532.190996,-0.000000,8364.327145
2735.474934,1378.971896,-74.020594,7698.141797
2735.475263,459.657299,-666.185348,9326.594869
2735.475592,0.000000,-74.020594,9400.615463
2735.475921,-1072.533697,-370.102971,9548.656652
2735.476251,-689.485948,-1702.473667,10584.944971
2735.476580,-995.924147,-370.102971,9474.636058
2735.476909,-995.924147,-74.020594,9030.512492
2735.477238,-919.314598,-592.164754,9696.697840
2735.477568,-1838.629195,-296.082377,9696.697840
2735.477897,-536.266849,-0.000000,9252.574275
2735.478226,76.609550,-74.020594,9178.553681
2735.478555,689.485948,-370.102971,9326.594869
2735.478884,766.095498,444.123565,7328.038826
2735.479214,383.047749,518.144159,7476.080014
2735.479543,536.266849,-518.144159,9030.512492
2735.479872,-153.219100,-592.164754,8438.347739
2735.480201,383.047749,-296.082377,9178.553681
2735.480530,0.000000,-1184.329507,7476.080014
2735.480860,-1608.800546,-592.164754,9252.574275
2735.481189,-1302.362347,-962.267725,10436.903782
2735.481518,-1608.800546,-666.185348,10584.944971
2735.481847,-1378.971896,-1480.411884,9770.718434
2735.482176,-153.219100,-888.247130,9400.615463
2735.482506,842.705048,-0.000000,9696.697840
2735.482835,1225.752797,592.164754,8512.368333
2735.483164,2298.286494,296.082377,8068.244768
2735.483493,1762.019645,666.185348,8586.388927
2735.483822,2221.676944,1776.494261,7179.997637
2735.484151,2298.286494,-0.000000,7846.182985
2735.484480,1149.143247,-518.144159,9030.512492
2735.484809,536.266849,962.267725,8364.327145
2735.485139,-229.828649,-740.205942,9474.636058
2735.485468,-1302.362347,-1702.473667,9918.759623
2735.485797,-2451.505594,-666.185348,10881.027347
2735.486126,-1225.752797,-2368.659014,10955.047942
2735.486455,-995.924147,-1036.288319,9548.656652
2735.486784,-306.438199,-888.247130,8364.327145
2735.487114,-306.438199,592.164754,8956.491898
2735.487443,842.705048,1406.391290,9696.697840
2735.487772,1608.800546,-0.000000,8216.285956
2735.488101,1838.629195,1184.329507,7624.121203
2735.488430,1915.238745,-0.000000,8586.388927
2735.488759,1991.848295,1036.288319,7328.038826
2735.489088,1149.143247,1036.288319,7846.182985
2735.489418,766.095498,-1036.288319,9992.780217
2735.489747,0.000000,-148.041188,9474.636058
2735.490076,-229.828649,-444.123565,8808.450710
2735.490405,-383.047749,-1702.473667,10214.842000
2735.490734,0.000000,-0.000000,9030.512492
2735.491063,-306.438199,-0.000000,7772.162391
2735.491393,-383.047749,-518.144159,10066.800811
2735.491722,689.485948,-0.000000,11399.171507
2735.492051,229.828649,-0.000000,7772.162391
2735.492380,1149.143247,-222.061783,9326.594869
2735.492709,1149.143247,518.144159,9844.739029
2735.493038,1072.533697,-518.144159,8290.306550
2735.493367,842.705048,-444.123565,8882.471304
2735.493697,1608.800546,592.164754,9474.636058
2735.494026,919.314598,-0.000000,8364.327145
2735.494355,1225.752797,-0.000000,10140.821405
2735.494684,1149.143247,-222.061783,9474.636058
2735.495013,536.266849,1036.288319,7772.162391
2735.495342,306.438199,-518.144159,8734.430116
2735.495672,-153.219100,592.164754,10140.821405
2735.496001,-612.876398,-666.185348,9104.533087
2735.496330,-306.438199,-888.247130,9474.636058
2735.496659,-383.047749,-888.247130,9622.677246
2735.496988,0.000000,-0.000000,7994.224174
2735.497317,-536.266849,-148.041188,8882.471304
2735.497647,-153.219100,-518.144159,9400.615463
2735.497976,-689.485948,-74.020594,8290.306550
2735.498305,1225.752797,518.144159,9030.512492
2735.498634,1149.143247,-222.061783,9030.512492
2735.498963,766.095498,370.102971,7994.224174
2735.499292,153.219100,-0.000000,8512.368333
2735.499621,0.000000,-0.000000,9474.636058
2735.499951,153.219100,814.226536,8364.327145
2735.500280,0.000000,-814.226536,9104.533087
2735.500609,-306.438199,-888.247130,10066.800811
2735.500938,689.485948,-148.041188,9474.636058
2735.501267,-536.266849,-1628.453072,9326.594869
2735.501596,-919.314598,-666.185348,10436.903782
2735.501926,76.609550,-814.226536,9326.594869
2735.502255,-306.438199,-444.123565,9400.615463
2735.502584,612.876398,-666.185348,9770.718434
2735.502913,1378.971896,814.226536,7994.224174
2735.503242,842.705048,518.144159,8882.471304
2735.503571,229.828649,888.247130,9844.739029
2735.503901,919.314598,222.061783,9252.574275
2735.504230,306.438199,-222.061783,8142.265362
2735.504559,766.095498,-518.144159,10066.800811
2735.504888,383.047749,-1036.288319,9992.780217
2735.505217,-842.705048,-222.061783,8734.430116
2735.505546,-306.438199,-1628.453072,10584.944971
2735.505875,-383.047749,-1184.329507,10214.842000
2735.506205,306.438199,-0.000000,8438.347739
2735.506534,689.485948,-814.226536,8660.409521
2735.506863,383.047749,814.226536,9252.574275
2735.507192,536.266849,-0.000000,7846.182985
2735.507521,919.314598,370.102971,8882.471304
2735.507850,1149.143247,666.185348,8808.450710
2735.508180,0.000000,222.061783,8068.244768
2735.508509,383.047749,-518.144159,9326.594869
2735.508838,0.000000,148.041188,8734.430116
2735.509167,306.438199,-518.144159,8808.450710
2735.509496,-306.438199,-1628.453072,9474.636058
2735.509825,76.609550,-888.247130,10732.986159
2735.510155,-536.266849,-962.267725,9696.697840
2735.510484,-306.438199,814.226536,7994.224174
2735.510813,153.219100,-1776.494261,11399.171507
2735.511142,459.657299,-1406.391290,8290.306550
2735.511471,919.314598,1554.432478,8290.306550
2735.511800,766.095498,-1776.494261,9400.615463
2735.512129,1225.752797,370.102971,7624.121203
2735.512459,2681.334243,1184.329507,10140.821405
2735.512788,919.314598,-1332.370696,8882.471304
2735.513117,1608.800546,1554.432478,7846.182985
2735.513446,1072.533697,-1776.494261,8956.491898
2735.513775,1455.581446,1628.453072,7920.203579
2735.514104,1149.143247,-296.082377,9104.533087
2735.514434,1072.533697,-666.185348,9030.512492
2735.514763,153.219100,296.082377,8512.368333
2735.515092,76.609550,-0.000000,9844.739029
2735.515421,0.000000,-2146.597232,8438.347739
2735.515750,0.000000,-74.020594,9326.594869
2735.516079,-842.705048,-1480.411884,10214.842000
2735.516409,-919.314598,-1628.453072,8808.450710
2735.516738,-383.047749,-222.061783,10288.862594
2735.517067,-612.876398,-1628.453072,9992.780217
2735.517396,-229.828649,1184.329507,8660.409521
2735.517725,306.438199,-370.102971,10214.842000
2735.518054,842.705048,1332.370696,8660.409521
2735.518383,1302.362347,592.164754,7698.141797
2735.518713,1532.190996,592.164754,8438.347739
2735.519042,1378.971896,1702.473667,7698.141797
2735.519371,919.314598,296.082377,8364.327145
2735.519700,-229.828649,-370.102971,9474.636058
2735.520029,-1149.143247,222.061783,9474.636058
2735.520358,-842.705048,-1332.370696,10140.821405
2735.520688,-1072.533697,-1702.473667,10288.862594
2735.521017,-1149.143247,-518.144159,9326.594869
2735.521346,-995.924147,-518.144159,9030.512492
2735.521675,-383.047749,-518.144159,9696.697840
2735.522004,-536.266849,-518.144159,9770.718434
2735.522333,229.828649,888.247130,8364.327145
2735.522662,1762.019645,-740.205942,9104.533087
2735.522992,1838.629195,148.041188,7846.182985
2735.523321,536.266849,1258.350101,7105.977043
2735.523650,1149.143247,370.102971,8956.491898
2735.523979,689.485948,888.247130,8586.388927
2735.524308,383.047749,370.102971,9104.533087
2735.524637,153.219100,-1110.308913,9030.512492
2735.524967,-459.657299,-518.144159,9548.656652
2735.525296,-995.924147,-1332.370696,9252.574275
2735.525625,-689.485948,-74.020594,9178.553681
2735.525954,-995.924147,-1406.391290,10362.883188
2735.526283,-1149.143247,-148.041188,9252.574275
2735.526612,-612.876398,-1110.308913,9696.697840
2735.526942,229.828649,-518.144159,9474.636058
2735.527271,0.000000,1184.329507,8216.285956
2735.527600,229.828649,1184.329507,8438.347739
2735.527929,0.000000,444.123565,9696.697840
2735.528258,612.876398,740.205942,9178.553681
2735.528587,229.828649,-0.000000,8364.327145
2735.528916,229.828649,-1036.288319,9474.636058
2735.529246,76.609550,-666.185348,9104.533087
2735.529575,-153.219100,-962.267725,8438.347739
2735.529904,-306.438199,-370.102971,9844.739029
2735.530233,229.828649,-370.102971,8660.409521
2735.530562,766.095498,-0.000000,7920.203579
2735.530891,1991.848295,-74.020594,8808.450710
2735.531221,2374.896044,296.082377,7402.059420
2735.531550,919.314598,-0.000000,7550.100608
2735.531879,1455.581446,-444.123565,9178.553681
2735.532208,1685.410096,-0.000000,8808.450710
2735.532537,306.438199,-296.082377,9030.512492
2735.532866,536.266849,-888.247130,9844.739029
2735.533196,536.266849,-666.185348,9622.677246
2735.533525,0.000000,-518.144159,10066.800811
2735.533854,1302.362347,-1480.411884,9178.553681
2735.534183,1455.581446,-296.082377,9696.697840
2735.534512,536.266849,370.102971,8512.368333
2735.534841,1915.238745,-888.247130,9770.718434
2735.535170,2451.505594,-74.020594,8438.347739
2735.535500,1608.800546,1480.411884,6513.812290
2735.535829,2374.896044,592.164754,8586.388927
2735.536158,1225.752797,222.061783,9622.677246
2735.536487,689.485948,-0.000000,8734.430116
2735.536816,153.219100,-666.185348,8734.430116
2735.537145,-536.266849,-1480.411884,9918.759623
2735.537475,-1685.410096,-1258.350101,9474.636058
2735.537804,-536.266849,-1332.370696,9474.636058
2735.538133,-766.095498,-370.102971,9252.574275
2735.538462,-919.314598,-0.000000,9326.594869
2735.538791,766.095498,-666.185348,9400.615463
2735.539120,919.314598,592.164754,7920.203579
2735.539450,1302.362347,1628.453072,7402.059420
2735.539779,1608.800546,1776.494261,7402.059420
2735.540108,689.485948,962.267725,8512.368333
2735.540437,842.705048,-0.000000,9030.512492
2735.540766,306.438199,222.061783,7846.182985
2735.541095,-995.924147,-1184.329507,10436.903782
2735.541424,-1378.971896,-1184.329507,10584.944971
2735.541754,-1762.019645,-518.144159,9178.553681
2735.542083,-1608.800546,-888.247130,10362.883188
2735.542412,-1532.190996,-666.185348,9696.697840
2735.542741,-995.924147,-1776.494261,10288.862594
2735.543070,689.485948,-0.000000,9400.615463
2735.543399,1532.190996,1258.350101,9400.615463
2735.543729,919.314598,74.020594,7772.162391
2735.544058,919.314598,370.102971,8956.491898
2735.544387,1225.752797,1184.329507,9474.636058
2735.544716,1378.971896,148.041188,7550.100608
2735.545045,1762.019645,592.164754,8882.471304
2735.545374,1072.533697,-444.123565,9548.656652
2735.545703,-153.219100,-74.020594,9104.533087
2735.546033,0.000000,-1554.432478,9548.656652
2735.546362,0.000000,222.061783,9770.718434
2735.546691,-995.924147,-888.247130,9918.759623
2735.547020,-459.657299,-1110.308913,9622.677246
2735.547349,-995.924147,-1036.288319,8882.471304
2735.547678,-766.095498,-296.082377,9474.636058
2735.548008,-1149.143247,148.041188,9474.636058
2735.548337,-536.266849,-888.247130,10436.903782
2735.548666,-1149.143247,-666.185348,8512.368333
2735.548995,689.485948,-74.020594,10436.903782
2735.549324,229.828649,-222.061783,8882.471304
2735.549653,1072.533697,-0.000000,7476.080014
2735.549983,766.095498,-296.082377,9030.512492
2735.550312,1072.533697,-0.000000,7624.121203
2735.550641,612.876398,-370.102971,8586.388927
2735.550970,1455.581446,666.185348,8290.306550
2735.551299,919.314598,-296.082377,8290.306550
2735.551628,0.000000,296.082377,7846.182985
2735.551957,919.314598,148.041188,8512.368333
2735.552287,-229.828649,-666.185348,10362.883188
2735.552616,-383.047749,-1184.329507,8364.327145
2735.552945,-1225.752797,-1258.350101,9474.636058
2735.553274,-1532.190996,-1554.432478,10732.986159
2735.553603,229.828649,-814.226536,9474.636058
2735.553932,76.609550,-370.102971,8734.430116
2735.554262,1149.143247,-0.000000,9178.553681
2735.554591,2681.334243,1258.350101,7846.182985
2735.554920,3677.258390,592.164754,7550.100608
2735.555249,3830.477490,1628.453072,7105.977043
2735.555578,3907.087040,1480.411884,6809.894666
2735.555907,2298.286494,444.123565,7698.141797
2735.556237,1455.581446,740.205942,8364.327145
2735.556566,153.219100,-222.061783,9548.656652
2735.556895,-1455.581446,-1258.350101,9252.574275
2735.557224,0.000000,-1702.473667,11177.109724
2735.557553,-1991.848295,-888.247130,10881.027347
2735.557882,-1532.190996,-1036.288319,10362.883188
2735.558211,-1838.629195,-1258.350101,10584.944971
2735.558541,-842.705048,-444.123565,10732.986159
2735.558870,0.000000,-0.000000,9918.759623
2735.559199,995.924147,-370.102971,9548.656652
2735.559528,2374.896044,1110.308913,7846.182985
2735.559857,2374.896044,1850.514855,7624.121203
2735.560186,1915.238745,814.226536,8882.471304
2735.560516,1455.581446,666.185348,8734.430116
2735.560845,689.485948,-0.000000,7920.203579
2735.561174,0.000000,-296.082377,9696.697840
2735.561503,-612.876398,-1110.308913,10214.842000
2735.561832,-2221.676944,-2738.761985,8956.491898
2735.562161,-1225.752797,-1628.453072,10584.944971
2735.562491,-1762.019645,-1258.350101,9844.739029
2735.562820,-1532.190996,-1480.411884,9104.533087
2735.563149,0.000000,-148.041188,9104.533087
2735.563478,1072.533697,1184.329507,8660.409521
2735.563807,1072.533697,1184.329507,6735.874072
2735.564136,2298.286494,1702.473667,8068.244768
2735.564465,1302.362347,370.102971,7550.100608
2735.564795,2068.457845,1110.308913,7994.224174
2735.565124,1685.410096,444.123565,7476.080014
2735.565453,383.047749,-74.020594,8808.450710
2735.565782,-153.219100,-962.267725,8956.491898
2735.566111,-766.095498,-444.123565,10510.924376
2735.566440,-1302.362347,-1554.432478,9622.677246
2735.566770,-766.095498,-1184.329507,9918.759623
2735.567099,-383.047749,-1110.308913,10288.862594
2735.567428,0.000000,-148.041188,10510.924376
2735.567757,229.828649,-74.020594,9622.677246
2735.568086,76.609550,962.267725,8586.388927
2735.568415,1072.533697,222.061783,9474.636058
2735.568744,995.924147,1258.350101,8512.368333
2735.569074,1608.800546,740.205942,8216.285956
2735.569403,1685.410096,444.123565,9548.656652
2735.569732,919.314598,-0.000000,8734.430116
2735.570061,766.095498,-222.061783,9178.553681
2735.570390,0.000000,-888.247130,10066.800811
2735.570719,-153.219100,-1110.308913,9400.615463
2735.571049,-612.876398,-1998.556043,9696.697840
2735.571378,153.219100,-962.267725,10140.821405
2735.571707,-229.828649,-0.000000,8882.471304
2735.572036,-459.657299,-0.000000,9104.533087
2735.572365,153.219100,222.061783,9548.656652
2735.572694,229.828649,370.102971,8586.388927
2735.573024,0.000000,-0.000000,8586.388927
2735.573353,1608.800546,-518.144159,10288.862594
2735.573682,766.095498,148.041188,8660.409521
2735.574011,995.924147,148.041188,7698.141797
2735.574340,1378.971896,370.102971,8142.265362
2735.574669,459.657299,-444.123565,9622.677246
2735.574998,459.657299,-444.123565,8512.368333
2735.575328,1072.533697,-518.144159,8734.430116
2735.575657,1455.581446,-370.102971,8290.306550
2735.575986,306.438199,148.041188,7105.977043
2735.576315,306.438199,-814.226536,9992.780217
2735.576644,-383.047749,-0.000000,9548.656652
2735.576973,-536.266849,-518.144159,8586.388927
2735.577303,-1072.533697,-1850.514855,9696.697840
2735.577632,-1532.190996,444.123565,10140.821405
2735.577961,-1149.143247,-888.247130,9178.553681
2735.578290,-919.314598,-518.144159,9474.636058
2735.578619,0.000000,-0.000000,9622.677246
2735.578948,76.609550,-74.020594,7624.121203
2735.579278,842.705048,-296.082377,8660.409521
2735.579607,1608.800546,-222.061783,7846.182985
2735.579936,1608.800546,-518.144159,7698.141797
2735.580265,536.266849,-444.123565,8290.306550
2735.580594,689.485948,-888.247130,8882.471304
2735.580923,459.657299,-1258.350101,8882.471304
2735.581252,-306.438199,-1332.370696,8734.430116
2735.581582,-306.438199,-740.205942,9178.553681
2735.581911,-842.705048,-888.247130,9770.718434
2735.582240,-536.266849,-888.247130,9622.677246
2735.582569,-229.828649,-148.041188,10362.883188
2735.582898,-459.657299,-148.041188,9918.759623
2735.583227,383.047749,518.144159,8882.471304
2735.583557,2145.067394,592.164754,9474.636058
2735.583886,1225.752797,1480.411884,8216.285956
2735.584215,1532.190996,888.247130,7994.224174
2735.584544,1762.019645,888.247130,8734.430116
2735.584873,1685.410096,1332.370696,7550.100608
2735.585202,1685.410096,814.226536,8808.450710
2735.585532,536.266849,-814.226536,9622.677246
2735.585861,842.705048,-1184.329507,8512.368333
2735.586190,-153.219100,666.185348,7550.100608
2735.586519,-536.266849,-1184.329507,10881.027347
2735.586848,-383.047749,-1480.411884,10658.965565
2735.587177,-536.266849,-74.020594,10362.883188
2735.587506,153.219100,-74.020594,8808.450710
2735.587835,1378.971896,518.144159,8956.491898
2735.588164,766.095498,222.061783,8660.409521
2735.588493,2145.067394,1480.411884,8586.388927
2735.588822,1225.752797,-0.000000,8956.491898
2735.589151,76.609550,444.123565,7994.224174
2735.589480,1915.238745,-1110.308913,9770.718434
2735.589809,536.266849,-74.020594,9400.615463
2735.590138,-612.876398,-814.226536,8512.368333
2735.590467,0.000000,-1924.535449,10362.883188
2735.590796,-1225.752797,-888.247130,10214.842000
2735.591125,-919.314598,-740.205942,10066.800811
2735.591454,306.438199,-1998.556043,10066.800811
2735.591783,-842.705048,-370.102971,9548.656652
2735.592112,-612.876398,-1036.288319,10288.862594
2735.592441,0.000000,-148.041188,9696.697840
2735.592770,689.485948,222.061783,9326.594869
2735.593099,536.266849,222.061783,8290.306550
2735.593428,2221.676944,1184.329507,8290.306550
2735.593757,1991.848295,-370.102971,8808.450710
2735.594086,1378.971896,1258.350101,6661.853478
2735.594415,2451.505594,-0.000000,7772.162391
2735.594744,919.314598,-148.041188,9548.656652
2735.595073,842.705048,296.082377,7254.018232
2735.595402,1149.143247,-592.164754,8364.327145
2735.595731,306.438199,-962.267725,8512.368333
2735.596060,0.000000,370.102971,8808.450710
2735.596389,-1149.143247,-444.123565,9696.697840
2735.596718,-1762.019645,-296.082377,10584.944971
2735.597047,-842.705048,-0.000000,9474.636058
2735.597376,-306.438199,-74.020594,9400.615463
2735.597705,-1302.362347,-666.185348,10214.842000
2735.598034,-919.314598,-0.000000,8956.491898
2735.598363,-689.485948,518.144159,8808.450710
2735.598692,0.000000,-592.164754,9992.780217
2735.599021,-306.438199,-444.123565,8956.491898
2735.599350,76.609550,-814.226536,8660.409521
2735.599679,1072.533697,444.123565,8216.285956
2735.600008,1455.581446,-444.123565,7328.038826
2735.600337,766.095498,814.226536,8068.244768
2735.600666,459.657299,-0.000000,9030.512492
2735.600995,-306.438199,-74.020594,9474.636058
2735.601324,-1225.752797,-888.247130,8290.306550
2735.601653,-383.047749,-1850.514855,11177.109724
2735.601982,-766.095498,-666.185348,9030.512492
2735.602311,-1149.143247,-1110.308913,10881.027347
2735.602640,-689.485948,-1036.288319,10881.027347
2735.602969,-153.219100,-148.041188,9178.553681
2735.603298,1225.752797,222.061783,8734.430116
2735.603627,2145.067394,-296.082377,8734.430116
2735.603956,1838.629195,518.144159,8586.388927
2735.604285,1838.629195,444.123565,8068.244768
2735.604614,2374.896044,1258.350101,8290.306550
2735.604943,1915.238745,740.205942,7698.141797
2735.605272,2221.676944,592.164754,8512.368333
2735.605601,1455.581446,222.061783,8882.471304
2735.605930,1225.752797,-888.247130,9326.594869
2735.606259,842.705048,-740.205942,9104.533087
2735.606588,0.000000,-666.185348,9252.574275
2735.606917,76.609550,-814.226536,10732.986159
2735.607246,0.000000,-444.123565,8512.368333
2735.607575,0.000000,-0.000000,9770.718434
2735.607904,1149.143247,222.061783,9474.636058
2735.608233,1378.971896,1332.370696,7105.977043
2735.608562,1532.190996,1480.411884,8142.265362
2735.608891,1532.190996,666.185348,8882.471304
2735.609220,1378.971896,444.123565,8512.368333
2735.609549,306.438199,-0.000000,8882.471304
2735.609878,-459.657299,-0.000000,9030.512492
2735.610207,-1149.143247,-2516.700203,11399.171507
2735.610536,-1762.019645,-814.226536,9252.574275
2735.610865,0.000000,-666.185348,10732.986159
2735.611194,76.609550,-1406.391290,9400.615463
2735.611523,0.000000,-370.102971,7994.224174
2735.611852,842.705048,518.144159,10140.821405
2735.612181,0.000000,-74.020594,8364.327145
2735.612510,1149.143247,444.123565,8142.265362
2735.612839,689.485948,-592.164754,9696.697840
2735.613168,-612.876398,1332.370696,7920.203579
2735.613497,0.000000,-1554.432478,9696.697840
2735.613826,229.828649,-1258.350101,9622.677246
2735.614155,-842.705048,-444.123565,7772.162391
2735.614484,-306.438199,-814.226536,9030.512492
2735.614813,-536.266849,-296.082377,8734.430116
2735.615142,-766.095498,-888.247130,9474.636058
2735.615471,-229.828649,-1332.370696,8734.430116
2735.615800,-919.314598,148.041188,9622.677246
2735.616129,919.314598,-1702.473667,10066.800811
2735.616458,0.000000,740.205942,6957.935855
2735.616787,-229.828649,518.144159,9844.739029
2735.617116,-153.219100,-148.041188,9622.677246
2735.617445,612.876398,592.164754,9326.594869
2735.617774,919.314598,-518.144159,8956.491898
2735.618103,1455.581446,444.123565,9400.615463
2735.618432,612.876398,296.082377,7920.203579
2735.618761,76.609550,666.185348,9622.677246
2735.619090,689.485948,-148.041188,8882.471304
2735.619419,153.219100,370.102971,8438.347739
2735.619748,536.266849,-814.226536,9178.553681
2735.620077,689.485948,-0.000000,8734.430116
2735.620406,0.000000,-592.164754,8808.450710
2735.620735,153.219100,-740.205942,9252.574275
2735.621064,-842.705048,-370.102971,9696.697840
2735.621393,-689.485948,-518.144159,10140.821405
2735.621722,0.000000,-1110.308913,9844.739029
2735.622051,0.000000,-0.000000,9622.677246
2735.622380,-919.314598,-444.123565,9844.739029
2735.622709,612.876398,-0.000000,10436.903782
2735.623038,995.924147,-74.020594,10066.800811
2735.623367,1149.143247,-74.020594,8734.430116
2735.623696,2604.724693,444.123565,8068.244768
2735.624025,2068.457845,592.164754,8290.306550
2735.624354,1225.752797,888.247130,8142.265362
2735.624683,2528.115143,666.185348,8364.327145
2735.625012,1838.629195,592.164754,9030.512492
2735.625341,689.485948,-0.000000,8808.450710
2735.625670,0.000000,-888.247130,9474.636058
2735.625999,153.219100,-1332.370696,9770.718434
2735.626328,0.000000,-0.000000,9326.594869
2735.626657,306.438199,-370.102971,10066.800811
2735.626986,0.000000,-0.000000,9252.574275
2735.627315,0.000000,296.082377,8808.450710
2735.627644,1455.581446,666.185348,8660.409521
2735.627973,1685.410096,-0.000000,9104.533087
2735.628302,1149.143247,444.123565,8142.265362
2735.628632,995.924147,962.267725,7994.224174
2735.628961,919.314598,-74.020594,9326.594869
2735.629290,383.047749,-444.123565,9104.533087
2735.629619,153.219100,-666.185348,8438.347739
2735.629948,0.000000,-1554.432478,9548.656652
2735.630277,-1225.752797,-1184.329507,8512.368333
2735.630606,-919.314598,-740.205942,8438.347739
2735.630935,-1225.752797,-1702.473667,9770.718434
2735.631264,-1685.410096,-1406.391290,9030.512492
2735.631593,-1225.752797,-888.247130,9178.553681
2735.631922,76.609550,-1184.329507,9918.759623
2735.632251,153.219100,-518.144159,7920.203579
2735.632580,76.609550,888.247130,8438.347739
2735.632909,229.828649,-0.000000,9844.739029
2735.633238,919.314598,518.144159,8808.450710
2735.633567,1149.143247,148.041188,8068.244768
2735.633896,919.314598,222.061783,9178.553681
2735.634225,612.876398,-518.144159,8438.347739
2735.634554,383.047749,-0.000000,8142.265362
2735.634883,612.876398,-1184.329507,9104.533087
2735.635212,-383.047749,-296.082377,9326.594869
2735.635541,-536.266849,-1332.370696,8216.285956
2735.635870,766.095498,-592.164754,9400.615463
2735.636199,0.000000,-1332.370696,10214.842000
2735.636528,0.000000,-0.000000,9326.594869
2735.636857,-612.876398,-1850.514855,10436.903782
2735.637186,-842.705048,-0.000000,10658.965565
2735.637515,612.876398,518.144159,9178.553681
2735.637844,612.876398,444.123565,9252.574275
2735.638173,459.657299,444.123565,9104.533087
2735.638502,1072.533697,666.185348,9548.656652
2735.638831,1149.143247,518.144159,8882.471304
2735.639160,1302.362347,1036.288319,8586.388927
2735.639489,2221.676944,222.061783,8216.285956
2735.639818,995.924147,888.247130,7179.997637
2735.640147,1455.581446,222.061783,9178.553681
2735.640476,919.314598,740.205942,8512.368333
2735.640805,0.000000,148.041188,8290.306550
2735.641134,-995.924147,370.102971,9400.615463
2735.641463,-1225.752797,-0.000000,9104.533087
2735.641792,-1608.800546,-740.205942,9178.553681
2735.642121,-2681.334243,-0.000000,9918.759623
2735.642450,-2451.505594,-666.185348,9474.636058
2735.642779,-2834.553343,-888.247130,8808.450710
2735.643108,-2911.162892,-0.000000,10584.944971
2735.643437,-2451.505594,-222.061783,9252.574275
2735.643766,-3064.381992,-444.123565,8364.327145
2735.644095,-2757.943793,-666.185348,11325.150913
2735.644424,-766.095498,-814.226536,9548.656652
2735.644753,-1532.190996,518.144159,6883.915261
2735.645082,-2068.457845,-518.144159,9770.718434
2735.645411,-2068.457845,-962.267725,10362.883188
2735.645740,-2528.115143,370.102971,8808.450710
2735.646069,-1991.848295,-444.123565,8586.388927
2735.646398,-229.828649,-222.061783,9770.718434
2735.646727,-2451.505594,-370.102971,8512.368333
2735.647056,-1915.238745,740.205942,9104.533087
2735.647385,-2145.067394,-296.082377,9548.656652
2735.647714,-3140.991542,222.061783,9178.553681
2735.648043,-2451.505594,-74.020594,8734.430116
2735.648372,-2451.505594,-222.061783,9548.656652
2735.648701,-3524.039291,-370.102971,9770.718434
2735.649030,-2374.896044,-0.000000,8512.368333
2735.649359,-2451.505594,-148.041188,9548.656652
2735.649688,-3064.381992,-74.020594,8438.347739
2735.650017,-2374.896044,-814.226536,8068.244768
2735.650346,-2451.505594,-1332.370696,9400.615463
2735.650675,-2451.505594,-1554.432478,9844.739029
2735.651004,-1991.848295,-666.185348,9178.553681
2735.651333,-2757.943793,-1480.411884,9326.594869
2735.651662,-2221.676944,-0.000000,9474.636058
2735.651991,-1991.848295,592.164754,8882.471304
2735.652320,-1915.238745,-444.123565,7624.121203
2735.652649,-2068.457845,-0.000000,9326.594869
2735.652978,-1378.971896,518.144159,8882.471304
2735.653307,-2374.896044,592.164754,7031.956449
2735.653636,-2757.943793,962.267725,8364.327145
2735.653965,-3600.648841,-444.123565,8512.368333
2735.654294,-3140.991542,370.102971,7550.100608
2735.654623,-3064.381992,-1110.308913,7179.997637
2735.654952,-4596.572988,-1850.514855,10066.800811
2735.655281,-4903.011187,-2368.659014,10288.862594
2735.655610,-4826.401637,-2812.782580,10140.821405
2735.655939,-5132.839837,-2516.700203,10732.986159
2735.656268,-4673.182538,-1406.391290,11103.089130
2735.656597,-3447.429741,-1406.391290,9474.636058
2735.656926,-2451.505594,-0.000000,9474.636058
2735.657255,-1378.971896,1258.350101,10140.821405
2735.657584,-1378.971896,888.247130,9474.636058
2735.657913,-383.047749,-0.000000,9548.656652
2735.658242,-383.047749,1776.494261,6661.853478
2735.658571,-153.219100,2294.638420,7402.059420
2735.658900,-1455.581446,1480.411884,6735.874072
2735.659229,-766.095498,1776.494261,7846.182985
2735.659558,-1838.629195,-222.061783,8808.450710
2735.659887,-2681.334243,-1332.370696,8734.430116
2735.660216,-2681.334243,-2812.782580,10066.800811
2735.660545,-3064.381992,-1628.453072,9992.780217
2735.660874,-3140.991542,-962.267725,9622.677246
2735.661203,-3830.477490,-1110.308913,9918.759623
2735.661532,-3217.601092,296.082377,10436.903782
2735.661861,-1608.800546,1184.329507,10214.842000
2735.662190,-842.705048,1850.514855,8290.306550
2735.662519,-1762.019645,1406.391290,8216.285956
2735.662848,-2604.724693,-148.041188,10140.821405
2735.663177,-2604.724693,518.144159,9474.636058
2735.663506,-2528.115143,1850.514855,7105.977043
2735.663835,-2145.067394,-222.061783,8216.285956
2735.664164,-3447.429741,-370.102971,8808.450710
2735.664493,-3294.210641,-0.000000,8586.388927
2735.664822,-2987.772442,-592.164754,7846.182985
2735.665151,-3447.429741,-1258.350101,8216.285956
2735.665480,-4519.963438,-3256.906145,10584.944971
2735.665809,-5209.449386,-2664.741391,11029.068536
2735.666138,-5286.058936,-1850.514855,10732.986159
2735.666467,-3830.477490,-1258.350101,10658.965565
2735.666796,-2221.676944,-444.123565,10140.821405
2735.667125,-2528.115143,370.102971,10584.944971
2735.667454,-1838.629195,1258.350101,8956.491898
2735.667783,-1149.143247,1850.514855,8068.244768
2735.668112,0.000000,-370.102971,9770.718434
2735.668441,0.000000,444.123565,6661.853478
2735.668770,306.438199,444.123565,7994.224174
2735.669099,-306.438199,222.061783,6143.709319
2735.669428,-383.047749,814.226536,7031.956449
2735.669757,-1991.848295,-1184.329507,9474.636058
2735.670086,-2528.115143,-1480.411884,9400.615463
2735.670415,-3140.991542,-1480.411884,8956.491898
2735.670744,-2221.676944,-2072.576638,9548.656652
2735.671073,-3294.210641,-962.267725,8586.388927
2735.671402,-3447.429741,-592.164754,10510.924376
2735.671731,-2911.162892,-1554.432478,11177.109724
2735.672060,-2911.162892,-1110.308913,10436.903782
2735.672389,-2068.457845,-0.000000,9030.512492
2735.672718,-1915.238745,1702.473667,7994.224174
2735.673047,-1991.848295,1036.288319,8364.327145
2735.673376,-1915.238745,1480.411884,8290.306550
2735.673705,-1532.190996,740.205942,7846.182985
2735.674034,-1762.019645,-740.205942,8512.368333
2735.674363,-1685.410096,518.144159,8142.265362
2735.674692,-2298.286494,666.185348,7105.977043
2735.675021,-2528.115143,-1406.391290,7920.203579
2735.675350,-2451.505594,-1628.453072,8660.409521
2735.675679,-2221.676944,-2738.761985,10288.862594
2735.676008,-3677.258390,-1850.514855,10140.821405
2735.676337,-4443.353888,592.164754,9474.636058
2735.676666,-4443.353888,-0.000000,10288.862594
2735.676995,-4673.182538,-444.123565,10066.800811
2735.677324,-3600.648841,-296.082377,10955.047942
2735.677653,-3140.991542,-296.082377,10510.924376
2735.677982,-2757.943793,370.102971,9474.636058
2735.678311,-1915.238745,444.123565,8808.450710
2735.678640,-1838.629195,592.164754,8216.285956
2735.678969,-1915.238745,296.082377,8364.327145
2735.679298,-1762.019645,-592.164754,8660.409521
2735.679627,-2451.505594,-740.205942,8068.244768
2735.679956,-2068.457845,-888.247130,8734.430116
2735.680286,-2451.505594,-148.041188,8142.265362
2735.680615,-3140.991542,-0.000000,8586.388927
2735.680944,-3064.381992,-222.061783,9474.636058
2735.681273,-3753.867940,740.205942,9252.574275
2735.681602,-4213.525239,222.061783,9918.759623
2735.681931,-4060.306139,-296.082377,10584.944971
2735.682260,-4136.915689,-370.102971,9992.780217
2735.682589,-4213.525239,-592.164754,10658.965565
2735.682918,-3447.429741,-518.144159,10362.883188
2735.683247,-2834.553343,-814.226536,9474.636058
2735.683576,-1838.629195,148.041188,8660.409521
2735.683905,-995.924147,814.226536,7624.121203
2735.684234,-1225.752797,-222.061783,7698.141797
2735.684563,-1685.410096,-740.205942,8512.368333
2735.684892,-1685.410096,-1184.329507,8438.347739
2735.685221,-2221.676944,-740.205942,8956.491898
2735.685550,-2911.162892,-148.041188,9030.512492
2735.685878,-2987.772442,518.144159,8734.430116
2735.686207,-3064.381992,1110.308913,9252.574275
2735.686536,-2911.162892,1554.432478,8734.430116
2735.686865,-2451.505594,740.205942,8956.491898
2735.687194,-2757.943793,-444.123565,9474.636058
2735.687523,-2911.162892,-1036.288319,9474.636058
2735.687852,-2604.724693,-1184.329507,9770.718434
2735.688181,-1915.238745,-814.226536,8882.471304
2735.688510,-1149.143247,-148.041188,8216.285956
2735.688839,-1302.362347,-0.000000,8142.265362
2735.689168,-995.924147,-370.102971,8216.285956
2735.689497,-766.095498,-296.082377,8512.368333
2735.689826,-689.485948,-444.123565,8586.388927
2735.690155,-1455.581446,-148.041188,8068.244768
2735.690484,-1991.848295,-148.041188,8438.347739
2735.690813,-2451.505594,-518.144159,9548.656652
2735.691142,-2604.724693,-740.205942,9696.697840
2735.691471,-2604.724693,-740.205942,9696.697840
2735.691800,-2987.772442,-1036.288319,9918.759623
2735.692129,-2757.943793,-444.123565,9474.636058
2735.692458,-2681.334243,444.123565,9696.697840
2735.692787,-2987.772442,666.185348,9104.533087
2735.693116,-2374.896044,296.082377,9104.533087
2735.693445,-1608.800546,-0.000000,8808.450710
2735.693774,-1302.362347,148.041188,7994.224174
2735.694103,-1455.581446,-666.185348,7920.203579
2735.694432,-1149.143247,-1036.288319,8660.409521
2735.694761,-1455.581446,-1258.350101,8734.430116
2735.695090,-1838.629195,-1258.350101,9326.594869
2735.695419,-1915.238745,-666.185348,9326.594869
2735.695748,-1991.848295,-222.061783,9474.636058
2735.696077,-2068.457845,-0.000000,9474.636058
2735.696406,-1915.238745,444.123565,9474.636058
2735.696735,-1762.019645,222.061783,9474.636058
2735.697064,-2068.457845,962.267725,9178.553681
2735.697393,-2528.115143,1110.308913,8882.471304
2735.697722,-2604.724693,1184.329507,8290.306550
2735.698051,-3140.991542,888.247130,7920.203579
2735.698380,-3294.210641,296.082377,7920.203579
2735.698709,-3140.991542,-888.247130,8142.265362
2735.699038,-3907.087040,-1184.329507,8216.285956
2735.699367,-3983.696590,-2738.761985,9326.594869
2735.699696,-5132.839837,-3404.947333,9696.697840
2735.700025,-5132.839837,-2738.761985,10288.862594
2735.700354,-5132.839837,-2442.679609,10584.944971
2735.700683,-4903.011187,-1332.370696,10807.006753
2735.701011,-4596.572988,-740.205942,10658.965565
2735.701340,-3064.381992,740.205942,10140.821405
2735.701669,-2068.457845,1924.535449,8808.450710
2735.701998,-1378.971896,2368.659014,8586.388927
2735.702327,-1225.752797,2812.782580,7476.080014
2735.702656,-1302.362347,2516.700203,7031.956449
2735.702985,-2451.505594,1850.514855,8290.306550
2735.703314,-1608.800546,962.267725,7550.100608
2735.703643,-1455.581446,666.185348,7476.080014
2735.703972,-2374.896044,-370.102971,7254.018232
2735.704301,-2451.505594,-74.020594,7179.997637
2735.704630,-2757.943793,-518.144159,8808.450710
2735.704959,-2911.162892,666.185348,8142.265362
2735.705288,-2604.724693,1702.473667,8956.491898
2735.705617,-2987.772442,1332.370696,9918.759623
2735.705946,-3753.867940,1258.350101,9992.780217
2735.706275,-2987.772442,1184.329507,11251.130318
2735.706604,-4290.134789,-0.000000,11325.150913
2735.706933,-3064.381992,-0.000000,11547.212695
2735.707262,-1991.848295,518.144159,10807.006753
2735.707591,-1225.752797,1258.350101,9696.697840
2735.707920,-689.485948,1480.411884,7846.182985
2735.708249,-229.828649,518.144159,10066.800811
2735.708578,1532.190996,518.144159,10436.903782
2735.708907,2987.772442,3701.029710,5551.544565
2735.709236,4749.792088,2960.823768,7624.121203
2735.709565,3294.210641,4663.297435,4959.379811
2735.709894,4060.306139,5033.400406,7179.997637
2735.710223,2451.505594,4293.194464,7698.141797
2735.710552,2604.724693,4737.318029,7772.162391
2735.710881,2068.457845,2368.659014,9548.656652
2735.711210,-306.438199,2886.803174,10288.862594
2735.711539,-2298.286494,1332.370696,12065.356855
2735.711868,-2298.286494,1480.411884,11399.171507
2735.712197,-1149.143247,1702.473667,10510.924376
2735.712526,-1532.190996,1998.556043,10881.027347
2735.712855,-229.828649,2442.679609,9918.759623
2735.713184,76.609550,3256.906145,8956.491898
2735.713513,689.485948,1776.494261,7624.121203
2735.713842,2681.334243,4367.215058,7624.121203
2735.714171,1915.238745,4515.256246,5403.503377
2735.714500,2374.896044,4145.153275,7846.182985
2735.714829,842.705048,4441.235652,7550.100608
2735.715158,-1225.752797,3627.009116,9178.553681
2735.715487,-1455.581446,2590.720797,9770.718434
2735.715816,-2528.115143,2146.597232,10436.903782
2735.716144,-3064.381992,592.164754,12435.459826
2735.716473,-3370.820191,2516.700203,9770.718434
2735.716802,-2681.334243,2738.761985,9918.759623
2735.717131,-2834.553343,1776.494261,10732.986159
2735.717460,-2528.115143,2960.823768,10881.027347
2735.717789,-2145.067394,2368.659014,10732.986159
2735.718118,-1225.752797,2146.597232,8882.471304
2735.718447,-1072.533697,2368.659014,8290.306550
2735.718776,-1532.190996,1998.556043,9696.697840
2735.719105,-1225.752797,1628.453072,9622.677246
2735.719434,2068.457845,2368.659014,8734.430116
2735.719763,4213.525239,4219.173869,5995.668130
2735.720092,4979.620737,4737.318029,6513.812290
2735.720421,2451.505594,5403.503377,6513.812290
2735.720750,2757.943793,6365.771101,8438.347739
2735.721079,1991.848295,6069.688724,7179.997637
2735.721408,1762.019645,6069.688724,7105.977043
2735.721737,306.438199,5033.400406,8586.388927
2735.722066,-766.095498,5403.503377,7920.203579
2735.722395,-1225.752797,1702.473667,9770.718434
2735.722724,-2681.334243,-1110.308913,11029.068536
2735.723053,-1532.190996,1110.308913,10288.862594
2735.723382,-1149.143247,-814.226536,10955.047942
2735.723711,-1685.410096,666.185348,9844.739029
2735.724040,-1072.533697,3182.885551,11177.109724
2735.724369,1685.410096,2664.741391,8438.347739
2735.724698,1838.629195,5255.462188,7772.162391
2735.725027,3677.258390,4293.194464,7994.224174
2735.725356,4136.915689,5033.400406,8290.306550
2735.725685,2681.334243,4959.379811,6957.935855
2735.726014,2068.457845,4293.194464,7476.080014
2735.726343,229.828649,3849.070898,7920.203579
2735.726672,-536.266849,2072.576638,10510.924376
2735.727001,-1608.800546,-0.000000,11547.212695
2735.727330,-2374.896044,2442.679609,10955.047942
2735.727659,-2374.896044,-148.041188,10732.986159
2735.727988,-1991.848295,518.144159,9474.636058
2735.728317,-1991.848295,2738.761985,10362.883188
2735.728646,-995.924147,1554.432478,9918.759623
2735.728975,536.266849,2146.597232,11103.089130
2735.729304,2757.943793,2590.720797,7920.203579
2735.729633,4903.011187,2738.761985,8512.368333
2735.729962,3217.601092,3478.967927,6661.853478
2735.730291,3830.477490,4367.215058,6365.771101
2735.730620,3294.210641,4367.215058,7328.038826
2735.730948,2604.724693,4515.256246,7772.162391
2735.731277,2068.457845,4885.359217,6809.894666
2735.731606,995.924147,4811.338623,8512.368333
2735.731935,-1685.410096,1554.432478,8808.450710
2735.732264,-3370.820191,-3923.091493,13027.624579
2735.732593,-3064.381992,-1036.288319,10881.027347
2735.732922,-3294.210641,-888.247130,11769.274478
2735.733251,-3907.087040,-1258.350101,11103.089130
2735.733580,-2681.334243,3256.906145,9918.759623
2735.733909,0.000000,2146.597232,8216.285956
2735.734238,76.609550,4515.256246,7550.100608
2735.734567,2987.772442,2072.576638,11621.233289
2735.734896,2374.896044,2516.700203,5477.523971
2735.735225,4060.306139,3775.050304,8956.491898
2735.735554,2987.772442,6661.853478,4441.235652
2735.735883,4596.572988,4071.132681,5477.523971
2735.736212,2757.943793,4441.235652,7105.977043
2735.736541,2987.772442,4811.338623,6883.915261
2735.736870,2911.162892,3627.009116,7550.100608
2735.737199,-689.485948,6587.832884,6661.853478
2735.737528,-1991.848295,740.205942,11547.212695
2735.737857,-6128.763984,-2146.597232,13841.851115
2735.738186,-3907.087040,1406.391290,10288.862594
2735.738515,-3140.991542,1110.308913,11473.192101
2735.738844,-3064.381992,-3775.050304,12805.562797
2735.739173,-3447.429741,2146.597232,10732.986159
2735.739502,-689.485948,666.185348,9178.553681
2735.739831,-3370.820191,4737.318029,7179.997637
2735.740160,-995.924147,2072.576638,11621.233289
2735.740489,3217.601092,2886.803174,10066.800811
2735.740818,2068.457845,6883.915261,4441.235652
2735.741147,2757.943793,4737.318029,9696.697840
2735.741476,1915.238745,4219.173869,5329.482782
2735.741805,3064.381992,5995.668130,8586.388927
2735.742134,-536.266849,4293.194464,7402.059420
2735.742463,0.000000,6957.935855,8512.368333
2735.742792,-229.828649,4811.338623,8808.450710
2735.743121,0.000000,3997.112087,7624.121203
2735.743450,-2221.676944,3701.029710,11325.150913
2735.743779,-3447.429741,-444.123565,12213.398043
2735.744108,-689.485948,148.041188,10140.821405
2735.744437,-536.266849,-592.164754,10955.047942
2735.744766,-995.924147,814.226536,9918.759623
2735.745095,-995.924147,2812.782580,11177.109724
2735.745424,1149.143247,2368.659014,9178.553681
2735.745753,2604.724693,6291.750507,7550.100608
2735.746081,3064.381992,6143.709319,7994.224174
2735.746410,1838.629195,4441.235652,10140.821405
2735.746739,76.609550,4959.379811,9548.656652
2735.747068,536.266849,5181.441594,8438.347739
2735.747397,612.876398,3182.885551,7550.100608
2735.747726,1915.238745,1332.370696,9844.739029
2735.748055,1225.752797,148.041188,11695.253884
2735.748384,153.219100,370.102971,11547.212695
2735.748713,-612.876398,1850.514855,8734.430116
2735.749042,1072.533697,148.041188,9474.636058
2735.749371,153.219100,5699.585753,7550.100608
2735.749700,383.047749,4885.359217,9844.739029
2735.750029,-612.876398,3849.070898,8216.285956
2735.750358,1762.019645,3478.967927,7994.224174
2735.750687,3217.601092,3923.091493,7179.997637
2735.751016,2987.772442,4515.256246,7402.059420
2735.751345,1072.533697,3627.009116,8364.327145
2735.751674,1225.752797,1850.514855,8216.285956
2735.752003,995.924147,3256.906145,7476.080014
2735.752332,76.609550,2812.782580,9178.553681
2735.752661,-1225.752797,1776.494261,10362.883188
2735.752990,-2451.505594,3701.029710,9400.615463
2735.753319,-1838.629195,296.082377,10140.821405
2735.753648,-1915.238745,-444.123565,9770.718434
2735.753977,-1838.629195,888.247130,11473.192101
2735.754306,-1225.752797,814.226536,9844.739029
2735.754635,-842.705048,2738.761985,9178.553681
2735.754964,2451.505594,1776.494261,7698.141797
2735.755293,3677.258390,3182.885551,7550.100608
2735.755622,1072.533697,3701.029710,7772.162391
2735.755951,229.828649,3478.967927,7772.162391
2735.756280,1302.362347,3478.967927,7402.059420
2735.756609,2604.724693,3627.009116,8068.244768
2735.756938,1608.800546,4441.235652,7105.977043
2735.757267,995.924147,3552.988522,9326.594869
2735.757596,-995.924147,296.082377,9844.739029
2735.757925,-689.485948,-74.020594,10214.842000
2735.758254,-1991.848295,2220.617826,9178.553681
2735.758583,-3064.381992,-0.000000,11843.295072
2735.758912,-3217.601092,592.164754,11103.089130
2735.759241,-1378.971896,3034.844362,9252.574275
2735.759570,-459.657299,2886.803174,7698.141797
2735.759899,-383.047749,3478.967927,9104.533087
2735.760228,1455.581446,3034.844362,8438.347739
2735.760557,1608.800546,3997.112087,7476.080014
2735.760886,1072.533697,3997.112087,7031.956449
2735.761214,1072.533697,1924.535449,8660.409521
2735.761543,536.266849,1628.453072,9770.718434
2735.761872,229.828649,1480.411884,10214.842000
2735.762201,-383.047749,2146.597232,9696.697840
2735.762530,0.000000,2516.700203,10362.883188
2735.762859,-383.047749,2738.761985,10214.842000
2735.763188,-1302.362347,4071.132681,9770.718434
2735.763517,-919.314598,1776.494261,10881.027347
2735.763846,536.266849,2590.720797,9326.594869
2735.764175,1532.190996,3478.967927,8438.347739
2735.764504,919.314598,2368.659014,8808.450710
2735.764833,2374.896044,1628.453072,9030.512492
2735.765162,1915.238745,2368.659014,7846.182985
2735.765491,229.828649,3330.926739,7402.059420
2735.765820,1149.143247,2886.803174,8660.409521
2735.766149,1225.752797,2738.761985,7920.203579
2735.766478,1838.629195,3775.050304,8290.306550
2735.766807,1915.238745,3775.050304,8512.368333
2735.767136,1838.629195,1332.370696,8956.491898
2735.767465,0.000000,1628.453072,9696.697840
2735.767794,-229.828649,3034.844362,10214.842000
2735.768123,-689.485948,1850.514855,10584.944971
2735.768452,-536.266849,1406.391290,10436.903782
2735.768781,-612.876398,2368.659014,10288.862594
2735.769110,-383.047749,888.247130,10066.800811
2735.769439,0.000000,1850.514855,9252.574275
2735.769768,689.485948,1332.370696,7772.162391
2735.770097,306.438199,1924.535449,8216.285956
2735.770426,689.485948,2590.720797,8586.388927
2735.770755,459.657299,962.267725,8660.409521
2735.771084,229.828649,518.144159,8660.409521
2735.771413,536.266849,814.226536,9178.553681
2735.771742,-306.438199,222.061783,9918.759623
2735.772071,-383.047749,740.205942,9548.656652
2735.772400,-1072.533697,962.267725,9918.759623
2735.772729,-919.314598,1628.453072,10362.883188
2735.773058,-306.438199,1850.514855,9548.656652
2735.773387,536.266849,888.247130,9474.636058
2735.773716,536.266849,1850.514855,9178.553681
2735.774045,995.924147,2294.638420,9178.553681
2735.774374,536.266849,2368.659014,8290.306550
2735.774703,-842.705048,-74.020594,8808.450710
2735.775032,383.047749,-0.000000,10436.903782
2735.775361,1149.143247,-370.102971,7994.224174
2735.775690,229.828649,-222.061783,6883.915261
2735.776018,0.000000,-0.000000,9104.533087
2735.776347,612.876398,666.185348,9178.553681
2735.776676,766.095498,592.164754,7698.141797
2735.777005,459.657299,1258.350101,8808.450710
2735.777334,459.657299,666.185348,10362.883188
2735.777663,76.609550,370.102971,9030.512492
2735.777992,229.828649,-74.020594,9400.615463
2735.778321,1072.533697,-0.000000,9992.780217
2735.778650,919.314598,-74.020594,8512.368333
2735.778979,0.000000,-740.205942,9252.574275
2735.779308,995.924147,-1258.350101,11325.150913
2735.779637,766.095498,-0.000000,7624.121203
2735.779966,153.219100,-0.000000,7476.080014
2735.780295,-153.219100,-222.061783,9400.615463
2735.780624,0.000000,-1776.494261,9474.636058
2735.780953,-383.047749,-1184.329507,8660.409521
2735.781282,-689.485948,-2368.659014,9474.636058
2735.781611,-612.876398,-1480.411884,9992.780217
2735.781940,-1225.752797,-518.144159,9178.553681
2735.782269,0.000000,-370.102971,9474.636058
2735.782598,306.438199,-74.020594,9030.512492
2735.782927,229.828649,-370.102971,8068.244768
2735.783256,995.924147,-0.000000,9326.594869
2735.783585,1378.971896,-0.000000,8290.306550
2735.783914,995.924147,444.123565,8882.471304
2735.784243,-536.266849,296.082377,9104.533087
2735.784572,153.219100,-1554.432478,8882.471304
2735.784901,76.609550,-1332.370696,9400.615463
2735.785230,-612.876398,-1776.494261,9400.615463
2735.785559,-153.219100,-2664.741391,9696.697840
2735.785888,-536.266849,-1110.308913,8290.306550
2735.786217,-383.047749,-1110.308913,9252.574275
2735.786546,-383.047749,-0.000000,9252.574275
2735.786875,229.828649,-1036.288319,8734.430116
2735.787204,459.657299,444.123565,8882.471304
2735.787533,1838.629195,518.144159,9326.594869
2735.787862,2298.286494,-148.041188,7328.038826
2735.788191,1455.581446,-148.041188,8882.471304
2735.788520,2298.286494,370.102971,9918.759623
2735.788849,1149.143247,222.061783,8586.388927
2735.789178,76.609550,296.082377,8586.388927
2735.789507,766.095498,-370.102971,9474.636058
2735.789836,766.095498,592.164754,8660.409521
2735.790165,-76.609550,-370.102971,9104.533087
2735.790494,76.609550,-222.061783,9400.615463
2735.790823,-842.705048,-962.267725,9326.594869
2735.791153,-612.876398,-1998.556043,10066.800811
2735.791482,153.219100,148.041188,9622.677246
2735.791811,842.705048,-518.144159,8956.491898
2735.792140,-229.828649,296.082377,8586.388927
2735.792469,689.485948,1332.370696,9992.780217
2735.792798,1532.190996,962.267725,9474.636058
2735.793127,1072.533697,518.144159,8512.368333
2735.793456,1608.800546,2146.597232,9252.574275
2735.793785,1608.800546,-0.000000,9326.594869
2735.794114,383.047749,740.205942,8438.347739
2735.794443,612.876398,-74.020594,9548.656652
2735.794772,459.657299,-444.123565,8808.450710
2735.795101,-766.095498,-814.226536,9252.574275
2735.795430,536.266849,-814.226536,9918.759623
2735.795759,306.438199,-518.144159,7624.121203
2735.796088,-612.876398,-370.102971,9178.553681
2735.796417,-995.924147,-0.000000,9918.759623
2735.796746,-612.876398,-1406.391290,9622.677246
2735.797075,-536.266849,-444.123565,8586.388927
2735.797404,0.000000,-518.144159,10066.800811
2735.797734,1302.362347,-296.082377,9622.677246
2735.798063,612.876398,-518.144159,8734.430116
2735.798392,459.657299,888.247130,8734.430116
2735.798721,1072.533697,1036.288319,8660.409521
2735.799050,612.876398,592.164754,8734.430116
2735.799379,995.924147,296.082377,8512.368333
2735.799708,1838.629195,-74.020594,9400.615463
2735.800037,306.438199,-666.185348,7920.203579
2735.800366,-842.705048,-666.185348,9178.553681
2735.800695,-153.219100,-666.185348,10807.006753
2735.801024,-766.095498,-1850.514855,9622.677246
2735.801353,-1072.533697,-814.226536,9844.739029
2735.801682,0.000000,-888.247130,10066.800811
2735.802011,76.609550,-1036.288319,8586.388927
2735.802340,-306.438199,888.247130,10362.883188
2735.802669,1532.190996,-222.061783,9326.594869
2735.802998,1072.533697,296.082377,7994.224174
2735.803327,1149.143247,1258.350101,9770.718434
2735.803656,2068.457845,1036.288319,8660.409521
2735.803986,1378.971896,-592.164754,8216.285956
2735.804315,459.657299,1258.350101,8142.265362
2735.804644,1455.581446,-740.205942,9992.780217
2735.804973,306.438199,-666.185348,9622.677246
2735.805302,-459.657299,-1480.411884,9104.533087
2735.805631,0.000000,-814.226536,9992.780217
2735.805960,0.000000,-592.164754,9104.533087
2735.806289,-229.828649,-296.082377,8512.368333
2735.806618,612.876398,-592.164754,9992.780217
2735.806947,1378.971896,592.164754,8216.285956
2735.807276,766.095498,-296.082377,9252.574275
2735.807605,1762.019645,444.123565,8882.471304
2735.807934,1915.238745,222.061783,7105.977043
2735.808263,1149.143247,592.164754,8364.327145
2735.808592,842.705048,740.205942,8290.306550
2735.808921,766.095498,-740.205942,9252.574275
2735.809250,0.000000,-0.000000,8586.388927
2735.809579,0.000000,-518.144159,9178.553681
2735.809908,0.000000,-1480.411884,9178.553681
2735.810237,-919.314598,-666.185348,8734.430116
2735.810567,-689.485948,-814.226536,9252.574275
2735.810896,0.000000,-1258.350101,9770.718434
2735.811225,-383.047749,-1406.391290,9178.553681
2735.811554,306.438199,-666.185348,9474.636058
2735.811883,1225.752797,-148.041188,8290.306550
2735.812212,689.485948,-74.020594,7254.018232
2735.812541,689.485948,1110.308913,9104.533087
2735.812870,842.705048,1036.288319,9030.512492
2735.813199,0.000000,370.102971,8364.327145
2735.813528,-153.219100,-592.164754,9844.739029
2735.813857,459.657299,-1036.288319,9918.759623
2735.814186,0.000000,-1776.494261,9326.594869
2735.814515,-995.924147,-1036.288319,10510.924376
2735.814844,153.219100,-814.226536,10214.842000
2735.815173,-383.047749,-518.144159,9030.512492
2735.815502,229.828649,666.185348,9326.594869
2735.815831,1455.581446,1332.370696,8290.306550
2735.816160,919.314598,592.164754,7179.997637
2735.816489,919.314598,1776.494261,8660.409521
2735.816818,1455.581446,-148.041188,9178.553681
2735.817148,229.828649,-518.144159,9326.594869
2735.817477,-612.876398,-888.247130,9770.718434
2735.817806,153.219100,-1850.514855,10362.883188
2735.818135,-383.047749,-592.164754,8734.430116
2735.818464,-153.219100,-814.226536,9474.636058
2735.818793,383.047749,-0.000000,10362.883188
2735.819122,842.705048,-666.185348,8956.491898
2735.819451,842.705048,1776.494261,8216.285956
2735.819780,2451.505594,814.226536,8808.450710
2735.820109,1532.190996,518.144159,7920.203579
2735.820438,995.924147,-0.000000,8660.409521
2735.820767,995.924147,666.185348,8808.450710
2735.821096,689.485948,-592.164754,8586.388927
2735.821425,0.000000,-148.041188,9326.594869
2735.821754,-306.438199,-740.205942,9770.718434
2735.822083,-459.657299,-1258.350101,9548.656652
2735.822412,-919.314598,-296.082377,8808.450710
2735.822741,-459.657299,-666.185348,9844.739029
2735.823070,-306.438199,-0.000000,8882.471304
2735.823400,0.000000,-740.205942,8956.491898
2735.823729,919.314598,-222.061783,10362.883188
2735.824058,1685.410096,-740.205942,7402.059420
2735.824387,995.924147,222.061783,7994.224174
2735.824716,995.924147,962.267725,9548.656652
2735.825045,1149.143247,518.144159,8290.306550
2735.825374,229.828649,-0.000000,8882.471304
2735.825703,536.266849,-0.000000,9178.553681
2735.826032,459.657299,-1258.350101,9548.656652
2735.826361,-383.047749,-222.061783,9474.636058
2735.826690,-689.485948,-444.123565,9548.656652
2735.827019,0.000000,-666.185348,9326.594869
2735.827348,0.000000,592.164754,9178.553681
2735.827677,612.876398,-740.205942,10362.883188
2735.828006,689.485948,-0.000000,8660.409521
2735.828335,1302.362347,740.205942,7179.997637
2735.828664,1455.581446,740.205942,8142.265362
2735.828993,1072.533697,814.226536,9252.574275
2735.829322,536.266849,518.144159,8882.471304
2735.829651,0.000000,-1110.308913,9178.553681
2735.829981,536.266849,-444.123565,9696.697840
2735.830310,229.828649,-592.164754,8290.306550
2735.830639,-612.876398,-592.164754,9474.636058
2735.830968,-306.438199,148.041188,10140.821405
2735.831297,229.828649,-814.226536,9622.677246
2735.831626,153.219100,-518.144159,9030.512492
2735.831955,919.314598,296.082377,8956.491898
2735.832284,919.314598,-0.000000,7698.141797
2735.832613,383.047749,-0.000000,8068.244768
2735.832942,919.314598,814.226536,9178.553681
2735.833271,76.609550,-592.164754,8438.347739
2735.833600,-612.876398,-444.123565,9326.594869
2735.833929,0.000000,-0.000000,10510.924376
2735.834258,0.000000,-1258.350101,8512.368333
2735.834587,-842.705048,-1110.308913,9770.718434
2735.834916,536.266849,-888.247130,10288.862594
2735.835245,842.705048,-1258.350101,8882.471304
2735.835574,-229.828649,-740.205942,10807.006753
2735.835903,1455.581446,-370.102971,8808.450710
2735.836233,1455.581446,-0.000000,7698.141797
2735.836562,459.657299,1110.308913,8216.285956
2735.836891,995.924147,1406.391290,8438.347739
2735.837220,459.657299,-0.000000,8586.388927
2735.837549,0.000000,444.123565,8882.471304
2735.837878,76.609550,-1110.308913,10584.944971
2735.838207,229.828649,-1776.494261,9326.594869
2735.838536,-766.095498,-1480.411884,8882.471304
2735.838865,-383.047749,-1036.288319,10066.800811
2735.839194,-459.657299,-444.123565,9400.615463
2735.839523,-536.266849,-814.226536,9844.739029
2735.839852,766.095498,370.102971,9400.615463
2735.840181,1378.971896,1628.453072,7920.203579
2735.840510,536.266849,962.267725,7920.203579
2735.840839,689.485948,444.123565,8734.430116
2735.841168,919.314598,-0.000000,8438.347739
2735.841497,459.657299,-592.164754,8142.265362
2735.841826,76.609550,-518.144159,9918.759623
2735.842155,0.000000,-1036.288319,8882.471304
2735.842484,-689.485948,-74.020594,8660.409521
2735.842814,-689.485948,-0.000000,10140.821405
2735.843143,0.000000,-1184.329507,9474.636058
2735.843472,76.609550,-370.102971,9252.574275
2735.843801,306.438199,-444.123565,9326.594869
2735.844130,1762.019645,-444.123565,8808.450710
2735.844459,1225.752797,666.185348,7994.224174
2735.844788,1685.410096,370.102971,8660.409521
2735.845117,1608.800546,2146.597232,8512.368333
2735.845446,1149.143247,1184.329507,8586.388927
2735.845775,766.095498,888.247130,9770.718434
2735.846104,1378.971896,-0.000000,8808.450710
2735.846433,459.657299,-222.061783,8586.388927
2735.846762,0.000000,-1406.391290,10140.821405
2735.847091,229.828649,-1258.350101,10140.821405
2735.847420,-689.485948,-1406.391290,9696.697840
2735.847749,-153.219100,-518.144159,9770.718434
2735.848078,1072.533697,740.205942,9622.677246
2735.848407,995.924147,740.205942,8290.306550
2735.848736,383.047749,962.267725,8438.347739
2735.849066,919.314598,740.205942,9178.553681
2735.849395,612.876398,740.205942,8808.450710
2735.849724,153.219100,-74.020594,9178.553681
2735.850053,0.000000,-74.020594,9918.759623
2735.850382,-229.828649,-518.144159,9104.533087
2735.850711,-1072.533697,-1110.308913,9992.780217
2735.851040,-766.095498,-740.205942,9770.718434
2735.851369,-689.485948,-1628.453072,9770.718434
2735.851698,-612.876398,-444.123565,9326.594869
2735.852027,0.000000,-0.000000,9400.615463
2735.852356,689.485948,-444.123565,8660.409521
2735.852685,0.000000,518.144159,7550.100608
2735.853014,842.705048,296.082377,9474.636058
2735.853343,1455.581446,-444.123565,8512.368333
2735.853672,459.657299,-444.123565,8734.430116
2735.854001,612.876398,-296.082377,8512.368333
2735.854330,766.095498,-148.041188,8068.244768
2735.854659,-689.485948,-740.205942,9252.574275
2735.854988,-536.266849,-222.061783,9474.636058
2735.855317,0.000000,-814.226536,9252.574275
2735.855647,-153.219100,-1110.308913,8956.491898
2735.855976,612.876398,-222.061783,9474.636058
2735.856305,306.438199,-222.061783,8956.491898
2735.856634,536.266849,-518.144159,8290.306550
2735.856963,995.924147,-74.020594,10658.965565
2735.857292,1532.190996,-148.041188,8290.306550
2735.857621,1149.143247,-444.123565,8290.306550
2735.857950,1608.800546,1406.391290,8734.430116
2735.858279,2451.505594,-592.164754,8660.409521
2735.858608,1149.143247,-148.041188,9104.533087
2735.858937,76.609550,-0.000000,8734.430116
2735.859266,689.485948,-0.000000,9030.512492
2735.859595,0.000000,-1036.288319,9474.636058
2735.859924,-229.828649,-592.164754,9400.615463
2735.860253,536.266849,-1406.391290,9178.553681
2735.860582,0.000000,-74.020594,7920.203579
2735.860911,-689.485948,-1258.350101,9622.677246
2735.861240,-459.657299,-222.061783,9400.615463
2735.861569,-229.828649,-592.164754,8808.450710
2735.861899,536.266849,-444.123565,9400.615463
2735.862228,536.266849,888.247130,8586.388927
2735.862557,383.047749,-888.247130,8660.409521
2735.862886,0.000000,518.144159,9474.636058
2735.863215,1072.533697,-592.164754,9622.677246
2735.863544,766.095498,-370.102971,9104.533087
2735.863873,1149.143247,-592.164754,9178.553681
2735.864202,689.485948,-74.020594,9178.553681
2735.864531,536.266849,-296.082377,9104.533087
2735.864860,0.000000,296.082377,8216.285956
2735.865189,0.000000,444.123565,9104.533087
2735.865518,306.438199,-444.123565,9474.636058
2735.865847,0.000000,-370.102971,9178.553681
2735.866176,306.438199,-518.144159,9918.759623
2735.866505,306.438199,-666.185348,8586.388927
2735.866834,-229.828649,-1184.329507,9252.574275
2735.867163,0.000000,-222.061783,10510.924376
2735.867492,229.828649,-0.000000,8734.430116
2735.867821,306.438199,296.082377,9030.512492
2735.868150,1225.752797,1036.288319,9474.636058
2735.868480,1685.410096,-148.041188,8512.368333
2735.868809,383.047749,1554.432478,7698.141797
2735.869138,689.485948,-0.000000,9622.677246
2735.869467,536.266849,962.267725,9030.512492
2735.869796,0.000000,-370.102971,8956.491898
2735.870125,76.609550,888.247130,8882.471304
2735.870454,76.609550,-888.247130,9178.553681
2735.870783,-459.657299,-962.267725,9770.718434
2735.871112,-919.314598,-1184.329507,9400.615463
2735.871441,-153.219100,-0.000000,9326.594869
2735.871770,-919.314598,222.061783,9326.594869
2735.872099,-459.657299,-148.041188,9252.574275
2735.872428,306.438199,-0.000000,8956.491898
2735.872757,612.876398,-592.164754,8364.327145
2735.873086,0.000000,370.102971,9326.594869
2735.873415,842.705048,814.226536,9326.594869
2735.873744,459.657299,-0.000000,8808.450710
2735.874073,383.047749,-0.000000,9918.759623
2735.874402,766.095498,370.102971,8512.368333
2735.874732,229.828649,-1480.411884,8512.368333
2735.875061,0.000000,740.205942,8882.471304
2735.875390,919.314598,-370.102971,9178.553681
2735.875719,76.609550,-1702.473667,10288.862594
2735.876048,0.000000,-1406.391290,8882.471304
2735.876377,766.095498,-1406.391290,8660.409521
2735.876706,76.609550,-1110.308913,8586.388927
2735.877035,-153.219100,-148.041188,9696.697840
2735.877364,842.705048,222.061783,9178.553681
2735.877693,1072.533697,-0.000000,8438.347739
2735.878022,1072.533697,518.144159,9474.636058
2735.878351,1608.800546,-222.061783,9548.656652
2735.878680,689.485948,-222.061783,8290.306550
2735.879009,459.657299,-0.000000,8364.327145
2735.879338,842.705048,518.144159,9104.533087
2735.879667,383.047749,-74.020594,8586.388927
2735.879996,383.047749,-1702.473667,9104.533087
2735.880325,459.657299,-1184.329507,9548.656652
2735.880654,689.485948,-740.205942,7772.162391
2735.880983,-229.828649,-888.247130,8956.491898
2735.881313,-536.266849,666.185348,9326.594869
2735.881642,0.000000,-370.102971,9178.553681
2735.881971,-306.438199,-814.226536,9844.739029
2735.882300,-229.828649,-740.205942,9770.718434
2735.882629,1149.143247,-1850.514855,9326.594869
2735.882958,766.095498,-592.164754,8512.368333
2735.883287,229.828649,962.267725,9622.677246
2735.883616,766.095498,296.082377,8956.491898
2735.883945,229.828649,1110.308913,8290.306550
2735.884274,919.314598,-0.000000,9770.718434
2735.884603,1302.362347,-0.000000,7846.182985
2735.884932,306.438199,-222.061783,8438.347739
2735.885261,306.438199,-0.000000,9252.574275
2735.885590,229.828649,-0.000000,8882.471304
2735.885919,-459.657299,-592.164754,9548.656652
2735.886248,-459.657299,-1110.308913,9992.780217
2735.886577,76.609550,-1184.329507,9622.677246
2735.886906,383.047749,-74.020594,7920.203579
2735.887235,229.828649,-0.000000,8364.327145
2735.887565,1378.971896,592.164754,9400.615463
2735.887894,612.876398,-518.144159,9400.615463
2735.888223,919.314598,222.061783,9178.553681
2735.888552,1608.800546,518.144159,8512.368333
2735.888881,842.705048,222.061783,8956.491898
2735.889210,383.047749,1406.391290,8438.347739
2735.889539,1149.143247,-444.123565,9548.656652
2735.889868,229.828649,-962.267725,9178.553681
2735.890197,459.657299,-222.061783,10066.800811
2735.890526,536.266849,-148.041188,9326.594869
2735.890855,0.000000,-962.267725,8586.388927
2735.891184,-153.219100,814.226536,9548.656652
2735.891513,459.657299,-1036.288319,9252.574275
2735.891842,306.438199,-74.020594,8808.450710
2735.892171,0.000000,-814.226536,9548.656652
2735.892500,1302.362347,-148.041188,8438.347739
2735.892830,459.657299,222.061783,8068.244768
2735.893159,-229.828649,-0.000000,9400.615463
2735.893488,-229.828649,-0.000000,9326.594869
2735.893817,-229.828649,-666.185348,9030.512492
2735.894146,-1149.143247,-0.000000,8734.430116
2735.894475,0.000000,-518.144159,10584.944971
2735.894804,919.314598,-1258.350101,8882.471304
2735.895133,536.266849,-666.185348,8290.306550
2735.895462,536.266849,444.123565,9474.636058
2735.895791,383.047749,148.041188,7328.038826
2735.896120,383.047749,-0.000000,9030.512492
2735.896449,1915.238745,-0.000000,10066.800811
2735.896778,1608.800546,-74.020594,6513.812290
2735.897107,459.657299,-518.144159,8216.285956
2735.897437,229.828649,518.144159,9178.553681
2735.897766,689.485948,-518.144159,8882.471304
2735.898095,0.000000,-0.000000,9104.533087
2735.898424,-306.438199,-222.061783,9770.718434
2735.898753,306.438199,-666.185348,9178.553681
2735.899082,-153.219100,-74.020594,8808.450710
2735.899411,766.095498,-444.123565,9474.636058
2735.899740,306.438199,666.185348,8512.368333
2735.900069,0.000000,-0.000000,8660.409521
2735.900398,612.876398,1110.308913,8956.491898
2735.900727,1302.362347,-0.000000,9178.553681
2735.901056,459.657299,-0.000000,8734.430116
2735.901385,383.047749,-222.061783,9252.574275
2735.901714,459.657299,592.164754,9474.636058
2735.902044,-306.438199,-1110.308913,9696.697840
2735.902373,-306.438199,-666.185348,10066.800811
2735.902702,0.000000,-962.267725,9400.615463
2735.903031,-459.657299,370.102971,9400.615463
2735.903360,-383.047749,-370.102971,10066.800811
2735.903689,1302.362347,296.082377,8660.409521
2735.904018,1072.533697,-814.226536,9918.759623
2735.904347,536.266849,-296.082377,8956.491898
2735.904676,766.095498,370.102971,8586.388927
2735.905005,383.047749,-444.123565,8808.450710
2735.905334,-383.047749,666.185348,9030.512492
2735.905663,-229.828649,222.061783,9844.739029
2735.905992,0.000000,-814.226536,8956.491898
2735.906321,-536.266849,-370.102971,9474.636058
2735.906651,459.657299,-0.000000,10362.883188
2735.906980,76.609550,-666.185348,7994.224174
2735.907309,0.000000,-1110.308913,9474.636058
2735.907638,1149.143247,-0.000000,9474.636058
2735.907967,1608.800546,-444.123565,8290.306550
2735.908296,1532.190996,-0.000000,8438.347739
2735.908625,2374.896044,518.144159,8808.450710
2735.908954,2068.457845,888.247130,7698.141797
2735.909283,1072.533697,1110.308913,8364.327145
2735.909612,842.705048,222.061783,8216.285956
2735.909941,76.609550,-888.247130,9104.533087
2735.910270,-536.266849,-296.082377,8808.450710
2735.910599,-306.438199,-2072.576638,9844.739029
2735.910928,-383.047749,-1998.556043,9770.718434
2735.911257,-995.924147,-1776.494261,9178.553681
2735.911587,-383.047749,-1406.391290,9844.739029
2735.911916,0.000000,-444.123565,8290.306550
2735.912245,0.000000,-296.082377,8882.471304
2735.912574,1225.752797,518.144159,8586.388927
2735.912903,1991.848295,592.164754,7920.203579
2735.913232,1685.410096,888.247130,8364.327145
2735.913561,1302.362347,-0.000000,8808.450710
2735.913890,842.705048,666.185348,8438.347739
2735.914219,536.266849,370.102971,9104.533087
2735.914548,383.047749,-518.144159,10362.883188
2735.914877,0.000000,-1110.308913,9030.512492
2735.915206,-306.438199,-1480.411884,9474.636058
2735.915535,0.000000,-1406.391290,10288.862594
2735.915864,0.000000,148.041188,9326.594869
2735.916194,76.609550,-666.185348,9252.574275
2735.916523,229.828649,888.247130,8734.430116
2735.916852,1532.190996,888.247130,9104.533087
2735.917181,1149.143247,592.164754,7994.224174
2735.917510,612.876398,-0.000000,9252.574275
2735.917839,766.095498,666.185348,9474.636058
2735.918168,612.876398,-962.267725,7920.203579
2735.918497,76.609550,-296.082377,9844.739029
2735.918826,612.876398,-444.123565,9992.780217
2735.919155,306.438199,-296.082377,8882.471304
2735.919484,-229.828649,740.205942,9252.574275
2735.919813,0.000000,666.185348,9622.677246
2735.920142,766.095498,-0.000000,8956.491898
2735.920471,76.609550,296.082377,9696.697840
2735.920801,1225.752797,148.041188,8586.388927
2735.921130,536.266849,-888.247130,9326.594869
2735.921459,-153.219100,666.185348,9178.553681
2735.921788,229.828649,-1036.288319,9548.656652
2735.922117,0.000000,296.082377,9030.512492
2735.922446,-766.095498,-222.061783,9104.533087
2735.922775,-153.219100,-222.061783,9844.739029
2735.923104,-536.266849,-1184.329507,9622.677246
2735.923433,-842.705048,-1036.288319,10140.821405
2735.923762,-306.438199,-222.061783,9622.677246
2735.924091,383.047749,-0.000000,8808.450710
2735.924420,0.000000,-370.102971,9548.656652
2735.924749,1532.190996,-0.000000,9400.615463
2735.925078,1762.019645,-0.000000,7994.224174
2735.925407,1149.143247,962.267725,8216.285956
2735.925737,1072.533697,1406.391290,8290.306550
2735.926066,919.314598,-0.000000,8660.409521
2735.926395,-229.828649,-0.000000,8586.388927
2735.926724,306.438199,-1110.308913,10288.862594
2735.927053,-229.828649,-222.061783,8882.471304
2735.927382,-842.705048,-2368.659014,9326.594869
2735.927711,-919.314598,-888.247130,10362.883188
2735.928040,0.000000,-1332.370696,9918.759623
2735.928369,76.609550,-1332.370696,9474.636058
2735.928698,995.924147,-0.000000,9030.512492
2735.929027,1608.800546,1184.329507,8068.244768
2735.929356,1532.190996,296.082377,7624.121203
2735.929685,1225.752797,814.226536,8586.388927
2735.930014,1608.800546,888.247130,7846.182985
2735.930344,919.314598,-0.000000,7994.224174
2735.930673,459.657299,-148.041188,9104.533087
2735.931002,536.266849,-1406.391290,9030.512492
2735.931331,-383.047749,-1110.308913,8956.491898
2735.931660,-383.047749,-370.102971,9622.677246
2735.931989,0.000000,-666.185348,9030.512492
2735.932318,-919.314598,-888.247130,9400.615463
2735.932647,153.219100,-0.000000,9326.594869
2735.932976,919.314598,-740.205942,8438.347739
2735.933305,842.705048,-74.020594,8438.347739
2735.933634,766.095498,148.041188,9178.553681
2735.933963,1302.362347,370.102971,8660.409521
2735.934292,919.314598,-0.000000,8290.306550
2735.934621,306.438199,-370.102971,9474.636058
2735.934951,612.876398,-518.144159,9474.636058
2735.935280,306.438199,-592.164754,8660.409521
2735.935609,-306.438199,-592.164754,9844.739029
2735.935938,-153.219100,-0.000000,9770.718434
2735.936267,-383.047749,-962.267725,9400.615463
2735.936596,-612.876398,-444.123565,9474.636058
2735.936925,459.657299,-370.102971,9548.656652
2735.937254,689.485948,-0.000000,8660.409521
2735.937583,0.000000,-222.061783,9030.512492
2735.937912,612.876398,888.247130,8586.388927
2735.938241,536.266849,148.041188,8734.430116
2735.938570,0.000000,-444.123565,9992.780217
2735.938899,-306.438199,740.205942,9104.533087
2735.939228,459.657299,-1258.350101,9548.656652
2735.939558,-842.705048,-0.000000,9400.615463
2735.939887,-536.266849,-0.000000,9770.718434
2735.940216,-306.438199,-814.226536,9622.677246
2735.940545,-689.485948,-74.020594,9326.594869
2735.940874,-153.219100,296.082377,10214.842000
2735.941203,766.095498,444.123565,8142.265362
2735.941532,229.828649,1036.288319,8142.265362
2735.941861,229.828649,666.185348,8734.430116
2735.942190,0.000000,-0.000000,8438.347739
2735.942519,-229.828649,296.082377,9252.574275
2735.942848,-612.876398,-888.247130,9770.718434
2735.943177,306.438199,-0.000000,8364.327145
2735.943506,-1072.533697,-592.164754,9474.636058
2735.943835,-1149.143247,-1036.288319,10288.862594
2735.944164,0.000000,-148.041188,8660.409521
2735.944494,153.219100,-296.082377,9400.615463
2735.944823,1072.533697,148.041188,9104.533087
2735.945152,1455.581446,666.185348,8438.347739
2735.945481,1685.410096,-518.144159,8734.430116
2735.945810,1532.190996,1628.453072,8142.265362
2735.946139,1532.190996,740.205942,8512.368333
2735.946468,689.485948,444.123565,7772.162391
2735.946797,689.485948,592.164754,9326.594869
2735.947126,1762.019645,-888.247130,9400.615463
2735.947455,-306.438199,-962.267725,7624.121203
2735.947784,459.657299,-740.205942,10658.965565
2735.948113,76.609550,-740.205942,8882.471304
2735.948442,0.000000,-1628.453072,9918.759623
2735.948771,0.000000,296.082377,9252.574275
2735.949101,1378.971896,-666.185348,9326.594869
2735.949430,1378.971896,666.185348,8808.450710
2735.949759,919.314598,-0.000000,8364.327145
2735.950088,1532.190996,814.226536,8808.450710
2735.950417,1072.533697,-370.102971,8734.430116
2735.950746,1149.143247,518.144159,8956.491898
2735.951075,612.876398,-74.020594,8956.491898
2735.951404,229.828649,-592.164754,8734.430116
2735.951733,-612.876398,-518.144159,9622.677246
2735.952062,0.000000,-1036.288319,9548.656652
2735.952391,-536.266849,-1332.370696,9030.512492
2735.952720,-612.876398,-1332.370696,10066.800811
2735.953049,0.000000,-740.205942,9844.739029
2735.953378,383.047749,-1110.308913,8438.347739
2735.953708,229.828649,-370.102971,8364.327145
2735.954037,766.095498,-222.061783,9474.636058
2735.954366,919.314598,-74.020594,8660.409521
2735.954695,689.485948,-0.000000,8882.471304
2735.955024,842.705048,814.226536,8882.471304
2735.955353,766.095498,-666.185348,8586.388927
2735.955682,0.000000,-0.000000,9548.656652
2735.956011,153.219100,-370.102971,9178.553681
2735.956340,306.438199,-1036.288319,8734.430116
2735.956669,-1072.533697,-888.247130,9844.739029
2735.956998,306.438199,-2294.638420,10288.862594
2735.957327,383.047749,-1332.370696,8882.471304
2735.957656,306.438199,-148.041188,7772.162391
2735.957985,153.219100,222.061783,9178.553681
2735.958314,383.047749,1110.308913,8660.409521
2735.958644,306.438199,-518.144159,8512.368333
2735.958973,919.314598,222.061783,8956.491898
2735.959302,1225.752797,666.185348,8216.285956
2735.959631,0.000000,-888.247130,8586.388927
2735.959960,-459.657299,-296.082377,9696.697840
2735.960289,0.000000,-592.164754,9178.553681
2735.960618,-229.828649,-666.185348,9326.594869
2735.960947,-536.266849,222.061783,9474.636058
2735.961276,612.876398,-814.226536,9104.533087
2735.961605,0.000000,-444.123565,8808.450710
2735.961934,-459.657299,518.144159,9178.553681
2735.962263,76.609550,-0.000000,8808.450710
2735.962592,-229.828649,-370.102971,8660.409521
2735.962921,0.000000,-0.000000,9178.553681
2735.963251,612.876398,-518.144159,9474.636058
2735.963580,76.609550,-296.082377,8808.450710
2735.963909,0.000000,444.123565,8734.430116
2735.964238,229.828649,222.061783,8512.368333
2735.964567,153.219100,296.082377,8956.491898
2735.964896,-153.219100,444.123565,9104.533087
2735.965225,459.657299,-444.123565,9030.512492
2735.965554,612.876398,-296.082377,8734.430116
2735.965883,459.657299,-296.082377,9400.615463
2735.966212,-153.219100,148.041188,9104.533087
2735.966541,-229.828649,-1184.329507,9474.636058
2735.966870,306.438199,444.123565,9326.594869
2735.967199,306.438199,814.226536,8956.491898
2735.967528,689.485948,888.247130,8512.368333
2735.967858,536.266849,740.205942,9326.594869
2735.968187,1225.752797,-740.205942,10362.883188
2735.968516,1838.629195,-444.123565,8216.285956
2735.968845,842.705048,-740.205942,9474.636058
2735.969174,1072.533697,370.102971,9696.697840
2735.969503,2068.457845,-0.000000,8586.388927
2735.969832,919.314598,518.144159,8882.471304
2735.970161,1532.190996,962.267725,10658.965565
2735.970490,1532.190996,1406.391290,8512.368333
2735.970819,306.438199,-444.123565,9030.512492
2735.971148,536.266849,2146.597232,9992.780217
2735.971477,459.657299,-1184.329507,9770.718434
2735.971806,-459.657299,-1332.370696,9844.739029
2735.972135,-766.095498,-1110.308913,9696.697840
2735.972464,842.705048,-1850.514855,9252.574275
2735.972794,-842.705048,-666.185348,9252.574275
2735.973123,0.000000,-518.144159,10881.027347
2735.973452,1225.752797,-888.247130,9178.553681
2735.973781,306.438199,296.082377,7624.121203
2735.974110,612.876398,-222.061783,9474.636058
2735.974439,612.876398,-148.041188,9104.533087
2735.974768,689.485948,370.102971,8142.265362
2735.975097,689.485948,-370.102971,8956.491898
2735.975426,919.314598,148.041188,8586.388927
2735.975755,153.219100,-1998.556043,9178.553681
2735.976084,-383.047749,-888.247130,9178.553681
2735.976413,229.828649,-518.144159,7698.141797
2735.976742,-229.828649,-962.267725,8734.430116
2735.977071,-842.705048,-592.164754,9400.615463
2735.977401,153.219100,-370.102971,8364.327145
2735.977730,0.000000,-1184.329507,8290.306550
2735.978059,229.828649,-74.020594,8808.450710
2735.978388,536.266849,296.082377,8956.491898
2735.978717,536.266849,-222.061783,8734.430116
2735.979046,383.047749,1184.329507,8512.368333
2735.979375,995.924147,-0.000000,9178.553681
2735.979704,995.924147,370.102971,9474.636058
2735.980033,536.266849,-222.061783,9178.553681
2735.980362,919.314598,518.144159,8808.450710
2735.980691,459.657299,-0.000000,8586.388927
2735.981020,306.438199,-0.000000,9178.553681
2735.981349,689.485948,-0.000000,8956.491898
2735.981678,536.266849,-518.144159,8586.388927
2735.982008,-766.095498,-814.226536,9030.512492
2735.982337,0.000000,296.082377,9400.615463
2735.982666,0.000000,-666.185348,9104.533087
2735.982995,-459.657299,-296.082377,9252.574275
2735.983324,229.828649,-518.144159,10584.944971
2735.983653,459.657299,-1702.473667,9252.574275
2735.983982,0.000000,-222.061783,9326.594869
2735.984311,612.876398,814.226536,9474.636058
2735.984640,536.266849,-444.123565,8364.327145
2735.984969,383.047749,814.226536,9474.636058
2735.985298,536.266849,1036.288319,9326.594869
2735.985627,1378.971896,-0.000000,8068.244768
2735.985956,383.047749,814.226536,8882.471304
2735.986285,306.438199,-666.185348,10214.842000
2735.986615,76.609550,-370.102971,8364.327145
2735.986944,-229.828649,-1776.494261,9770.718434
2735.987273,0.000000,-962.267725,9400.615463
2735.987602,153.219100,-962.267725,9474.636058
2735.987931,229.828649,-444.123565,9474.636058
2735.988260,536.266849,-888.247130,9474.636058
2735.988589,1225.752797,296.082377,8512.368333
2735.988918,689.485948,-444.123565,8512.368333
2735.989247,689.485948,-74.020594,9474.636058
2735.989577,995.924147,-444.123565,9326.594869
2735.989906,229.828649,-74.020594,8290.306550
2735.990235,153.219100,296.082377,9178.553681
2735.990564,766.095498,296.082377,9622.677246
2735.990893,383.047749,-888.247130,9252.574275
2735.991222,153.219100,-592.164754,9622.677246
2735.991551,689.485948,-666.185348,9326.594869
2735.991880,76.609550,-814.226536,8512.368333
2735.992210,0.000000,296.082377,9474.636058
2735.992539,689.485948,-148.041188,9178.553681
2735.992868,229.828649,-296.082377,8142.265362
2735.993197,0.000000,222.061783,8512.368333
2735.993526,1225.752797,-1036.288319,9326.594869
2735.993855,766.095498,-666.185348,8216.285956
2735.994184,76.609550,-1110.308913,8512.368333
2735.994513,689.485948,-962.267725,9104.533087
2735.994842,0.000000,-74.020594,7994.224174
2735.995172,0.000000,296.082377,9474.636058
2735.995501,536.266849,592.164754,8734.430116
2735.995830,153.219100,296.082377,8290.306550
2735.996159,229.828649,-0.000000,9178.553681
2735.996488,612.876398,-222.061783,8734.430116
2735.996817,459.657299,-444.123565,8586.388927
2735.997146,459.657299,-0.000000,8734.430116
2735.997475,689.485948,-74.020594,8586.388927
2735.997805,1149.143247,-444.123565,8808.450710
2735.998134,612.876398,-222.061783,8290.306550
2735.998463,919.314598,-0.000000,9252.574275
2735.998792,153.219100,-0.000000,8586.388927
2735.999121,0.000000,-296.082377,9030.512492
2735.999450,-383.047749,-592.164754,10362.883188
2735.999779,153.219100,-1036.288319,9474.636058
2736.000108,-229.828649,-518.144159,8956.491898
2736.000438,76.609550,-74.020594,10066.800811
2736.000767,306.438199,-222.061783,8512.368333
2736.001096,153.219100,-518.144159,9622.677246
2736.001425,383.047749,814.226536,9400.615463
2736.001754,1072.533697,-370.102971,7846.182985
2736.002083,76.609550,962.267725,9252.574275
2736.002412,0.000000,888.247130,9474.636058
2736.002741,0.000000,-0.000000,9030.512492
2736.003071,-536.266849,-296.082377,9474.636058
2736.003400,-229.828649,-1406.391290,9548.656652
2736.003729,229.828649,-888.247130,10288.862594
2736.004058,-153.219100,-1480.411884,10436.903782
2736.004387,0.000000,-1184.329507,9326.594869
2736.004716,383.047749,-222.061783,9400.615463
2736.005045,766.095498,1332.370696,9030.512492
2736.005374,1072.533697,444.123565,9474.636058
2736.005704,842.705048,370.102971,10362.883188
2736.006033,919.314598,-962.267725,8734.430116
2736.006362,153.219100,-1332.370696,9696.697840
2736.006691,306.438199,-1036.288319,9696.697840
2736.007020,0.000000,-2146.597232,8808.450710
2736.007349,0.000000,-1998.556043,10288.862594
2736.007678,536.266849,-1406.391290,9400.615463
2736.008007,459.657299,-2220.617826,9474.636058
2736.008337,459.657299,-888.247130,9104.533087
2736.008666,995.924147,-592.164754,8586.388927
2736.008995,1455.581446,-888.247130,8290.306550
2736.009324,1455.581446,-1850.514855,8586.388927
2736.009653,1762.019645,-1258.350101,8438.347739
2736.009982,2221.676944,-2368.659014,8142.265362
2736.010311,1838.629195,-2812.782580,8660.409521
2736.010640,536.266849,-3034.844362,9178.553681
2736.010970,459.657299,-1998.556043,7994.224174
2736.011299,0.000000,-2516.700203,8956.491898
2736.011628,0.000000,-2368.659014,9474.636058
2736.011957,-383.047749,-2812.782580,9326.594869
2736.012286,-229.828649,-2442.679609,9400.615463
2736.012615,919.314598,-3182.885551,9474.636058
2736.012944,842.705048,-2960.823768,8660.409521
2736.013273,689.485948,-2664.741391,8438.347739
2736.013603,1072.533697,-3478.967927,8808.450710
2736.013932,1378.971896,-1702.473667,7550.100608
2736.014261,1532.190996,-2294.638420,7550.100608
2736.014590,1072.533697,-1184.329507,7698.141797
2736.014919,306.438199,-1628.453072,8660.409521
2736.015248,-689.485948,-2072.576638,8734.430116
2736.015577,-1072.533697,-4293.194464,8290.306550
2736.015906,-1225.752797,-5773.606348,10881.027347
2736.016236,-1302.362347,-6217.729913,10362.883188
2736.016565,-1532.190996,-5551.544565,10658.965565
2736.016894,-689.485948,-6439.791695,11547.212695
2736.017223,306.438199,-3108.864956,8438.347739
2736.017552,459.657299,-1776.494261,8290.306550
2736.017881,1915.238745,-1258.350101,8290.306550
2736.018210,2681.334243,-1036.288319,7328.038826
2736.018539,3370.820191,-0.000000,7328.038826
2736.018869,2528.115143,-1406.391290,7031.956449
2736.019198,1838.629195,-3627.009116,9178.553681
2736.019527,919.314598,-4219.173869,9104.533087
2736.019856,-153.219100,-5181.441594,8660.409521
2736.020185,-1378.971896,-5181.441594,10436.903782
2736.020514,-1149.143247,-5847.626942,10362.883188
2736.020843,-1532.190996,-4959.379811,10288.862594
2736.021172,-2451.505594,-3627.009116,10658.965565
2736.021502,-919.314598,-4737.318029,10584.944971
2736.021831,153.219100,-3701.029710,8956.491898
2736.022160,229.828649,-1110.308913,8956.491898
2736.022489,1225.752797,-3034.844362,9918.759623
2736.022818,2528.115143,-2812.782580,8808.450710
2736.023147,3753.867940,-1776.494261,7105.977043
2736.023476,3064.381992,-1332.370696,6883.915261
2736.023805,1838.629195,-1702.473667,8142.265362
2736.024134,1225.752797,-2516.700203,8808.450710
2736.024464,842.705048,-2368.659014,8364.327145
2736.024793,-1302.362347,-1776.494261,8438.347739
2736.025122,-2068.457845,-5033.400406,10214.842000
2736.025451,-2068.457845,-6291.750507,11103.089130
2736.025780,-1685.410096,-5847.626942,10955.047942
2736.026109,-1762.019645,-6365.771101,10584.944971
2736.026438,-2298.286494,-5403.503377,10584.944971
2736.026767,-1455.581446,-4367.215058,11029.068536
2736.027097,2145.067394,-2368.659014,9030.512492
2736.027426,2221.676944,-74.020594,6735.874072
2736.027755,2451.505594,-370.102971,7105.977043
2736.028084,3217.601092,-444.123565,7550.100608
2736.028413,4060.306139,-518.144159,7105.977043
2736.028742,2987.772442,-2442.679609,6513.812290
2736.029071,995.924147,-3775.050304,7402.059420
2736.029400,-306.438199,-4737.318029,9918.759623
2736.029730,-536.266849,-5329.482782,10362.883188
2736.030059,-1149.143247,-6069.688724,9548.656652
2736.030388,-2145.067394,-4737.318029,9474.636058
2736.030717,-2221.676944,-3552.988522,9770.718434
2736.031046,-1302.362347,-3404.947333,10436.903782
2736.031375,76.609550,-3330.926739,9400.615463
2736.031704,689.485948,-2590.720797,8808.450710
2736.032033,612.876398,-2442.679609,8734.430116
2736.032363,1915.238745,-1850.514855,8512.368333
2736.032692,3524.039291,-2294.638420,8216.285956
2736.033021,3753.867940,-962.267725,7476.080014
2736.033350,3524.039291,-0.000000,7328.038826
2736.033679,1838.629195,-888.247130,7994.224174
2736.034008,2298.286494,-1184.329507,8364.327145
2736.034337,2298.286494,-1702.473667,8290.306550
2736.034666,536.266849,-2960.823768,8734.430116
2736.034996,-1072.533697,-4441.235652,9770.718434
2736.035325,-2298.286494,-5403.503377,11695.253884
2736.035654,-2298.286494,-4885.359217,11473.192101
2736.035983,-1685.410096,-4441.235652,10807.006753
2736.036312,-1225.752797,-3552.988522,10362.883188
2736.036641,-919.314598,-2590.720797,10510.924376
2736.036970,0.000000,-1332.370696,9844.739029
2736.037299,1072.533697,-1184.329507,8216.285956
2736.037629,1991.848295,-1184.329507,7624.121203
2736.037958,2451.505594,-1406.391290,8364.327145
2736.038287,1991.848295,-2886.803174,8808.450710
2736.038616,1225.752797,-3552.988522,9400.615463
2736.038945,842.705048,-4219.173869,8290.306550
2736.039274,766.095498,-2960.823768,8068.244768
2736.039603,229.828649,-2590.720797,8808.450710
2736.039932,-229.828649,-3034.844362,9548.656652
2736.040262,-766.095498,-2590.720797,9696.697840
2736.040591,-842.705048,-2590.720797,9178.553681
2736.040920,-1072.533697,-2738.761985,7920.203579
2736.041249,0.000000,-3849.070898,9104.533087
2736.041578,-383.047749,-4367.215058,9696.697840
2736.041907,0.000000,-5477.523971,10066.800811
2736.042236,0.000000,-4959.379811,8882.471304
2736.042565,0.000000,-3997.112087,8290.306550
2736.042895,153.219100,-2294.638420,7698.141797
2736.043224,0.000000,-1850.514855,8142.265362
2736.043553,153.219100,-2368.659014,8808.450710
2736.043882,766.095498,-2886.803174,8586.388927
2736.044211,1149.143247,-3034.844362,8808.450710
2736.044540,612.876398,-4219.173869,8734.430116
2736.044869,536.266849,-4663.297435,8586.388927
2736.045198,995.924147,-4811.338623,9178.553681
2736.045528,1608.800546,-4441.235652,9400.615463
2736.045857,1378.971896,-3701.029710,9252.574275
2736.046186,1378.971896,-3034.844362,9104.533087
2736.046515,919.314598,-1924.535449,8364.327145
2736.046844,612.876398,-1628.453072,8512.368333
2736.047173,0.000000,-1998.556043,9030.512492
2736.047502,-1685.410096,-2442.679609,9770.718434
2736.047831,-612.876398,-2960.823768,10066.800811
2736.048161,-383.047749,-4071.132681,10214.842000
2736.048490,0.000000,-4885.359217,10288.862594
2736.048819,842.705048,-4737.318029,9844.739029
2736.049148,1225.752797,-3775.050304,9030.512492
2736.049477,1991.848295,-2442.679609,7994.224174
2736.049806,3064.381992,-1110.308913,7328.038826
2736.050135,3907.087040,370.102971,6957.935855
2736.050464,3370.820191,-518.144159,7328.038826
2736.050794,2681.334243,-1850.514855,7772.162391
2736.051123,1225.752797,-3627.009116,8882.471304
2736.051452,-919.314598,-4441.235652,9622.677246
2736.051781,-2145.067394,-5403.503377,10955.047942
2736.052110,-2987.772442,-6439.791695,11251.130318
2736.052439,-3830.477490,-5329.482782,11029.068536
2736.052768,-2834.553343,-4219.173869,10881.027347
2736.053097,-2451.505594,-3404.947333,9474.636058
2736.053427,-1532.190996,-3108.864956,9104.533087
2736.053756,383.047749,-3627.009116,9252.574275
2736.054085,2451.505594,-3256.906145,8290.306550
2736.054414,4060.306139,-2960.823768,7772.162391
2736.054743,4673.182538,-3182.885551,6513.812290
2736.055072,4596.572988,-2146.597232,7105.977043
2736.055401,4596.572988,-1258.350101,6883.915261
2736.055730,4519.963438,-444.123565,6513.812290
2736.056059,3677.258390,-962.267725,7105.977043
2736.056389,2987.772442,-1480.411884,7550.100608
2736.056718,-919.314598,-3034.844362,10362.883188
2736.057047,-3600.648841,-6439.791695,12139.377449
2736.057376,-4596.572988,-5625.565159,11991.336260
2736.057705,-4366.744339,-8882.471304,13693.809927
2736.058034,-4979.620737,-4959.379811,9400.615463
2736.058363,-3447.429741,-4663.297435,11843.295072
2736.058692,-2298.286494,-4367.215058,9622.677246
2736.059022,-1915.238745,-2220.617826,9030.512492
2736.059351,-919.314598,-1924.535449,9252.574275
2736.059680,3140.991542,-1554.432478,10955.047942
2736.060009,3524.039291,888.247130,3997.112087
2736.060338,5286.058936,-1110.308913,7624.121203
2736.060667,3600.648841,-518.144159,5699.585753
2736.060996,5286.058936,962.267725,6513.812290
2736.061325,4519.963438,-1036.288319,7550.100608
2736.061655,3370.820191,1480.411884,5181.441594
2736.061984,3294.210641,-148.041188,8438.347739
2736.062313,1378.971896,-888.247130,7772.162391
2736.062642,-3140.991542,-5181.441594,11769.274478
2736.062971,-3753.867940,-7994.224174,14211.954086
2736.063300,-2451.505594,-4737.318029,12065.356855
2736.063629,-2681.334243,-9696.697840,13027.624579
2736.063958,-3983.696590,-5995.668130,9548.656652
2736.064288,-2451.505594,-5403.503377,12139.377449
2736.064617,306.438199,-5847.626942,10362.883188
2736.064946,2604.724693,-518.144159,6365.771101
2736.065275,4596.572988,666.185348,5773.606348
2736.065604,4673.182538,1332.370696,4959.379811
2736.065933,3370.820191,1628.453072,7402.059420
2736.066262,2834.553343,-370.102971,5625.565159
2736.066591,1378.971896,-2590.720797,8216.285956
2736.066921,-689.485948,-6365.771101,10955.047942
2736.067250,-2068.457845,-6957.935855,11325.150913
2736.067579,-4673.182538,-5477.523971,13397.727550
2736.067908,-4519.963438,-8068.244768,12509.480420
2736.068237,-4213.525239,-3775.050304,10584.944971
2736.068566,-2068.457845,-3701.029710,10066.800811
2736.068895,-2068.457845,-1998.556043,8808.450710
2736.069224,-2145.067394,-2294.638420,9030.512492
2736.069554,1762.019645,-4219.173869,11103.089130
2736.069883,3447.429741,-1184.329507,4589.276840
2736.070212,4826.401637,-1184.329507,6957.935855
2736.070541,2221.676944,-962.267725,4663.297435
2736.070870,4596.572988,-740.205942,7179.997637
2736.071199,2604.724693,1554.432478,5699.585753
2736.071528,2451.505594,2738.761985,4811.338623
2736.071857,2145.067394,-888.247130,8216.285956
2736.072187,-3064.381992,-1924.535449,11325.150913
2736.072516,-4596.572988,-5921.647536,11991.336260
2736.072845,-5822.325785,-4515.256246,11917.315666
2736.073174,-5132.839837,-5847.626942,12139.377449
2736.073503,-5898.935335,-4145.153275,10066.800811
2736.073832,-4366.744339,-3330.926739,11029.068536
2736.074161,-4290.134789,-740.205942,9178.553681
2736.074490,-3370.820191,-1776.494261,8882.471304
2736.074820,-1762.019645,518.144159,7031.956449
2736.075149,-2681.334243,740.205942,7105.977043
2736.075478,-3524.039291,592.164754,9844.739029
2736.075807,-4060.306139,-2220.617826,8586.388927
2736.076136,-1378.971896,-1702.473667,9030.512492
2736.076465,-459.657299,-1406.391290,7254.018232
2736.076794,229.828649,-2516.700203,7772.162391
2736.077123,-1149.143247,444.123565,8438.347739
2736.077453,-1455.581446,666.185348,9474.636058
2736.077782,-1838.629195,1480.411884,9844.739029
2736.078111,-1915.238745,962.267725,8956.491898
2736.078440,-3370.820191,1332.370696,10066.800811
2736.078769,-2911.162892,148.041188,10066.800811
2736.079098,-2834.553343,-814.226536,9400.615463
2736.079427,-1991.848295,-1850.514855,9178.553681
2736.079756,-1685.410096,-2368.659014,9696.697840
2736.080086,-2451.505594,-1258.350101,9030.512492
2736.080415,-2451.505594,-1184.329507,9104.533087
2736.080744,-2374.896044,-0.000000,7994.224174
2736.081073,-2451.505594,-0.000000,8512.368333
2736.081402,-1991.848295,370.102971,9622.677246
2736.081731,-1838.629195,-1036.288319,9622.677246
2736.082060,-2681.334243,-1036.288319,10288.862594
2736.082389,-3294.210641,-1258.350101,9992.780217
2736.082719,-3294.210641,-1110.308913,10807.006753
2736.083048,-4366.744339,-1036.288319,11473.192101
2736.083377,-3370.820191,1036.288319,10362.883188
2736.083706,-2221.676944,1110.308913,9178.553681
2736.084035,-1762.019645,1554.432478,7920.203579
2736.084364,-1685.410096,1480.411884,7624.121203
2736.084693,-1991.848295,888.247130,7698.141797
2736.085022,-2451.505594,740.205942,7105.977043
2736.085352,-2604.724693,-0.000000,7328.038826
2736.085681,-2451.505594,-1332.370696,7920.203579
2736.086010,-3294.210641,-1480.411884,8364.327145
2736.086339,-3830.477490,-1554.432478,8808.450710
2736.086668,-2834.553343,-2516.700203,9770.718434
2736.086997,-3140.991542,-1036.288319,8956.491898
2736.087326,-3064.381992,-888.247130,9992.780217
2736.087655,-3830.477490,-1110.308913,10140.821405
2736.087984,-4290.134789,-518.144159,10658.965565
2736.088314,-4290.134789,296.082377,10807.006753
2736.088643,-3140.991542,592.164754,9104.533087
2736.088972,-3064.381992,666.185348,8808.450710
2736.089301,-2528.115143,370.102971,8512.368333
2736.089630,-2528.115143,-0.000000,7846.182985
2736.089959,-3064.381992,-592.164754,8068.244768
2736.090288,-2987.772442,-1036.288319,8290.306550
2736.090617,-2451.505594,-1628.453072,7846.182985
2736.090946,-1685.410096,-2294.638420,8586.388927
2736.091275,-1225.752797,-1924.535449,7698.141797
2736.091604,-153.219100,-1702.473667,8734.430116
2736.091933,-383.047749,-148.041188,8512.368333
2736.092262,0.000000,1258.350101,8808.450710
2736.092591,-766.095498,2072.576638,9400.615463
2736.092920,-919.314598,2072.576638,9104.533087
2736.093250,-995.924147,2220.617826,9178.553681
2736.093579,-1838.629195,1776.494261,8882.471304
2736.093908,-2757.943793,740.205942,9178.553681
2736.094237,-3677.258390,740.205942,9178.553681
2736.094566,-3830.477490,-0.000000,8660.409521
2736.094895,-3907.087040,-592.164754,8586.388927
2736.095224,-3677.258390,-888.247130,7994.224174
2736.095553,-3907.087040,-1406.391290,9030.512492
2736.095882,-4213.525239,-2442.679609,9400.615463
2736.096211,-3677.258390,-2294.638420,10140.821405
2736.096540,-3294.210641,-2812.782580,10214.842000
2736.096869,-3600.648841,-2960.823768,11177.109724
2736.097198,-3217.601092,-2368.659014,12139.377449
2736.097527,-2911.162892,-740.205942,11843.295072
2736.097856,-3064.381992,592.164754,10881.027347
2736.098185,-2221.676944,2146.597232,11325.150913
2736.098514,-1532.190996,2516.700203,10066.800811
2736.098843,459.657299,3330.926739,8364.327145
2736.099172,842.705048,4737.318029,5107.421000
2736.099501,842.705048,4219.173869,5107.421000
2736.099830,-459.657299,3701.029710,4293.194464
2736.100159,-536.266849,2368.659014,5773.606348
2736.100488,-2528.115143,-592.164754,6661.853478
2736.100818,-3753.867940,-3404.947333,8660.409521
2736.101147,-3600.648841,-4663.297435,9992.780217
2736.101476,-5362.668486,-3627.009116,8290.306550
2736.101805,-6511.811733,-4885.359217,12657.521608
2736.102134,-7354.516781,-5033.400406,15988.448347
2736.102463,-6205.373534,-2812.782580,14656.077652
2736.102792,-4979.620737,-1332.370696,13323.706956
2736.103121,-3217.601092,666.185348,9696.697840
2736.103450,-1302.362347,2220.617826,8956.491898
2736.103779,-2528.115143,4663.297435,7920.203579
2736.104108,459.657299,2368.659014,11103.089130
2736.104437,383.047749,4219.173869,3775.050304
2736.104766,3907.087040,3478.967927,5181.441594
2736.105095,919.314598,3034.844362,1184.329507
2736.105424,306.438199,1776.494261,4293.194464
2736.105753,-1608.800546,-1628.453072,7476.080014
2736.106082,-2911.162892,-4663.297435,8660.409521
2736.106411,-2068.457845,-5921.647536,12953.603985
2736.106740,-3983.696590,-2590.720797,10214.842000
2736.107069,-5056.230287,-2960.823768,10658.965565
2736.107398,-6281.983084,-1628.453072,14063.912898
2736.107727,-3907.087040,-0.000000,12287.418637
2736.108056,-4060.306139,296.082377,11917.315666
2736.108386,-2757.943793,2368.659014,11029.068536
2736.108715,-2757.943793,4071.132681,8364.327145
2736.109044,-2757.943793,814.226536,8808.450710
2736.109373,-3907.087040,2368.659014,6513.812290
2736.109702,-3524.039291,-518.144159,7698.141797
2736.110031,-3217.601092,-2220.617826,7994.224174
2736.110360,-2757.943793,-1036.288319,6661.853478
2736.110689,-2604.724693,-2220.617826,7179.997637
2736.111018,-3447.429741,-1998.556043,7031.956449
2736.111347,-3983.696590,-1924.535449,8364.327145
2736.111676,-2911.162892,-2516.700203,10288.862594
2736.112005,-2681.334243,296.082377,10658.965565
2736.112334,-2451.505594,740.205942,10436.903782
2736.112663,-2604.724693,-0.000000,10510.924376
2736.112992,-2987.772442,-0.000000,11473.192101
2736.113321,-2221.676944,-1184.329507,11991.336260
2736.113650,-612.876398,592.164754,8512.368333
2736.113979,-459.657299,1776.494261,8512.368333
2736.114308,-459.657299,2146.597232,7105.977043
2736.114637,-1302.362347,2664.741391,5551.544565
2736.114966,-766.095498,-0.000000,6883.915261
2736.115295,-842.705048,-740.205942,6291.750507
2736.115625,-1532.190996,-1554.432478,6661.853478
2736.115954,-3370.820191,-2960.823768,8216.285956
2736.116283,-3753.867940,-3256.906145,9326.594869
2736.116612,-4136.915689,-2886.803174,9992.780217
2736.116941,-3907.087040,-1406.391290,10658.965565
2736.117270,-3830.477490,-592.164754,10658.965565
2736.117599,-3983.696590,296.082377,11473.192101
2736.117928,-3217.601092,592.164754,11843.295072
2736.118257,-2528.115143,1036.288319,9770.718434
2736.118586,-2528.115143,444.123565,10066.800811
2736.118915,-2911.162892,888.247130,9474.636058
2736.119244,-2374.896044,-518.144159,10214.842000
2736.119573,-1915.238745,-296.082377,7994.224174
2736.119902,0.000000,-0.000000,6291.750507
2736.120231,-229.828649,-0.000000,5329.482782
2736.120560,0.000000,1554.432478,6439.791695
2736.120889,-229.828649,222.061783,7550.100608
2736.121218,-689.485948,-370.102971,7994.224174
2736.121547,-1455.581446,-1258.350101,9030.512492
2736.121876,-2604.724693,-1924.535449,10362.883188
2736.122205,-3064.381992,-1406.391290,11399.171507
2736.122534,-3677.258390,-370.102971,11843.295072
2736.122863,-3217.601092,370.102971,11103.089130
2736.123193,-2451.505594,518.144159,10881.027347
2736.123522,-1685.410096,296.082377,10955.047942
2736.123851,-1608.800546,1776.494261,9548.656652
2736.124180,-1685.410096,888.247130,8364.327145
2736.124509,-2145.067394,-444.123565,7772.162391
2736.124838,-1762.019645,-296.082377,8364.327145
2736.125167,-1915.238745,-1110.308913,7550.100608
2736.125496,-3140.991542,-222.061783,7105.977043
2736.125825,-3447.429741,-1184.329507,7698.141797
2736.126154,-2834.553343,-962.267725,8512.368333
2736.126483,-3677.258390,-814.226536,8586.388927
2736.126812,-2987.772442,-814.226536,9474.636058
2736.127141,-3830.477490,-1776.494261,10584.944971
2736.127470,-4979.620737,-518.144159,10807.006753
2736.127799,-4903.011187,888.247130,10362.883188
2736.128128,-4443.353888,370.102971,10288.862594
2736.128457,-4060.306139,592.164754,9622.677246
2736.128786,-3447.429741,592.164754,10214.842000
2736.129115,-3447.429741,-1258.350101,9400.615463
2736.129444,-3677.258390,-1702.473667,9104.533087
2736.129773,-3064.381992,-1036.288319,8512.368333
2736.130102,-3447.429741,-74.020594,7624.121203
2736.130431,-2681.334243,-740.205942,7476.080014
2736.130761,-2604.724693,-888.247130,7328.038826
2736.131090,-2221.676944,-666.185348,8438.347739
2736.131419,-2374.896044,-222.061783,8290.306550
2736.131748,-1915.238745,-2294.638420,9178.553681
2736.132077,-1991.848295,-814.226536,9400.615463
2736.132406,-766.095498,1332.370696,8290.306550
2736.132735,-766.095498,1184.329507,8734.430116
2736.133064,0.000000,1924.535449,8586.388927
2736.133393,-689.485948,888.247130,9622.677246
2736.133722,-766.095498,888.247130,9178.553681
2736.134051,-689.485948,-222.061783,8660.409521
2736.134380,-1072.533697,-296.082377,9178.553681
2736.134709,-2604.724693,-0.000000,9474.636058
2736.135038,-3447.429741,-518.144159,8364.327145
2736.135367,-3217.601092,-1628.453072,9252.574275
2736.135696,-3064.381992,-962.267725,9548.656652
2736.136025,-2528.115143,-1776.494261,8882.471304
2736.136354,-2374.896044,-1628.453072,8956.491898
2736.136683,-3217.601092,-1776.494261,9918.759623
2736.137012,-2834.553343,-740.205942,11029.068536
2736.137341,-1532.190996,222.061783,9178.553681
2736.137670,-1608.800546,-666.185348,10807.006753
2736.138000,0.000000,-888.247130,11399.171507
2736.138329,1915.238745,370.102971,9548.656652
2736.138658,1838.629195,1258.350101,9918.759623
2736.138987,1838.629195,1628.453072,8290.306550
2736.139316,3677.258390,1332.370696,8438.347739
2736.139645,2451.505594,2072.576638,8216.285956
2736.139974,3294.210641,1628.453072,8734.430116
2736.140303,2145.067394,-370.102971,8068.244768
2736.140632,306.438199,444.123565,7328.038826
