#time,accel_x,accel_y,accel_z
2629.500986,76.609550,-74.020594,8956.491898
2629.501315,0.000000,-74.020594,9104.533087
2629.501644,306.438199,-222.061783,8956.491898
2629.501974,306.438199,-296.082377,8956.491898
2629.502303,689.485948,-370.102971,8808.450710
2629.502632,0.000000,-74.020594,9030.512492
2629.502961,536.266849,-74.020594,9104.533087
2629.503290,76.609550,-0.000000,8956.491898
2629.503619,536.266849,-74.020594,8882.471304
2629.503949,612.876398,-0.000000,9178.553681
2629.504278,306.438199,-370.102971,8956.491898
2629.504607,229.828649,-444.123565,9252.574275
2629.504936,306.438199,-222.061783,9400.615463
2629.505265,229.828649,-222.061783,9252.574275
2629.505594,229.828649,-148.041188,9326.594869
2629.505924,383.047749,-148.041188,9252.574275
2629.506253,536.266849,-296.082377,9252.574275
2629.506582,76.609550,-222.061783,9474.636058
2629.506911,306.438199,-296.082377,9326.594869
2629.507240,536.266849,-74.020594,9474.636058
2629.507570,459.657299,-296.082377,8882.471304
2629.507899,306.438199,-74.020594,9252.574275
2629.508228,306.438199,-148.041188,9178.553681
2629.508557,153.219100,-148.041188,8956.491898
2629.508886,383.047749,-222.061783,9326.594869
2629.509215,612.876398,-296.082377,9104.533087
2629.509545,-153.219100,-0.000000,9400.615463
2629.509874,229.828649,-0.000000,9104.533087
2629.510203,153.219100,-0.000000,9178.553681
2629.510532,306.438199,-222.061783,8956.491898
2629.510861,842.705048,-148.041188,8734.430116
2629.511190,612.876398,-370.102971,9030.512492
2629.511520,153.219100,-74.020594,9474.636058
2629.511849,306.438199,-148.041188,8882.471304
2629.512178,306.438199,-0.000000,8808.450710
2629.512507,306.438199,-148.041188,8808.450710
2629.512836,306.438199,-0.000000,8734.430116
2629.513166,306.438199,-296.082377,8882.471304
2629.513495,229.828649,-0.000000,9104.533087
2629.513824,0.000000,-74.020594,9252.574275
2629.514153,383.047749,-296.082377,9104.533087
2629.514482,459.657299,-222.061783,8956.491898
2629.514811,459.657299,-74.020594,9030.512492
2629.515141,229.828649,-148.041188,9030.512492
2629.515470,76.609550,-296.082377,9326.594869
2629.515799,612.876398,-592.164754,9104.533087
2629.516128,689.485948,-148.041188,9548.656652
2629.516457,536.266849,-370.102971,9400.615463
2629.516787,76.609550,-0.000000,9178.553681
2629.517116,536.266849,-222.061783,9326.594869
2629.517445,459.657299,-222.061783,9178.553681
2629.517774,153.219100,-444.123565,9326.594869
2629.518103,76.609550,-222.061783,9474.636058
2629.518432,919.314598,-740.205942,9104.533087
2629.518762,536.266849,-148.041188,9474.636058
2629.519091,306.438199,-74.020594,9252.574275
2629.519420,229.828649,-74.020594,8808.450710
2629.519749,383.047749,-222.061783,8882.471304
2629.520078,766.095498,-74.020594,9178.553681
2629.520407,459.657299,-74.020594,9252.574275
2629.520737,766.095498,-222.061783,9030.512492
2629.521066,306.438199,-222.061783,8882.471304
2629.521395,306.438199,-148.041188,8956.491898
2629.521724,383.047749,-148.041188,8882.471304
2629.522053,306.438199,-148.041188,8808.450710
2629.522383,306.438199,-148.041188,9030.512492
2629.522712,76.609550,-296.082377,8956.491898
2629.523041,306.438199,-296.082377,9178.553681
2629.523370,76.609550,-0.000000,8808.450710
2629.523699,76.609550,-0.000000,8882.471304
2629.524028,383.047749,-0.000000,8734.430116
2629.524358,229.828649,-74.020594,8956.491898
2629.524687,995.924147,-0.000000,9252.574275
2629.525016,153.219100,-0.000000,9030.512492
2629.525345,459.657299,-74.020594,9104.533087
2629.525674,459.657299,-148.041188,9104.533087
2629.526003,459.657299,-0.000000,9252.574275
2629.526333,383.047749,-222.061783,9178.553681
2629.526662,306.438199,-296.082377,9178.553681
2629.526991,229.828649,-148.041188,8956.491898
2629.527320,229.828649,-296.082377,9178.553681
2629.527649,229.828649,-0.000000,9178.553681
2629.527979,612.876398,-370.102971,8956.491898
2629.528308,-383.047749,-370.102971,9178.553681
2629.528637,766.095498,-370.102971,9400.615463
2629.528966,459.657299,-0.000000,9178.553681
2629.529295,229.828649,-148.041188,8956.491898
2629.529624,383.047749,-296.082377,9104.533087
2629.529954,383.047749,-222.061783,9104.533087
2629.530283,459.657299,-222.061783,9104.533087
2629.530612,536.266849,-888.247130,9178.553681
2629.530941,919.314598,-1036.288319,9696.697840
2629.531270,1302.362347,-962.267725,9326.594869
2629.531599,1378.971896,-444.123565,9400.615463
2629.531929,1991.848295,-370.102971,9252.574275
2629.532258,2374.896044,-74.020594,9030.512492
2629.532587,3370.820191,296.082377,8882.471304
2629.532916,3830.477490,-0.000000,8882.471304
2629.533245,4749.792088,-222.061783,8068.244768
2629.533575,3064.381992,518.144159,8586.388927
2629.533904,2987.772442,518.144159,8290.306550
2629.534233,2528.115143,-0.000000,8734.430116
2629.534562,3140.991542,-370.102971,9400.615463
2629.534891,1378.971896,-888.247130,9178.553681
2629.535220,1762.019645,-1332.370696,9992.780217
2629.535550,1762.019645,-2442.679609,9696.697840
2629.535879,2681.334243,-666.185348,9030.512492
2629.536208,2298.286494,-814.226536,9548.656652
2629.536537,3217.601092,-1036.288319,9474.636058
2629.536866,3370.820191,-0.000000,9178.553681
2629.537196,5286.058936,1258.350101,8808.450710
2629.537525,5822.325785,296.082377,7254.018232
2629.537854,4596.572988,962.267725,9030.512492
2629.538183,5209.449386,1036.288319,8438.347739
2629.538512,4136.915689,962.267725,7550.100608
2629.538841,4136.915689,592.164754,8956.491898
2629.539171,2911.162892,-0.000000,8734.430116
2629.539500,2528.115143,-0.000000,9400.615463
2629.539829,1455.581446,-1332.370696,9992.780217
2629.540158,2221.676944,-1036.288319,9696.697840
2629.540487,1072.533697,-1480.411884,9696.697840
2629.540816,842.705048,-814.226536,10214.842000
2629.541146,1378.971896,-444.123565,9770.718434
2629.541475,2681.334243,148.041188,9696.697840
2629.541804,3217.601092,-0.000000,8216.285956
2629.542133,4443.353888,962.267725,9844.739029
2629.542462,4060.306139,888.247130,8068.244768
2629.542792,4443.353888,1110.308913,8290.306550
2629.543121,4519.963438,1110.308913,8808.450710
2629.543450,4213.525239,-0.000000,8660.409521
2629.543779,3140.991542,-222.061783,9030.512492
2629.544108,3064.381992,-1776.494261,9844.739029
2629.544437,2604.724693,-1332.370696,10066.800811
2629.544767,2298.286494,-2368.659014,10066.800811
2629.545096,2221.676944,-1776.494261,9770.718434
2629.545425,2451.505594,-1258.350101,9844.739029
2629.545754,2911.162892,-296.082377,9548.656652
2629.546083,3447.429741,-148.041188,8438.347739
2629.546412,4366.744339,1036.288319,8512.368333
2629.546742,4443.353888,2072.576638,7698.141797
2629.547071,5132.839837,2442.679609,7328.038826
2629.547400,4443.353888,2516.700203,6883.915261
2629.547729,4443.353888,2294.638420,7550.100608
2629.548058,3830.477490,1406.391290,7698.141797
2629.548388,2911.162892,-222.061783,8438.347739
2629.548717,2374.896044,-1258.350101,9474.636058
2629.549046,1685.410096,-2886.803174,10066.800811
2629.549375,2068.457845,-3108.864956,10732.986159
2629.549704,1685.410096,-3256.906145,11029.068536
2629.550033,2451.505594,-2738.761985,10955.047942
2629.550363,3447.429741,-1406.391290,10214.842000
2629.550692,4903.011187,-0.000000,9548.656652
2629.551021,5822.325785,962.267725,8586.388927
2629.551350,6052.154434,1924.535449,7920.203579
2629.551679,5362.668486,3034.844362,7772.162391
2629.552009,4519.963438,3552.988522,7402.059420
2629.552338,4596.572988,3849.070898,6735.874072
2629.552667,3753.867940,1850.514855,7550.100608
2629.552996,1838.629195,-0.000000,8290.306550
2629.553325,76.609550,-2664.741391,10732.986159
2629.553654,-1532.190996,-3997.112087,10881.027347
2629.553984,-1225.752797,-5181.441594,12435.459826
2629.554313,-1225.752797,-3997.112087,10584.944971
2629.554642,-459.657299,-2294.638420,11325.150913
2629.554971,229.828649,-1332.370696,10362.883188
2629.555300,1378.971896,370.102971,9918.759623
2629.555629,4366.744339,148.041188,10510.924376
2629.555959,6435.202183,2294.638420,7846.182985
2629.556288,7967.393179,962.267725,8216.285956
2629.556617,5669.106685,1332.370696,7105.977043
2629.556946,6358.592633,2072.576638,6735.874072
2629.557275,5822.325785,3552.988522,6957.935855
2629.557605,5515.887586,2368.659014,5773.606348
2629.557934,5439.278036,2960.823768,6069.688724
2629.558263,4749.792088,2442.679609,5699.585753
2629.558592,4366.744339,-370.102971,7105.977043
2629.558921,919.314598,-4737.318029,10436.903782
2629.559250,-306.438199,-7920.203579,12731.542202
2629.559580,-1915.238745,-3330.926739,11325.150913
2629.559909,-1225.752797,-7772.162391,14508.036463
2629.560238,-2221.676944,-2738.761985,10510.924376
2629.560567,1149.143247,-444.123565,12361.439231
2629.560896,3600.648841,666.185348,10955.047942
2629.561225,5439.278036,2516.700203,9400.615463
2629.561555,8273.831378,1184.329507,9474.636058
2629.561884,7660.954980,2590.720797,8734.430116
2629.562213,8273.831378,3849.070898,6661.853478
2629.562542,7967.393179,3627.009116,4959.379811
2629.562871,7584.345430,740.205942,6069.688724
2629.563201,6971.469032,2442.679609,5255.462188
2629.563530,6435.202183,1036.288319,6661.853478
2629.563859,4290.134789,2146.597232,5551.544565
2629.564188,4136.915689,-592.164754,7846.182985
2629.564517,0.000000,-4885.359217,11917.315666
2629.564846,-1838.629195,-6439.791695,12953.603985
2629.565176,-2298.286494,-370.102971,11769.274478
2629.565505,-1838.629195,-7031.956449,12287.418637
2629.565834,-1762.019645,-0.000000,10658.965565
2629.566163,1991.848295,1406.391290,12953.603985
2629.566492,1225.752797,1332.370696,10362.883188
2629.566821,-306.438199,1332.370696,11843.295072
2629.567151,7354.516781,-1998.556043,10214.842000
2629.567480,9269.755526,2220.617826,5551.544565
2629.567809,6281.983084,1406.391290,8290.306550
2629.568138,5515.887586,518.144159,4589.276840
2629.568467,7354.516781,2516.700203,6513.812290
2629.568797,7201.297681,370.102971,6809.894666
2629.569126,5975.544884,4071.132681,2516.700203
2629.569455,4290.134789,962.267725,9918.759623
2629.569784,1455.581446,962.267725,6661.853478
2629.570113,4290.134789,2368.659014,7772.162391
2629.570442,1302.362347,-888.247130,8290.306550
2629.570772,76.609550,-2516.700203,11029.068536
2629.571101,-995.924147,-1850.514855,11843.295072
2629.571430,-995.924147,-4737.318029,13323.706956
2629.571759,-2298.286494,-2368.659014,10288.862594
2629.572088,-1762.019645,-296.082377,11399.171507
2629.572418,-153.219100,-666.185348,10362.883188
2629.572747,-1302.362347,1332.370696,9104.533087
2629.573076,766.095498,-0.000000,8438.347739
2629.573405,1915.238745,888.247130,8660.409521
2629.573734,1838.629195,1480.411884,7105.977043
2629.574063,2374.896044,-666.185348,7698.141797
2629.574393,1225.752797,-1776.494261,6735.874072
2629.574722,1225.752797,-1554.432478,9770.718434
2629.575051,842.705048,-1628.453072,10288.862594
2629.575380,-383.047749,-148.041188,9252.574275
2629.575709,-842.705048,-222.061783,9548.656652
2629.576038,459.657299,1702.473667,9400.615463
2629.576368,0.000000,814.226536,9474.636058
2629.576697,-306.438199,-1110.308913,10436.903782
2629.577026,306.438199,-148.041188,9548.656652
2629.577355,766.095498,888.247130,9474.636058
2629.577684,1378.971896,1480.411884,8290.306550
2629.578014,1608.800546,370.102971,8290.306550
2629.578343,1302.362347,-1406.391290,8438.347739
2629.578672,1225.752797,-1110.308913,8660.409521
2629.579001,842.705048,-0.000000,7846.182985
2629.579330,0.000000,296.082377,8438.347739
2629.579660,0.000000,-222.061783,8808.450710
2629.579989,-612.876398,-1554.432478,9548.656652
2629.580318,-919.314598,-1702.473667,10140.821405
2629.580647,-1225.752797,-1110.308913,9474.636058
2629.580976,-689.485948,370.102971,9918.759623
2629.581305,-459.657299,444.123565,9844.739029
2629.581635,229.828649,-74.020594,9474.636058
2629.581964,1225.752797,222.061783,9696.697840
2629.582293,2374.896044,814.226536,8660.409521
2629.582622,1991.848295,1110.308913,8438.347739
2629.582951,1991.848295,1036.288319,8068.244768
2629.583281,1838.629195,-0.000000,8290.306550
2629.583610,2374.896044,-370.102971,8734.430116
2629.583939,1762.019645,296.082377,8364.327145
2629.584268,842.705048,-0.000000,8660.409521
2629.584597,-383.047749,-962.267725,9178.553681
2629.584927,0.000000,-2442.679609,9844.739029
2629.585256,0.000000,-1258.350101,10288.862594
2629.585585,-153.219100,-1554.432478,10066.800811
2629.585914,0.000000,-0.000000,10140.821405
2629.586243,-229.828649,1332.370696,9844.739029
2629.586572,-306.438199,222.061783,9622.677246
2629.586902,919.314598,370.102971,9474.636058
2629.587231,1225.752797,1110.308913,8734.430116
2629.587560,1225.752797,2146.597232,7920.203579
2629.587889,1762.019645,370.102971,9104.533087
2629.588218,153.219100,-1184.329507,8956.491898
2629.588548,76.609550,-1628.453072,9474.636058
2629.588877,229.828649,-1480.411884,8956.491898
2629.589206,-612.876398,-444.123565,8438.347739
2629.589535,0.000000,666.185348,8734.430116
2629.589864,-383.047749,-592.164754,9548.656652
2629.590194,-689.485948,-962.267725,9326.594869
2629.590523,-153.219100,-888.247130,9326.594869
2629.590852,-153.219100,1184.329507,8956.491898
2629.591181,229.828649,444.123565,7994.224174
2629.591510,-536.266849,740.205942,9400.615463
2629.591839,-153.219100,-1036.288319,9992.780217
2629.592169,-842.705048,-370.102971,8142.265362
2629.592498,-766.095498,962.267725,7920.203579
2629.592827,-306.438199,370.102971,8364.327145
2629.593156,-459.657299,-148.041188,9400.615463
2629.593485,-536.266849,-1776.494261,9696.697840
2629.593815,-689.485948,-814.226536,8808.450710
2629.594144,-306.438199,-962.267725,9030.512492
2629.594473,536.266849,-518.144159,8808.450710
2629.594802,306.438199,-1184.329507,9178.553681
2629.595131,689.485948,-1480.411884,10066.800811
2629.595461,689.485948,-1406.391290,9400.615463
2629.595790,1149.143247,518.144159,8808.450710
2629.596119,612.876398,888.247130,8956.491898
2629.596448,459.657299,592.164754,8956.491898
2629.596777,0.000000,-444.123565,9770.718434
2629.597106,612.876398,-0.000000,9104.533087
2629.597436,612.876398,666.185348,8808.450710
2629.597765,919.314598,518.144159,8438.347739
2629.598094,-536.266849,-370.102971,9178.553681
2629.598423,153.219100,-1480.411884,9622.677246
2629.598752,536.266849,-1258.350101,8956.491898
2629.599082,459.657299,-592.164754,8438.347739
2629.599411,459.657299,888.247130,8586.388927
2629.599740,766.095498,962.267725,8808.450710
2629.600069,459.657299,-222.061783,9474.636058
2629.600398,689.485948,-1036.288319,9178.553681
2629.600728,1302.362347,1110.308913,8734.430116
2629.601057,919.314598,1258.350101,8660.409521
2629.601386,995.924147,-0.000000,8734.430116
2629.601715,536.266849,-1036.288319,9622.677246
2629.602044,1302.362347,-962.267725,9844.739029
2629.602373,919.314598,296.082377,9400.615463
2629.602703,229.828649,666.185348,8734.430116
2629.603032,229.828649,370.102971,9104.533087
2629.603361,766.095498,-444.123565,9474.636058
2629.603690,612.876398,-222.061783,9104.533087
2629.604019,919.314598,-0.000000,8660.409521
2629.604349,1302.362347,-0.000000,8956.491898
2629.604678,536.266849,-0.000000,9326.594869
2629.605007,306.438199,-1258.350101,9696.697840
2629.605336,-306.438199,-1406.391290,9918.759623
2629.605665,-383.047749,-148.041188,9326.594869
2629.605995,-689.485948,1184.329507,8660.409521
2629.606324,-459.657299,296.082377,8660.409521
2629.606653,-459.657299,-296.082377,9474.636058
2629.606982,-919.314598,-592.164754,9770.718434
2629.607311,0.000000,-0.000000,9252.574275
2629.607641,-536.266849,222.061783,8808.450710
2629.607970,0.000000,-296.082377,9030.512492
2629.608299,-842.705048,-1480.411884,9548.656652
2629.608628,-919.314598,-2294.638420,10362.883188
2629.608957,-383.047749,-1332.370696,9548.656652
2629.609286,0.000000,370.102971,9030.512492
2629.609616,766.095498,222.061783,8956.491898
2629.609945,76.609550,-296.082377,8882.471304
2629.610274,229.828649,-888.247130,9474.636058
2629.610603,536.266849,296.082377,8808.450710
2629.610932,1072.533697,1554.432478,8290.306550
2629.611262,1608.800546,814.226536,8364.327145
2629.611591,766.095498,-74.020594,7846.182985
2629.611920,76.609550,-666.185348,9992.780217
2629.612249,0.000000,-888.247130,9326.594869
2629.612578,-536.266849,-148.041188,9178.553681
2629.612908,-612.876398,222.061783,8956.491898
2629.613237,-995.924147,-296.082377,9178.553681
2629.613566,-766.095498,-1554.432478,9844.739029
2629.613895,306.438199,-666.185348,9400.615463
2629.614224,1072.533697,370.102971,8364.327145
2629.614553,919.314598,518.144159,8364.327145
2629.614883,1762.019645,-444.123565,8882.471304
2629.615212,1915.238745,-444.123565,8808.450710
2629.615541,2221.676944,222.061783,8438.347739
2629.615870,2528.115143,518.144159,7994.224174
2629.616199,2374.896044,962.267725,8142.265362
2629.616529,1838.629195,222.061783,8956.491898
2629.616858,1378.971896,-592.164754,8882.471304
2629.617187,919.314598,-740.205942,8512.368333
2629.617516,229.828649,-0.000000,8882.471304
2629.617845,-153.219100,-222.061783,9622.677246
2629.618175,-842.705048,-1998.556043,9622.677246
2629.618504,-536.266849,-1850.514855,10140.821405
2629.618833,0.000000,-1110.308913,9474.636058
2629.619162,-459.657299,-296.082377,10140.821405
2629.619491,229.828649,518.144159,9474.636058
2629.619820,229.828649,370.102971,9030.512492
2629.620150,766.095498,-518.144159,9400.615463
2629.620479,1455.581446,222.061783,8956.491898
2629.620808,1762.019645,1406.391290,8142.265362
2629.621137,1532.190996,1406.391290,8068.244768
2629.621466,1532.190996,-148.041188,8142.265362
2629.621796,689.485948,-444.123565,8808.450710
2629.622125,689.485948,-740.205942,8956.491898
2629.622454,153.219100,-148.041188,8586.388927
2629.622783,-842.705048,444.123565,8660.409521
2629.623112,-1302.362347,-888.247130,9400.615463
2629.623442,-1225.752797,-1554.432478,9400.615463
2629.623771,-1225.752797,-740.205942,9992.780217
2629.624100,-842.705048,-0.000000,9178.553681
2629.624429,-459.657299,518.144159,8808.450710
2629.624758,-383.047749,-444.123565,8956.491898
2629.625087,-766.095498,-1628.453072,9326.594869
2629.625417,-766.095498,-1554.432478,9918.759623
2629.625746,-919.314598,-222.061783,9622.677246
2629.626075,0.000000,518.144159,8882.471304
2629.626404,0.000000,666.185348,8660.409521
2629.626733,0.000000,-370.102971,9178.553681
2629.627063,76.609550,-74.020594,9030.512492
2629.627392,1072.533697,-0.000000,9104.533087
2629.627721,995.924147,1036.288319,8216.285956
2629.628050,383.047749,-0.000000,8660.409521
2629.628379,306.438199,-666.185348,9326.594869
2629.628709,-229.828649,-1406.391290,9178.553681
2629.629038,229.828649,-592.164754,9178.553681
2629.629367,0.000000,-0.000000,9030.512492
2629.629696,842.705048,-222.061783,8734.430116
2629.630025,612.876398,-814.226536,9622.677246
2629.630355,766.095498,-1036.288319,9844.739029
2629.630684,1149.143247,444.123565,8734.430116
2629.631013,1378.971896,592.164754,8512.368333
2629.631342,995.924147,444.123565,8512.368333
2629.631671,1455.581446,-592.164754,9326.594869
2629.632000,995.924147,-518.144159,9992.780217
2629.632330,0.000000,370.102971,9400.615463
2629.632659,995.924147,888.247130,8882.471304
2629.632988,536.266849,1406.391290,9104.533087
2629.633317,229.828649,222.061783,9400.615463
2629.633646,689.485948,-444.123565,9696.697840
2629.633976,842.705048,592.164754,8882.471304
2629.634305,229.828649,888.247130,8660.409521
2629.634634,842.705048,222.061783,8882.471304
2629.634963,612.876398,-1036.288319,9474.636058
2629.635292,536.266849,-1406.391290,10584.944971
2629.635622,1455.581446,-370.102971,8882.471304
2629.635951,919.314598,-0.000000,7920.203579
2629.636280,919.314598,962.267725,8734.430116
2629.636609,1378.971896,-0.000000,9918.759623
2629.636938,1149.143247,-518.144159,9474.636058
2629.637267,1532.190996,444.123565,8734.430116
2629.637597,0.000000,666.185348,8512.368333
2629.637926,0.000000,370.102971,8734.430116
2629.638255,76.609550,-1258.350101,9474.636058
2629.638584,-306.438199,-1702.473667,9696.697840
2629.638913,-612.876398,-1110.308913,9104.533087
2629.639243,-1149.143247,-444.123565,9474.636058
2629.639572,-1532.190996,-518.144159,9474.636058
2629.639901,-1225.752797,-888.247130,8956.491898
2629.640230,-842.705048,-1480.411884,9548.656652
2629.640559,-689.485948,-1258.350101,9400.615463
2629.640889,-536.266849,-148.041188,8586.388927
2629.641218,229.828649,-0.000000,9104.533087
2629.641547,153.219100,-962.267725,9252.574275
2629.641876,612.876398,-1924.535449,9400.615463
2629.642205,536.266849,-962.267725,8438.347739
2629.642534,612.876398,740.205942,8216.285956
2629.642864,612.876398,1036.288319,8364.327145
2629.643193,842.705048,370.102971,8290.306550
2629.643522,842.705048,-370.102971,9178.553681
2629.643851,1225.752797,-370.102971,8586.388927
2629.644180,689.485948,888.247130,7994.224174
2629.644510,842.705048,222.061783,8586.388927
2629.644839,0.000000,-592.164754,8438.347739
2629.645168,-306.438199,-1554.432478,9400.615463
2629.645497,-766.095498,-1480.411884,9400.615463
2629.645826,76.609550,-518.144159,8290.306550
2629.646156,0.000000,148.041188,8068.244768
2629.646485,-1072.533697,-222.061783,9104.533087
2629.646814,-383.047749,-1258.350101,10066.800811
2629.647143,229.828649,-296.082377,9770.718434
2629.647472,306.438199,814.226536,8364.327145
2629.647801,1149.143247,592.164754,9104.533087
2629.648131,995.924147,-592.164754,9400.615463
2629.648460,1915.238745,-222.061783,9548.656652
2629.648789,2221.676944,-666.185348,9178.553681
2629.649118,1455.581446,962.267725,8290.306550
2629.649447,1838.629195,1628.453072,9030.512492
2629.649777,1685.410096,740.205942,9104.533087
2629.650106,1378.971896,-74.020594,8882.471304
2629.650435,1225.752797,-814.226536,9548.656652
2629.650764,1072.533697,444.123565,8660.409521
2629.651093,536.266849,518.144159,8882.471304
2629.651423,536.266849,-740.205942,9844.739029
2629.651752,-306.438199,-1628.453072,10288.862594
2629.652081,-306.438199,-2220.617826,10732.986159
2629.652410,-919.314598,-666.185348,9918.759623
2629.652739,-612.876398,962.267725,8882.471304
2629.653069,153.219100,-0.000000,9622.677246
2629.653398,0.000000,296.082377,9844.739029
2629.653727,306.438199,-0.000000,9992.780217
2629.654056,919.314598,1258.350101,8882.471304
2629.654385,1608.800546,1998.556043,8216.285956
2629.654714,1608.800546,888.247130,8586.388927
2629.655044,1455.581446,-518.144159,9252.574275
2629.655373,1608.800546,-814.226536,9326.594869
2629.655702,842.705048,-814.226536,8216.285956
2629.656031,0.000000,-0.000000,8586.388927
2629.656360,0.000000,-1036.288319,9252.574275
2629.656690,-383.047749,-296.082377,8216.285956
2629.657019,-995.924147,-1184.329507,9326.594869
2629.657348,-766.095498,296.082377,8512.368333
2629.657677,0.000000,814.226536,8734.430116
2629.658006,-229.828649,-370.102971,8290.306550
2629.658336,0.000000,-1036.288319,9104.533087
2629.658665,-536.266849,-1702.473667,9474.636058
2629.658994,-306.438199,-74.020594,8586.388927
2629.659323,0.000000,592.164754,8586.388927
2629.659652,-536.266849,1110.308913,7994.224174
2629.659981,-229.828649,-296.082377,9178.553681
2629.660311,-536.266849,-1184.329507,9400.615463
2629.660640,153.219100,-370.102971,8142.265362
2629.660969,76.609550,370.102971,8142.265362
2629.661298,-306.438199,-814.226536,8512.368333
2629.661627,-383.047749,-1406.391290,9918.759623
2629.661957,-383.047749,-1702.473667,9696.697840
2629.662286,76.609550,-740.205942,9400.615463
2629.662615,76.609550,592.164754,8512.368333
2629.662944,306.438199,1184.329507,9474.636058
2629.663273,383.047749,-0.000000,9548.656652
2629.663603,842.705048,-888.247130,9474.636058
2629.663932,919.314598,-0.000000,8512.368333
2629.664261,1302.362347,666.185348,8068.244768
2629.664590,459.657299,222.061783,9104.533087
2629.664919,689.485948,-666.185348,8882.471304
2629.665248,842.705048,-1628.453072,9696.697840
2629.665578,229.828649,-1184.329507,9030.512492
2629.665907,229.828649,518.144159,8882.471304
2629.666236,229.828649,592.164754,9400.615463
2629.666565,-229.828649,296.082377,9030.512492
2629.666894,0.000000,-740.205942,9992.780217
2629.667224,229.828649,-370.102971,9548.656652
2629.667553,612.876398,-0.000000,8438.347739
2629.667882,1225.752797,148.041188,9178.553681
2629.668211,1149.143247,-518.144159,9104.533087
2629.668540,1838.629195,-888.247130,9474.636058
2629.668870,1915.238745,-444.123565,8956.491898
2629.669199,1838.629195,888.247130,8734.430116
2629.669528,919.314598,1258.350101,9030.512492
2629.669857,1532.190996,370.102971,9104.533087
2629.670186,1225.752797,-444.123565,8882.471304
2629.670515,919.314598,-0.000000,9104.533087
2629.670845,459.657299,592.164754,8512.368333
2629.671174,536.266849,-0.000000,8956.491898
2629.671503,76.609550,-296.082377,8882.471304
2629.671832,0.000000,-2516.700203,9696.697840
2629.672161,-459.657299,-2294.638420,9918.759623
2629.672491,-995.924147,-518.144159,9622.677246
2629.672820,-995.924147,518.144159,9474.636058
2629.673149,-689.485948,-296.082377,9474.636058
2629.673478,-766.095498,-444.123565,9474.636058
2629.673807,-919.314598,-370.102971,9548.656652
2629.674137,459.657299,592.164754,8734.430116
2629.674466,459.657299,-0.000000,7772.162391
2629.674795,459.657299,-518.144159,9104.533087
2629.675124,383.047749,-1554.432478,9474.636058
2629.675453,153.219100,-1406.391290,9400.615463
2629.675782,76.609550,-0.000000,8734.430116
2629.676112,153.219100,962.267725,8290.306550
2629.676441,306.438199,444.123565,9030.512492
2629.676770,612.876398,-0.000000,9178.553681
2629.677099,229.828649,370.102971,8290.306550
2629.677429,306.438199,592.164754,8364.327145
2629.677758,229.828649,-0.000000,9178.553681
2629.678087,76.609550,-148.041188,9178.553681
2629.678416,76.609550,-2368.659014,9178.553681
2629.678745,-1149.143247,-1628.453072,8882.471304
2629.679075,0.000000,-370.102971,10214.842000
2629.679404,-919.314598,-0.000000,8882.471304
2629.679733,-536.266849,370.102971,8734.430116
2629.680062,-536.266849,-888.247130,9178.553681
2629.680391,-153.219100,-1184.329507,8956.491898
2629.680721,612.876398,592.164754,8290.306550
2629.681050,689.485948,-0.000000,8216.285956
2629.681379,0.000000,-0.000000,8586.388927
2629.681708,536.266849,-1110.308913,9474.636058
2629.682037,919.314598,-518.144159,9178.553681
2629.682367,1225.752797,-0.000000,8512.368333
2629.682696,1072.533697,296.082377,8956.491898
2629.683025,1149.143247,962.267725,8882.471304
2629.683354,1149.143247,222.061783,9474.636058
2629.683683,1072.533697,-518.144159,9844.739029
2629.684013,1455.581446,592.164754,9474.636058
2629.684342,1302.362347,962.267725,8068.244768
2629.684671,1302.362347,-222.061783,8438.347739
2629.685000,766.095498,-1702.473667,9326.594869
2629.685329,306.438199,-2072.576638,9844.739029
2629.685659,229.828649,-814.226536,9030.512492
2629.685988,153.219100,-0.000000,9400.615463
2629.686317,0.000000,370.102971,8512.368333
2629.686646,-229.828649,-444.123565,9992.780217
2629.686975,0.000000,-0.000000,9400.615463
2629.687305,612.876398,888.247130,9252.574275
2629.687634,229.828649,1110.308913,9104.533087
2629.687963,0.000000,666.185348,9252.574275
2629.688292,689.485948,-444.123565,9400.615463
2629.688621,842.705048,-1184.329507,10362.883188
2629.688951,689.485948,-888.247130,9030.512492
2629.689280,0.000000,444.123565,9178.553681
2629.689609,995.924147,-0.000000,9104.533087
2629.689938,766.095498,-0.000000,8512.368333
2629.690267,76.609550,-0.000000,8512.368333
2629.690597,1149.143247,666.185348,8512.368333
2629.690926,1072.533697,370.102971,7772.162391
2629.691255,153.219100,666.185348,8216.285956
2629.691584,229.828649,-1184.329507,9178.553681
2629.691913,-842.705048,-2072.576638,9918.759623
2629.692243,-1225.752797,-1702.473667,9622.677246
2629.692572,-1149.143247,-370.102971,9178.553681
2629.692901,-919.314598,-370.102971,9992.780217
2629.693230,-995.924147,-222.061783,9622.677246
2629.693559,-612.876398,-1184.329507,9474.636058
2629.693889,-383.047749,-370.102971,9696.697840
2629.694218,-306.438199,296.082377,8660.409521
2629.694547,306.438199,-74.020594,8956.491898
2629.694876,536.266849,-1332.370696,9548.656652
2629.695205,919.314598,-1036.288319,8956.491898
2629.695535,1532.190996,-222.061783,8438.347739
2629.695864,1532.190996,814.226536,8142.265362
2629.696193,1378.971896,1258.350101,7994.224174
2629.696522,1455.581446,962.267725,8586.388927
2629.696851,1378.971896,-0.000000,8956.491898
2629.697181,1991.848295,592.164754,9030.512492
2629.697510,1378.971896,888.247130,8808.450710
2629.697839,459.657299,222.061783,9178.553681
2629.698168,153.219100,-962.267725,9400.615463
2629.698497,0.000000,-1850.514855,10140.821405
2629.698827,153.219100,-1480.411884,9548.656652
2629.699156,0.000000,-666.185348,9696.697840
2629.699485,229.828649,-0.000000,9400.615463
2629.699814,0.000000,148.041188,8956.491898
2629.700143,842.705048,-444.123565,9474.636058
2629.700473,919.314598,-0.000000,9104.533087
2629.700802,1378.971896,1850.514855,8068.244768
2629.701131,1149.143247,592.164754,8142.265362
2629.701460,1685.410096,370.102971,8512.368333
2629.701790,1991.848295,-888.247130,9474.636058
2629.702119,1915.238745,-1480.411884,9178.553681
2629.702448,842.705048,370.102971,8586.388927
2629.702777,1072.533697,370.102971,8956.491898
2629.703106,919.314598,-0.000000,8290.306550
2629.703436,536.266849,-0.000000,9770.718434
2629.703765,995.924147,-814.226536,9622.677246
2629.704094,842.705048,370.102971,8142.265362
2629.704423,612.876398,1258.350101,8660.409521
2629.704752,536.266849,-592.164754,8142.265362
2629.705082,229.828649,-1406.391290,9474.636058
2629.705411,-689.485948,-1776.494261,9696.697840
2629.705740,-995.924147,-148.041188,8512.368333
2629.706069,-612.876398,222.061783,9844.739029
2629.706398,-612.876398,-0.000000,9326.594869
2629.706728,-1072.533697,-444.123565,9326.594869
2629.707057,-919.314598,-1110.308913,9918.759623
2629.707386,-1149.143247,-0.000000,9178.553681
2629.707715,-383.047749,222.061783,9030.512492
2629.708044,-229.828649,-0.000000,9030.512492
2629.708374,-459.657299,-1702.473667,9918.759623
2629.708703,-995.924147,-1776.494261,10288.862594
2629.709032,383.047749,-370.102971,8882.471304
2629.709361,459.657299,518.144159,8142.265362
2629.709690,612.876398,666.185348,8142.265362
2629.710020,612.876398,-0.000000,8956.491898
2629.710349,536.266849,-296.082377,9104.533087
2629.710678,612.876398,296.082377,7698.141797
2629.711007,612.876398,444.123565,8142.265362
2629.711336,689.485948,370.102971,8586.388927
2629.711666,0.000000,-1184.329507,9252.574275
2629.711995,-536.266849,-1998.556043,9918.759623
2629.712324,-536.266849,-962.267725,8882.471304
2629.712653,0.000000,370.102971,8586.388927
2629.712982,0.000000,592.164754,8956.491898
2629.713312,-459.657299,-370.102971,9474.636058
2629.713641,766.095498,-888.247130,9918.759623
2629.713970,919.314598,-0.000000,8512.368333
2629.714299,842.705048,962.267725,7624.121203
2629.714628,1455.581446,-0.000000,8216.285956
2629.714958,1455.581446,-1036.288319,8808.450710
2629.715287,1225.752797,-888.247130,9252.574275
2629.715616,1225.752797,-1036.288319,8734.430116
2629.715945,689.485948,518.144159,9252.574275
2629.716274,919.314598,296.082377,9474.636058
2629.716604,612.876398,-0.000000,9474.636058
2629.716933,919.314598,-814.226536,9770.718434
2629.717262,1149.143247,592.164754,9104.533087
2629.717591,1072.533697,1554.432478,9326.594869
2629.717920,1149.143247,370.102971,9696.697840
2629.718250,1608.800546,-666.185348,9400.615463
2629.718579,1072.533697,-1184.329507,8882.471304
2629.718908,1378.971896,-222.061783,9252.574275
2629.719237,612.876398,444.123565,8808.450710
2629.719566,229.828649,444.123565,9400.615463
2629.719896,689.485948,-222.061783,9696.697840
2629.720225,306.438199,-962.267725,9844.739029
2629.720554,-459.657299,-222.061783,9844.739029
2629.720883,0.000000,888.247130,8660.409521
2629.721212,-153.219100,740.205942,9326.594869
2629.721542,0.000000,-222.061783,9548.656652
2629.721871,153.219100,-1184.329507,9622.677246
2629.722200,536.266849,-1406.391290,9992.780217
2629.722529,229.828649,888.247130,8956.491898
2629.722858,0.000000,1036.288319,8660.409521
2629.723188,-229.828649,444.123565,8734.430116
2629.723517,76.609550,148.041188,9030.512492
2629.723846,459.657299,222.061783,9104.533087
2629.724175,0.000000,1184.329507,7624.121203
2629.724504,-306.438199,148.041188,8734.430116
2629.724834,-306.438199,-1110.308913,9030.512492
2629.725163,-306.438199,-2146.597232,9696.697840
2629.725492,-919.314598,-1480.411884,9770.718434
2629.725821,-995.924147,-222.061783,8734.430116
2629.726150,-842.705048,592.164754,8586.388927
2629.726480,-612.876398,370.102971,9030.512492
2629.726809,-459.657299,-814.226536,9030.512492
2629.727138,-612.876398,-1036.288319,9178.553681
2629.727467,-229.828649,-0.000000,8882.471304
2629.727797,306.438199,222.061783,8364.327145
2629.728126,-612.876398,-740.205942,8882.471304
2629.728455,-536.266849,-1776.494261,9918.759623
2629.728784,-153.219100,-1406.391290,9474.636058
2629.729113,306.438199,-592.164754,8068.244768
2629.729443,536.266849,222.061783,8142.265362
2629.729772,76.609550,296.082377,8882.471304
2629.730101,766.095498,-518.144159,9326.594869
2629.730430,689.485948,-666.185348,9178.553681
2629.730759,1149.143247,814.226536,8364.327145
2629.731089,1455.581446,666.185348,8660.409521
2629.731418,1149.143247,-74.020594,8808.450710
2629.731747,1225.752797,-1332.370696,9844.739029
2629.732076,1225.752797,-1184.329507,9252.574275
2629.732405,919.314598,-0.000000,9474.636058
2629.732735,459.657299,1110.308913,9030.512492
2629.733064,229.828649,370.102971,8734.430116
2629.733393,76.609550,-444.123565,9696.697840
2629.733722,229.828649,-666.185348,9474.636058
2629.734051,536.266849,-0.000000,9252.574275
2629.734381,-306.438199,148.041188,9474.636058
2629.734710,995.924147,-0.000000,8808.450710
2629.735039,1225.752797,-1036.288319,10436.903782
2629.735368,1072.533697,-1110.308913,9696.697840
2629.735697,995.924147,-666.185348,9326.594869
2629.736027,1302.362347,888.247130,8956.491898
2629.736356,1455.581446,962.267725,9400.615463
2629.736685,2145.067394,-0.000000,9326.594869
2629.737014,995.924147,666.185348,9400.615463
2629.737343,1685.410096,740.205942,8586.388927
2629.737673,1455.581446,1258.350101,8364.327145
2629.738002,995.924147,1036.288319,7920.203579
2629.738331,689.485948,-1110.308913,8586.388927
2629.738660,995.924147,-1628.453072,9104.533087
2629.738989,-612.876398,-222.061783,8808.450710
2629.739319,-919.314598,-296.082377,10436.903782
2629.739648,-995.924147,-148.041188,9622.677246
2629.739977,-1762.019645,-592.164754,9030.512492
2629.740306,-1149.143247,-444.123565,10066.800811
2629.740635,-766.095498,-222.061783,9622.677246
2629.740965,-766.095498,222.061783,8808.450710
2629.741294,229.828649,-0.000000,9400.615463
2629.741623,0.000000,-1406.391290,9252.574275
2629.741952,-306.438199,-1554.432478,9992.780217
2629.742281,1072.533697,-222.061783,9326.594869
2629.742611,842.705048,888.247130,8142.265362
2629.742940,76.609550,592.164754,8216.285956
2629.743269,1225.752797,-444.123565,8734.430116
2629.743598,536.266849,-518.144159,8956.491898
2629.743927,383.047749,-74.020594,8068.244768
2629.744257,536.266849,740.205942,7772.162391
2629.744586,0.000000,-444.123565,8586.388927
2629.744915,-459.657299,-666.185348,9030.512492
2629.745244,-153.219100,-1776.494261,9918.759623
2629.745573,-995.924147,-740.205942,8956.491898
2629.745903,-766.095498,-74.020594,8808.450710
2629.746232,-842.705048,518.144159,9474.636058
2629.746561,-919.314598,-444.123565,9326.594869
2629.746890,-229.828649,-888.247130,9918.759623
2629.747219,76.609550,-592.164754,9252.574275
2629.747549,0.000000,962.267725,8956.491898
2629.747878,1302.362347,370.102971,8660.409521
2629.748207,1608.800546,-0.000000,9326.594869
2629.748536,842.705048,-222.061783,9326.594869
2629.748865,2145.067394,-0.000000,8808.450710
2629.749195,1838.629195,666.185348,7994.224174
2629.749524,1149.143247,1036.288319,8438.347739
2629.749853,1149.143247,-370.102971,9178.553681
2629.750182,842.705048,-1184.329507,9252.574275
2629.750511,919.314598,-962.267725,8956.491898
2629.750841,536.266849,592.164754,9326.594869
2629.751170,306.438199,222.061783,9400.615463
2629.751499,306.438199,-814.226536,9770.718434
2629.751828,536.266849,-1258.350101,9992.780217
2629.752158,153.219100,-1258.350101,9770.718434
2629.752487,306.438199,-222.061783,9474.636058
2629.752816,689.485948,592.164754,9104.533087
2629.753145,536.266849,222.061783,8882.471304
2629.753474,1225.752797,-222.061783,9548.656652
2629.753804,1225.752797,148.041188,8956.491898
2629.754133,1455.581446,814.226536,8512.368333
2629.754462,1685.410096,740.205942,8512.368333
2629.754791,1072.533697,-592.164754,8586.388927
2629.755120,689.485948,-1184.329507,9400.615463
2629.755450,919.314598,-1480.411884,9252.574275
2629.755779,229.828649,222.061783,8734.430116
2629.756108,153.219100,518.144159,8882.471304
2629.756437,0.000000,222.061783,9104.533087
2629.756766,-229.828649,-592.164754,9918.759623
2629.757096,-306.438199,-518.144159,9770.718434
2629.757425,0.000000,-0.000000,9104.533087
2629.757754,0.000000,518.144159,8956.491898
2629.758083,-306.438199,-148.041188,8808.450710
2629.758412,-459.657299,-1480.411884,9326.594869
2629.758742,-306.438199,-1628.453072,9252.574275
2629.759071,76.609550,-0.000000,8734.430116
2629.759400,-153.219100,296.082377,8660.409521
2629.759729,-536.266849,-518.144159,9030.512492
2629.760058,-306.438199,-1036.288319,8882.471304
2629.760388,0.000000,-1184.329507,9326.594869
2629.760717,153.219100,-222.061783,8586.388927
2629.761046,0.000000,222.061783,8364.327145
2629.761375,0.000000,-148.041188,9104.533087
2629.761704,0.000000,-1406.391290,9770.718434
2629.762034,0.000000,-1258.350101,9992.780217
2629.762363,612.876398,-444.123565,9104.533087
2629.762692,153.219100,814.226536,8808.450710
2629.763021,229.828649,740.205942,8882.471304
2629.763350,0.000000,-444.123565,9548.656652
2629.763680,383.047749,-444.123565,9548.656652
2629.764009,995.924147,-370.102971,8586.388927
2629.764338,153.219100,222.061783,8586.388927
2629.764667,536.266849,-148.041188,9104.533087
2629.764996,76.609550,-962.267725,9326.594869
2629.765326,0.000000,-1480.411884,9770.718434
2629.765655,229.828649,-666.185348,9104.533087
2629.765984,153.219100,370.102971,8512.368333
2629.766313,0.000000,148.041188,8734.430116
2629.766642,536.266849,222.061783,9252.574275
2629.766972,689.485948,-0.000000,10066.800811
2629.767301,1378.971896,666.185348,8956.491898
2629.767630,1302.362347,1258.350101,8882.471304
2629.767959,1378.971896,962.267725,9030.512492
2629.768288,1378.971896,-666.185348,9400.615463
2629.768618,1532.190996,-1184.329507,9770.718434
2629.768947,995.924147,-592.164754,8882.471304
2629.769276,1225.752797,296.082377,9104.533087
2629.769605,919.314598,444.123565,9252.574275
2629.769934,689.485948,-148.041188,9104.533087
2629.770264,919.314598,-888.247130,9474.636058
2629.770593,919.314598,-296.082377,9104.533087
2629.770922,612.876398,666.185348,8882.471304
2629.771251,995.924147,370.102971,8956.491898
2629.771580,919.314598,-296.082377,9178.553681
2629.771910,306.438199,-1036.288319,9770.718434
2629.772239,76.609550,-888.247130,9326.594869
2629.772568,0.000000,592.164754,9326.594869
2629.772897,0.000000,370.102971,9178.553681
2629.773226,-306.438199,-0.000000,9326.594869
2629.773556,0.000000,-592.164754,10584.944971
2629.773885,-536.266849,-518.144159,9548.656652
2629.774214,0.000000,74.020594,8882.471304
2629.774543,383.047749,-0.000000,8734.430116
2629.774872,153.219100,-814.226536,8290.306550
2629.775202,0.000000,-1998.556043,9844.739029
2629.775531,-459.657299,-2220.617826,9770.718434
2629.775860,0.000000,-0.000000,8734.430116
2629.776189,229.828649,518.144159,8364.327145
2629.776518,0.000000,444.123565,8586.388927
2629.776848,0.000000,-296.082377,9178.553681
2629.777177,76.609550,-74.020594,9326.594869
2629.777506,0.000000,1258.350101,8290.306550
2629.777835,842.705048,666.185348,7994.224174
2629.778164,536.266849,-74.020594,8364.327145
2629.778494,-612.876398,-1332.370696,9474.636058
2629.778823,-229.828649,-962.267725,9474.636058
2629.779152,0.000000,-0.000000,8512.368333
2629.779481,-306.438199,222.061783,8660.409521
2629.779810,229.828649,296.082377,9252.574275
2629.780140,-612.876398,-1036.288319,9474.636058
2629.780469,612.876398,-962.267725,9252.574275
2629.780798,842.705048,-0.000000,8364.327145
2629.781127,689.485948,1036.288319,7994.224174
2629.781456,766.095498,-0.000000,8956.491898
2629.781786,995.924147,-888.247130,9770.718434
2629.782115,842.705048,-592.164754,8734.430116
2629.782444,842.705048,-0.000000,9474.636058
2629.782773,0.000000,740.205942,9104.533087
2629.783102,1225.752797,296.082377,7994.224174
2629.783431,536.266849,-740.205942,9252.574275
2629.783761,612.876398,-0.000000,9104.533087
2629.784090,229.828649,-444.123565,9622.677246
2629.784419,153.219100,148.041188,8734.430116
2629.784748,383.047749,-0.000000,8216.285956
2629.785077,383.047749,-1480.411884,9400.615463
2629.785407,153.219100,-1554.432478,10436.903782
2629.785736,306.438199,-1184.329507,9696.697840
2629.786065,76.609550,888.247130,9326.594869
2629.786394,153.219100,-0.000000,9178.553681
2629.786723,306.438199,-370.102971,9474.636058
2629.787052,612.876398,-0.000000,10288.862594
2629.787382,1532.190996,814.226536,8956.491898
2629.787711,1685.410096,1184.329507,8438.347739
2629.788040,1072.533697,370.102971,8438.347739
2629.788369,1455.581446,-0.000000,8956.491898
2629.788698,995.924147,-666.185348,9474.636058
2629.789028,919.314598,-370.102971,9030.512492
2629.789357,383.047749,592.164754,8882.471304
2629.789686,0.000000,518.144159,8882.471304
2629.790015,76.609550,-518.144159,9252.574275
2629.790344,689.485948,-518.144159,8956.491898
2629.790674,0.000000,370.102971,9030.512492
2629.791003,0.000000,962.267725,8364.327145
2629.791332,0.000000,-370.102971,8216.285956
2629.791661,-459.657299,-1554.432478,9474.636058
2629.791990,-536.266849,-2294.638420,9770.718434
2629.792319,0.000000,-1110.308913,9104.533087
2629.792649,-689.485948,296.082377,9030.512492
2629.792978,-229.828649,888.247130,8882.471304
2629.793307,0.000000,-148.041188,8956.491898
2629.793636,383.047749,-222.061783,8586.388927
2629.793965,306.438199,-74.020594,8956.491898
2629.794295,995.924147,-0.000000,8290.306550
2629.794624,0.000000,-222.061783,8364.327145
2629.794953,-306.438199,-1998.556043,9548.656652
2629.795282,0.000000,-1850.514855,9696.697840
2629.795611,0.000000,-296.082377,8956.491898
2629.795940,-229.828649,222.061783,8956.491898
2629.796270,306.438199,962.267725,8882.471304
2629.796599,0.000000,-370.102971,9326.594869
2629.796928,306.438199,-296.082377,9696.697840
2629.797257,919.314598,-296.082377,8808.450710
2629.797586,229.828649,962.267725,8808.450710
2629.797916,0.000000,666.185348,8068.244768
2629.798245,153.219100,-370.102971,9326.594869
2629.798574,459.657299,-1702.473667,9696.697840
2629.798903,842.705048,-962.267725,9178.553681
2629.799232,76.609550,-74.020594,9178.553681
2629.799562,-612.876398,592.164754,9178.553681
2629.799891,-383.047749,-222.061783,9178.553681
2629.800220,0.000000,-740.205942,9548.656652
2629.800549,306.438199,-0.000000,9252.574275
2629.800878,842.705048,962.267725,8734.430116
2629.801207,1149.143247,740.205942,8216.285956
2629.801537,1302.362347,-592.164754,8956.491898
2629.801866,1149.143247,-1184.329507,9548.656652
2629.802195,1378.971896,-370.102971,8660.409521
2629.802524,919.314598,814.226536,8734.430116
2629.802853,689.485948,1480.411884,9030.512492
2629.803183,1302.362347,296.082377,8364.327145
2629.803512,1378.971896,-518.144159,9178.553681
2629.803841,995.924147,-592.164754,9770.718434
2629.804170,1149.143247,-0.000000,8512.368333
2629.804499,0.000000,222.061783,8808.450710
2629.804828,76.609550,-740.205942,9474.636058
2629.805158,-153.219100,-1258.350101,9548.656652
2629.805487,0.000000,-1406.391290,9474.636058
2629.805816,-459.657299,-962.267725,9474.636058
2629.806145,0.000000,888.247130,8956.491898
2629.806474,-842.705048,-0.000000,9030.512492
2629.806804,-689.485948,-370.102971,9474.636058
2629.807133,-612.876398,-222.061783,9474.636058
2629.807462,-459.657299,666.185348,9770.718434
2629.807791,76.609550,-0.000000,9474.636058
2629.808120,153.219100,-740.205942,9326.594869
2629.808450,689.485948,-1554.432478,9770.718434
2629.808779,919.314598,-1110.308913,9326.594869
2629.809108,995.924147,-74.020594,9030.512492
2629.809437,995.924147,962.267725,7846.182985
2629.809766,766.095498,444.123565,8438.347739
2629.810095,1455.581446,-518.144159,9252.574275
2629.810425,1455.581446,-444.123565,8734.430116
2629.810754,1455.581446,-444.123565,8586.388927
2629.811083,919.314598,370.102971,8438.347739
2629.811412,0.000000,-148.041188,8586.388927
2629.811741,-229.828649,-1258.350101,9474.636058
2629.812071,-383.047749,-1702.473667,9696.697840
2629.812400,-689.485948,-370.102971,9104.533087
2629.812729,-459.657299,-222.061783,9030.512492
2629.813058,-536.266849,370.102971,9104.533087
2629.813387,0.000000,-592.164754,8956.491898
2629.813716,76.609550,-592.164754,9622.677246
2629.814046,1302.362347,148.041188,8956.491898
2629.814375,1532.190996,962.267725,7920.203579
2629.814704,2145.067394,-148.041188,8364.327145
2629.815033,2068.457845,-1110.308913,8734.430116
2629.815362,1838.629195,-1554.432478,8882.471304
2629.815692,1762.019645,-0.000000,8438.347739
2629.816021,1685.410096,1036.288319,8512.368333
2629.816350,1072.533697,592.164754,8882.471304
2629.816679,919.314598,-0.000000,8956.491898
2629.817008,995.924147,-444.123565,9770.718434
2629.817338,76.609550,-0.000000,9104.533087
2629.817667,229.828649,444.123565,8882.471304
2629.817996,383.047749,-0.000000,9474.636058
2629.818325,0.000000,-1036.288319,9918.759623
2629.818654,0.000000,-1258.350101,10362.883188
2629.818983,0.000000,-962.267725,9400.615463
2629.819313,-766.095498,666.185348,9252.574275
2629.819642,0.000000,222.061783,8734.430116
2629.819971,536.266849,-518.144159,9474.636058
2629.820300,536.266849,-592.164754,9548.656652
2629.820629,842.705048,148.041188,8808.450710
2629.820959,995.924147,1036.288319,8512.368333
2629.821288,842.705048,592.164754,8882.471304
2629.821617,1302.362347,-370.102971,9178.553681
2629.821946,842.705048,-1036.288319,9178.553681
2629.822275,459.657299,-296.082377,9326.594869
2629.822604,306.438199,1184.329507,8882.471304
2629.822934,536.266849,888.247130,9178.553681
2629.823263,229.828649,-0.000000,8660.409521
2629.823592,-689.485948,-148.041188,9474.636058
2629.823921,229.828649,-148.041188,9326.594869
2629.824250,306.438199,444.123565,8586.388927
2629.824580,-536.266849,592.164754,8660.409521
2629.824909,-612.876398,-444.123565,9252.574275
2629.825238,-1149.143247,-1258.350101,9622.677246
2629.825567,-842.705048,-518.144159,10214.842000
2629.825896,-383.047749,-222.061783,9104.533087
2629.826226,-1378.971896,888.247130,9474.636058
2629.826555,-459.657299,-296.082377,9770.718434
2629.826884,-1455.581446,-1258.350101,8734.430116
2629.827213,0.000000,-888.247130,9770.718434
2629.827542,153.219100,-370.102971,9400.615463
2629.827871,76.609550,370.102971,8216.285956
2629.828201,459.657299,-1110.308913,9104.533087
2629.828530,995.924147,-1554.432478,9178.553681
2629.828859,995.924147,-1036.288319,8882.471304
2629.829188,1685.410096,666.185348,8290.306550
2629.829517,1149.143247,1554.432478,8438.347739
2629.829847,919.314598,148.041188,8660.409521
2629.830176,919.314598,-888.247130,8956.491898
2629.830505,689.485948,-296.082377,8808.450710
2629.830834,995.924147,-74.020594,8512.368333
2629.831163,689.485948,444.123565,8586.388927
2629.831492,0.000000,-666.185348,9326.594869
2629.831822,0.000000,-1924.535449,9474.636058
2629.832151,0.000000,-1850.514855,9696.697840
2629.832480,-459.657299,-370.102971,9178.553681
2629.832809,0.000000,296.082377,8956.491898
2629.833138,229.828649,-148.041188,9252.574275
2629.833468,1072.533697,-740.205942,9474.636058
2629.833797,1302.362347,-888.247130,9178.553681
2629.834126,1838.629195,518.144159,8734.430116
2629.834455,1838.629195,1110.308913,8068.244768
2629.834784,2298.286494,444.123565,8142.265362
2629.835113,2374.896044,-148.041188,8438.347739
2629.835443,2298.286494,-222.061783,8660.409521
2629.835772,2068.457845,666.185348,8290.306550
2629.836101,1838.629195,1110.308913,9474.636058
2629.836430,766.095498,370.102971,9030.512492
2629.836759,995.924147,-0.000000,8882.471304
2629.837089,0.000000,-222.061783,9844.739029
2629.837418,306.438199,-740.205942,9992.780217
2629.837747,-153.219100,444.123565,8586.388927
2629.838076,-919.314598,-888.247130,9326.594869
2629.838405,0.000000,-1702.473667,10584.944971
2629.838735,-306.438199,-1406.391290,10510.924376
2629.839064,-536.266849,-592.164754,9474.636058
2629.839393,0.000000,962.267725,8808.450710
2629.839722,-383.047749,370.102971,9326.594869
2629.840051,0.000000,666.185348,9548.656652
2629.840380,383.047749,-0.000000,8808.450710
2629.840710,76.609550,-148.041188,8882.471304
2629.841039,0.000000,518.144159,8438.347739
2629.841368,0.000000,-0.000000,8956.491898
2629.841697,-919.314598,-1258.350101,9474.636058
2629.842026,-689.485948,-1702.473667,9844.739029
2629.842356,-1225.752797,-296.082377,9548.656652
2629.842685,-689.485948,148.041188,9104.533087
2629.843014,-536.266849,-0.000000,8216.285956
2629.843343,-919.314598,-518.144159,9178.553681
2629.843672,229.828649,-814.226536,9400.615463
2629.844001,536.266849,-0.000000,8438.347739
2629.844331,689.485948,962.267725,7698.141797
2629.844660,766.095498,296.082377,8364.327145
2629.844989,76.609550,-222.061783,8956.491898
2629.845318,229.828649,-1258.350101,9326.594869
2629.845647,153.219100,-740.205942,8882.471304
2629.845977,-306.438199,1110.308913,8216.285956
2629.846306,-306.438199,814.226536,8438.347739
2629.846635,-766.095498,-296.082377,9030.512492
2629.846964,-842.705048,-1110.308913,9770.718434
2629.847293,-306.438199,-1036.288319,9104.533087
2629.847623,-459.657299,-222.061783,8882.471304
2629.847952,-306.438199,-518.144159,8956.491898
2629.848281,0.000000,-518.144159,9474.636058
2629.848610,919.314598,-1406.391290,9696.697840
2629.848939,1685.410096,-888.247130,8808.450710
2629.849268,1455.581446,814.226536,8586.388927
2629.849598,2068.457845,1258.350101,8438.347739
2629.849927,2757.943793,-0.000000,8660.409521
2629.850256,2451.505594,222.061783,8808.450710
2629.850585,2374.896044,296.082377,9030.512492
2629.850914,1915.238745,962.267725,8734.430116
2629.851244,1225.752797,962.267725,8586.388927
2629.851573,1072.533697,-222.061783,9474.636058
2629.851902,536.266849,-1924.535449,9992.780217
2629.852231,0.000000,-1628.453072,10362.883188
2629.852560,0.000000,-222.061783,9918.759623
2629.852889,-612.876398,-0.000000,9992.780217
2629.853219,-306.438199,-370.102971,10362.883188
2629.853548,0.000000,-518.144159,9770.718434
2629.853877,0.000000,-518.144159,9104.533087
2629.854206,1378.971896,888.247130,9178.553681
2629.854535,842.705048,1184.329507,8734.430116
2629.854865,1225.752797,-74.020594,8586.388927
2629.855194,1225.752797,-888.247130,9474.636058
2629.855523,2221.676944,-444.123565,9696.697840
2629.855852,1072.533697,1480.411884,7846.182985
2629.856181,919.314598,740.205942,8068.244768
2629.856511,1149.143247,444.123565,8734.430116
2629.856840,-536.266849,-0.000000,9252.574275
2629.857169,229.828649,-592.164754,9622.677246
2629.857498,306.438199,296.082377,8142.265362
2629.857827,-383.047749,-222.061783,8142.265362
2629.858156,-153.219100,-74.020594,8734.430116
2629.858486,-842.705048,-2146.597232,9548.656652
2629.858815,-1685.410096,-1850.514855,9474.636058
2629.859144,-536.266849,-518.144159,8364.327145
2629.859473,-1302.362347,814.226536,9178.553681
2629.859802,-1532.190996,-444.123565,8882.471304
2629.860132,-1225.752797,-814.226536,9326.594869
2629.860461,-842.705048,-1406.391290,9474.636058
2629.860790,-229.828649,-222.061783,8734.430116
2629.861119,0.000000,-222.061783,8512.368333
2629.861448,0.000000,-444.123565,8660.409521
2629.861777,689.485948,-1110.308913,9252.574275
2629.862107,459.657299,-1480.411884,9104.533087
2629.862436,842.705048,444.123565,8364.327145
2629.862765,1072.533697,1110.308913,8216.285956
2629.863094,612.876398,1036.288319,8438.347739
2629.863423,766.095498,-666.185348,9252.574275
2629.863753,1072.533697,-1036.288319,9030.512492
2629.864082,766.095498,-0.000000,8290.306550
2629.864411,689.485948,444.123565,8586.388927
2629.864740,229.828649,-0.000000,8882.471304
2629.865069,76.609550,-666.185348,9474.636058
2629.865399,-766.095498,-1406.391290,9770.718434
2629.865728,536.266849,-666.185348,8956.491898
2629.866057,0.000000,-0.000000,8956.491898
2629.866386,-1608.800546,814.226536,9622.677246
2629.866715,0.000000,-444.123565,9622.677246
2629.867044,153.219100,-592.164754,9992.780217
2629.867374,612.876398,666.185348,9104.533087
2629.867703,1455.581446,1184.329507,8956.491898
2629.868032,1149.143247,296.082377,9326.594869
2629.868361,919.314598,148.041188,9622.677246
2629.868690,2145.067394,-740.205942,9696.697840
2629.869020,1455.581446,296.082377,9252.574275
2629.869349,1762.019645,1480.411884,8586.388927
2629.869678,1762.019645,814.226536,8808.450710
2629.870007,1378.971896,370.102971,8882.471304
2629.870336,2298.286494,-814.226536,9474.636058
2629.870665,2145.067394,-518.144159,8882.471304
2629.870995,1455.581446,962.267725,8660.409521
2629.871324,766.095498,-0.000000,8364.327145
2629.871653,689.485948,-592.164754,9548.656652
2629.871982,459.657299,-1110.308913,9622.677246
2629.872311,0.000000,-222.061783,9548.656652
2629.872641,0.000000,444.123565,8512.368333
2629.872970,-612.876398,370.102971,9104.533087
2629.873299,-842.705048,-0.000000,9474.636058
2629.873628,-536.266849,-1628.453072,9770.718434
2629.873957,-919.314598,-1480.411884,9474.636058
2629.874287,-229.828649,-296.082377,8882.471304
2629.874616,-459.657299,-0.000000,8216.285956
2629.874945,-306.438199,-1406.391290,9326.594869
2629.875274,76.609550,-1924.535449,9474.636058
2629.875603,306.438199,-1480.411884,9400.615463
2629.875932,0.000000,666.185348,8586.388927
2629.876262,536.266849,888.247130,8290.306550
2629.876591,536.266849,-0.000000,8364.327145
2629.876920,536.266849,-148.041188,8586.388927
2629.877249,1608.800546,-814.226536,8956.491898
2629.877578,459.657299,222.061783,7550.100608
2629.877907,-459.657299,-0.000000,8512.368333
2629.878236,0.000000,-1036.288319,9252.574275
2629.878565,-689.485948,-1554.432478,8956.491898
2629.878894,-612.876398,-1628.453072,9474.636058
2629.879223,-842.705048,-0.000000,8808.450710
2629.879552,-1072.533697,666.185348,8882.471304
2629.879881,-919.314598,-148.041188,9548.656652
2629.880210,-689.485948,-1110.308913,9622.677246
2629.880539,-153.219100,-296.082377,9326.594869
2629.880868,229.828649,-0.000000,8660.409521
2629.881197,153.219100,740.205942,8438.347739
2629.881526,766.095498,-222.061783,8882.471304
2629.881855,1532.190996,-888.247130,9474.636058
2629.882184,919.314598,-666.185348,8882.471304
2629.882513,1302.362347,740.205942,8882.471304
2629.882842,919.314598,1406.391290,8512.368333
2629.883171,842.705048,740.205942,9104.533087
2629.883500,1072.533697,-296.082377,9400.615463
2629.883829,1072.533697,-370.102971,9178.553681
2629.884158,306.438199,-148.041188,9252.574275
2629.884487,306.438199,148.041188,9030.512492
2629.884816,76.609550,-148.041188,9844.739029
2629.885145,153.219100,-2368.659014,10658.965565
2629.885474,0.000000,-1258.350101,9844.739029
2629.885803,0.000000,222.061783,9696.697840
2629.886132,229.828649,1184.329507,8882.471304
2629.886461,536.266849,814.226536,8882.471304
2629.886791,229.828649,-0.000000,9918.759623
2629.887120,1608.800546,-370.102971,9548.656652
2629.887449,1072.533697,222.061783,9178.553681
2629.887778,766.095498,814.226536,8364.327145
2629.888107,536.266849,370.102971,8512.368333
2629.888436,689.485948,-444.123565,9326.594869
2629.888765,689.485948,-1036.288319,9548.656652
2629.889094,459.657299,-74.020594,9104.533087
2629.889423,0.000000,740.205942,8956.491898
2629.889752,0.000000,-74.020594,9030.512492
2629.890081,-536.266849,-666.185348,9400.615463
2629.890410,0.000000,-592.164754,9474.636058
2629.890739,0.000000,-0.000000,8956.491898
2629.891068,383.047749,592.164754,8660.409521
2629.891397,842.705048,296.082377,8142.265362
2629.891726,689.485948,-666.185348,8586.388927
2629.892055,919.314598,-1184.329507,8808.450710
2629.892384,842.705048,-444.123565,8586.388927
2629.892713,0.000000,962.267725,8216.285956
2629.893042,-306.438199,444.123565,8586.388927
2629.893371,76.609550,-1184.329507,9696.697840
2629.893700,-612.876398,-2072.576638,9844.739029
2629.894029,-536.266849,-1258.350101,9400.615463
2629.894358,-842.705048,-962.267725,9400.615463
2629.894687,-1302.362347,-814.226536,9326.594869
2629.895016,-1072.533697,-1554.432478,9770.718434
2629.895345,-536.266849,-1628.453072,10362.883188
2629.895674,306.438199,-370.102971,9400.615463
2629.896003,1072.533697,1480.411884,8512.368333
2629.896332,1455.581446,1480.411884,8734.430116
2629.896661,1915.238745,592.164754,8660.409521
2629.896990,2298.286494,-222.061783,8956.491898
2629.897319,2528.115143,1110.308913,7846.182985
2629.897648,1915.238745,1332.370696,8142.265362
2629.897977,1762.019645,592.164754,8216.285956
2629.898306,1225.752797,-592.164754,8290.306550
2629.898635,536.266849,-1554.432478,10288.862594
2629.898964,306.438199,-666.185348,9474.636058
2629.899293,-842.705048,-74.020594,9696.697840
2629.899622,-1302.362347,-148.041188,9474.636058
2629.899951,-1225.752797,-148.041188,9770.718434
2629.900280,-766.095498,-1258.350101,10288.862594
2629.900609,0.000000,-1036.288319,9474.636058
2629.900938,612.876398,1258.350101,8956.491898
2629.901267,1225.752797,592.164754,8956.491898
2629.901597,1302.362347,222.061783,8438.347739
2629.901926,1915.238745,-148.041188,8956.491898
2629.902255,2145.067394,-0.000000,8586.388927
2629.902584,1762.019645,518.144159,7994.224174
2629.902913,1455.581446,740.205942,8290.306550
2629.903242,1302.362347,-0.000000,8512.368333
2629.903571,1455.581446,-592.164754,8808.450710
2629.903900,766.095498,-592.164754,8956.491898
2629.904229,536.266849,148.041188,9104.533087
2629.904558,0.000000,296.082377,8734.430116
2629.904887,0.000000,-74.020594,9400.615463
2629.905216,76.609550,-1110.308913,10066.800811
2629.905545,0.000000,-962.267725,9844.739029
2629.905874,-1149.143247,666.185348,9104.533087
2629.906203,-536.266849,962.267725,8808.450710
2629.906532,-766.095498,370.102971,9104.533087
2629.906861,-229.828649,-666.185348,9548.656652
2629.907190,0.000000,-740.205942,9400.615463
2629.907519,-306.438199,148.041188,9474.636058
2629.907848,0.000000,-444.123565,8882.471304
2629.908177,0.000000,-962.267725,9326.594869
2629.908506,-536.266849,-1036.288319,9622.677246
2629.908835,306.438199,-518.144159,8882.471304
2629.909164,0.000000,-0.000000,8808.450710
2629.909493,0.000000,222.061783,9696.697840
2629.909822,153.219100,962.267725,7994.224174
2629.910151,0.000000,-1110.308913,9326.594869
2629.910480,0.000000,-296.082377,9178.553681
2629.910809,612.876398,370.102971,9178.553681
2629.911138,-612.876398,296.082377,9178.553681
2629.911467,0.000000,-148.041188,8512.368333
2629.911796,229.828649,-1776.494261,9400.615463
2629.912125,-536.266849,-1776.494261,9326.594869
2629.912454,689.485948,-1036.288319,8438.347739
2629.912783,306.438199,-0.000000,8660.409521
2629.913112,-383.047749,666.185348,7328.038826
2629.913441,383.047749,-592.164754,8364.327145
2629.913770,0.000000,-444.123565,9918.759623
2629.914099,612.876398,-0.000000,8290.306550
2629.914428,1072.533697,296.082377,8734.430116
2629.914757,842.705048,-0.000000,9030.512492
2629.915086,689.485948,-888.247130,8956.491898
2629.915415,842.705048,-814.226536,9622.677246
2629.915744,1072.533697,-148.041188,8956.491898
2629.916073,536.266849,370.102971,8808.450710
2629.916403,766.095498,592.164754,8438.347739
2629.916732,919.314598,-1036.288319,9252.574275
2629.917061,919.314598,-592.164754,9548.656652
2629.917390,1455.581446,-222.061783,8956.491898
2629.917719,1378.971896,-74.020594,9030.512492
2629.918048,1302.362347,444.123565,8364.327145
2629.918377,1149.143247,-444.123565,9474.636058
2629.918706,919.314598,-1036.288319,9400.615463
2629.919035,766.095498,-370.102971,9474.636058
2629.919364,459.657299,740.205942,8660.409521
2629.919693,153.219100,888.247130,8882.471304
2629.920022,-229.828649,-0.000000,9104.533087
2629.920351,-306.438199,-740.205942,9622.677246
2629.920680,0.000000,-814.226536,9992.780217
2629.921009,-612.876398,444.123565,9400.615463
2629.921338,76.609550,-814.226536,9400.615463
2629.921667,-383.047749,-1184.329507,9104.533087
2629.921996,842.705048,-666.185348,10214.842000
2629.922325,153.219100,-222.061783,9992.780217
2629.922654,612.876398,1258.350101,8586.388927
2629.922983,689.485948,1554.432478,8586.388927
2629.923312,995.924147,962.267725,8882.471304
2629.923641,842.705048,-74.020594,9104.533087
2629.923970,689.485948,-222.061783,8882.471304
2629.924299,766.095498,888.247130,7698.141797
2629.924628,229.828649,592.164754,8364.327145
2629.924957,-153.219100,-814.226536,9178.553681
2629.925286,-383.047749,-1406.391290,9474.636058
2629.925615,-919.314598,-1332.370696,9696.697840
2629.925944,-1608.800546,-222.061783,9178.553681
2629.926273,-1072.533697,296.082377,9030.512492
2629.926602,-1455.581446,-962.267725,9548.656652
2629.926931,-1149.143247,-1332.370696,10362.883188
2629.927260,-383.047749,-1036.288319,9400.615463
2629.927589,-306.438199,-222.061783,8882.471304
2629.927918,536.266849,370.102971,8364.327145
2629.928247,995.924147,-518.144159,8512.368333
2629.928576,995.924147,-1110.308913,9400.615463
2629.928905,2145.067394,-1036.288319,9030.512492
2629.929234,1225.752797,592.164754,8142.265362
2629.929563,842.705048,666.185348,8142.265362
2629.929892,383.047749,-0.000000,8808.450710
2629.930221,0.000000,-814.226536,9104.533087
2629.930550,0.000000,-666.185348,9178.553681
2629.930879,842.705048,-370.102971,8660.409521
2629.931209,0.000000,-148.041188,8142.265362
2629.931538,0.000000,-888.247130,9252.574275
2629.931867,0.000000,-1480.411884,9252.574275
2629.932196,612.876398,-592.164754,9252.574275
2629.932525,229.828649,444.123565,8586.388927
2629.932854,229.828649,1110.308913,9400.615463
2629.933183,689.485948,148.041188,8734.430116
2629.933512,1302.362347,-592.164754,9400.615463
2629.933841,919.314598,-370.102971,9030.512492
2629.934170,1685.410096,592.164754,8438.347739
2629.934499,1685.410096,-0.000000,8290.306550
2629.934828,919.314598,148.041188,8956.491898
2629.935157,1455.581446,-1184.329507,10066.800811
2629.935486,1302.362347,-1332.370696,9474.636058
2629.935815,1455.581446,1110.308913,9104.533087
2629.936144,919.314598,740.205942,8364.327145
2629.936473,1302.362347,888.247130,8808.450710
2629.936802,612.876398,-0.000000,9474.636058
2629.937131,766.095498,-444.123565,9474.636058
2629.937460,1072.533697,-0.000000,8956.491898
2629.937789,919.314598,740.205942,8586.388927
2629.938118,1378.971896,370.102971,8512.368333
2629.938447,919.314598,-592.164754,9548.656652
2629.938776,612.876398,-962.267725,9844.739029
2629.939105,536.266849,-0.000000,9770.718434
2629.939434,0.000000,1184.329507,9178.553681
2629.939763,-1378.971896,592.164754,9474.636058
2629.940092,-612.876398,-888.247130,9992.780217
2629.940421,-612.876398,-1110.308913,9918.759623
2629.940750,-459.657299,-0.000000,9548.656652
2629.941079,-383.047749,444.123565,8512.368333
2629.941408,-229.828649,222.061783,8734.430116
2629.941737,-229.828649,-518.144159,9770.718434
2629.942066,-383.047749,-1702.473667,9844.739029
2629.942395,-306.438199,-222.061783,9104.533087
2629.942724,-995.924147,-0.000000,9252.574275
2629.943053,-459.657299,296.082377,8438.347739
2629.943382,-229.828649,-518.144159,9178.553681
2629.943711,-229.828649,-1258.350101,9400.615463
2629.944040,0.000000,-444.123565,8956.491898
2629.944369,153.219100,740.205942,8068.244768
2629.944698,459.657299,-0.000000,7994.224174
2629.945027,306.438199,-1110.308913,8882.471304
2629.945356,76.609550,-1184.329507,8438.347739
2629.945685,-383.047749,-444.123565,8364.327145
2629.946015,-536.266849,666.185348,7920.203579
2629.946344,-612.876398,740.205942,7846.182985
2629.946673,0.000000,-0.000000,9326.594869
2629.947002,-153.219100,-1702.473667,8882.471304
2629.947331,-536.266849,-814.226536,8660.409521
2629.947660,383.047749,-0.000000,8364.327145
2629.947989,306.438199,148.041188,8142.265362
2629.948318,-306.438199,-814.226536,9474.636058
2629.948647,612.876398,-1850.514855,9992.780217
2629.948976,995.924147,-888.247130,9474.636058
2629.949305,995.924147,444.123565,7994.224174
2629.949634,1225.752797,296.082377,8512.368333
2629.949963,689.485948,222.061783,8882.471304
2629.950292,1378.971896,-0.000000,9400.615463
2629.950621,2145.067394,370.102971,8956.491898
2629.950950,919.314598,444.123565,8290.306550
2629.951279,1149.143247,518.144159,8882.471304
2629.951608,1302.362347,-222.061783,9252.574275
2629.951937,766.095498,-1258.350101,9844.739029
2629.952266,229.828649,-1110.308913,10436.903782
2629.952595,229.828649,518.144159,9400.615463
2629.952924,153.219100,296.082377,9622.677246
2629.953253,0.000000,296.082377,9622.677246
2629.953582,612.876398,-666.185348,9548.656652
2629.953911,842.705048,-962.267725,10140.821405
2629.954240,919.314598,1110.308913,8882.471304
2629.954569,1072.533697,666.185348,8438.347739
2629.954898,919.314598,370.102971,8660.409521
2629.955227,1302.362347,-962.267725,9844.739029
2629.955556,1455.581446,-0.000000,9104.533087
2629.955885,689.485948,444.123565,8068.244768
2629.956214,842.705048,1184.329507,8808.450710
2629.956543,842.705048,222.061783,9030.512492
2629.956872,153.219100,-296.082377,9252.574275
2629.957201,0.000000,-592.164754,8956.491898
2629.957530,306.438199,-0.000000,8808.450710
2629.957859,-306.438199,518.144159,8586.388927
2629.958188,-459.657299,-1036.288319,8956.491898
2629.958517,-1225.752797,-1702.473667,9622.677246
2629.958846,-536.266849,-1628.453072,9918.759623
2629.959175,-536.266849,-0.000000,8956.491898
2629.959504,-689.485948,518.144159,8660.409521
2629.959833,-1149.143247,-0.000000,8882.471304
2629.960162,-612.876398,-666.185348,8882.471304
2629.960491,-459.657299,-1480.411884,9696.697840
2629.960821,0.000000,-1036.288319,8438.347739
2629.961150,0.000000,-0.000000,8068.244768
2629.961479,0.000000,-888.247130,8586.388927
2629.961808,0.000000,-1258.350101,8660.409521
2629.962137,766.095498,-592.164754,8882.471304
2629.962466,689.485948,148.041188,8290.306550
2629.962795,766.095498,1110.308913,8734.430116
2629.963124,689.485948,444.123565,9030.512492
2629.963453,459.657299,-814.226536,9178.553681
2629.963782,0.000000,-296.082377,9548.656652
2629.964111,536.266849,-0.000000,8882.471304
2629.964440,-153.219100,370.102971,8808.450710
2629.964769,76.609550,-370.102971,9326.594869
2629.965098,459.657299,-1406.391290,9770.718434
2629.965427,383.047749,-1332.370696,9326.594869
2629.965756,0.000000,-222.061783,9622.677246
2629.966085,0.000000,740.205942,8808.450710
2629.966414,76.609550,888.247130,9030.512492
2629.966743,689.485948,-74.020594,9400.615463
2629.967072,689.485948,-592.164754,9252.574275
2629.967401,842.705048,-0.000000,8808.450710
2629.967730,1685.410096,740.205942,8364.327145
2629.968059,1302.362347,148.041188,8438.347739
2629.968388,1378.971896,-370.102971,9104.533087
2629.968717,842.705048,-888.247130,9696.697840
2629.969046,842.705048,-74.020594,9548.656652
2629.969375,1378.971896,1406.391290,8882.471304
2629.969704,306.438199,666.185348,9178.553681
2629.970033,536.266849,-296.082377,9622.677246
2629.970362,842.705048,-592.164754,10140.821405
2629.970691,383.047749,-444.123565,9400.615463
2629.971020,459.657299,888.247130,8882.471304
2629.971349,612.876398,-296.082377,8956.491898
2629.971678,306.438199,-296.082377,8808.450710
2629.972007,1149.143247,-1110.308913,9992.780217
2629.972336,536.266849,-592.164754,7994.224174
2629.972665,536.266849,888.247130,8660.409521
2629.972994,229.828649,1332.370696,9178.553681
2629.973323,-153.219100,-296.082377,9474.636058
2629.973652,-612.876398,-888.247130,9696.697840
2629.973981,-536.266849,-1036.288319,9622.677246
2629.974310,-995.924147,-1036.288319,9474.636058
2629.974639,-919.314598,-296.082377,9474.636058
2629.974968,-536.266849,-1776.494261,10214.842000
2629.975297,-842.705048,-1850.514855,10288.862594
2629.975627,153.219100,-888.247130,9474.636058
2629.975956,536.266849,148.041188,8438.347739
2629.976285,612.876398,518.144159,7994.224174
2629.976614,1608.800546,370.102971,8290.306550
2629.976943,1149.143247,-814.226536,8808.450710
2629.977272,1685.410096,-222.061783,8216.285956
2629.977601,1302.362347,444.123565,7550.100608
2629.977930,919.314598,962.267725,7179.997637
2629.978259,-306.438199,-370.102971,8438.347739
2629.978588,-383.047749,-1702.473667,9844.739029
2629.978917,-229.828649,-1406.391290,9548.656652
2629.979246,-995.924147,-0.000000,9326.594869
2629.979575,-1532.190996,-0.000000,9474.636058
2629.979904,-1149.143247,-518.144159,9326.594869
2629.980233,-766.095498,-888.247130,9696.697840
2629.980562,153.219100,-222.061783,9326.594869
2629.980891,612.876398,518.144159,8586.388927
2629.981221,1072.533697,666.185348,7920.203579
2629.981550,2145.067394,-148.041188,8660.409521
2629.981879,2604.724693,-370.102971,8438.347739
2629.982208,1838.629195,-148.041188,8808.450710
2629.982537,1915.238745,1184.329507,7994.224174
2629.982866,1149.143247,1776.494261,8660.409521
2629.983195,1532.190996,370.102971,8956.491898
2629.983524,842.705048,-592.164754,9400.615463
2629.983853,153.219100,-1406.391290,9622.677246
2629.984183,612.876398,-518.144159,9770.718434
2629.984512,229.828649,-296.082377,9030.512492
2629.984841,0.000000,-444.123565,9400.615463
2629.985170,76.609550,-1184.329507,10140.821405
2629.985499,0.000000,-1628.453072,10510.924376
2629.985828,153.219100,-74.020594,9326.594869
2629.986157,-459.657299,962.267725,8734.430116
2629.986486,306.438199,444.123565,9474.636058
2629.986815,842.705048,296.082377,10066.800811
2629.987145,536.266849,-0.000000,9178.553681
2629.987474,689.485948,666.185348,8882.471304
2629.987803,1608.800546,1258.350101,8512.368333
2629.988132,1149.143247,222.061783,8512.368333
2629.988461,1532.190996,-592.164754,9400.615463
2629.988790,919.314598,-888.247130,9474.636058
2629.989119,766.095498,-0.000000,9918.759623
2629.989448,766.095498,2072.576638,8808.450710
2629.989777,306.438199,666.185348,8438.347739
2629.990106,536.266849,-296.082377,9622.677246
2629.990436,229.828649,-222.061783,9104.533087
2629.990765,306.438199,-222.061783,8586.388927
2629.991094,153.219100,814.226536,9178.553681
2629.991423,-153.219100,-740.205942,8586.388927
2629.991752,0.000000,-666.185348,9326.594869
2629.992081,-842.705048,-1776.494261,10362.883188
2629.992410,-536.266849,-814.226536,8364.327145
2629.992739,-995.924147,-148.041188,9178.553681
2629.993068,-1378.971896,814.226536,9992.780217
2629.993398,-1685.410096,-1332.370696,10362.883188
2629.993727,153.219100,-1258.350101,9548.656652
2629.994056,-306.438199,-518.144159,8438.347739
2629.994385,153.219100,888.247130,8660.409521
2629.994714,229.828649,-74.020594,8512.368333
2629.995043,459.657299,-222.061783,9030.512492
2629.995372,1378.971896,-1258.350101,9326.594869
2629.995701,1225.752797,-74.020594,8512.368333
2629.996030,459.657299,-0.000000,8068.244768
2629.996360,459.657299,666.185348,8216.285956
2629.996689,-306.438199,-1036.288319,8808.450710
2629.997018,76.609550,-1110.308913,9326.594869
2629.997347,0.000000,-888.247130,8660.409521
2629.997676,-536.266849,-0.000000,8956.491898
2629.998005,306.438199,-814.226536,8882.471304
2629.998334,306.438199,-1110.308913,9400.615463
2629.998663,0.000000,-1480.411884,9252.574275
2629.998992,76.609550,-592.164754,9178.553681
2629.999322,153.219100,814.226536,9030.512492
2629.999651,76.609550,962.267725,8364.327145
2629.999980,76.609550,-222.061783,8734.430116
2630.000309,383.047749,-296.082377,9844.739029
2630.000638,1378.971896,-370.102971,8808.450710
2630.000967,1455.581446,296.082377,8438.347739
2630.001296,536.266849,592.164754,8512.368333
2630.001625,919.314598,-740.205942,9104.533087
2630.001954,1455.581446,-740.205942,9252.574275
2630.002283,919.314598,-518.144159,8660.409521
2630.002613,1225.752797,666.185348,8660.409521
2630.002942,1302.362347,592.164754,8512.368333
2630.003271,383.047749,296.082377,9030.512492
2630.003600,1455.581446,-1036.288319,9844.739029
2630.003929,1608.800546,-148.041188,8734.430116
2630.004258,689.485948,814.226536,8512.368333
2630.004587,1302.362347,962.267725,8882.471304
2630.004916,1072.533697,148.041188,9474.636058
2630.005245,306.438199,-814.226536,9918.759623
2630.005575,306.438199,-74.020594,10140.821405
2630.005904,-612.876398,-0.000000,9400.615463
2630.006233,-612.876398,888.247130,9400.615463
2630.006562,-689.485948,-0.000000,9844.739029
2630.006891,-1149.143247,-962.267725,10584.944971
2630.007220,-612.876398,-1110.308913,10140.821405
2630.007549,0.000000,-518.144159,9326.594869
2630.007878,0.000000,-592.164754,8882.471304
2630.008207,229.828649,-666.185348,8660.409521
2630.008537,536.266849,-1406.391290,9918.759623
2630.008866,306.438199,-1258.350101,9326.594869
2630.009195,612.876398,518.144159,8290.306550
2630.009524,306.438199,1332.370696,8438.347739
2630.009853,689.485948,740.205942,8956.491898
2630.010182,612.876398,-222.061783,9030.512492
2630.010511,612.876398,-592.164754,9178.553681
2630.010840,459.657299,-370.102971,8512.368333
2630.011169,383.047749,666.185348,8068.244768
2630.011499,0.000000,-222.061783,8512.368333
2630.011828,0.000000,-1554.432478,9474.636058
2630.012157,-383.047749,-1406.391290,9474.636058
2630.012486,-229.828649,-444.123565,9178.553681
2630.012815,-383.047749,444.123565,8512.368333
2630.013144,-919.314598,-0.000000,8956.491898
2630.013473,-383.047749,-1036.288319,9474.636058
2630.013802,-383.047749,-1406.391290,9474.636058
2630.014131,153.219100,-444.123565,8660.409521
2630.014460,306.438199,370.102971,8142.265362
2630.014790,995.924147,-444.123565,8956.491898
2630.015119,1302.362347,-444.123565,8734.430116
2630.015448,842.705048,-222.061783,8660.409521
2630.015777,1455.581446,222.061783,8660.409521
2630.016106,1149.143247,888.247130,8142.265362
2630.016435,1455.581446,962.267725,8216.285956
2630.016764,1149.143247,-0.000000,8956.491898
2630.017093,1302.362347,-1036.288319,9400.615463
2630.017422,1302.362347,-592.164754,9104.533087
2630.017752,919.314598,-0.000000,9104.533087
2630.018081,459.657299,-444.123565,8882.471304
2630.018410,306.438199,-888.247130,9548.656652
2630.018739,0.000000,-1554.432478,10214.842000
2630.019068,-459.657299,-370.102971,10066.800811
2630.019397,-612.876398,-0.000000,9548.656652
2630.019726,76.609550,444.123565,9622.677246
2630.020055,842.705048,-370.102971,9622.677246
2630.020384,153.219100,-592.164754,10066.800811
2630.020714,459.657299,518.144159,9252.574275
2630.021043,766.095498,1110.308913,8586.388927
2630.021372,1072.533697,518.144159,7698.141797
2630.021701,766.095498,-444.123565,9474.636058
2630.022030,612.876398,-1406.391290,9622.677246
2630.022359,842.705048,-370.102971,9178.553681
2630.022688,76.609550,666.185348,8808.450710
2630.023017,153.219100,1110.308913,8512.368333
2630.023346,-306.438199,-0.000000,9992.780217
2630.023676,-383.047749,-518.144159,10140.821405
2630.024005,0.000000,-0.000000,9474.636058
2630.024334,-536.266849,296.082377,9104.533087
2630.024663,0.000000,370.102971,8290.306550
2630.024992,-383.047749,-888.247130,9400.615463
2630.025321,-919.314598,-1480.411884,9770.718434
2630.025650,-919.314598,-518.144159,9326.594869
2630.025979,-612.876398,740.205942,8660.409521
2630.026308,-1302.362347,1036.288319,8734.430116
2630.026637,-766.095498,222.061783,8882.471304
2630.026967,-459.657299,-1184.329507,9474.636058
2630.027296,0.000000,-1036.288319,9474.636058
2630.027625,0.000000,-148.041188,8586.388927
2630.027954,0.000000,-222.061783,8660.409521
2630.028283,0.000000,-444.123565,9548.656652
2630.028612,766.095498,-1554.432478,9918.759623
2630.028941,536.266849,-814.226536,9326.594869
2630.029270,1608.800546,296.082377,8290.306550
2630.029599,1225.752797,888.247130,8068.244768
2630.029929,1532.190996,592.164754,8512.368333
2630.030258,1532.190996,-74.020594,8956.491898
2630.030587,1608.800546,-0.000000,7846.182985
2630.030916,1608.800546,888.247130,7772.162391
2630.031245,842.705048,-0.000000,7179.997637
2630.031574,-76.609550,-148.041188,9178.553681
2630.031903,-383.047749,-1850.514855,9474.636058
2630.032232,-1532.190996,-2220.617826,9178.553681
2630.032561,-2604.724693,-962.267725,9326.594869
2630.032891,-3064.381992,-296.082377,9474.636058
2630.033220,-2604.724693,-518.144159,9104.533087
2630.033549,-2911.162892,-888.247130,8882.471304
2630.033878,-2911.162892,-1184.329507,10362.883188
2630.034207,-2298.286494,444.123565,8660.409521
2630.034536,-2221.676944,1110.308913,8734.430116
2630.034865,-2221.676944,444.123565,8882.471304
2630.035194,-2068.457845,-888.247130,9104.533087
2630.035523,-2374.896044,-1924.535449,9918.759623
2630.035852,-2451.505594,-888.247130,9918.759623
2630.036182,-2451.505594,-74.020594,8734.430116
2630.036511,-2221.676944,740.205942,8290.306550
2630.036840,-1225.752797,518.144159,8142.265362
2630.037169,-1455.581446,-296.082377,9178.553681
2630.037498,-1991.848295,-888.247130,9400.615463
2630.037827,-1455.581446,740.205942,8364.327145
2630.038156,-2068.457845,370.102971,8216.285956
2630.038485,-1532.190996,-74.020594,8808.450710
2630.038814,-2298.286494,-888.247130,9400.615463
2630.039144,-2911.162892,-1850.514855,10066.800811
2630.039473,-3064.381992,-888.247130,9918.759623
2630.039802,-2451.505594,-0.000000,9104.533087
2630.040131,-2681.334243,962.267725,8660.409521
2630.040460,-2528.115143,814.226536,9474.636058
2630.040789,-2604.724693,-296.082377,9918.759623
2630.041118,-3600.648841,-444.123565,9474.636058
2630.041447,-3140.991542,222.061783,9104.533087
2630.041776,-3064.381992,222.061783,8660.409521
2630.042106,-3217.601092,-0.000000,8882.471304
2630.042435,-2987.772442,-296.082377,8734.430116
2630.042764,-3600.648841,-888.247130,9400.615463
2630.043093,-3677.258390,-814.226536,8808.450710
2630.043422,-3830.477490,-962.267725,9104.533087
2630.043751,-3907.087040,-370.102971,9030.512492
2630.044080,-4366.744339,-370.102971,9400.615463
2630.044409,-4903.011187,-814.226536,9326.594869
2630.044738,-4443.353888,-518.144159,9548.656652
2630.045068,-4443.353888,-962.267725,9622.677246
2630.045397,-4060.306139,-666.185348,9474.636058
2630.045726,-3217.601092,-444.123565,9474.636058
2630.046055,-2604.724693,-740.205942,9400.615463
2630.046384,-1685.410096,-222.061783,8734.430116
2630.046713,-1685.410096,814.226536,7624.121203
2630.047042,-1302.362347,888.247130,8364.327145
2630.047371,-1149.143247,-0.000000,7550.100608
2630.047700,-689.485948,-888.247130,8586.388927
2630.048029,-1149.143247,-740.205942,8438.347739
2630.048359,-1685.410096,-370.102971,7402.059420
2630.048688,-1915.238745,-740.205942,8882.471304
2630.049017,-2681.334243,-0.000000,8734.430116
2630.049346,-2528.115143,444.123565,9400.615463
2630.049675,-2757.943793,592.164754,9770.718434
2630.050004,-2451.505594,1776.494261,8142.265362
2630.050333,-2604.724693,888.247130,9104.533087
2630.050662,-2987.772442,-0.000000,9030.512492
2630.050991,-2681.334243,-1110.308913,10214.842000
2630.051321,-2528.115143,-2072.576638,11103.089130
2630.051650,-1838.629195,-1628.453072,10066.800811
2630.051979,-919.314598,-888.247130,9548.656652
2630.052308,-1302.362347,-0.000000,8290.306550
2630.052637,-1302.362347,370.102971,9326.594869
2630.052966,-1149.143247,-592.164754,9992.780217
2630.053295,-153.219100,-0.000000,8882.471304
2630.053624,0.000000,1110.308913,7698.141797
2630.053953,0.000000,296.082377,8068.244768
2630.054283,-2145.067394,888.247130,8364.327145
2630.054612,-2145.067394,-148.041188,9474.636058
2630.054941,-3064.381992,-666.185348,9474.636058
2630.055270,-2681.334243,-962.267725,9918.759623
2630.055599,-2757.943793,-0.000000,8660.409521
2630.055928,-3294.210641,-0.000000,9104.533087
2630.056257,-4136.915689,-222.061783,9400.615463
2630.056586,-3217.601092,-814.226536,9548.656652
2630.056915,-2757.943793,-444.123565,9178.553681
2630.057245,-2528.115143,-518.144159,8956.491898
2630.057574,-1762.019645,-296.082377,8660.409521
2630.057903,-1455.581446,-0.000000,7920.203579
2630.058232,-1532.190996,-444.123565,8364.327145
2630.058561,-1532.190996,148.041188,9104.533087
2630.058890,-1149.143247,-444.123565,8364.327145
2630.059219,-1608.800546,222.061783,9400.615463
2630.059548,-2145.067394,518.144159,9104.533087
2630.059877,-2451.505594,518.144159,8512.368333
2630.060206,-2528.115143,-0.000000,8438.347739
2630.060536,-2757.943793,814.226536,8734.430116
2630.060865,-2221.676944,740.205942,8438.347739
2630.061194,-3217.601092,444.123565,8142.265362
2630.061523,-3753.867940,444.123565,7920.203579
2630.061852,-4749.792088,-814.226536,9030.512492
2630.062181,-4979.620737,-1702.473667,9252.574275
2630.062510,-5286.058936,-2664.741391,9474.636058
2630.062839,-5286.058936,-3330.926739,10140.821405
2630.063168,-4673.182538,-2590.720797,10510.924376
2630.063498,-4826.401637,-2294.638420,10584.944971
2630.063827,-4060.306139,-1702.473667,10362.883188
2630.064156,-3370.820191,-148.041188,9474.636058
2630.064485,-2374.896044,518.144159,9326.594869
2630.064814,-1915.238745,1554.432478,8956.491898
2630.065143,-1762.019645,1998.556043,8882.471304
2630.065472,-1378.971896,2368.659014,7994.224174
2630.065801,-2145.067394,1924.535449,8216.285956
2630.066130,-1762.019645,1850.514855,7550.100608
2630.066460,-2221.676944,1110.308913,7846.182985
2630.066789,-1991.848295,666.185348,7476.080014
2630.067118,-1762.019645,-0.000000,7624.121203
2630.067447,-2374.896044,-0.000000,8068.244768
2630.067776,-2451.505594,-0.000000,7772.162391
2630.068105,-3064.381992,-74.020594,9030.512492
2630.068434,-3294.210641,592.164754,8956.491898
2630.068763,-3753.867940,1258.350101,9400.615463
2630.069092,-4596.572988,1480.411884,9622.677246
2630.069422,-4136.915689,962.267725,11103.089130
2630.069751,-3677.258390,1480.411884,10510.924376
2630.070080,-3983.696590,296.082377,10955.047942
2630.070409,-3140.991542,-0.000000,10955.047942
2630.070738,-1991.848295,444.123565,10214.842000
2630.071067,-1149.143247,1036.288319,9474.636058
2630.071396,-842.705048,1776.494261,8290.306550
2630.071725,-536.266849,1036.288319,9992.780217
2630.072054,76.609550,-518.144159,11547.212695
2630.072383,2528.115143,2664.741391,6883.915261
2630.072713,3524.039291,2664.741391,7846.182985
2630.073042,3830.477490,3849.070898,5107.421000
2630.073371,3830.477490,5329.482782,6957.935855
2630.073700,3830.477490,4737.318029,8882.471304
2630.074029,2528.115143,4885.359217,7698.141797
2630.074358,2451.505594,2960.823768,10140.821405
2630.074687,-383.047749,2368.659014,10140.821405
2630.075016,-2145.067394,2146.597232,11029.068536
2630.075345,-1915.238745,592.164754,11843.295072
2630.075675,-995.924147,1554.432478,9844.739029
2630.076004,-766.095498,1332.370696,11177.109724
2630.076333,-459.657299,1406.391290,9770.718434
2630.076662,459.657299,2960.823768,8808.450710
2630.076991,1685.410096,2294.638420,7698.141797
2630.077320,2757.943793,4145.153275,7624.121203
2630.077649,2451.505594,5329.482782,5773.606348
2630.077978,2451.505594,4515.256246,7550.100608
2630.078307,995.924147,5551.544565,6809.894666
2630.078637,229.828649,4367.215058,7772.162391
2630.078966,-1302.362347,2664.741391,9030.512492
2630.079295,-2911.162892,2220.617826,9918.759623
2630.079624,-1915.238745,-74.020594,12065.356855
2630.079953,-3447.429741,1332.370696,9696.697840
2630.080282,-2604.724693,2886.803174,9326.594869
2630.080611,-3294.210641,2294.638420,9770.718434
2630.080940,-3294.210641,2590.720797,10807.006753
2630.081269,-3217.601092,2146.597232,10584.944971
2630.081598,-1532.190996,1776.494261,9696.697840
2630.081927,-1072.533697,1998.556043,9104.533087
2630.082256,-766.095498,2590.720797,7994.224174
2630.082585,-919.314598,3034.844362,9696.697840
2630.082914,-1072.533697,1924.535449,10807.006753
2630.083243,3064.381992,3330.926739,8808.450710
2630.083572,3600.648841,5921.647536,5181.441594
2630.083901,3830.477490,4737.318029,7624.121203
2630.084230,1225.752797,6735.874072,7402.059420
2630.084559,2834.553343,6957.935855,8734.430116
2630.084888,1762.019645,5995.668130,7105.977043
2630.085217,1532.190996,6143.709319,7105.977043
2630.085546,536.266849,4959.379811,9104.533087
2630.085875,0.000000,4145.153275,8438.347739
2630.086204,-1838.629195,592.164754,11843.295072
2630.086533,-2528.115143,-962.267725,11991.336260
2630.086862,-383.047749,222.061783,10658.965565
2630.087191,-1302.362347,-1110.308913,11843.295072
2630.087520,-1762.019645,3182.885551,9252.574275
2630.087849,-153.219100,2590.720797,10807.006753
2630.088178,766.095498,2960.823768,9400.615463
2630.088507,2298.286494,5477.523971,8216.285956
2630.088836,3983.696590,4589.276840,6957.935855
2630.089165,3140.991542,5181.441594,7476.080014
2630.089494,2068.457845,4959.379811,7698.141797
2630.089823,689.485948,2886.803174,7994.224174
2630.090152,-1532.190996,962.267725,10066.800811
2630.090481,-1762.019645,-370.102971,11547.212695
2630.090810,-2451.505594,148.041188,11029.068536
2630.091139,-1455.581446,444.123565,10955.047942
2630.091468,-1608.800546,1554.432478,8660.409521
2630.091797,-995.924147,1924.535449,9844.739029
2630.092126,-1149.143247,2368.659014,9918.759623
2630.092455,76.609550,962.267725,10955.047942
2630.092784,2528.115143,1332.370696,8808.450710
2630.093112,4290.134789,2368.659014,7328.038826
2630.093441,4596.572988,2516.700203,6661.853478
2630.093770,2757.943793,3775.050304,6143.709319
2630.094099,3600.648841,4293.194464,7920.203579
2630.094428,2834.553343,4663.297435,7254.018232
2630.094757,2757.943793,4515.256246,6587.832884
2630.095086,919.314598,4737.318029,8142.265362
2630.095415,-1072.533697,1480.411884,8438.347739
2630.095744,-3447.429741,-3256.906145,13027.624579
2630.096073,-3140.991542,-1110.308913,11695.253884
2630.096402,-2298.286494,-1702.473667,10881.027347
2630.096731,-3294.210641,-1554.432478,11251.130318
2630.097060,-2834.553343,2368.659014,10732.986159
2630.097389,-383.047749,2220.617826,9030.512492
2630.097718,-612.876398,3108.864956,8290.306550
2630.098047,2528.115143,2368.659014,11991.336260
2630.098376,3830.477490,1924.535449,8808.450710
2630.098705,4366.744339,3701.029710,7846.182985
2630.099034,3447.429741,5699.585753,3404.947333
2630.099363,3830.477490,4737.318029,5255.462188
2630.099692,3064.381992,4663.297435,7402.059420
2630.100021,2834.553343,5033.400406,6809.894666
2630.100350,3524.039291,4145.153275,7031.956449
2630.100679,-306.438199,6291.750507,6513.812290
2630.101008,-536.266849,3034.844362,8142.265362
2630.101337,-5209.449386,-1110.308913,13767.830521
2630.101666,-4060.306139,-1036.288319,12953.603985
2630.101995,-3064.381992,1480.411884,9622.677246
2630.102324,-2451.505594,-6513.812290,12805.562797
2630.102653,-4596.572988,2072.576638,9696.697840
2630.102982,-1072.533697,518.144159,15026.180623
2630.103311,-1532.190996,3627.009116,8882.471304
2630.103640,-1762.019645,5033.400406,8734.430116
2630.103969,1302.362347,1776.494261,10807.006753
2630.104298,3677.258390,4515.256246,8512.368333
2630.104627,2834.553343,5921.647536,6217.729913
2630.104956,3907.087040,2368.659014,6365.771101
2630.105285,1685.410096,4515.256246,6439.791695
2630.105614,1991.848295,5181.441594,10584.944971
2630.105943,-536.266849,5033.400406,7328.038826
2630.106272,-612.876398,6735.874072,6809.894666
2630.106601,-612.876398,-0.000000,10955.047942
2630.106930,-2068.457845,296.082377,10955.047942
2630.107259,-3370.820191,888.247130,11251.130318
2630.107588,-2298.286494,-148.041188,12361.439231
2630.107917,-1532.190996,-3182.885551,10732.986159
2630.108246,-2911.162892,-0.000000,11325.150913
2630.108575,-1225.752797,-0.000000,11621.233289
2630.108904,-1225.752797,2220.617826,9548.656652
2630.109233,2298.286494,2368.659014,7254.018232
2630.109562,5056.230287,5921.647536,6735.874072
2630.109891,3064.381992,5847.626942,6143.709319
2630.110220,2298.286494,3182.885551,10288.862594
2630.110549,995.924147,4293.194464,7920.203579
2630.110877,2068.457845,3701.029710,7105.977043
2630.111206,1455.581446,1406.391290,7624.121203
2630.111535,1225.752797,-148.041188,9992.780217
2630.111864,-536.266849,-4367.215058,12065.356855
2630.112193,-995.924147,-1332.370696,9622.677246
2630.112522,-766.095498,-370.102971,9918.759623
2630.112851,-842.705048,-2516.700203,9770.718434
2630.113180,153.219100,3034.844362,9548.656652
2630.113509,2068.457845,1924.535449,6957.935855
2630.113838,1762.019645,1480.411884,6957.935855
2630.114167,1532.190996,2516.700203,8364.327145
2630.114496,3983.696590,2146.597232,7476.080014
2630.114825,3140.991542,2220.617826,8142.265362
2630.115154,2145.067394,-1036.288319,8438.347739
2630.115483,0.000000,-3256.906145,8956.491898
2630.115812,-1991.848295,-1480.411884,10732.986159
2630.116141,-1072.533697,-1480.411884,10140.821405
2630.116470,-1378.971896,-1036.288319,10584.944971
2630.116799,-1532.190996,518.144159,9548.656652
2630.117128,-1378.971896,-1110.308913,9918.759623
2630.117457,-1762.019645,-1850.514855,10955.047942
2630.117786,-612.876398,-2442.679609,10214.842000
2630.118115,1225.752797,-888.247130,8142.265362
2630.118444,3370.820191,-0.000000,7328.038826
2630.118773,3370.820191,-888.247130,6883.915261
2630.119102,3064.381992,-1332.370696,8216.285956
2630.119431,1225.752797,-296.082377,7624.121203
2630.119760,1838.629195,-0.000000,7328.038826
2630.120089,995.924147,-296.082377,9178.553681
2630.120418,-459.657299,-518.144159,9696.697840
2630.120747,-1455.581446,-2146.597232,10510.924376
2630.121076,-2298.286494,-2590.720797,10955.047942
2630.121405,-2221.676944,-4145.153275,10732.986159
2630.121734,-1685.410096,-2886.803174,10140.821405
2630.122063,-1378.971896,-2368.659014,10955.047942
2630.122392,-1225.752797,-1850.514855,10140.821405
2630.122721,-459.657299,-1924.535449,8808.450710
2630.123050,842.705048,592.164754,6735.874072
2630.123379,2374.896044,2072.576638,6439.791695
2630.123708,2757.943793,2886.803174,6883.915261
2630.124037,1762.019645,1998.556043,6439.791695
2630.124366,1532.190996,1258.350101,6439.791695
2630.124695,612.876398,-74.020594,7624.121203
2630.125024,0.000000,-3256.906145,10362.883188
2630.125353,-1378.971896,-2664.741391,10362.883188
2630.125682,-2451.505594,-3182.885551,10510.924376
2630.126011,-2528.115143,-2072.576638,11325.150913
2630.126340,-2221.676944,-666.185348,10288.862594
2630.126669,-1608.800546,1110.308913,10140.821405
2630.126998,-995.924147,1924.535449,9104.533087
2630.127327,-153.219100,1924.535449,8734.430116
2630.127656,1455.581446,296.082377,8808.450710
2630.127985,2604.724693,592.164754,8216.285956
2630.128314,3064.381992,592.164754,7550.100608
2630.128643,2451.505594,-74.020594,7402.059420
2630.128971,1302.362347,148.041188,7994.224174
2630.129300,842.705048,962.267725,8438.347739
2630.129629,842.705048,740.205942,9104.533087
2630.129958,689.485948,888.247130,8882.471304
2630.130287,0.000000,592.164754,9696.697840
2630.130616,-842.705048,666.185348,9992.780217
2630.130945,-1225.752797,-0.000000,10732.986159
2630.131274,-306.438199,-666.185348,11029.068536
2630.131603,0.000000,-444.123565,10510.924376
2630.131932,536.266849,222.061783,10140.821405
2630.132261,919.314598,-0.000000,9622.677246
2630.132590,995.924147,814.226536,9252.574275
2630.132919,1455.581446,1480.411884,8438.347739
2630.133248,1915.238745,2072.576638,7920.203579
2630.133577,995.924147,2072.576638,8142.265362
2630.133906,1532.190996,1480.411884,8438.347739
2630.134235,995.924147,666.185348,7994.224174
2630.134564,1072.533697,-296.082377,9178.553681
2630.134893,1225.752797,-1480.411884,9104.533087
2630.135222,536.266849,-2072.576638,9844.739029
2630.135551,229.828649,-814.226536,10732.986159
2630.135880,-842.705048,-592.164754,10436.903782
2630.136209,-689.485948,-0.000000,10214.842000
2630.136538,76.609550,1554.432478,8808.450710
2630.136867,1149.143247,1776.494261,8882.471304
2630.137196,612.876398,1406.391290,8808.450710
2630.137525,229.828649,370.102971,8586.388927
2630.137854,459.657299,518.144159,8216.285956
2630.138183,153.219100,-444.123565,8586.388927
2630.138512,842.705048,-1258.350101,8956.491898
2630.138841,76.609550,-2368.659014,8882.471304
2630.139170,-766.095498,-2072.576638,9030.512492
2630.139499,-459.657299,-2072.576638,9178.553681
2630.139828,0.000000,-1110.308913,8586.388927
2630.140157,153.219100,-148.041188,8956.491898
2630.140486,0.000000,518.144159,8734.430116
2630.140815,0.000000,444.123565,9178.553681
2630.141144,306.438199,-370.102971,9178.553681
2630.141473,1072.533697,-1406.391290,9030.512492
2630.141802,1302.362347,-1036.288319,9104.533087
2630.142131,536.266849,-1406.391290,9030.512492
2630.142460,-612.876398,-888.247130,9326.594869
2630.142789,-766.095498,-1332.370696,8734.430116
2630.143118,-919.314598,-1036.288319,8512.368333
2630.143447,-612.876398,-74.020594,8734.430116
2630.143776,-306.438199,-370.102971,8290.306550
2630.144105,-306.438199,-518.144159,7846.182985
2630.144434,-459.657299,-1184.329507,8438.347739
2630.144763,383.047749,-2368.659014,9030.512492
2630.145092,76.609550,-2590.720797,9400.615463
2630.145421,383.047749,-1850.514855,8882.471304
2630.145750,612.876398,-1184.329507,9030.512492
2630.146079,536.266849,-0.000000,9104.533087
2630.146408,1302.362347,518.144159,8438.347739
2630.146736,1608.800546,1628.453072,8438.347739
2630.147065,1532.190996,1480.411884,8734.430116
2630.147394,689.485948,1332.370696,8808.450710
2630.147723,612.876398,592.164754,8512.368333
2630.148052,383.047749,-1036.288319,9178.553681
2630.148381,306.438199,-1924.535449,9326.594869
2630.148710,-383.047749,-2738.761985,9548.656652
2630.149039,-919.314598,-2294.638420,10066.800811
2630.149368,-1225.752797,-2072.576638,9844.739029
2630.149697,-1225.752797,-1110.308913,9326.594869
2630.150026,689.485948,888.247130,9030.512492
2630.150355,383.047749,1406.391290,9178.553681
2630.150684,536.266849,962.267725,8882.471304
2630.151013,919.314598,962.267725,8956.491898
2630.151342,2145.067394,-0.000000,9178.553681
2630.151671,2298.286494,-222.061783,8956.491898
2630.152000,2528.115143,-518.144159,9400.615463
2630.152329,995.924147,-814.226536,10214.842000
2630.152658,306.438199,-148.041188,9474.636058
2630.152987,919.314598,666.185348,8586.388927
2630.153316,919.314598,1184.329507,8512.368333
2630.153645,766.095498,1480.411884,9326.594869
2630.153974,383.047749,814.226536,8808.450710
2630.154303,0.000000,-0.000000,8364.327145
2630.154632,1149.143247,-444.123565,8586.388927
2630.154961,612.876398,-1406.391290,8882.471304
2630.155290,-229.828649,-1554.432478,9622.677246
2630.155619,-689.485948,-1406.391290,9622.677246
2630.155948,-459.657299,-814.226536,9326.594869
2630.156277,-612.876398,444.123565,8438.347739
2630.156606,689.485948,1406.391290,8290.306550
2630.156935,536.266849,1480.411884,8882.471304
2630.157264,306.438199,1480.411884,7698.141797
2630.157593,536.266849,592.164754,8290.306550
2630.157922,842.705048,222.061783,8512.368333
2630.158251,919.314598,-592.164754,8216.285956
2630.158580,76.609550,-888.247130,8956.491898
2630.158909,76.609550,-1258.350101,9178.553681
2630.159238,-766.095498,-1184.329507,9326.594869
2630.159567,-689.485948,-444.123565,9548.656652
2630.159896,-536.266849,296.082377,8808.450710
2630.160225,-536.266849,1258.350101,8882.471304
2630.160554,-383.047749,888.247130,8808.450710
2630.160883,-229.828649,148.041188,9326.594869
2630.161212,76.609550,-518.144159,9696.697840
2630.161541,612.876398,-962.267725,9104.533087
2630.161870,229.828649,-1184.329507,9622.677246
2630.162199,306.438199,-888.247130,9548.656652
2630.162528,0.000000,-222.061783,9474.636058
2630.162857,0.000000,-74.020594,9400.615463
2630.163186,229.828649,370.102971,8882.471304
2630.163515,919.314598,740.205942,8216.285956
2630.163844,612.876398,1480.411884,8808.450710
2630.164173,612.876398,222.061783,9104.533087
2630.164502,459.657299,-370.102971,9104.533087
2630.164830,1072.533697,-1110.308913,9252.574275
2630.165159,1225.752797,-888.247130,9400.615463
2630.165488,689.485948,-1628.453072,9770.718434
2630.165817,383.047749,-74.020594,9770.718434
2630.166146,536.266849,-74.020594,8808.450710
2630.166475,995.924147,666.185348,8956.491898
2630.166804,1149.143247,1776.494261,8808.450710
2630.167133,919.314598,888.247130,8808.450710
2630.167462,229.828649,962.267725,8956.491898
2630.167791,229.828649,-370.102971,9474.636058
2630.168120,0.000000,-1776.494261,9696.697840
2630.168449,306.438199,-2664.741391,9474.636058
2630.168778,0.000000,-2442.679609,9400.615463
2630.169107,-612.876398,-1628.453072,9474.636058
2630.169436,-306.438199,-518.144159,8882.471304
2630.169765,153.219100,-222.061783,8660.409521
2630.170094,229.828649,740.205942,8956.491898
2630.170423,919.314598,888.247130,7920.203579
2630.170752,995.924147,296.082377,8512.368333
2630.171081,919.314598,148.041188,8734.430116
2630.171410,1455.581446,-1110.308913,8808.450710
2630.171739,1532.190996,-888.247130,8734.430116
2630.172068,383.047749,-1184.329507,9030.512492
2630.172397,-306.438199,-1036.288319,9918.759623
2630.172726,-459.657299,-592.164754,9030.512492
2630.173055,229.828649,-518.144159,8808.450710
2630.173384,0.000000,-444.123565,9030.512492
2630.173713,0.000000,-74.020594,8882.471304
2630.174042,-842.705048,-222.061783,9252.574275
2630.174371,-383.047749,-296.082377,8882.471304
2630.174700,0.000000,-1036.288319,8142.265362
2630.175029,76.609550,-888.247130,8882.471304
2630.175358,306.438199,-1776.494261,9548.656652
2630.175687,-306.438199,-1850.514855,9622.677246
2630.176016,-766.095498,-1184.329507,9178.553681
2630.176345,0.000000,-0.000000,8364.327145
2630.176674,229.828649,1184.329507,8882.471304
2630.177003,306.438199,1258.350101,8956.491898
2630.177332,76.609550,1480.411884,8438.347739
2630.177661,459.657299,814.226536,8808.450710
2630.177990,995.924147,296.082377,8808.450710
2630.178319,1378.971896,-962.267725,8882.471304
2630.178648,842.705048,-1110.308913,8956.491898
2630.178977,306.438199,-1406.391290,9548.656652
2630.179306,0.000000,-370.102971,9178.553681
2630.179635,76.609550,-74.020594,8882.471304
2630.179964,842.705048,1258.350101,8586.388927
2630.180293,919.314598,1406.391290,9104.533087
2630.180622,153.219100,1258.350101,9400.615463
2630.180951,0.000000,1036.288319,9252.574275
2630.181280,536.266849,592.164754,8882.471304
2630.181609,459.657299,-296.082377,9400.615463
2630.181937,0.000000,-888.247130,9992.780217
2630.182266,-229.828649,-1480.411884,10362.883188
2630.182595,-536.266849,-1110.308913,10066.800811
2630.182924,229.828649,-0.000000,9474.636058
2630.183253,689.485948,1110.308913,9178.553681
2630.183582,383.047749,1554.432478,9474.636058
2630.183911,612.876398,1776.494261,8956.491898
2630.184240,536.266849,1998.556043,8808.450710
2630.184569,1838.629195,1628.453072,8808.450710
2630.184898,1991.848295,370.102971,9178.553681
2630.185227,1838.629195,-888.247130,9252.574275
2630.185556,1302.362347,-1184.329507,9252.574275
2630.185885,612.876398,-222.061783,9400.615463
2630.186214,536.266849,-74.020594,9400.615463
2630.186543,536.266849,1110.308913,9178.553681
2630.186872,612.876398,1258.350101,9474.636058
2630.187201,229.828649,888.247130,8586.388927
2630.187530,-229.828649,444.123565,9104.533087
2630.187859,153.219100,-370.102971,9548.656652
2630.188188,229.828649,-1702.473667,9326.594869
2630.188517,153.219100,-1702.473667,9622.677246
2630.188846,-689.485948,-2220.617826,9548.656652
2630.189175,-919.314598,-2220.617826,10140.821405
2630.189504,-1149.143247,-1036.288319,9474.636058
2630.189833,229.828649,-74.020594,8956.491898
2630.190162,76.609550,1258.350101,7994.224174
2630.190491,383.047749,1554.432478,8290.306550
2630.190820,383.047749,1184.329507,8290.306550
2630.191149,459.657299,-518.144159,8512.368333
2630.191478,766.095498,-592.164754,9326.594869
2630.191807,1072.533697,-1702.473667,8882.471304
2630.192136,383.047749,-2146.597232,9252.574275
2630.192465,0.000000,-1184.329507,9696.697840
2630.192794,0.000000,-518.144159,8956.491898
2630.193123,229.828649,296.082377,8290.306550
2630.193452,459.657299,1406.391290,8734.430116
2630.193781,0.000000,1628.453072,8216.285956
2630.194110,-229.828649,666.185348,9178.553681
2630.194439,229.828649,-0.000000,8956.491898
2630.194768,0.000000,-1332.370696,8956.491898
2630.195097,153.219100,-2146.597232,9696.697840
2630.195426,0.000000,-2072.576638,9400.615463
2630.195755,-383.047749,-1554.432478,10436.903782
2630.196084,-536.266849,-740.205942,9252.574275
2630.196412,229.828649,296.082377,8586.388927
2630.196741,536.266849,888.247130,8956.491898
2630.197070,689.485948,1776.494261,8512.368333
2630.197399,766.095498,1110.308913,9104.533087
2630.197728,689.485948,518.144159,8512.368333
2630.198057,1302.362347,-0.000000,8882.471304
2630.198386,1762.019645,-1258.350101,9770.718434
2630.198715,1149.143247,-2072.576638,9326.594869
2630.199044,689.485948,-2146.597232,9696.697840
2630.199373,76.609550,-814.226536,9548.656652
2630.199702,459.657299,444.123565,8586.388927
2630.200031,995.924147,1628.453072,9030.512492
2630.200360,842.705048,1406.391290,8438.347739
2630.200689,766.095498,1258.350101,9104.533087
2630.201018,1072.533697,444.123565,8956.491898
2630.201347,766.095498,-888.247130,9104.533087
2630.201676,1225.752797,-1184.329507,9400.615463
2630.202005,689.485948,-1850.514855,9918.759623
2630.202334,-459.657299,-1406.391290,9548.656652
2630.202663,-995.924147,-962.267725,9844.739029
2630.202992,-229.828649,-148.041188,8956.491898
2630.203321,229.828649,740.205942,8660.409521
2630.203650,-306.438199,1776.494261,9252.574275
2630.203979,153.219100,444.123565,9030.512492
2630.204308,153.219100,370.102971,8808.450710
2630.204637,919.314598,-222.061783,8882.471304
2630.204966,1149.143247,-740.205942,9030.512492
2630.205295,612.876398,-1406.391290,9326.594869
2630.205624,536.266849,-1480.411884,9474.636058
2630.205953,689.485948,-666.185348,9400.615463
2630.206282,995.924147,-0.000000,8956.491898
2630.206611,919.314598,1628.453072,8364.327145
2630.206940,1149.143247,1924.535449,8438.347739
2630.207269,153.219100,1702.473667,8586.388927
2630.207598,0.000000,370.102971,8586.388927
2630.207927,459.657299,-962.267725,8734.430116
2630.208256,0.000000,-1406.391290,9326.594869
2630.208585,-383.047749,-1628.453072,9992.780217
2630.208914,-1762.019645,-1776.494261,9696.697840
2630.209243,-1762.019645,-1406.391290,10066.800811
2630.209572,-689.485948,-74.020594,9104.533087
2630.209901,-383.047749,666.185348,8142.265362
2630.210230,306.438199,1776.494261,8068.244768
2630.210558,229.828649,888.247130,9104.533087
2630.210887,153.219100,814.226536,8882.471304
2630.211216,1072.533697,-444.123565,8512.368333
2630.211545,1532.190996,-962.267725,8882.471304
2630.211874,1149.143247,-666.185348,8808.450710
2630.212203,919.314598,-814.226536,9030.512492
2630.212532,459.657299,-666.185348,9474.636058
2630.212861,766.095498,-0.000000,9030.512492
2630.213190,1455.581446,1184.329507,8956.491898
2630.213519,842.705048,1110.308913,8882.471304
2630.213848,229.828649,1628.453072,8660.409521
2630.214177,76.609550,592.164754,9030.512492
2630.214506,-153.219100,-148.041188,9400.615463
2630.214835,536.266849,-1332.370696,9178.553681
2630.215164,-153.219100,-1480.411884,9770.718434
2630.215493,153.219100,-2294.638420,10140.821405
2630.215822,-536.266849,-1258.350101,10066.800811
2630.216151,0.000000,-740.205942,9178.553681
2630.216480,229.828649,-0.000000,8808.450710
2630.216809,919.314598,1480.411884,8808.450710
2630.217138,536.266849,888.247130,9178.553681
2630.217467,842.705048,444.123565,9326.594869
2630.217796,1302.362347,-74.020594,9030.512492
2630.218125,2068.457845,-592.164754,8660.409521
2630.218454,2145.067394,-1850.514855,9326.594869
2630.218783,1608.800546,-1776.494261,9326.594869
2630.219112,919.314598,-1332.370696,9400.615463
2630.219441,1072.533697,-0.000000,8660.409521
2630.219770,1225.752797,1184.329507,8660.409521
2630.220099,1685.410096,962.267725,8364.327145
2630.220428,306.438199,814.226536,8660.409521
2630.220757,0.000000,814.226536,8512.368333
2630.221086,-153.219100,-814.226536,8512.368333
2630.221415,-229.828649,-1776.494261,9104.533087
2630.221744,0.000000,-3256.906145,9918.759623
2630.222073,-919.314598,-2960.823768,9770.718434
2630.222402,-1072.533697,-2072.576638,9474.636058
2630.222731,-766.095498,-1406.391290,9030.512492
2630.223060,-459.657299,-74.020594,8808.450710
2630.223389,306.438199,1110.308913,8808.450710
2630.223718,459.657299,1258.350101,7920.203579
2630.224047,383.047749,962.267725,8438.347739
2630.224376,842.705048,370.102971,7920.203579
2630.224705,1302.362347,-592.164754,8216.285956
2630.225033,1149.143247,-1258.350101,9400.615463
2630.225362,536.266849,-1480.411884,8660.409521
2630.225691,76.609550,-1406.391290,9326.594869
2630.226020,-536.266849,-1036.288319,9178.553681
2630.226349,-306.438199,-222.061783,8660.409521
2630.226678,-689.485948,518.144159,9252.574275
2630.227007,0.000000,962.267725,8734.430116
2630.227336,-383.047749,1258.350101,8364.327145
2630.227665,-383.047749,518.144159,9030.512492
2630.227994,459.657299,-0.000000,8734.430116
2630.228323,689.485948,-888.247130,9400.615463
2630.228652,306.438199,-1776.494261,9696.697840
2630.228981,0.000000,-1406.391290,10214.842000
2630.229310,0.000000,-740.205942,9992.780217
2630.229639,0.000000,740.205942,9400.615463
2630.229968,459.657299,1480.411884,8808.450710
2630.230297,612.876398,1554.432478,9178.553681
2630.230626,536.266849,1480.411884,9178.553681
2630.230955,229.828649,-0.000000,9474.636058
2630.231284,689.485948,-518.144159,9178.553681
2630.231613,1072.533697,-592.164754,9030.512492
2630.231942,689.485948,-962.267725,9696.697840
2630.232271,229.828649,-814.226536,9770.718434
2630.232600,0.000000,-222.061783,9548.656652
2630.232929,612.876398,-148.041188,8882.471304
2630.233258,1455.581446,1554.432478,8364.327145
2630.233587,1532.190996,1480.411884,8956.491898
2630.233916,306.438199,1480.411884,8660.409521
2630.234245,536.266849,814.226536,8660.409521
2630.234574,1225.752797,370.102971,8438.347739
2630.234903,1455.581446,-814.226536,8142.265362
2630.235232,842.705048,-1036.288319,8956.491898
2630.235561,0.000000,-1850.514855,9696.697840
2630.235890,-459.657299,-1406.391290,9622.677246
2630.236219,-536.266849,-1036.288319,9252.574275
2630.236548,-612.876398,370.102971,8882.471304
2630.236877,-612.876398,1036.288319,9400.615463
2630.237206,-842.705048,444.123565,9178.553681
2630.237535,-689.485948,-0.000000,8734.430116
2630.237864,0.000000,-814.226536,9474.636058
2630.238193,76.609550,-1332.370696,9178.553681
2630.238522,1149.143247,-1258.350101,9030.512492
2630.238851,766.095498,-1258.350101,9844.739029
2630.239179,459.657299,-666.185348,9178.553681
2630.239508,995.924147,-444.123565,8882.471304
2630.239837,1532.190996,1036.288319,8290.306550
2630.240166,1762.019645,1628.453072,8216.285956
2630.240495,1072.533697,1480.411884,8364.327145
2630.240824,766.095498,-0.000000,9178.553681
2630.241153,229.828649,-74.020594,9030.512492
2630.241482,153.219100,-1628.453072,8808.450710
2630.241811,0.000000,-1702.473667,9400.615463
2630.242140,-995.924147,-2220.617826,9918.759623
2630.242469,-1608.800546,-1628.453072,10436.903782
2630.242798,-1072.533697,-1702.473667,9770.718434
2630.243127,-766.095498,296.082377,8956.491898
2630.243456,-536.266849,1184.329507,9474.636058
2630.243785,0.000000,1850.514855,8438.347739
2630.244114,0.000000,592.164754,8734.430116
2630.244443,536.266849,296.082377,8734.430116
2630.244772,1532.190996,-592.164754,8882.471304
2630.245101,2068.457845,-1110.308913,8882.471304
2630.245430,1685.410096,-1258.350101,8808.450710
2630.245759,612.876398,-888.247130,9252.574275
2630.246088,229.828649,-962.267725,9252.574275
2630.246417,766.095498,148.041188,8808.450710
2630.246746,689.485948,1258.350101,8290.306550
2630.247075,536.266849,1332.370696,9104.533087
2630.247404,536.266849,1110.308913,8734.430116
2630.247733,536.266849,444.123565,9030.512492
2630.248062,306.438199,-1110.308913,9104.533087
2630.248391,612.876398,-1036.288319,9030.512492
2630.248720,306.438199,-1924.535449,9474.636058
2630.249049,-383.047749,-1628.453072,9474.636058
2630.249378,-153.219100,-888.247130,9326.594869
2630.249707,229.828649,-296.082377,9030.512492
2630.250036,612.876398,592.164754,8438.347739
2630.250365,0.000000,1036.288319,8882.471304
2630.250694,0.000000,666.185348,9252.574275
2630.251023,229.828649,444.123565,8660.409521
2630.251352,995.924147,-592.164754,9326.594869
2630.251681,1991.848295,-1184.329507,9104.533087
2630.252010,1302.362347,-1628.453072,9252.574275
2630.252339,919.314598,-1850.514855,10066.800811
2630.252668,306.438199,-962.267725,9400.615463
2630.252997,1072.533697,296.082377,8660.409521
2630.253326,995.924147,1480.411884,8216.285956
2630.253654,1072.533697,1924.535449,8364.327145
2630.253983,536.266849,1628.453072,9474.636058
2630.254312,383.047749,740.205942,8956.491898
2630.254641,995.924147,-0.000000,8364.327145
2630.254970,0.000000,-814.226536,9474.636058
2630.255299,0.000000,-1332.370696,9696.697840
2630.255628,-1149.143247,-1406.391290,10732.986159
2630.255957,-1072.533697,-1036.288319,9474.636058
2630.256286,-459.657299,-148.041188,9252.574275
2630.256615,0.000000,1998.556043,9178.553681
2630.256944,153.219100,1332.370696,8734.430116
2630.257273,0.000000,2146.597232,9104.533087
2630.257602,229.828649,740.205942,8882.471304
2630.257931,229.828649,-0.000000,8512.368333
2630.258260,536.266849,-814.226536,9252.574275
2630.258589,536.266849,-1776.494261,9474.636058
2630.258918,76.609550,-1998.556043,9696.697840
2630.259247,0.000000,-1036.288319,9770.718434
2630.259576,536.266849,-370.102971,8660.409521
2630.259905,459.657299,1184.329507,8882.471304
2630.260234,842.705048,1850.514855,8734.430116
2630.260563,536.266849,1702.473667,7994.224174
2630.260892,153.219100,1258.350101,8438.347739
2630.261221,995.924147,592.164754,8068.244768
2630.261550,1225.752797,-592.164754,9252.574275
2630.261879,766.095498,-1332.370696,9326.594869
2630.262208,0.000000,-1406.391290,9400.615463
2630.262537,-766.095498,-1258.350101,9992.780217
2630.262866,-536.266849,-222.061783,9104.533087
2630.263195,153.219100,740.205942,8586.388927
2630.263524,-153.219100,370.102971,9400.615463
2630.263853,-229.828649,1036.288319,9178.553681
2630.264182,-76.609550,148.041188,9474.636058
2630.264511,153.219100,-592.164754,8882.471304
2630.264840,919.314598,-592.164754,9326.594869
2630.265169,1149.143247,-1036.288319,9178.553681
2630.265498,919.314598,-1258.350101,9400.615463
2630.265827,459.657299,-1110.308913,9400.615463
2630.266156,1225.752797,-148.041188,9030.512492
2630.266485,1838.629195,740.205942,8734.430116
2630.266814,1762.019645,2146.597232,8290.306550
2630.267143,1149.143247,1554.432478,8216.285956
2630.267472,536.266849,1184.329507,8586.388927
2630.267800,459.657299,-222.061783,8734.430116
2630.268129,766.095498,-2146.597232,9474.636058
2630.268458,612.876398,-2146.597232,9474.636058
2630.268787,-459.657299,-2442.679609,10066.800811
2630.269116,-995.924147,-1702.473667,9844.739029
2630.269445,-1072.533697,-1702.473667,9770.718434
2630.269774,-612.876398,-74.020594,9104.533087
2630.270103,76.609550,518.144159,9178.553681
2630.270432,766.095498,740.205942,8290.306550
2630.270761,766.095498,-74.020594,8586.388927
2630.271090,0.000000,222.061783,9030.512492
2630.271419,1302.362347,-518.144159,9030.512492
2630.271748,1302.362347,-1110.308913,8882.471304
2630.272077,689.485948,-1702.473667,9474.636058
2630.272406,306.438199,-1332.370696,9474.636058
2630.272735,536.266849,-962.267725,9474.636058
2630.273064,919.314598,-0.000000,8882.471304
2630.273393,689.485948,592.164754,8586.388927
2630.273722,306.438199,1110.308913,8438.347739
2630.274051,-229.828649,1110.308913,9030.512492
2630.274380,0.000000,222.061783,8956.491898
2630.274709,689.485948,-740.205942,8808.450710
2630.275038,766.095498,-962.267725,9178.553681
2630.275367,153.219100,-1702.473667,9844.739029
2630.275696,-919.314598,-1480.411884,9770.718434
2630.276025,-842.705048,-1406.391290,9548.656652
2630.276354,-459.657299,-0.000000,8438.347739
2630.276683,0.000000,666.185348,8882.471304
2630.277012,306.438199,888.247130,8734.430116
2630.277341,383.047749,740.205942,8438.347739
2630.277670,76.609550,222.061783,8438.347739
2630.277999,689.485948,370.102971,8956.491898
2630.278328,1225.752797,-296.082377,8660.409521
2630.278657,459.657299,-1036.288319,9104.533087
2630.278986,0.000000,-1184.329507,9400.615463
2630.279315,229.828649,-814.226536,9400.615463
2630.279644,306.438199,-0.000000,8808.450710
2630.279973,919.314598,444.123565,8512.368333
2630.280302,766.095498,888.247130,8734.430116
2630.280631,76.609550,1110.308913,8660.409521
2630.280960,-153.219100,962.267725,8586.388927
2630.281289,995.924147,-444.123565,8882.471304
2630.281618,1149.143247,-592.164754,8364.327145
2630.281947,536.266849,-1480.411884,9474.636058
2630.282276,459.657299,-1258.350101,9770.718434
2630.282605,153.219100,-1036.288319,9474.636058
2630.282934,153.219100,296.082377,9252.574275
2630.283263,995.924147,1036.288319,9326.594869
2630.283592,919.314598,1184.329507,9030.512492
2630.283921,842.705048,962.267725,9104.533087
2630.284250,842.705048,370.102971,9178.553681
2630.284579,919.314598,-0.000000,8882.471304
2630.284909,1149.143247,-0.000000,9326.594869
2630.285238,842.705048,-370.102971,9548.656652
2630.285567,-229.828649,-1184.329507,10140.821405
2630.285896,-383.047749,-740.205942,10066.800811
2630.286225,76.609550,-0.000000,9178.553681
2630.286554,536.266849,444.123565,9252.574275
2630.286883,0.000000,1036.288319,9548.656652
2630.287212,612.876398,1036.288319,9326.594869
2630.287541,306.438199,518.144159,8808.450710
2630.287870,1149.143247,592.164754,8586.388927
2630.288200,1455.581446,296.082377,8142.265362
2630.288529,919.314598,-888.247130,9548.656652
2630.288858,536.266849,-888.247130,9844.739029
2630.289187,-536.266849,-444.123565,9548.656652
2630.289516,229.828649,-296.082377,8586.388927
2630.289845,153.219100,740.205942,8438.347739
2630.290174,0.000000,814.226536,9326.594869
2630.290503,-612.876398,740.205942,8290.306550
2630.290832,-536.266849,-0.000000,8956.491898
2630.291161,-306.438199,-962.267725,8660.409521
2630.291490,0.000000,-1184.329507,8216.285956
2630.291820,153.219100,-1406.391290,9474.636058
2630.292149,-612.876398,-2368.659014,9400.615463
2630.292478,-459.657299,-1554.432478,9030.512492
2630.292807,-306.438199,-1110.308913,9178.553681
2630.293136,612.876398,222.061783,8660.409521
2630.293465,995.924147,666.185348,8216.285956
2630.293794,1225.752797,1332.370696,7920.203579
2630.294123,919.314598,518.144159,8512.368333
2630.294452,689.485948,-0.000000,8438.347739
2630.294781,1225.752797,-814.226536,8364.327145
2630.295111,536.266849,-1110.308913,9178.553681
2630.295440,-306.438199,-1628.453072,9474.636058
2630.295769,-842.705048,-1628.453072,9326.594869
2630.296098,-995.924147,-1332.370696,9844.739029
2630.296427,-536.266849,-814.226536,9474.636058
2630.296756,-459.657299,-0.000000,9252.574275
2630.297085,0.000000,444.123565,8808.450710
2630.297414,0.000000,740.205942,9474.636058
2630.297743,689.485948,222.061783,8882.471304
2630.298072,1149.143247,-148.041188,8438.347739
2630.298401,1532.190996,-74.020594,9104.533087
2630.298731,1915.238745,-814.226536,9104.533087
2630.299060,689.485948,-222.061783,9400.615463
2630.299389,383.047749,-296.082377,9326.594869
2630.299718,842.705048,518.144159,8586.388927
2630.300047,842.705048,962.267725,8586.388927
2630.300376,1149.143247,1110.308913,8660.409521
2630.300705,0.000000,296.082377,8882.471304
2630.301034,-536.266849,222.061783,9326.594869
2630.301363,459.657299,-1110.308913,8586.388927
2630.301692,536.266849,-962.267725,9400.615463
2630.302022,-229.828649,-1702.473667,9918.759623
2630.302351,-459.657299,-1406.391290,9548.656652
2630.302680,-383.047749,-444.123565,9474.636058
2630.303009,766.095498,222.061783,8734.430116
2630.303338,995.924147,444.123565,8808.450710
2630.303667,1072.533697,814.226536,9474.636058
2630.303996,919.314598,666.185348,8734.430116
2630.304325,459.657299,592.164754,8586.388927
2630.304654,766.095498,222.061783,8808.450710
2630.304983,612.876398,-814.226536,9326.594869
2630.305312,229.828649,-1258.350101,9770.718434
2630.305642,-229.828649,-2368.659014,9844.739029
2630.305971,-1302.362347,-1924.535449,9992.780217
2630.306300,-459.657299,-1184.329507,9400.615463
2630.306629,-306.438199,-296.082377,8956.491898
2630.306958,-536.266849,-0.000000,9178.553681
2630.307287,-229.828649,814.226536,9252.574275
2630.307616,-229.828649,-0.000000,9030.512492
2630.307945,76.609550,-444.123565,8438.347739
2630.308274,919.314598,-444.123565,8660.409521
2630.308603,842.705048,-1110.308913,9104.533087
2630.308933,306.438199,-888.247130,9030.512492
2630.309262,-153.219100,-444.123565,9474.636058
2630.309591,76.609550,-0.000000,8808.450710
2630.309920,459.657299,1036.288319,8882.471304
2630.310249,306.438199,1406.391290,8882.471304
2630.310578,229.828649,592.164754,7920.203579
2630.310907,0.000000,1110.308913,8438.347739
2630.311236,229.828649,-0.000000,8660.409521
2630.311565,229.828649,-370.102971,8956.491898
2630.311894,76.609550,-1480.411884,9696.697840
2630.312223,612.876398,-1628.453072,9474.636058
2630.312553,-459.657299,-1036.288319,9474.636058
2630.312882,459.657299,-814.226536,8808.450710
2630.313211,766.095498,666.185348,8438.347739
2630.313540,995.924147,1184.329507,8438.347739
2630.313869,766.095498,1554.432478,8364.327145
2630.314198,383.047749,518.144159,8512.368333
2630.314527,842.705048,296.082377,8734.430116
2630.314856,1149.143247,74.020594,8586.388927
2630.315185,1225.752797,-222.061783,9104.533087
2630.315514,153.219100,-1184.329507,9326.594869
2630.315843,-612.876398,-1184.329507,9696.697840
2630.316173,-229.828649,-1184.329507,9918.759623
2630.316502,306.438199,-370.102971,9326.594869
2630.316831,-153.219100,444.123565,9326.594869
2630.317160,536.266849,888.247130,8882.471304
2630.317489,76.609550,814.226536,8734.430116
2630.317818,689.485948,444.123565,9178.553681
2630.318147,1455.581446,-0.000000,8808.450710
2630.318476,1455.581446,-222.061783,9474.636058
2630.318805,306.438199,-1406.391290,10066.800811
2630.319134,612.876398,-1406.391290,9992.780217
2630.319464,536.266849,-518.144159,9918.759623
2630.319793,766.095498,222.061783,9252.574275
2630.320122,612.876398,1036.288319,9252.574275
2630.320451,383.047749,1480.411884,9030.512492
2630.320780,0.000000,1258.350101,8734.430116
2630.321109,689.485948,740.205942,8734.430116
2630.321438,1072.533697,-444.123565,8734.430116
2630.321767,153.219100,-444.123565,9474.636058
2630.322096,0.000000,-1702.473667,9992.780217
2630.322425,-842.705048,-1998.556043,9918.759623
2630.322754,-919.314598,-1480.411884,9474.636058
2630.323084,0.000000,-74.020594,8956.491898
2630.323413,306.438199,370.102971,9326.594869
2630.323742,153.219100,592.164754,8734.430116
2630.324071,76.609550,888.247130,9030.512492
2630.324400,536.266849,740.205942,9252.574275
2630.324729,842.705048,-74.020594,8142.265362
2630.325058,842.705048,-740.205942,8882.471304
2630.325387,459.657299,-1406.391290,9326.594869
2630.325716,153.219100,-1850.514855,9548.656652
2630.326045,0.000000,-1924.535449,9770.718434
2630.326375,-383.047749,-444.123565,8290.306550
2630.326704,306.438199,-0.000000,8808.450710
2630.327033,229.828649,1480.411884,8142.265362
2630.327362,0.000000,1406.391290,8142.265362
2630.327691,0.000000,592.164754,8808.450710
2630.328020,612.876398,-592.164754,8290.306550
2630.328349,766.095498,-962.267725,9178.553681
2630.328678,459.657299,-1850.514855,9400.615463
2630.329007,-153.219100,-1924.535449,9400.615463
2630.329336,-459.657299,-1628.453072,10066.800811
2630.329665,0.000000,-592.164754,8882.471304
2630.329995,383.047749,962.267725,8512.368333
2630.330324,612.876398,1258.350101,8734.430116
2630.330653,383.047749,666.185348,9030.512492
2630.330982,459.657299,518.144159,8216.285956
2630.331311,1225.752797,-518.144159,8216.285956
2630.331640,1685.410096,-592.164754,8290.306550
2630.331969,1225.752797,-1406.391290,9474.636058
2630.332298,689.485948,-1702.473667,9770.718434
2630.332627,689.485948,-666.185348,9400.615463
2630.332956,1072.533697,-0.000000,8956.491898
2630.333286,842.705048,1332.370696,8734.430116
2630.333615,459.657299,1850.514855,8660.409521
2630.333944,459.657299,962.267725,9252.574275
2630.334273,0.000000,1406.391290,8512.368333
2630.334602,383.047749,-666.185348,9474.636058
2630.334931,612.876398,-1332.370696,9474.636058
2630.335260,0.000000,-2368.659014,9474.636058
2630.335589,-612.876398,-2590.720797,10658.965565
2630.335918,-1149.143247,-1554.432478,10066.800811
2630.336247,-306.438199,-518.144159,9474.636058
2630.336576,536.266849,1110.308913,8956.491898
2630.336906,995.924147,2072.576638,8882.471304
2630.337235,536.266849,1554.432478,8882.471304
