#time,accel_x,accel_y,accel_z
2502.818718,383.047749,-222.061783,8882.471304
2502.819047,76.609550,-518.144159,8956.491898
2502.819376,229.828649,-222.061783,9104.533087
2502.819705,153.219100,-222.061783,9326.594869
2502.820034,229.828649,-444.123565,9030.512492
2502.820363,536.266849,-518.144159,8512.368333
2502.820692,383.047749,-148.041188,9474.636058
2502.821021,306.438199,-222.061783,9400.615463
2502.821350,229.828649,-0.000000,9178.553681
2502.821679,229.828649,-74.020594,9178.553681
2502.822008,459.657299,-148.041188,9178.553681
2502.822337,-229.828649,-222.061783,9474.636058
2502.822666,0.000000,-148.041188,9326.594869
2502.822995,153.219100,-296.082377,9474.636058
2502.823325,459.657299,-222.061783,8956.491898
2502.823654,383.047749,-74.020594,8882.471304
2502.823983,229.828649,-74.020594,9178.553681
2502.824312,229.828649,-296.082377,9104.533087
2502.824641,0.000000,-222.061783,9030.512492
2502.824970,612.876398,-0.000000,8808.450710
2502.825299,306.438199,-0.000000,9104.533087
2502.825628,536.266849,-0.000000,9030.512492
2502.825957,306.438199,-0.000000,9178.553681
2502.826286,153.219100,-0.000000,8808.450710
2502.826615,229.828649,-0.000000,8956.491898
2502.826944,459.657299,-0.000000,9030.512492
2502.827273,766.095498,-148.041188,9104.533087
2502.827602,229.828649,-222.061783,8660.409521
2502.827931,229.828649,-74.020594,8956.491898
2502.828260,306.438199,-0.000000,9104.533087
2502.828589,383.047749,-74.020594,9030.512492
2502.828919,-306.438199,-74.020594,8882.471304
2502.829248,229.828649,-370.102971,9178.553681
2502.829577,459.657299,-370.102971,9104.533087
2502.829906,612.876398,-296.082377,9104.533087
2502.830235,229.828649,-148.041188,9104.533087
2502.830564,383.047749,-222.061783,9252.574275
2502.830893,383.047749,-148.041188,9326.594869
2502.831222,153.219100,-222.061783,9400.615463
2502.831551,919.314598,-370.102971,9030.512492
2502.831880,536.266849,-222.061783,9326.594869
2502.832209,536.266849,-370.102971,9326.594869
2502.832538,153.219100,-148.041188,9252.574275
2502.832867,306.438199,-296.082377,9178.553681
2502.833196,76.609550,-74.020594,9252.574275
2502.833525,0.000000,-296.082377,9252.574275
2502.833854,919.314598,-370.102971,9104.533087
2502.834183,229.828649,-518.144159,9252.574275
2502.834512,229.828649,-444.123565,9030.512492
2502.834842,153.219100,-444.123565,8660.409521
2502.835171,229.828649,-74.020594,8734.430116
2502.835500,459.657299,-0.000000,8734.430116
2502.835829,536.266849,-0.000000,8882.471304
2502.836158,536.266849,-0.000000,9400.615463
2502.836487,459.657299,-0.000000,9178.553681
2502.836816,536.266849,-222.061783,8882.471304
2502.837145,153.219100,-0.000000,8808.450710
2502.837474,306.438199,-74.020594,8956.491898
2502.837803,153.219100,-148.041188,8808.450710
2502.838132,229.828649,-518.144159,9104.533087
2502.838461,536.266849,-0.000000,8956.491898
2502.838790,0.000000,-222.061783,9178.553681
2502.839119,536.266849,-444.123565,8956.491898
2502.839448,459.657299,-0.000000,9030.512492
2502.839777,459.657299,-74.020594,9104.533087
2502.840106,229.828649,-148.041188,8808.450710
2502.840435,306.438199,-0.000000,8882.471304
2502.840765,383.047749,370.102971,9326.594869
2502.841094,306.438199,-296.082377,9252.574275
2502.841423,383.047749,-0.000000,9252.574275
2502.841752,153.219100,-148.041188,9252.574275
2502.842081,76.609550,-370.102971,9178.553681
2502.842410,229.828649,-296.082377,9030.512492
2502.842739,383.047749,-370.102971,9400.615463
2502.843068,689.485948,-370.102971,9326.594869
2502.843397,229.828649,-518.144159,8808.450710
2502.843726,306.438199,-0.000000,9326.594869
2502.844055,383.047749,-0.000000,9178.553681
2502.844384,459.657299,-0.000000,9178.553681
2502.844713,306.438199,-0.000000,9104.533087
2502.845042,459.657299,-296.082377,9030.512492
2502.845371,306.438199,-0.000000,9252.574275
2502.845700,536.266849,-518.144159,9326.594869
2502.846029,0.000000,-296.082377,9326.594869
2502.846359,153.219100,-296.082377,8882.471304
2502.846688,306.438199,-74.020594,9104.533087
2502.847017,306.438199,-296.082377,9178.553681
2502.847346,842.705048,-888.247130,9696.697840
2502.847675,1532.190996,-814.226536,9326.594869
2502.848004,1378.971896,-592.164754,9474.636058
2502.848333,1149.143247,-444.123565,9178.553681
2502.848662,1838.629195,222.061783,8734.430116
2502.848991,3064.381992,518.144159,8956.491898
2502.849320,3753.867940,-74.020594,8512.368333
2502.849649,4136.915689,-0.000000,8142.265362
2502.849978,3294.210641,148.041188,8364.327145
2502.850307,2911.162892,1036.288319,8808.450710
2502.850636,2681.334243,-370.102971,9326.594869
2502.850965,2834.553343,-444.123565,9326.594869
2502.851294,1378.971896,-518.144159,9326.594869
2502.851623,1608.800546,-1554.432478,10066.800811
2502.851952,2145.067394,-2072.576638,9474.636058
2502.852282,2987.772442,-444.123565,9400.615463
2502.852611,2451.505594,-1184.329507,9844.739029
2502.852940,3294.210641,-1332.370696,9474.636058
2502.853269,3217.601092,518.144159,9622.677246
2502.853598,5209.449386,1110.308913,8142.265362
2502.853927,4979.620737,888.247130,7476.080014
2502.854256,4519.963438,1480.411884,9326.594869
2502.854585,5209.449386,962.267725,7920.203579
2502.854914,4060.306139,-0.000000,7920.203579
2502.855243,3447.429741,-0.000000,8956.491898
2502.855572,2374.896044,370.102971,9104.533087
2502.855901,1762.019645,-222.061783,9696.697840
2502.856230,842.705048,-1258.350101,9696.697840
2502.856559,1915.238745,-814.226536,9770.718434
2502.856888,1302.362347,-1406.391290,9770.718434
2502.857217,1455.581446,-814.226536,10140.821405
2502.857546,1225.752797,-592.164754,9770.718434
2502.857875,3294.210641,740.205942,9548.656652
2502.858205,2987.772442,-74.020594,8216.285956
2502.858534,4596.572988,1554.432478,9474.636058
2502.858863,4519.963438,962.267725,7920.203579
2502.859192,4519.963438,1332.370696,8068.244768
2502.859521,4673.182538,888.247130,9104.533087
2502.859850,4519.963438,-0.000000,8586.388927
2502.860179,3217.601092,-592.164754,8586.388927
2502.860508,2911.162892,-2072.576638,9622.677246
2502.860837,2528.115143,-1480.411884,10140.821405
2502.861166,2068.457845,-2146.597232,9622.677246
2502.861495,2145.067394,-1850.514855,9992.780217
2502.861824,2145.067394,-1406.391290,9622.677246
2502.862153,3140.991542,-444.123565,9474.636058
2502.862482,2987.772442,148.041188,8586.388927
2502.862811,4136.915689,1184.329507,8882.471304
2502.863140,4596.572988,1998.556043,7846.182985
2502.863469,4596.572988,2590.720797,7328.038826
2502.863798,4060.306139,2368.659014,7550.100608
2502.864128,3447.429741,2072.576638,8142.265362
2502.864457,3370.820191,370.102971,8216.285956
2502.864786,2451.505594,-296.082377,9326.594869
2502.865115,2374.896044,-1702.473667,9992.780217
2502.865444,1225.752797,-2294.638420,10140.821405
2502.865773,1225.752797,-2442.679609,10436.903782
2502.866102,1225.752797,-2590.720797,10584.944971
2502.866431,1991.848295,-1628.453072,10510.924376
2502.866760,2528.115143,-444.123565,9992.780217
2502.867089,3524.039291,740.205942,9474.636058
2502.867418,3907.087040,2368.659014,8660.409521
2502.867747,4136.915689,3256.906145,7846.182985
2502.868076,2987.772442,3627.009116,7624.121203
2502.868405,2374.896044,2960.823768,7550.100608
2502.868734,536.266849,1776.494261,7920.203579
2502.869063,-919.314598,-148.041188,8956.491898
2502.869392,-1838.629195,-2516.700203,10510.924376
2502.869722,-1838.629195,-3404.947333,9770.718434
2502.870051,-1915.238745,-3182.885551,9474.636058
2502.870380,-1838.629195,-2960.823768,9548.656652
2502.870709,-2451.505594,-2368.659014,10362.883188
2502.871038,-1991.848295,-2442.679609,11843.295072
2502.871367,-1072.533697,-1184.329507,10436.903782
2502.871696,306.438199,-518.144159,10066.800811
2502.872025,383.047749,962.267725,9030.512492
2502.872354,0.000000,2738.761985,8068.244768
2502.872683,0.000000,1258.350101,10732.986159
2502.873012,842.705048,592.164754,9474.636058
2502.873341,3830.477490,666.185348,7624.121203
2502.873670,4826.401637,1258.350101,5255.462188
2502.873999,4903.011187,1184.329507,5699.585753
2502.874328,4136.915689,962.267725,6587.832884
2502.874657,3907.087040,-0.000000,7328.038826
2502.874986,2834.553343,-296.082377,7550.100608
2502.875315,1455.581446,-962.267725,8068.244768
2502.875645,-306.438199,-1702.473667,9474.636058
2502.875974,-1608.800546,-2146.597232,10732.986159
2502.876303,-1378.971896,-2664.741391,11547.212695
2502.876632,-1378.971896,-1776.494261,10140.821405
2502.876961,-689.485948,-1036.288319,11251.130318
2502.877290,-1915.238745,444.123565,10288.862594
2502.877619,-1378.971896,814.226536,10214.842000
2502.877948,-1762.019645,-0.000000,10140.821405
2502.878277,-1608.800546,-592.164754,9326.594869
2502.878606,-1149.143247,296.082377,8956.491898
2502.878935,-612.876398,-0.000000,8956.491898
2502.879264,-536.266849,-0.000000,8438.347739
2502.879593,0.000000,-74.020594,8734.430116
2502.879922,153.219100,-222.061783,7846.182985
2502.880251,1302.362347,-1480.411884,8512.368333
2502.880580,1685.410096,-740.205942,8586.388927
2502.880909,2068.457845,-0.000000,9104.533087
2502.881238,2987.772442,-74.020594,8734.430116
2502.881568,2681.334243,1628.453072,8438.347739
2502.881897,3140.991542,1776.494261,7920.203579
2502.882226,3447.429741,2516.700203,8216.285956
2502.882555,2911.162892,1924.535449,7772.162391
2502.882884,2298.286494,2220.617826,8068.244768
2502.883213,306.438199,-222.061783,10214.842000
2502.883542,-1991.848295,-1406.391290,10140.821405
2502.883871,-1608.800546,-2220.617826,10658.965565
2502.884200,-1608.800546,-2220.617826,9548.656652
2502.884529,-1838.629195,-2886.803174,9104.533087
2502.884858,-1378.971896,-2368.659014,9992.780217
2502.885187,-1762.019645,-1924.535449,9474.636058
2502.885516,-612.876398,-962.267725,10362.883188
2502.885845,-306.438199,-444.123565,9400.615463
2502.886174,612.876398,962.267725,8808.450710
2502.886503,0.000000,1258.350101,8956.491898
2502.886832,0.000000,1332.370696,9548.656652
2502.887162,153.219100,592.164754,10066.800811
2502.887491,1838.629195,592.164754,8882.471304
2502.887820,3370.820191,296.082377,7254.018232
2502.888149,3600.648841,-296.082377,7105.977043
2502.888478,2068.457845,888.247130,7624.121203
2502.888807,2374.896044,-518.144159,8142.265362
2502.889136,1608.800546,-222.061783,7698.141797
2502.889465,842.705048,-0.000000,8142.265362
2502.889794,383.047749,-1406.391290,9326.594869
2502.890123,-1532.190996,-1776.494261,9918.759623
2502.890452,-1455.581446,-1480.411884,10732.986159
2502.890781,-1532.190996,-1258.350101,9030.512492
2502.891110,-1225.752797,-666.185348,9696.697840
2502.891439,-1225.752797,-74.020594,10140.821405
2502.891768,-1149.143247,518.144159,9992.780217
2502.892097,-1378.971896,-0.000000,9992.780217
2502.892426,-1072.533697,-0.000000,9696.697840
2502.892755,-995.924147,-0.000000,9548.656652
2502.893085,-766.095498,370.102971,9252.574275
2502.893414,-383.047749,370.102971,8734.430116
2502.893743,-153.219100,296.082377,8956.491898
2502.894072,0.000000,-0.000000,8364.327145
2502.894401,612.876398,-592.164754,8512.368333
2502.894730,76.609550,-888.247130,9104.533087
2502.895059,229.828649,-1110.308913,9474.636058
2502.895388,766.095498,-1406.391290,9474.636058
2502.895717,689.485948,-1110.308913,9992.780217
2502.896046,1608.800546,-222.061783,8734.430116
2502.896375,2911.162892,1332.370696,7920.203579
2502.896704,3064.381992,1702.473667,6587.832884
2502.897033,3294.210641,2960.823768,7772.162391
2502.897362,2757.943793,1850.514855,8364.327145
2502.897691,1302.362347,1628.453072,8216.285956
2502.898020,-153.219100,444.123565,9178.553681
2502.898349,-1455.581446,-1480.411884,10362.883188
2502.898678,-1455.581446,-2516.700203,9622.677246
2502.899007,-1608.800546,-2368.659014,9918.759623
2502.899336,-1302.362347,-2812.782580,10658.965565
2502.899665,-1532.190996,-2590.720797,10436.903782
2502.899995,-1838.629195,-962.267725,10362.883188
2502.900324,-1072.533697,296.082377,10214.842000
2502.900653,-766.095498,666.185348,8956.491898
2502.900982,0.000000,1110.308913,9178.553681
2502.901311,459.657299,2220.617826,8586.388927
2502.901640,306.438199,740.205942,9474.636058
2502.901969,153.219100,-370.102971,10362.883188
2502.902298,459.657299,-1702.473667,9474.636058
2502.902627,1378.971896,-1850.514855,10214.842000
2502.902956,2221.676944,-666.185348,6513.812290
2502.903285,3447.429741,-296.082377,7624.121203
2502.903614,3064.381992,518.144159,7328.038826
2502.903943,3370.820191,2442.679609,6957.935855
2502.904272,2451.505594,1332.370696,7476.080014
2502.904601,2145.067394,814.226536,7550.100608
2502.904930,153.219100,222.061783,8808.450710
2502.905259,-1225.752797,-518.144159,9178.553681
2502.905588,-1455.581446,-1776.494261,10510.924376
2502.905917,-1455.581446,-1628.453072,9696.697840
2502.906246,-766.095498,-1110.308913,10066.800811
2502.906575,-1378.971896,-740.205942,9548.656652
2502.906904,-766.095498,-296.082377,9104.533087
2502.907233,-1225.752797,-222.061783,10288.862594
2502.907563,-1225.752797,-0.000000,8956.491898
2502.907892,-612.876398,-296.082377,10066.800811
2502.908221,-383.047749,-444.123565,9400.615463
2502.908550,76.609550,-0.000000,8586.388927
2502.908879,689.485948,-1258.350101,8956.491898
2502.909208,229.828649,-1258.350101,8882.471304
2502.909537,612.876398,-2072.576638,10214.842000
2502.909866,919.314598,-2294.638420,10288.862594
2502.910195,2451.505594,-0.000000,7994.224174
2502.910524,2911.162892,-0.000000,7550.100608
2502.910853,3217.601092,2146.597232,7476.080014
2502.911182,4060.306139,2738.761985,7624.121203
2502.911511,3064.381992,1924.535449,8364.327145
2502.911840,1762.019645,2072.576638,7402.059420
2502.912169,919.314598,518.144159,8364.327145
2502.912498,-1225.752797,-888.247130,9696.697840
2502.912827,-1455.581446,-1628.453072,10955.047942
2502.913156,-1378.971896,-2812.782580,10066.800811
2502.913485,-1225.752797,-1554.432478,9400.615463
2502.913814,-2451.505594,-888.247130,9326.594869
2502.914143,-2528.115143,-1184.329507,10658.965565
2502.914472,-2834.553343,-370.102971,11103.089130
2502.914801,-1838.629195,-296.082377,9844.739029
2502.915131,-306.438199,-0.000000,9178.553681
2502.915460,459.657299,1406.391290,8660.409521
2502.915789,612.876398,1628.453072,8512.368333
2502.916118,76.609550,1036.288319,9326.594869
2502.916447,766.095498,-740.205942,10214.842000
2502.916776,2451.505594,-1554.432478,9992.780217
2502.917105,3217.601092,-0.000000,6587.832884
2502.917434,3983.696590,-0.000000,7105.977043
2502.917763,3217.601092,296.082377,6439.791695
2502.918092,3907.087040,2294.638420,7698.141797
2502.918421,1991.848295,962.267725,8068.244768
2502.918750,1915.238745,962.267725,7772.162391
2502.919079,536.266849,-0.000000,8512.368333
2502.919408,-1225.752797,-962.267725,9104.533087
2502.919737,-1762.019645,-1850.514855,11029.068536
2502.920066,-1532.190996,-2368.659014,10214.842000
2502.920395,-459.657299,-1554.432478,10658.965565
2502.920724,-1302.362347,-592.164754,10658.965565
2502.921053,-1608.800546,370.102971,9770.718434
2502.921382,-1991.848295,-296.082377,10510.924376
2502.921711,-1302.362347,-888.247130,9992.780217
2502.922040,0.000000,148.041188,9326.594869
2502.922369,459.657299,962.267725,8882.471304
2502.922699,1225.752797,296.082377,9104.533087
2502.923028,536.266849,-0.000000,9178.553681
2502.923357,459.657299,-962.267725,9178.553681
2502.923686,153.219100,-2072.576638,9400.615463
2502.924015,1608.800546,-2368.659014,10510.924376
2502.924344,2451.505594,-444.123565,7550.100608
2502.924673,4136.915689,592.164754,7698.141797
2502.925002,3064.381992,1924.535449,7105.977043
2502.925331,3677.258390,2294.638420,7402.059420
2502.925660,2528.115143,2146.597232,7772.162391
2502.925989,1838.629195,1776.494261,7105.977043
2502.926318,612.876398,148.041188,7994.224174
2502.926647,-1991.848295,-814.226536,10140.821405
2502.926976,-2298.286494,-2590.720797,11177.109724
2502.927305,-2834.553343,-2368.659014,9696.697840
2502.927634,-1762.019645,-1850.514855,9622.677246
2502.927963,-2374.896044,-1628.453072,9918.759623
2502.928292,-2604.724693,-1258.350101,10362.883188
2502.928621,-2681.334243,-592.164754,10658.965565
2502.928950,-1149.143247,-814.226536,9400.615463
2502.929279,229.828649,888.247130,8734.430116
2502.929608,842.705048,1554.432478,7550.100608
2502.929937,153.219100,1480.411884,8364.327145
2502.930267,153.219100,-148.041188,10955.047942
2502.930596,2451.505594,-148.041188,9178.553681
2502.930925,3217.601092,666.185348,6809.894666
2502.931254,3983.696590,-0.000000,7328.038826
2502.931583,3370.820191,962.267725,6809.894666
2502.931912,3447.429741,444.123565,8956.491898
2502.932241,1225.752797,666.185348,8290.306550
2502.932570,995.924147,148.041188,8438.347739
2502.932899,0.000000,-666.185348,10066.800811
2502.933228,-1455.581446,-74.020594,9400.615463
2502.933557,-1991.848295,-1628.453072,10955.047942
2502.933886,-2068.457845,-1480.411884,9918.759623
2502.934215,-842.705048,-1850.514855,10732.986159
2502.934544,-766.095498,-1258.350101,10807.006753
2502.934873,-995.924147,592.164754,9104.533087
2502.935202,-1455.581446,-222.061783,10066.800811
2502.935531,-919.314598,-740.205942,9548.656652
2502.935860,-229.828649,740.205942,9400.615463
2502.936189,-229.828649,518.144159,9104.533087
2502.936518,76.609550,814.226536,8438.347739
2502.936847,-459.657299,740.205942,9178.553681
2502.937176,689.485948,222.061783,8734.430116
2502.937505,1378.971896,-888.247130,8438.347739
2502.937834,1532.190996,-888.247130,8438.347739
2502.938164,2374.896044,-148.041188,8068.244768
2502.938493,3064.381992,-0.000000,7920.203579
2502.938822,3217.601092,148.041188,7920.203579
2502.939151,2451.505594,296.082377,8216.285956
2502.939480,2298.286494,592.164754,8068.244768
2502.939809,1302.362347,888.247130,8142.265362
2502.940138,306.438199,518.144159,8216.285956
2502.940467,-306.438199,-370.102971,9326.594869
2502.940796,-1302.362347,-1406.391290,10288.862594
2502.941125,-2298.286494,-1184.329507,10658.965565
2502.941454,-1378.971896,-1628.453072,9622.677246
2502.941783,-1225.752797,-1406.391290,9400.615463
2502.942112,-1608.800546,-1110.308913,9548.656652
2502.942441,-1455.581446,-888.247130,9770.718434
2502.942770,-1225.752797,-592.164754,9992.780217
2502.943099,-689.485948,-0.000000,9474.636058
2502.943428,612.876398,740.205942,8882.471304
2502.943757,153.219100,1036.288319,8956.491898
2502.944086,306.438199,666.185348,9252.574275
2502.944415,1302.362347,-0.000000,9696.697840
2502.944744,2451.505594,-0.000000,8438.347739
2502.945073,3294.210641,370.102971,8068.244768
2502.945402,3370.820191,222.061783,7846.182985
2502.945732,2221.676944,518.144159,7994.224174
2502.946061,2528.115143,222.061783,8512.368333
2502.946390,2145.067394,296.082377,8512.368333
2502.946719,1302.362347,-0.000000,8734.430116
2502.947048,153.219100,-74.020594,9104.533087
2502.947377,-842.705048,-592.164754,9622.677246
2502.947706,-1378.971896,-1184.329507,10362.883188
2502.948035,-1072.533697,-1036.288319,9548.656652
2502.948364,-842.705048,-518.144159,9918.759623
2502.948693,-1378.971896,-518.144159,9844.739029
2502.949022,-1302.362347,-148.041188,9474.636058
2502.949351,-1225.752797,-370.102971,9770.718434
2502.949680,-612.876398,-0.000000,9178.553681
2502.950009,0.000000,-0.000000,9252.574275
2502.950338,0.000000,222.061783,9104.533087
2502.950667,229.828649,592.164754,9104.533087
2502.950996,459.657299,444.123565,9252.574275
2502.951325,995.924147,-0.000000,8512.368333
2502.951654,1455.581446,-0.000000,8290.306550
2502.951983,2145.067394,-0.000000,8734.430116
2502.952312,2068.457845,-296.082377,8364.327145
2502.952641,3140.991542,-962.267725,8586.388927
2502.952970,2681.334243,-296.082377,8734.430116
2502.953300,2451.505594,370.102971,8734.430116
2502.953629,1455.581446,-0.000000,8586.388927
2502.953958,1302.362347,222.061783,8586.388927
2502.954287,229.828649,296.082377,8956.491898
2502.954616,-459.657299,-666.185348,9696.697840
2502.954945,-1225.752797,-222.061783,9844.739029
2502.955274,-1072.533697,-1184.329507,10362.883188
2502.955603,-1762.019645,-1258.350101,9400.615463
2502.955932,-1608.800546,-1480.411884,9918.759623
2502.956261,-1685.410096,-1628.453072,9696.697840
2502.956590,-1302.362347,-1258.350101,9844.739029
2502.956919,-842.705048,-444.123565,9844.739029
2502.957248,-383.047749,-0.000000,9696.697840
2502.957577,-229.828649,666.185348,8882.471304
2502.957906,0.000000,962.267725,8808.450710
2502.958235,153.219100,1184.329507,8808.450710
2502.958564,995.924147,814.226536,9252.574275
2502.958893,1915.238745,740.205942,7994.224174
2502.959222,2374.896044,592.164754,7846.182985
2502.959551,3140.991542,222.061783,7328.038826
2502.959880,2451.505594,-0.000000,7550.100608
2502.960209,1762.019645,-222.061783,8512.368333
2502.960538,1532.190996,-0.000000,8142.265362
2502.960868,1378.971896,-74.020594,8734.430116
2502.961197,153.219100,-518.144159,8734.430116
2502.961526,-612.876398,-592.164754,9918.759623
2502.961855,-2221.676944,-666.185348,10214.842000
2502.962184,-1225.752797,-666.185348,10066.800811
2502.962513,-1302.362347,-814.226536,9918.759623
2502.962842,-1302.362347,-592.164754,9622.677246
2502.963171,-1455.581446,-666.185348,9696.697840
2502.963500,-1455.581446,-814.226536,9844.739029
2502.963829,-1072.533697,-888.247130,9178.553681
2502.964158,-842.705048,-370.102971,9326.594869
2502.964487,0.000000,-0.000000,9326.594869
2502.964816,-536.266849,370.102971,9178.553681
2502.965145,-459.657299,444.123565,9104.533087
2502.965474,76.609550,-0.000000,9400.615463
2502.965803,919.314598,-222.061783,9178.553681
2502.966132,1455.581446,-518.144159,8364.327145
2502.966461,2451.505594,-370.102971,8882.471304
2502.966790,2374.896044,296.082377,8216.285956
2502.967119,2911.162892,-74.020594,8586.388927
2502.967448,2528.115143,740.205942,8512.368333
2502.967777,2221.676944,814.226536,8438.347739
2502.968106,1608.800546,740.205942,8734.430116
2502.968436,689.485948,740.205942,8808.450710
2502.968765,-306.438199,-0.000000,9252.574275
2502.969094,-1149.143247,-296.082377,8956.491898
2502.969423,-1608.800546,-1184.329507,10066.800811
2502.969752,-1608.800546,-1110.308913,9252.574275
2502.970081,-1532.190996,-1406.391290,9844.739029
2502.970410,-1762.019645,-1628.453072,9918.759623
2502.970739,-1685.410096,-1258.350101,10066.800811
2502.971068,-1225.752797,-962.267725,9992.780217
2502.971397,-459.657299,-296.082377,9548.656652
2502.971726,-229.828649,592.164754,8808.450710
2502.972055,0.000000,1110.308913,8882.471304
2502.972384,0.000000,962.267725,8808.450710
2502.972713,-153.219100,666.185348,9400.615463
2502.973042,1915.238745,444.123565,8956.491898
2502.973371,2298.286494,370.102971,7846.182985
2502.973700,2757.943793,296.082377,7846.182985
2502.974029,2528.115143,444.123565,7624.121203
2502.974358,2374.896044,-74.020594,7920.203579
2502.974687,2145.067394,148.041188,8512.368333
2502.975016,1455.581446,-0.000000,7994.224174
2502.975345,995.924147,-888.247130,8660.409521
2502.975674,383.047749,-444.123565,9252.574275
2502.976003,-689.485948,-370.102971,9622.677246
2502.976333,-1302.362347,-888.247130,9474.636058
2502.976662,-995.924147,-1036.288319,10066.800811
2502.976991,-1225.752797,-666.185348,9992.780217
2502.977320,-1149.143247,-666.185348,9696.697840
2502.977649,-1378.971896,-1184.329507,9918.759623
2502.977978,-766.095498,-814.226536,9992.780217
2502.978307,-612.876398,-148.041188,9622.677246
2502.978636,-612.876398,-0.000000,9474.636058
2502.978965,0.000000,-0.000000,9178.553681
2502.979294,0.000000,296.082377,9178.553681
2502.979623,689.485948,296.082377,9104.533087
2502.979952,1608.800546,-0.000000,8808.450710
2502.980281,2757.943793,-0.000000,8290.306550
2502.980610,3370.820191,-0.000000,8438.347739
2502.980939,2987.772442,740.205942,8142.265362
2502.981268,2911.162892,370.102971,8512.368333
2502.981597,2911.162892,296.082377,7994.224174
2502.981926,2298.286494,444.123565,8290.306550
2502.982255,2068.457845,222.061783,8734.430116
2502.982584,919.314598,222.061783,8808.450710
2502.982913,153.219100,-0.000000,9326.594869
2502.983242,-766.095498,-0.000000,9622.677246
2502.983571,-1225.752797,-888.247130,9992.780217
2502.983901,-1149.143247,-1036.288319,9844.739029
2502.984230,-995.924147,-888.247130,9622.677246
2502.984559,-766.095498,-1702.473667,9622.677246
2502.984888,-1915.238745,-1332.370696,9770.718434
2502.985217,-1225.752797,-1184.329507,10584.944971
2502.985546,-306.438199,-888.247130,9474.636058
2502.985875,0.000000,222.061783,9252.574275
2502.986204,0.000000,888.247130,9030.512492
2502.986533,0.000000,814.226536,9178.553681
2502.986862,459.657299,-0.000000,9474.636058
2502.987191,1608.800546,592.164754,9178.553681
2502.987520,2451.505594,592.164754,7994.224174
2502.987849,2987.772442,-0.000000,7624.121203
2502.988178,2911.162892,370.102971,7772.162391
2502.988507,2451.505594,-0.000000,7920.203579
2502.988836,2298.286494,-0.000000,8216.285956
2502.989165,2068.457845,296.082377,8290.306550
2502.989494,995.924147,-296.082377,8586.388927
2502.989823,0.000000,-592.164754,8956.491898
2502.990152,-766.095498,-888.247130,9918.759623
2502.990481,-1225.752797,-888.247130,9918.759623
2502.990810,-995.924147,-1332.370696,9622.677246
2502.991139,-1378.971896,-444.123565,9622.677246
2502.991469,-1149.143247,-518.144159,9992.780217
2502.991798,-1685.410096,-888.247130,9622.677246
2502.992127,-1302.362347,-444.123565,10066.800811
2502.992456,-919.314598,-518.144159,9992.780217
2502.992785,-766.095498,-0.000000,9326.594869
2502.993114,-306.438199,592.164754,9400.615463
2502.993443,0.000000,740.205942,8734.430116
2502.993772,0.000000,740.205942,8660.409521
2502.994101,76.609550,-0.000000,8882.471304
2502.994430,459.657299,-518.144159,8956.491898
2502.994759,689.485948,-814.226536,9474.636058
2502.995088,1762.019645,-740.205942,8512.368333
2502.995418,2374.896044,-370.102971,7994.224174
2502.995747,2528.115143,-0.000000,8290.306550
2502.996076,2604.724693,740.205942,7920.203579
2502.996405,3217.601092,1036.288319,8216.285956
2502.996735,1762.019645,962.267725,8364.327145
2502.997064,1685.410096,888.247130,8660.409521
2502.997393,76.609550,-0.000000,9252.574275
2502.997722,-1378.971896,-518.144159,9770.718434
2502.998052,-1225.752797,-1110.308913,10732.986159
2502.998381,-1225.752797,-1332.370696,9400.615463
2502.998710,-1302.362347,-1776.494261,9992.780217
2502.999039,-1608.800546,-2072.576638,11103.089130
2502.999369,-1149.143247,-1480.411884,10140.821405
2502.999698,-1225.752797,-1184.329507,10362.883188
2503.000027,-919.314598,-444.123565,9918.759623
2503.000356,-383.047749,518.144159,9400.615463
2503.000686,0.000000,888.247130,9326.594869
2503.001015,153.219100,1258.350101,8068.244768
2503.001344,459.657299,296.082377,9474.636058
2503.001673,689.485948,-370.102971,9252.574275
2503.002003,1455.581446,-666.185348,9400.615463
2503.002332,1991.848295,-444.123565,8438.347739
2503.002661,2834.553343,-0.000000,7402.059420
2503.002990,3217.601092,-370.102971,7550.100608
2503.003320,2757.943793,888.247130,7254.018232
2503.003649,2911.162892,1258.350101,8068.244768
2503.003978,2068.457845,888.247130,7846.182985
2503.004307,1532.190996,444.123565,8142.265362
2503.004637,76.609550,370.102971,8882.471304
2503.004966,-1149.143247,-592.164754,9030.512492
2503.005295,-1302.362347,-1258.350101,10732.986159
2503.005624,-612.876398,-888.247130,9918.759623
2503.005954,-612.876398,-1036.288319,9844.739029
2503.006283,-1762.019645,-1406.391290,9252.574275
2503.006612,-1685.410096,-1036.288319,9696.697840
2503.006941,-1838.629195,-1110.308913,10140.821405
2503.007271,-1225.752797,-814.226536,9400.615463
2503.007600,-459.657299,-0.000000,9622.677246
2503.007929,-689.485948,-0.000000,9474.636058
2503.008258,-383.047749,592.164754,8808.450710
2503.008588,0.000000,-0.000000,9104.533087
2503.008917,306.438199,-592.164754,9178.553681
2503.009246,306.438199,-1702.473667,9770.718434
2503.009575,1838.629195,-1406.391290,9696.697840
2503.009905,2681.334243,-0.000000,7328.038826
2503.010234,3370.820191,296.082377,7994.224174
2503.010563,3294.210641,1110.308913,7105.977043
2503.010892,3370.820191,2590.720797,8068.244768
2503.011222,2451.505594,1776.494261,7920.203579
2503.011551,1608.800546,1332.370696,7624.121203
2503.011880,0.000000,-444.123565,9252.574275
2503.012209,-2068.457845,-1554.432478,9918.759623
2503.012539,-1991.848295,-2738.761985,11399.171507
2503.012868,-2451.505594,-2368.659014,9918.759623
2503.013197,-1685.410096,-2146.597232,10288.862594
2503.013526,-1991.848295,-1332.370696,10140.821405
2503.013856,-1762.019645,-740.205942,9622.677246
2503.014185,-1685.410096,-518.144159,10288.862594
2503.014514,-383.047749,-370.102971,9474.636058
2503.014843,536.266849,740.205942,8882.471304
2503.015173,76.609550,1628.453072,8290.306550
2503.015502,0.000000,1702.473667,8956.491898
2503.015831,0.000000,592.164754,9992.780217
2503.016160,1225.752797,-666.185348,9622.677246
2503.016490,2681.334243,-740.205942,7846.182985
2503.016819,3524.039291,-0.000000,7402.059420
2503.017148,3600.648841,518.144159,7254.018232
2503.017477,3447.429741,888.247130,7846.182985
2503.017807,3064.381992,1110.308913,8216.285956
2503.018136,2221.676944,1110.308913,7846.182985
2503.018465,1532.190996,592.164754,8512.368333
2503.018794,229.828649,-0.000000,8956.491898
2503.019123,-766.095498,-814.226536,9696.697840
2503.019453,-1532.190996,-1554.432478,10510.924376
2503.019782,-1532.190996,-1554.432478,11251.130318
2503.020111,-1072.533697,-1628.453072,10214.842000
2503.020440,-1072.533697,-370.102971,10288.862594
2503.020770,-1762.019645,-444.123565,10066.800811
2503.021099,-1225.752797,-592.164754,9474.636058
2503.021428,-1072.533697,-0.000000,9622.677246
2503.021757,0.000000,444.123565,9400.615463
2503.022087,306.438199,814.226536,8882.471304
2503.022416,153.219100,370.102971,9844.739029
2503.022745,1149.143247,74.020594,9178.553681
2503.023074,2221.676944,-0.000000,7772.162391
2503.023404,3294.210641,-148.041188,8216.285956
2503.023733,3753.867940,-222.061783,7772.162391
2503.024062,4136.915689,518.144159,8660.409521
2503.024391,3064.381992,444.123565,8068.244768
2503.024721,2681.334243,666.185348,8216.285956
2503.025050,1532.190996,222.061783,9178.553681
2503.025379,383.047749,444.123565,8734.430116
2503.025708,-612.876398,-0.000000,9178.553681
2503.026038,-1149.143247,-1036.288319,9844.739029
2503.026367,-1072.533697,-1554.432478,9844.739029
2503.026696,-1225.752797,-1406.391290,9844.739029
2503.027025,-1838.629195,-1110.308913,9400.615463
2503.027355,-1608.800546,-1406.391290,9622.677246
2503.027684,-1838.629195,-1258.350101,9400.615463
2503.028013,-1378.971896,-1036.288319,9696.697840
2503.028342,-1608.800546,-666.185348,9400.615463
2503.028672,-459.657299,-296.082377,9030.512492
2503.029001,-459.657299,592.164754,9030.512492
2503.029330,612.876398,962.267725,8882.471304
2503.029659,306.438199,148.041188,9030.512492
2503.029989,1149.143247,518.144159,8586.388927
2503.030318,2298.286494,962.267725,7698.141797
2503.030647,2298.286494,666.185348,7846.182985
2503.030976,2374.896044,518.144159,7550.100608
2503.031306,1915.238745,-444.123565,8438.347739
2503.031635,1838.629195,-666.185348,8808.450710
2503.031964,1149.143247,-518.144159,8660.409521
2503.032293,0.000000,-814.226536,9030.512492
2503.032623,-612.876398,-592.164754,9326.594869
2503.032952,-766.095498,-518.144159,9992.780217
2503.033281,-919.314598,-740.205942,9696.697840
2503.033610,-1072.533697,-1110.308913,9770.718434
2503.033940,-995.924147,-888.247130,9992.780217
2503.034269,-842.705048,-370.102971,9622.677246
2503.034598,-995.924147,-222.061783,9474.636058
2503.034927,-1149.143247,-666.185348,9622.677246
2503.035257,-689.485948,-74.020594,9548.656652
2503.035586,-995.924147,-0.000000,9104.533087
2503.035915,-459.657299,296.082377,9252.574275
2503.036244,1302.362347,592.164754,8660.409521
2503.036574,1838.629195,1184.329507,8142.265362
2503.036903,1915.238745,962.267725,7994.224174
2503.037232,2298.286494,888.247130,8364.327145
2503.037561,2681.334243,444.123565,8216.285956
2503.037891,2451.505594,148.041188,8142.265362
2503.038220,2145.067394,-74.020594,8956.491898
2503.038549,1915.238745,-592.164754,9104.533087
2503.038878,1762.019645,-74.020594,9326.594869
2503.039208,919.314598,-296.082377,9252.574275
2503.039537,459.657299,-444.123565,9622.677246
2503.039866,0.000000,-222.061783,9400.615463
2503.040195,-842.705048,-0.000000,9622.677246
2503.040525,-995.924147,-74.020594,9696.697840
2503.040854,-1302.362347,-962.267725,9770.718434
2503.041183,-1149.143247,-1110.308913,9696.697840
2503.041512,-1991.848295,-1258.350101,9770.718434
2503.041842,-919.314598,-1554.432478,9548.656652
2503.042171,-842.705048,-1332.370696,9474.636058
2503.042500,-536.266849,-1184.329507,9474.636058
2503.042829,-383.047749,-444.123565,9400.615463
2503.043159,0.000000,-0.000000,9326.594869
2503.043488,919.314598,592.164754,8586.388927
2503.043817,1302.362347,1628.453072,8512.368333
2503.044146,1838.629195,1924.535449,7772.162391
2503.044476,1838.629195,1480.411884,7846.182985
2503.044805,1762.019645,592.164754,8290.306550
2503.045134,1685.410096,-74.020594,8364.327145
2503.045463,1225.752797,-962.267725,8512.368333
2503.045793,919.314598,-1406.391290,8734.430116
2503.046122,995.924147,-1702.473667,9548.656652
2503.046451,612.876398,-1702.473667,9252.574275
2503.046780,76.609550,-962.267725,9474.636058
2503.047110,0.000000,-370.102971,9104.533087
2503.047439,0.000000,-0.000000,9104.533087
2503.047768,-383.047749,-0.000000,8882.471304
2503.048097,-536.266849,-370.102971,9400.615463
2503.048427,0.000000,-0.000000,9474.636058
2503.048756,-689.485948,-222.061783,9178.553681
2503.049085,-995.924147,-592.164754,9104.533087
2503.049414,-689.485948,-444.123565,9104.533087
2503.049744,-383.047749,-370.102971,9104.533087
2503.050073,0.000000,-370.102971,9178.553681
2503.050402,229.828649,222.061783,9104.533087
2503.050731,689.485948,370.102971,8734.430116
2503.051061,536.266849,518.144159,8660.409521
2503.051390,1608.800546,296.082377,8734.430116
2503.051719,2068.457845,-0.000000,8438.347739
2503.052048,2681.334243,-0.000000,8586.388927
2503.052378,2681.334243,-148.041188,8586.388927
2503.052707,2604.724693,-0.000000,8734.430116
2503.053036,2221.676944,-0.000000,9104.533087
2503.053365,1532.190996,-0.000000,9030.512492
2503.053695,995.924147,-0.000000,9252.574275
2503.054024,153.219100,370.102971,9474.636058
2503.054353,-766.095498,-148.041188,9474.636058
2503.054682,-1225.752797,-444.123565,9474.636058
2503.055012,-1302.362347,-1110.308913,9474.636058
2503.055341,-1762.019645,-1480.411884,9770.718434
2503.055670,-1378.971896,-1554.432478,9622.677246
2503.055999,-1072.533697,-1850.514855,9992.780217
2503.056329,-1302.362347,-1184.329507,9696.697840
2503.056658,-536.266849,-740.205942,9474.636058
2503.056987,-383.047749,-74.020594,9474.636058
2503.057316,0.000000,740.205942,9474.636058
2503.057645,536.266849,1184.329507,8882.471304
2503.057975,1149.143247,1998.556043,8290.306550
2503.058304,2145.067394,2294.638420,7846.182985
2503.058633,2145.067394,1776.494261,7772.162391
2503.058962,2298.286494,1036.288319,7772.162391
2503.059292,2374.896044,444.123565,7994.224174
2503.059621,2068.457845,-666.185348,8290.306550
2503.059950,919.314598,-1258.350101,9104.533087
2503.060279,842.705048,-1332.370696,9178.553681
2503.060609,0.000000,-1110.308913,9326.594869
2503.060938,0.000000,-888.247130,9178.553681
2503.061267,0.000000,-814.226536,9252.574275
2503.061596,0.000000,-74.020594,9252.574275
2503.061926,76.609550,370.102971,8882.471304
2503.062255,-306.438199,-296.082377,9178.553681
2503.062584,-459.657299,-444.123565,9252.574275
2503.062913,-689.485948,-592.164754,9252.574275
2503.063243,-842.705048,-592.164754,9400.615463
2503.063572,-1072.533697,-888.247130,9622.677246
2503.063901,-689.485948,-888.247130,9622.677246
2503.064230,-1149.143247,-592.164754,9178.553681
2503.064560,-612.876398,-444.123565,9474.636058
2503.064889,0.000000,-0.000000,9104.533087
2503.065218,536.266849,592.164754,8956.491898
2503.065547,919.314598,444.123565,8808.450710
2503.065877,1532.190996,-0.000000,8734.430116
2503.066206,2145.067394,-0.000000,8734.430116
2503.066535,2451.505594,-74.020594,8586.388927
2503.066864,2528.115143,-0.000000,9178.553681
2503.067194,1838.629195,-0.000000,8734.430116
2503.067523,1685.410096,370.102971,8586.388927
2503.067852,1225.752797,444.123565,8956.491898
2503.068181,842.705048,296.082377,8808.450710
2503.068511,-306.438199,-0.000000,9104.533087
2503.068840,-1302.362347,-592.164754,9696.697840
2503.069169,-1072.533697,-962.267725,9622.677246
2503.069498,-1302.362347,-1110.308913,9622.677246
2503.069828,-1532.190996,-1332.370696,9474.636058
2503.070157,-1455.581446,-1776.494261,9992.780217
2503.070486,-1302.362347,-1480.411884,9622.677246
2503.070815,-1072.533697,-1332.370696,9252.574275
2503.071145,-689.485948,-740.205942,9622.677246
2503.071474,0.000000,-222.061783,8956.491898
2503.071803,-153.219100,1184.329507,9252.574275
2503.072132,76.609550,1406.391290,9104.533087
2503.072462,995.924147,1628.453072,8438.347739
2503.072791,2068.457845,1258.350101,7994.224174
2503.073120,2911.162892,1332.370696,7550.100608
2503.073449,2604.724693,740.205942,7550.100608
2503.073779,2451.505594,-0.000000,8216.285956
2503.074108,2145.067394,-0.000000,8290.306550
2503.074437,1991.848295,-444.123565,8512.368333
2503.074766,1378.971896,-666.185348,9252.574275
2503.075096,383.047749,-1184.329507,9400.615463
2503.075425,0.000000,-962.267725,9770.718434
2503.075754,-229.828649,-518.144159,9770.718434
2503.076083,-689.485948,-518.144159,9474.636058
2503.076413,-1149.143247,-444.123565,9844.739029
2503.076742,-1608.800546,-0.000000,10288.862594
2503.077071,-1225.752797,-814.226536,9696.697840
2503.077400,-995.924147,-592.164754,9770.718434
2503.077730,-766.095498,-592.164754,9696.697840
2503.078059,-842.705048,-666.185348,9696.697840
2503.078388,-842.705048,-370.102971,9474.636058
2503.078717,-306.438199,-0.000000,9326.594869
2503.079047,536.266849,888.247130,8586.388927
2503.079376,689.485948,592.164754,8512.368333
2503.079705,1149.143247,740.205942,8142.265362
2503.080034,1762.019645,592.164754,7994.224174
2503.080364,2145.067394,296.082377,8142.265362
2503.080693,1991.848295,-0.000000,8660.409521
2503.081022,1762.019645,-296.082377,8808.450710
2503.081351,1608.800546,-592.164754,9030.512492
2503.081681,919.314598,-370.102971,9178.553681
2503.082010,229.828649,-74.020594,9178.553681
2503.082339,76.609550,-0.000000,9252.574275
2503.082668,153.219100,-74.020594,9326.594869
2503.082998,-306.438199,148.041188,9030.512492
2503.083327,-766.095498,-370.102971,9178.553681
2503.083656,-766.095498,-666.185348,9326.594869
2503.083985,-766.095498,-0.000000,9770.718434
2503.084315,-919.314598,-1406.391290,9474.636058
2503.084644,-1149.143247,-1554.432478,9474.636058
2503.084973,-1225.752797,-1184.329507,9474.636058
2503.085302,-842.705048,-962.267725,9696.697840
2503.085632,-689.485948,-740.205942,9548.656652
2503.085961,-689.485948,-148.041188,9696.697840
2503.086290,-306.438199,-0.000000,9548.656652
2503.086619,76.609550,666.185348,9770.718434
2503.086949,612.876398,1110.308913,9326.594869
2503.087278,1685.410096,962.267725,8512.368333
2503.087607,2221.676944,814.226536,8142.265362
2503.087936,2298.286494,296.082377,8068.244768
2503.088266,2834.553343,148.041188,7994.224174
2503.088595,2604.724693,-0.000000,8142.265362
2503.088924,2145.067394,-666.185348,8216.285956
2503.089253,1991.848295,-518.144159,8882.471304
2503.089583,842.705048,-370.102971,8586.388927
2503.089912,0.000000,-296.082377,9548.656652
2503.090241,0.000000,-518.144159,9992.780217
2503.090570,-766.095498,148.041188,9548.656652
2503.090900,-1072.533697,-1184.329507,9474.636058
2503.091229,-1302.362347,-296.082377,10066.800811
2503.091558,-1225.752797,-1332.370696,9696.697840
2503.091887,-1149.143247,-444.123565,9696.697840
2503.092217,-1072.533697,-962.267725,9474.636058
2503.092546,-919.314598,-148.041188,9400.615463
2503.092875,-383.047749,-0.000000,9548.656652
2503.093204,0.000000,296.082377,9104.533087
2503.093534,536.266849,370.102971,8586.388927
2503.093863,1149.143247,1332.370696,8290.306550
2503.094192,1762.019645,666.185348,7994.224174
2503.094521,2451.505594,370.102971,7994.224174
2503.094851,2834.553343,370.102971,7920.203579
2503.095180,2834.553343,-0.000000,8660.409521
2503.095509,2681.334243,-296.082377,8882.471304
2503.095838,1608.800546,-148.041188,9030.512492
2503.096167,1455.581446,-0.000000,8956.491898
2503.096497,689.485948,222.061783,9400.615463
2503.096824,306.438199,-0.000000,9474.636058
2503.097154,-229.828649,-0.000000,9400.615463
2503.097483,-995.924147,-0.000000,9918.759623
2503.097812,-995.924147,-1110.308913,9474.636058
2503.098141,-1532.190996,-888.247130,9474.636058
2503.098470,-1532.190996,-1628.453072,9622.677246
2503.098799,-1608.800546,-1924.535449,9474.636058
2503.099128,-1608.800546,-1850.514855,9696.697840
2503.099457,-1072.533697,-1480.411884,9548.656652
2503.099786,-612.876398,-814.226536,9104.533087
2503.100116,-153.219100,-296.082377,9252.574275
2503.100445,536.266849,666.185348,8882.471304
2503.100774,919.314598,1332.370696,8660.409521
2503.101103,1608.800546,2368.659014,8216.285956
2503.101432,1915.238745,1480.411884,7846.182985
2503.101761,2298.286494,1258.350101,8142.265362
2503.102090,1915.238745,296.082377,8512.368333
2503.102419,1685.410096,-296.082377,8586.388927
2503.102749,766.095498,-888.247130,9030.512492
2503.103078,612.876398,-1258.350101,9178.553681
2503.103407,229.828649,-1036.288319,9326.594869
2503.103736,229.828649,-888.247130,9474.636058
2503.104065,0.000000,-592.164754,8956.491898
2503.104394,0.000000,-148.041188,9326.594869
2503.104723,-536.266849,296.082377,9104.533087
2503.105052,-306.438199,-0.000000,8734.430116
2503.105381,-459.657299,-74.020594,9178.553681
2503.105711,-612.876398,-74.020594,9326.594869
2503.106040,-612.876398,-296.082377,9178.553681
2503.106369,-842.705048,-592.164754,9400.615463
2503.106698,-842.705048,-666.185348,9622.677246
2503.107027,-612.876398,-740.205942,9400.615463
2503.107356,306.438199,-74.020594,9252.574275
2503.107685,306.438199,-0.000000,8808.450710
2503.108014,306.438199,592.164754,8734.430116
2503.108344,1149.143247,740.205942,8660.409521
2503.108673,1838.629195,222.061783,8216.285956
2503.109002,2221.676944,-0.000000,8586.388927
2503.109331,2145.067394,-0.000000,8882.471304
2503.109660,2604.724693,-222.061783,8882.471304
2503.109989,2068.457845,-0.000000,8660.409521
2503.110318,1685.410096,-0.000000,8882.471304
2503.110647,995.924147,-0.000000,9474.636058
2503.110976,0.000000,148.041188,9474.636058
2503.111306,-1302.362347,-74.020594,9474.636058
2503.111635,-459.657299,-518.144159,9696.697840
2503.111964,-1378.971896,-666.185348,9844.739029
2503.112293,-1378.971896,-962.267725,9918.759623
2503.112622,-1762.019645,-1036.288319,9474.636058
2503.112951,-1455.581446,-1702.473667,9696.697840
2503.113280,-1149.143247,-1480.411884,9770.718434
2503.113609,-1072.533697,-1036.288319,10066.800811
2503.113939,-536.266849,-666.185348,9696.697840
2503.114268,76.609550,148.041188,9030.512492
2503.114597,0.000000,888.247130,9178.553681
2503.114926,689.485948,1332.370696,8364.327145
2503.115255,1302.362347,1702.473667,7846.182985
2503.115584,1302.362347,1924.535449,7846.182985
2503.115913,2221.676944,740.205942,8068.244768
2503.116242,2528.115143,222.061783,7624.121203
2503.116572,2221.676944,-296.082377,8068.244768
2503.116901,1302.362347,-1036.288319,8734.430116
2503.117230,995.924147,-1628.453072,9104.533087
2503.117559,459.657299,-1480.411884,9326.594869
2503.117888,383.047749,-1110.308913,9326.594869
2503.118217,0.000000,-962.267725,9104.533087
2503.118546,76.609550,-0.000000,9400.615463
2503.118875,612.876398,-0.000000,8956.491898
2503.119204,76.609550,666.185348,9030.512492
2503.119534,-612.876398,222.061783,9400.615463
2503.119863,-842.705048,-0.000000,9178.553681
2503.120192,-766.095498,-518.144159,9326.594869
2503.120521,-919.314598,-1036.288319,9400.615463
2503.120850,-842.705048,-1258.350101,9400.615463
2503.121179,-459.657299,-1258.350101,9400.615463
2503.121508,-689.485948,-814.226536,9400.615463
2503.121837,0.000000,-0.000000,9474.636058
2503.122167,153.219100,222.061783,8734.430116
2503.122496,842.705048,666.185348,9030.512492
2503.122825,1915.238745,444.123565,8956.491898
2503.123154,2528.115143,666.185348,8660.409521
2503.123483,3140.991542,518.144159,8660.409521
2503.123812,3600.648841,370.102971,8364.327145
2503.124141,3140.991542,592.164754,8586.388927
2503.124470,2451.505594,592.164754,8734.430116
2503.124799,1915.238745,740.205942,8882.471304
2503.125129,919.314598,592.164754,9104.533087
2503.125458,306.438199,-0.000000,9326.594869
2503.125787,-459.657299,-74.020594,9548.656652
2503.126116,-689.485948,-666.185348,9696.697840
2503.126445,-1072.533697,-1332.370696,9474.636058
2503.126774,-1225.752797,-1258.350101,9622.677246
2503.127103,-995.924147,-1776.494261,9474.636058
2503.127432,-1149.143247,-1480.411884,10066.800811
2503.127762,-995.924147,-1332.370696,9548.656652
2503.128091,-1149.143247,-888.247130,9622.677246
2503.128420,153.219100,-296.082377,9474.636058
2503.128749,0.000000,592.164754,8956.491898
2503.129078,689.485948,1480.411884,8734.430116
2503.129407,1302.362347,2072.576638,8068.244768
2503.129736,1991.848295,2072.576638,7402.059420
2503.130065,2221.676944,1480.411884,7772.162391
2503.130395,2528.115143,222.061783,8142.265362
2503.130724,2068.457845,-814.226536,8586.388927
2503.131053,842.705048,-1480.411884,9030.512492
2503.131382,153.219100,-1702.473667,9252.574275
2503.131711,0.000000,-1776.494261,9548.656652
2503.132040,0.000000,-1406.391290,9622.677246
2503.132369,0.000000,-962.267725,9696.697840
2503.132698,0.000000,-814.226536,9548.656652
2503.133027,153.219100,444.123565,9474.636058
2503.133357,-383.047749,296.082377,9326.594869
2503.133686,-383.047749,148.041188,9178.553681
2503.134015,-612.876398,370.102971,9326.594869
2503.134344,-536.266849,-0.000000,9326.594869
2503.134673,-842.705048,-222.061783,8956.491898
2503.135002,-919.314598,-888.247130,9104.533087
2503.135331,-842.705048,-1110.308913,9326.594869
2503.135660,-459.657299,-740.205942,9326.594869
2503.135990,-536.266849,-222.061783,9326.594869
2503.136319,0.000000,-0.000000,8586.388927
2503.136648,229.828649,962.267725,8660.409521
2503.136977,995.924147,888.247130,8512.368333
2503.137306,2451.505594,370.102971,8512.368333
2503.137635,2374.896044,-0.000000,8512.368333
2503.137964,2451.505594,370.102971,8438.347739
2503.138293,2451.505594,-0.000000,8216.285956
2503.138622,2221.676944,-0.000000,8808.450710
2503.138952,1532.190996,222.061783,8882.471304
2503.139281,919.314598,-0.000000,8734.430116
2503.139610,0.000000,-74.020594,9326.594869
2503.139939,0.000000,-222.061783,9178.553681
2503.140268,-383.047749,-666.185348,9252.574275
2503.140597,-1302.362347,-666.185348,9548.656652
2503.140926,-1225.752797,-1332.370696,9696.697840
2503.141255,-1225.752797,-1258.350101,9696.697840
2503.141585,-1378.971896,-1702.473667,9696.697840
2503.141914,-612.876398,-1776.494261,9992.780217
2503.142243,-612.876398,-1258.350101,9770.718434
2503.142572,-383.047749,-740.205942,9696.697840
2503.142901,229.828649,222.061783,9104.533087
2503.143230,766.095498,1258.350101,8956.491898
2503.143559,1455.581446,1776.494261,8512.368333
2503.143888,1225.752797,1998.556043,8290.306550
2503.144217,1532.190996,1628.453072,8512.368333
2503.144547,2451.505594,592.164754,7994.224174
2503.144876,1838.629195,-370.102971,8068.244768
2503.145205,1378.971896,-888.247130,8882.471304
2503.145534,1072.533697,-1258.350101,8956.491898
2503.145863,689.485948,-1480.411884,9178.553681
2503.146192,536.266849,-1184.329507,9326.594869
2503.146521,842.705048,-1110.308913,9400.615463
2503.146850,383.047749,-370.102971,8882.471304
2503.147180,229.828649,296.082377,9104.533087
2503.147509,0.000000,370.102971,9326.594869
2503.147838,-229.828649,296.082377,8882.471304
2503.148167,-689.485948,518.144159,9178.553681
2503.148496,-842.705048,-0.000000,9030.512492
2503.148825,-995.924147,-592.164754,9326.594869
2503.149154,-1072.533697,-1406.391290,9326.594869
2503.149483,-1455.581446,-1110.308913,9400.615463
2503.149813,-1302.362347,-666.185348,9178.553681
2503.150142,-689.485948,-0.000000,9104.533087
2503.150471,-229.828649,370.102971,8660.409521
2503.150800,0.000000,444.123565,8882.471304
2503.151129,689.485948,592.164754,8882.471304
2503.151458,1685.410096,222.061783,8660.409521
2503.151787,2451.505594,-148.041188,8290.306550
2503.152116,2451.505594,-222.061783,8290.306550
2503.152445,2604.724693,-0.000000,8438.347739
2503.152775,2068.457845,222.061783,8734.430116
2503.153104,1378.971896,222.061783,8882.471304
2503.153433,1302.362347,-0.000000,9400.615463
2503.153762,919.314598,-74.020594,9252.574275
2503.154091,-383.047749,-148.041188,9474.636058
2503.154420,-536.266849,-666.185348,9622.677246
2503.154749,-1608.800546,-1110.308913,9622.677246
2503.155078,-1302.362347,-1184.329507,9918.759623
2503.155408,-1378.971896,-1406.391290,9474.636058
2503.155737,-1378.971896,-1406.391290,9844.739029
2503.156066,-1225.752797,-1554.432478,9992.780217
2503.156395,-995.924147,-962.267725,10066.800811
2503.156724,-766.095498,-814.226536,9326.594869
2503.157053,-383.047749,-74.020594,9400.615463
2503.157382,-459.657299,444.123565,9400.615463
2503.157711,76.609550,666.185348,9326.594869
2503.158040,1149.143247,740.205942,8290.306550
2503.158370,1455.581446,1110.308913,7772.162391
2503.158699,2451.505594,1406.391290,8142.265362
2503.159028,2604.724693,666.185348,8216.285956
2503.159357,2681.334243,444.123565,8142.265362
2503.159686,2374.896044,-0.000000,8068.244768
2503.160015,2221.676944,-592.164754,8364.327145
2503.160344,1455.581446,-666.185348,8734.430116
2503.160673,1455.581446,-740.205942,9400.615463
2503.161003,689.485948,-814.226536,8956.491898
2503.161332,612.876398,-740.205942,9400.615463
2503.161661,0.000000,-148.041188,9474.636058
2503.161990,-459.657299,148.041188,9104.533087
2503.162319,-766.095498,-0.000000,9474.636058
2503.162648,-536.266849,-518.144159,9548.656652
2503.162977,-919.314598,-370.102971,9992.780217
2503.163306,-766.095498,-740.205942,9770.718434
2503.163636,-919.314598,-740.205942,9696.697840
2503.163965,-383.047749,-592.164754,9622.677246
2503.164294,-229.828649,-148.041188,9400.615463
2503.164623,536.266849,-0.000000,9030.512492
2503.164952,842.705048,518.144159,8290.306550
2503.165281,1455.581446,962.267725,8660.409521
2503.165610,2221.676944,740.205942,8438.347739
2503.165939,1991.848295,296.082377,8216.285956
2503.166268,2374.896044,-0.000000,8734.430116
2503.166598,2145.067394,-296.082377,8882.471304
2503.166927,1838.629195,-592.164754,9030.512492
2503.167256,1532.190996,-370.102971,9104.533087
2503.167585,842.705048,-666.185348,9326.594869
2503.167914,612.876398,-370.102971,9548.656652
2503.168243,536.266849,-222.061783,9400.615463
2503.168572,0.000000,-0.000000,9178.553681
2503.168901,-612.876398,-148.041188,9326.594869
2503.169231,-612.876398,-518.144159,9178.553681
2503.169560,-1149.143247,-1110.308913,9252.574275
2503.169889,-1149.143247,-1628.453072,9326.594869
2503.170218,-1225.752797,-1702.473667,9696.697840
2503.170547,-1455.581446,-1406.391290,9474.636058
2503.170876,-995.924147,-1184.329507,9030.512492
2503.171205,-612.876398,-666.185348,9400.615463
2503.171534,-612.876398,-74.020594,9104.533087
2503.171863,-229.828649,740.205942,8956.491898
2503.172193,229.828649,888.247130,8142.265362
2503.172522,0.000000,1184.329507,8512.368333
2503.172851,919.314598,740.205942,8290.306550
2503.173180,1455.581446,592.164754,8364.327145
2503.173509,1762.019645,222.061783,8142.265362
2503.173838,2068.457845,-0.000000,8290.306550
2503.174167,1915.238745,-370.102971,8364.327145
2503.174496,1608.800546,-444.123565,8882.471304
2503.174826,1378.971896,-962.267725,8956.491898
2503.175155,1072.533697,-666.185348,9104.533087
2503.175484,383.047749,-518.144159,9178.553681
2503.175813,76.609550,-296.082377,9474.636058
2503.176142,-536.266849,-74.020594,9474.636058
2503.176471,-1072.533697,-370.102971,9992.780217
2503.176800,-459.657299,-814.226536,9992.780217
2503.177129,-919.314598,-1110.308913,9844.739029
2503.177458,-1685.410096,-666.185348,9992.780217
2503.177788,-1225.752797,-592.164754,9918.759623
2503.178117,-919.314598,-592.164754,9918.759623
2503.178446,-459.657299,-74.020594,9622.677246
2503.178775,229.828649,-0.000000,9770.718434
2503.179104,919.314598,444.123565,8882.471304
2503.179433,1608.800546,1110.308913,8660.409521
2503.179762,2145.067394,814.226536,8364.327145
2503.180091,2451.505594,888.247130,8068.244768
2503.180421,2681.334243,666.185348,8364.327145
2503.180750,2604.724693,370.102971,8512.368333
2503.181079,2374.896044,-0.000000,7994.224174
2503.181408,1685.410096,-148.041188,8586.388927
2503.181737,1072.533697,-370.102971,9178.553681
2503.182066,459.657299,-0.000000,9474.636058
2503.182395,0.000000,-74.020594,9474.636058
2503.182724,-306.438199,-0.000000,9474.636058
2503.183054,-995.924147,-0.000000,9400.615463
2503.183383,-1302.362347,-814.226536,9474.636058
2503.183712,-1302.362347,-1406.391290,9548.656652
2503.184041,-919.314598,-1406.391290,9252.574275
2503.184370,-995.924147,-1628.453072,9696.697840
2503.184699,-1149.143247,-1480.411884,9474.636058
2503.185028,-842.705048,-1258.350101,9474.636058
2503.185357,-459.657299,-888.247130,9178.553681
2503.185686,153.219100,-148.041188,9104.533087
2503.186016,383.047749,518.144159,8808.450710
2503.186345,919.314598,1406.391290,8660.409521
2503.186674,1072.533697,1554.432478,7846.182985
2503.187003,1378.971896,1554.432478,7846.182985
2503.187332,1685.410096,962.267725,8142.265362
2503.187661,1302.362347,148.041188,8364.327145
2503.187990,689.485948,-740.205942,9178.553681
2503.188319,842.705048,-1554.432478,9178.553681
2503.188649,612.876398,-1554.432478,9474.636058
2503.188978,153.219100,-1554.432478,9400.615463
2503.189307,306.438199,-962.267725,9474.636058
2503.189636,459.657299,-518.144159,9030.512492
2503.189965,383.047749,-74.020594,8882.471304
2503.190294,153.219100,-0.000000,8882.471304
2503.190623,-153.219100,148.041188,8956.491898
2503.190952,-536.266849,-0.000000,9104.533087
2503.191281,-689.485948,-0.000000,9104.533087
2503.191611,-766.095498,-222.061783,9178.553681
2503.191940,-995.924147,-888.247130,9400.615463
2503.192269,-766.095498,-888.247130,9474.636058
2503.192598,-536.266849,-814.226536,9474.636058
2503.192927,-306.438199,-518.144159,9178.553681
2503.193256,76.609550,-222.061783,8512.368333
2503.193585,229.828649,370.102971,9030.512492
2503.193914,1225.752797,962.267725,8364.327145
2503.194244,1838.629195,740.205942,8364.327145
2503.194573,2528.115143,740.205942,8364.327145
2503.194902,2911.162892,296.082377,7772.162391
2503.195231,2451.505594,-222.061783,8290.306550
2503.195560,2451.505594,-0.000000,9178.553681
2503.195889,2068.457845,-0.000000,9030.512492
2503.196218,1149.143247,-0.000000,9326.594869
2503.196547,612.876398,-0.000000,9474.636058
2503.196876,306.438199,-0.000000,9474.636058
2503.197205,0.000000,-0.000000,9548.656652
2503.197534,-612.876398,-444.123565,9104.533087
2503.197863,-766.095498,-814.226536,9696.697840
2503.198192,-1532.190996,-962.267725,9918.759623
2503.198521,-1072.533697,-1184.329507,9770.718434
2503.198850,-1072.533697,-1406.391290,10066.800811
2503.199179,-689.485948,-1184.329507,9696.697840
2503.199508,-766.095498,-740.205942,9474.636058
2503.199837,536.266849,-74.020594,9548.656652
2503.200166,766.095498,296.082377,8956.491898
2503.200495,612.876398,1036.288319,8808.450710
2503.200825,919.314598,1554.432478,8216.285956
2503.201154,1225.752797,1628.453072,8290.306550
2503.201483,1532.190996,1036.288319,8512.368333
2503.201812,2221.676944,222.061783,8586.388927
2503.202141,2145.067394,-814.226536,8512.368333
2503.202470,1455.581446,-888.247130,8956.491898
2503.202799,1149.143247,-962.267725,8956.491898
2503.203128,919.314598,-814.226536,8512.368333
2503.203457,306.438199,-814.226536,9696.697840
2503.203786,383.047749,-962.267725,9178.553681
2503.204115,0.000000,370.102971,8586.388927
2503.204444,76.609550,-296.082377,9178.553681
2503.204773,-306.438199,222.061783,7994.224174
2503.205102,-383.047749,-222.061783,9178.553681
2503.205431,-1072.533697,-1110.308913,9326.594869
2503.205760,-995.924147,-1110.308913,9030.512492
2503.206089,-1532.190996,-1998.556043,9326.594869
2503.206418,-1225.752797,-962.267725,8882.471304
2503.206747,-995.924147,-1406.391290,9622.677246
2503.207076,-995.924147,-222.061783,9104.533087
2503.207405,-536.266849,-0.000000,8882.471304
2503.207734,-536.266849,592.164754,9326.594869
2503.208063,1225.752797,1332.370696,8438.347739
2503.208392,1532.190996,1406.391290,8586.388927
2503.208721,1991.848295,370.102971,8512.368333
2503.209050,2221.676944,592.164754,8512.368333
2503.209379,2451.505594,-0.000000,8660.409521
2503.209709,1991.848295,-370.102971,8882.471304
2503.210038,1915.238745,-74.020594,9326.594869
2503.210367,995.924147,-0.000000,9474.636058
2503.210696,1072.533697,-0.000000,9474.636058
2503.211025,153.219100,-148.041188,9548.656652
2503.211354,0.000000,-74.020594,9474.636058
2503.211683,-612.876398,-370.102971,9474.636058
2503.212012,-766.095498,-888.247130,9844.739029
2503.212341,-383.047749,-444.123565,9844.739029
2503.212670,-766.095498,-444.123565,10066.800811
2503.212999,-1149.143247,-1110.308913,9770.718434
2503.213328,-766.095498,-1036.288319,9844.739029
2503.213657,-383.047749,-740.205942,9548.656652
2503.213986,0.000000,-222.061783,9178.553681
2503.214315,0.000000,518.144159,9252.574275
2503.214644,1532.190996,1480.411884,9030.512492
2503.214973,1532.190996,1332.370696,8364.327145
2503.215302,1608.800546,1850.514855,8142.265362
2503.215631,1838.629195,1406.391290,7994.224174
2503.215960,1991.848295,666.185348,8068.244768
2503.216289,1915.238745,-0.000000,8364.327145
2503.216618,1915.238745,-962.267725,8512.368333
2503.216947,1149.143247,-518.144159,8808.450710
2503.217276,842.705048,-1480.411884,9104.533087
2503.217605,612.876398,-962.267725,9030.512492
2503.217934,612.876398,-814.226536,9252.574275
2503.218263,229.828649,-296.082377,8956.491898
2503.218593,0.000000,-0.000000,9104.533087
2503.218922,-153.219100,-0.000000,9326.594869
2503.219251,-842.705048,-222.061783,8882.471304
2503.219580,-1072.533697,-296.082377,9400.615463
2503.219909,-842.705048,-592.164754,9474.636058
2503.220238,-766.095498,-1258.350101,9030.512492
2503.220567,-1608.800546,-1110.308913,9474.636058
2503.220896,-995.924147,-1850.514855,9622.677246
2503.221225,-612.876398,-962.267725,8808.450710
2503.221554,-612.876398,-370.102971,9104.533087
2503.221883,0.000000,148.041188,8956.491898
2503.222212,536.266849,666.185348,8216.285956
2503.222541,689.485948,814.226536,8216.285956
2503.222870,1378.971896,814.226536,8364.327145
2503.223199,1455.581446,222.061783,8290.306550
2503.223528,1608.800546,-74.020594,8808.450710
2503.223857,383.047749,-222.061783,8882.471304
2503.224186,1225.752797,-518.144159,9474.636058
2503.224515,536.266849,-444.123565,9474.636058
2503.224844,612.876398,-222.061783,9326.594869
2503.225173,76.609550,-0.000000,9178.553681
2503.225502,0.000000,-0.000000,9326.594869
2503.225831,0.000000,-148.041188,9326.594869
2503.226160,-1225.752797,-222.061783,9474.636058
2503.226489,-383.047749,-370.102971,9104.533087
2503.226818,-612.876398,-666.185348,9104.533087
2503.227147,-1378.971896,-814.226536,9400.615463
2503.227477,-995.924147,-1110.308913,9844.739029
2503.227806,-919.314598,-888.247130,9622.677246
2503.228135,-995.924147,-1110.308913,9400.615463
2503.228464,-383.047749,-222.061783,8882.471304
2503.228793,-383.047749,222.061783,9622.677246
2503.229122,76.609550,444.123565,9030.512492
2503.229451,536.266849,1480.411884,8660.409521
2503.229780,1532.190996,962.267725,8586.388927
2503.230109,1991.848295,740.205942,8068.244768
2503.230438,2298.286494,370.102971,8808.450710
2503.230767,2528.115143,-74.020594,7920.203579
2503.231096,2451.505594,-222.061783,8882.471304
2503.231425,2068.457845,-814.226536,8808.450710
2503.231754,1762.019645,-444.123565,8660.409521
2503.232083,1455.581446,-592.164754,9178.553681
2503.232412,689.485948,-370.102971,9178.553681
2503.232741,383.047749,-148.041188,9030.512492
2503.233070,0.000000,-0.000000,9770.718434
2503.233399,-612.876398,-518.144159,9474.636058
2503.233728,-995.924147,-0.000000,9918.759623
2503.234057,-995.924147,-666.185348,9918.759623
2503.234386,-995.924147,-814.226536,9548.656652
2503.234715,-766.095498,-1258.350101,9548.656652
2503.235044,-383.047749,-1110.308913,9770.718434
2503.235373,306.438199,-518.144159,9400.615463
2503.235702,536.266849,-296.082377,9326.594869
2503.236031,919.314598,296.082377,8512.368333
2503.236360,1225.752797,1036.288319,8142.265362
2503.236690,1378.971896,1480.411884,7920.203579
2503.237019,1838.629195,1184.329507,7624.121203
2503.237348,1762.019645,592.164754,8142.265362
2503.237677,1991.848295,518.144159,8882.471304
2503.238006,1685.410096,-666.185348,8586.388927
2503.238335,919.314598,-740.205942,8882.471304
2503.238664,919.314598,-814.226536,9030.512492
2503.238993,536.266849,-518.144159,9104.533087
2503.239322,306.438199,-74.020594,9104.533087
2503.239651,0.000000,-0.000000,9178.553681
2503.239980,0.000000,-222.061783,9104.533087
2503.240309,0.000000,-148.041188,8808.450710
2503.240638,-383.047749,-444.123565,9030.512492
2503.240967,-842.705048,-962.267725,9474.636058
2503.241296,-1072.533697,-962.267725,9326.594869
2503.241625,-1149.143247,-1332.370696,9474.636058
2503.241954,-1378.971896,-1554.432478,10066.800811
2503.242283,-995.924147,-1258.350101,9696.697840
2503.242612,-919.314598,-814.226536,9548.656652
2503.242941,-229.828649,-0.000000,9104.533087
2503.243270,-153.219100,592.164754,8882.471304
2503.243599,383.047749,1406.391290,8586.388927
2503.243928,919.314598,1554.432478,8290.306550
2503.244257,1838.629195,1702.473667,8512.368333
2503.244586,2145.067394,592.164754,8438.347739
2503.244915,2221.676944,-0.000000,8290.306550
2503.245244,1991.848295,-148.041188,8512.368333
2503.245574,1455.581446,-444.123565,8808.450710
2503.245903,995.924147,-1036.288319,9178.553681
2503.246232,766.095498,-814.226536,9400.615463
2503.246561,459.657299,-666.185348,9474.636058
2503.246890,-766.095498,-296.082377,9400.615463
2503.247219,-536.266849,-296.082377,9696.697840
2503.247548,-459.657299,296.082377,9400.615463
2503.247877,-919.314598,-0.000000,9178.553681
2503.248206,-995.924147,-222.061783,9474.636058
2503.248535,-1225.752797,-518.144159,9474.636058
2503.248864,-995.924147,-814.226536,9474.636058
2503.249193,-1072.533697,-1184.329507,9474.636058
2503.249522,-459.657299,-1258.350101,9622.677246
2503.249851,0.000000,-296.082377,9252.574275
2503.250180,0.000000,222.061783,9252.574275
2503.250509,153.219100,740.205942,8586.388927
2503.250838,766.095498,1258.350101,8438.347739
2503.251167,1378.971896,1332.370696,8586.388927
2503.251496,2068.457845,592.164754,8438.347739
2503.251825,2298.286494,-518.144159,8586.388927
2503.252154,2451.505594,-222.061783,8734.430116
2503.252483,2451.505594,-0.000000,8882.471304
2503.252812,2145.067394,-0.000000,8512.368333
2503.253141,1685.410096,-74.020594,8586.388927
2503.253470,1532.190996,-74.020594,8956.491898
2503.253799,1149.143247,-0.000000,8956.491898
2503.254128,306.438199,222.061783,9252.574275
2503.254458,-383.047749,-0.000000,9104.533087
2503.254787,-612.876398,-592.164754,9326.594869
2503.255116,-1225.752797,-1036.288319,9548.656652
2503.255445,-1532.190996,-1332.370696,9696.697840
2503.255774,-1302.362347,-1554.432478,10066.800811
2503.256103,-1072.533697,-1702.473667,9918.759623
2503.256432,-995.924147,-1406.391290,9844.739029
2503.256761,-919.314598,-888.247130,9696.697840
2503.257090,-383.047749,-0.000000,9696.697840
2503.257419,-383.047749,1036.288319,9104.533087
2503.257748,306.438199,1480.411884,8882.471304
2503.258077,766.095498,1258.350101,8142.265362
2503.258406,2298.286494,1628.453072,8216.285956
2503.258735,2374.896044,592.164754,8068.244768
2503.259064,1532.190996,296.082377,7920.203579
2503.259393,1762.019645,-148.041188,8290.306550
2503.259722,1608.800546,-444.123565,8438.347739
2503.260051,1225.752797,-1036.288319,8734.430116
2503.260380,1072.533697,-1258.350101,8438.347739
2503.260709,383.047749,-666.185348,8882.471304
2503.261038,0.000000,-814.226536,9400.615463
2503.261367,0.000000,-296.082377,9548.656652
2503.261696,-383.047749,-0.000000,9326.594869
2503.262025,-766.095498,-0.000000,9474.636058
2503.262354,-1225.752797,-74.020594,9400.615463
2503.262683,-1378.971896,-74.020594,9178.553681
2503.263012,-1072.533697,-814.226536,9400.615463
2503.263341,-1685.410096,-1036.288319,9474.636058
2503.263671,-919.314598,-1184.329507,9474.636058
2503.264000,-995.924147,-1110.308913,9548.656652
2503.264329,-689.485948,-666.185348,9400.615463
2503.264658,0.000000,-370.102971,9030.512492
2503.264987,689.485948,-0.000000,8660.409521
2503.265316,1072.533697,666.185348,8586.388927
2503.265645,1991.848295,592.164754,8586.388927
2503.265974,2298.286494,222.061783,8438.347739
2503.266303,2451.505594,592.164754,8438.347739
2503.266632,2911.162892,-0.000000,8734.430116
2503.266961,2451.505594,-0.000000,8586.388927
2503.267290,2068.457845,-0.000000,9104.533087
2503.267619,1915.238745,-222.061783,9104.533087
2503.267948,1302.362347,-148.041188,9104.533087
2503.268277,612.876398,-0.000000,9400.615463
2503.268606,0.000000,-74.020594,9104.533087
2503.268935,-689.485948,-74.020594,9178.553681
2503.269264,-689.485948,-814.226536,9548.656652
2503.269593,-995.924147,-1110.308913,9696.697840
2503.269922,-919.314598,-1480.411884,9474.636058
2503.270251,-919.314598,-1998.556043,9622.677246
2503.270580,-766.095498,-888.247130,10362.883188
2503.270909,-306.438199,-666.185348,9622.677246
2503.271238,0.000000,-0.000000,9104.533087
2503.271567,459.657299,962.267725,9030.512492
2503.271896,1302.362347,1406.391290,8512.368333
2503.272225,1608.800546,2072.576638,8142.265362
2503.272555,2068.457845,1628.453072,8068.244768
2503.272884,2374.896044,1332.370696,7920.203579
2503.273213,2145.067394,370.102971,8142.265362
2503.273542,1991.848295,-222.061783,8364.327145
2503.273871,1608.800546,-1036.288319,8660.409521
2503.274200,1225.752797,-1406.391290,8882.471304
2503.274529,536.266849,-1628.453072,9474.636058
2503.274858,459.657299,-1406.391290,9400.615463
2503.275187,76.609550,-740.205942,9326.594869
2503.275516,0.000000,-296.082377,9252.574275
2503.275845,0.000000,-0.000000,9474.636058
2503.276174,-383.047749,148.041188,9326.594869
2503.276503,-689.485948,-0.000000,9474.636058
2503.276832,-689.485948,-444.123565,9992.780217
2503.277161,-919.314598,-444.123565,9548.656652
2503.277490,-1302.362347,-888.247130,9918.759623
2503.277819,-1302.362347,-962.267725,9770.718434
2503.278148,-1072.533697,-666.185348,9696.697840
2503.278477,-842.705048,-592.164754,9548.656652
2503.278806,-229.828649,-370.102971,9104.533087
2503.279135,76.609550,370.102971,8882.471304
2503.279464,612.876398,592.164754,8660.409521
2503.279793,1302.362347,962.267725,8438.347739
2503.280122,1532.190996,518.144159,8438.347739
2503.280451,1838.629195,444.123565,8512.368333
2503.280780,1762.019645,296.082377,8586.388927
2503.281109,1685.410096,-0.000000,8882.471304
2503.281439,1455.581446,-370.102971,9104.533087
2503.281768,1225.752797,-370.102971,9104.533087
2503.282097,536.266849,-74.020594,9326.594869
2503.282426,229.828649,-0.000000,8882.471304
2503.282755,0.000000,-0.000000,8808.450710
2503.283084,-229.828649,-0.000000,8734.430116
2503.283413,-842.705048,-740.205942,8956.491898
2503.283742,-1149.143247,-1036.288319,9400.615463
2503.284071,-1149.143247,-1258.350101,9474.636058
2503.284400,-995.924147,-1554.432478,9178.553681
2503.284729,-1149.143247,-1628.453072,9400.615463
2503.285058,-919.314598,-1480.411884,9474.636058
2503.285387,-459.657299,-740.205942,9178.553681
2503.285716,-383.047749,-444.123565,9030.512492
2503.286045,153.219100,740.205942,8734.430116
2503.286374,842.705048,1480.411884,8956.491898
2503.286703,1302.362347,1332.370696,8364.327145
2503.287032,1685.410096,1110.308913,8438.347739
2503.287361,2068.457845,592.164754,8512.368333
2503.287690,2068.457845,222.061783,8512.368333
2503.288019,2298.286494,-222.061783,8956.491898
2503.288348,2145.067394,-592.164754,9030.512492
2503.288677,1378.971896,-592.164754,8956.491898
2503.289006,1302.362347,-740.205942,9696.697840
2503.289335,689.485948,-296.082377,9326.594869
2503.289664,459.657299,-148.041188,9178.553681
2503.289993,0.000000,-0.000000,9252.574275
2503.290323,0.000000,-296.082377,9400.615463
2503.290652,-689.485948,-370.102971,9474.636058
2503.290981,-766.095498,-740.205942,9918.759623
2503.291310,-995.924147,-666.185348,9548.656652
2503.291639,-919.314598,-518.144159,9548.656652
2503.291968,-995.924147,-666.185348,9622.677246
2503.292297,-612.876398,-666.185348,9844.739029
2503.292626,-383.047749,-0.000000,9844.739029
2503.292955,76.609550,740.205942,9326.594869
2503.293284,229.828649,666.185348,9178.553681
2503.293613,229.828649,666.185348,8438.347739
2503.293942,995.924147,1184.329507,8290.306550
2503.294271,1302.362347,740.205942,8216.285956
2503.294600,1685.410096,-0.000000,8216.285956
2503.294929,1915.238745,-0.000000,8142.265362
2503.295258,1302.362347,-888.247130,8660.409521
2503.295587,1149.143247,-1184.329507,8586.388927
2503.295916,1225.752797,-962.267725,9178.553681
2503.296245,689.485948,-518.144159,9178.553681
2503.296574,306.438199,-222.061783,9400.615463
2503.296903,153.219100,-0.000000,9252.574275
2503.297232,-229.828649,-222.061783,9400.615463
2503.297561,0.000000,-518.144159,9474.636058
2503.297890,-766.095498,-444.123565,9252.574275
2503.298219,-612.876398,-592.164754,9474.636058
2503.298548,-1149.143247,-814.226536,9622.677246
2503.298877,-919.314598,-1036.288319,9474.636058
2503.299206,-766.095498,-888.247130,9252.574275
2503.299535,-766.095498,-1036.288319,10362.883188
2503.299864,-153.219100,-666.185348,9992.780217
2503.300193,-229.828649,296.082377,8956.491898
2503.300522,689.485948,-0.000000,8734.430116
2503.300851,306.438199,1110.308913,7920.203579
2503.301180,1455.581446,1258.350101,8808.450710
2503.301509,1532.190996,592.164754,8438.347739
2503.301838,2451.505594,888.247130,8512.368333
2503.302167,1915.238745,-296.082377,8586.388927
2503.302496,2451.505594,-74.020594,8438.347739
2503.302825,1685.410096,-740.205942,8734.430116
2503.303154,1532.190996,-518.144159,9030.512492
2503.303483,1225.752797,-222.061783,8808.450710
2503.303812,1072.533697,-148.041188,9178.553681
2503.304141,612.876398,-0.000000,8882.471304
2503.304471,842.705048,296.082377,9104.533087
2503.304800,0.000000,-222.061783,9104.533087
2503.305129,0.000000,148.041188,8586.388927
2503.305458,-459.657299,-296.082377,9030.512492
2503.305787,-766.095498,-592.164754,9104.533087
2503.306116,-459.657299,-888.247130,9474.636058
2503.306445,-689.485948,-888.247130,9622.677246
2503.306774,-459.657299,-814.226536,9992.780217
2503.307103,-383.047749,-518.144159,9548.656652
2503.307432,76.609550,296.082377,9474.636058
2503.307761,153.219100,518.144159,9178.553681
2503.308090,536.266849,1036.288319,8882.471304
2503.308419,1455.581446,962.267725,8882.471304
2503.308748,1915.238745,-0.000000,8882.471304
2503.309077,2374.896044,-0.000000,8438.347739
2503.309406,2068.457845,-592.164754,8216.285956
2503.309735,2528.115143,-814.226536,8734.430116
2503.310064,1915.238745,-666.185348,8586.388927
2503.310393,1455.581446,-370.102971,8808.450710
2503.310722,1149.143247,-0.000000,9178.553681
2503.311051,536.266849,-370.102971,9178.553681
2503.311380,-306.438199,-148.041188,9104.533087
2503.311709,-766.095498,-518.144159,9400.615463
2503.312038,-1225.752797,-592.164754,9548.656652
2503.312367,-1532.190996,-740.205942,9474.636058
2503.312696,-1685.410096,-1110.308913,9918.759623
2503.313025,-1685.410096,-1332.370696,9918.759623
2503.313354,-1762.019645,-1332.370696,10140.821405
2503.313683,-1685.410096,-1258.350101,9918.759623
2503.314012,-766.095498,-518.144159,9548.656652
2503.314341,-153.219100,-74.020594,9030.512492
2503.314670,153.219100,370.102971,8956.491898
2503.314999,766.095498,1184.329507,8290.306550
2503.315328,1378.971896,1628.453072,7698.141797
2503.315657,1762.019645,1406.391290,7328.038826
2503.315986,2298.286494,1332.370696,7328.038826
2503.316315,2528.115143,444.123565,7698.141797
2503.316644,1991.848295,-148.041188,8216.285956
2503.316973,1608.800546,-518.144159,8142.265362
2503.317302,919.314598,-888.247130,9030.512492
2503.317631,153.219100,-1036.288319,9030.512492
2503.317960,306.438199,-962.267725,9548.656652
2503.318289,153.219100,-888.247130,8882.471304
2503.318618,-612.876398,-74.020594,9918.759623
2503.318947,-153.219100,-814.226536,9696.697840
2503.319276,-842.705048,-0.000000,9178.553681
2503.319605,-689.485948,-148.041188,9474.636058
2503.319934,-689.485948,-222.061783,9474.636058
2503.320263,-766.095498,-888.247130,9474.636058
2503.320592,-1149.143247,-1110.308913,9474.636058
2503.320921,0.000000,-888.247130,9548.656652
2503.321250,-612.876398,-814.226536,9548.656652
2503.321579,-229.828649,-0.000000,9400.615463
2503.321908,76.609550,444.123565,9178.553681
2503.322237,689.485948,888.247130,8734.430116
2503.322566,1072.533697,1036.288319,8808.450710
2503.322895,2068.457845,-0.000000,8734.430116
2503.323224,2221.676944,-0.000000,8956.491898
2503.323553,2374.896044,-148.041188,8808.450710
2503.323882,2145.067394,-0.000000,8882.471304
2503.324211,2068.457845,-222.061783,8882.471304
2503.324540,1838.629195,-0.000000,8734.430116
2503.324869,1378.971896,-74.020594,8512.368333
2503.325198,689.485948,-0.000000,9252.574275
2503.325527,689.485948,-148.041188,8512.368333
2503.325856,153.219100,-0.000000,8660.409521
2503.326185,-766.095498,-0.000000,9474.636058
2503.326514,-1149.143247,-814.226536,9548.656652
2503.326843,-1608.800546,-888.247130,9400.615463
2503.327172,-1685.410096,-1406.391290,9696.697840
2503.327501,-1455.581446,-1998.556043,9992.780217
2503.327830,-1455.581446,-1850.514855,9622.677246
2503.328159,-919.314598,-888.247130,9696.697840
2503.328488,-459.657299,-518.144159,9474.636058
2503.328817,0.000000,370.102971,9104.533087
2503.329146,689.485948,1332.370696,8512.368333
2503.329475,1532.190996,1776.494261,7994.224174
2503.329804,1991.848295,1776.494261,7698.141797
2503.330133,2604.724693,1184.329507,7624.121203
2503.330462,2451.505594,592.164754,7920.203579
2503.330791,1838.629195,-296.082377,8364.327145
2503.331120,1838.629195,-814.226536,8734.430116
2503.331449,766.095498,-1258.350101,9252.574275
2503.331778,0.000000,-1480.411884,9326.594869
2503.332107,-229.828649,-1184.329507,9770.718434
2503.332436,0.000000,-888.247130,9696.697840
2503.332765,-229.828649,-666.185348,9474.636058
2503.333094,-766.095498,-148.041188,9326.594869
2503.333423,-766.095498,-0.000000,9104.533087
2503.333752,-842.705048,-0.000000,9400.615463
2503.334081,-842.705048,-0.000000,9474.636058
2503.334410,-612.876398,-370.102971,9400.615463
2503.334739,-689.485948,-740.205942,9548.656652
2503.335068,-1302.362347,-296.082377,9474.636058
2503.335397,-612.876398,-814.226536,9474.636058
2503.335727,-383.047749,-296.082377,9326.594869
2503.336056,0.000000,-74.020594,9178.553681
2503.336385,229.828649,518.144159,8882.471304
2503.336714,919.314598,444.123565,8734.430116
2503.337043,1915.238745,666.185348,8216.285956
2503.337372,1838.629195,148.041188,8586.388927
2503.337701,2145.067394,222.061783,8882.471304
2503.338030,2451.505594,-0.000000,8364.327145
2503.338359,2298.286494,-148.041188,8586.388927
2503.338688,2298.286494,-74.020594,8586.388927
2503.339017,1532.190996,222.061783,9178.553681
2503.339346,383.047749,444.123565,9326.594869
2503.339675,842.705048,-0.000000,9030.512492
2503.340004,612.876398,-0.000000,8956.491898
2503.340333,-459.657299,-222.061783,9252.574275
2503.340662,-995.924147,-518.144159,9474.636058
2503.340991,-995.924147,-1184.329507,9548.656652
2503.341320,-1225.752797,-1110.308913,9918.759623
2503.341649,-995.924147,-1628.453072,9770.718434
2503.341978,-842.705048,-1258.350101,10214.842000
2503.342307,-995.924147,-962.267725,10140.821405
2503.342636,-459.657299,-592.164754,9770.718434
2503.342965,0.000000,222.061783,9474.636058
2503.343294,689.485948,1036.288319,8956.491898
2503.343623,1149.143247,1184.329507,8660.409521
2503.343952,1762.019645,1628.453072,8438.347739
2503.344281,1991.848295,1998.556043,8216.285956
2503.344610,2681.334243,740.205942,8142.265362
2503.344939,2298.286494,296.082377,8216.285956
2503.345268,1915.238745,-444.123565,8512.368333
2503.345597,1378.971896,-740.205942,8512.368333
2503.345926,1072.533697,-1036.288319,9326.594869
2503.346255,919.314598,-1258.350101,9474.636058
2503.346584,612.876398,-740.205942,9474.636058
2503.346913,-153.219100,-592.164754,9178.553681
2503.347242,-229.828649,-148.041188,9474.636058
2503.347571,-383.047749,-0.000000,9178.553681
2503.347900,-842.705048,-74.020594,9400.615463
2503.348229,-842.705048,-222.061783,9770.718434
2503.348558,-995.924147,-1036.288319,9474.636058
2503.348887,-1532.190996,-962.267725,9474.636058
2503.349216,-689.485948,-1406.391290,9252.574275
2503.349545,-766.095498,-962.267725,9326.594869
2503.349874,-383.047749,-592.164754,8956.491898
2503.350203,0.000000,-0.000000,8882.471304
2503.350532,383.047749,444.123565,8586.388927
2503.350861,842.705048,888.247130,7846.182985
2503.351190,1455.581446,888.247130,7994.224174
2503.351519,1915.238745,1110.308913,8290.306550
2503.351848,1838.629195,296.082377,8512.368333
2503.352177,1762.019645,-222.061783,8734.430116
2503.352506,1302.362347,-592.164754,8734.430116
2503.352835,689.485948,-1110.308913,9178.553681
2503.353164,766.095498,-1036.288319,9252.574275
2503.353493,153.219100,-518.144159,9326.594869
2503.353822,612.876398,-370.102971,9326.594869
2503.354151,0.000000,-370.102971,9104.533087
2503.354480,-306.438199,-222.061783,9400.615463
2503.354809,-536.266849,-518.144159,9178.553681
2503.355138,-766.095498,-592.164754,9474.636058
2503.355467,-995.924147,-1184.329507,9474.636058
2503.355796,-1072.533697,-1332.370696,9844.739029
2503.356125,-842.705048,-1554.432478,9696.697840
2503.356454,-919.314598,-962.267725,9548.656652
2503.356783,-689.485948,-592.164754,9400.615463
2503.357112,0.000000,-0.000000,9400.615463
2503.357441,-229.828649,888.247130,8586.388927
2503.357770,689.485948,1406.391290,8512.368333
2503.358099,1149.143247,1850.514855,8808.450710
2503.358428,1608.800546,1184.329507,8512.368333
2503.358757,2221.676944,888.247130,8438.347739
2503.359086,2145.067394,296.082377,8142.265362
2503.359415,1991.848295,-74.020594,8660.409521
2503.359744,2068.457845,-518.144159,8660.409521
2503.360073,1225.752797,-888.247130,9104.533087
2503.360402,1072.533697,-370.102971,9474.636058
2503.360731,229.828649,-148.041188,9178.553681
2503.361060,229.828649,222.061783,9326.594869
2503.361389,0.000000,296.082377,9474.636058
2503.361718,0.000000,222.061783,9326.594869
2503.362047,-612.876398,-148.041188,9326.594869
2503.362376,-842.705048,-222.061783,9474.636058
2503.362705,-1302.362347,-1036.288319,9844.739029
2503.363034,-1378.971896,-1554.432478,9622.677246
2503.363363,-1378.971896,-1702.473667,9696.697840
2503.363692,-995.924147,-1406.391290,9548.656652
2503.364021,-766.095498,-740.205942,9548.656652
2503.364350,-306.438199,-0.000000,9474.636058
2503.364679,612.876398,370.102971,9104.533087
2503.365008,842.705048,962.267725,8364.327145
2503.365337,1149.143247,1258.350101,8734.430116
2503.365666,1532.190996,962.267725,8216.285956
2503.365995,1838.629195,444.123565,8586.388927
2503.366324,1915.238745,-0.000000,8734.430116
2503.366653,2221.676944,-370.102971,9400.615463
2503.366982,1838.629195,-518.144159,9326.594869
2503.367312,1149.143247,-814.226536,9030.512492
2503.367641,689.485948,-444.123565,9400.615463
2503.367970,229.828649,-444.123565,9400.615463
2503.368299,76.609550,-296.082377,9178.553681
2503.368628,-229.828649,-222.061783,8808.450710
2503.368957,-842.705048,-0.000000,9474.636058
2503.369286,-1225.752797,-740.205942,9474.636058
2503.369615,-1302.362347,-814.226536,9104.533087
2503.369944,-1455.581446,-740.205942,9252.574275
2503.370273,-1302.362347,-1036.288319,9474.636058
2503.370602,-1302.362347,-814.226536,9474.636058
2503.370931,-766.095498,-370.102971,9326.594869
2503.371260,-766.095498,-296.082377,9178.553681
2503.371589,76.609550,-0.000000,8438.347739
2503.371918,536.266849,592.164754,8808.450710
2503.372247,1072.533697,1036.288319,8512.368333
2503.372576,1378.971896,1554.432478,8142.265362
2503.372905,1838.629195,1036.288319,7994.224174
2503.373234,2145.067394,296.082377,8142.265362
2503.373563,1991.848295,-74.020594,8586.388927
2503.373892,1838.629195,-222.061783,8586.388927
2503.374221,1608.800546,-814.226536,9474.636058
2503.374550,1072.533697,-1036.288319,9030.512492
2503.374879,919.314598,-222.061783,9178.553681
2503.375208,306.438199,-148.041188,9474.636058
2503.375537,0.000000,-148.041188,9400.615463
2503.375866,0.000000,-222.061783,9474.636058
2503.376195,-306.438199,-370.102971,9474.636058
2503.376524,-766.095498,-518.144159,9474.636058
2503.376853,-1072.533697,-444.123565,10214.842000
2503.377182,-383.047749,-814.226536,9474.636058
2503.377511,-612.876398,-740.205942,9474.636058
2503.377840,-383.047749,-962.267725,9622.677246
2503.378169,229.828649,-592.164754,9474.636058
2503.378498,383.047749,-74.020594,9252.574275
2503.378827,0.000000,518.144159,9104.533087
2503.379156,1149.143247,888.247130,9030.512492
2503.379485,842.705048,1184.329507,8808.450710
2503.379814,1149.143247,1258.350101,8586.388927
2503.380143,1915.238745,592.164754,8660.409521
2503.380472,1915.238745,-0.000000,8364.327145
2503.380801,2068.457845,-962.267725,8734.430116
2503.381130,2068.457845,-518.144159,9030.512492
2503.381459,1685.410096,-814.226536,8586.388927
2503.381788,1225.752797,-666.185348,8586.388927
2503.382117,1149.143247,-444.123565,8734.430116
2503.382446,536.266849,-0.000000,9030.512492
2503.382775,229.828649,-0.000000,8882.471304
2503.383104,76.609550,-0.000000,8808.450710
2503.383433,-995.924147,-444.123565,9400.615463
2503.383762,-919.314598,-666.185348,9474.636058
2503.384091,-1225.752797,-814.226536,9474.636058
2503.384420,-1455.581446,-1036.288319,9474.636058
2503.384749,-1455.581446,-1554.432478,9474.636058
2503.385078,-689.485948,-962.267725,9474.636058
2503.385407,-689.485948,-740.205942,9548.656652
2503.385736,-153.219100,-1036.288319,9030.512492
2503.386065,0.000000,444.123565,8512.368333
2503.386394,766.095498,888.247130,8290.306550
2503.386723,919.314598,1332.370696,7994.224174
2503.387052,1225.752797,962.267725,8216.285956
2503.387381,1532.190996,518.144159,8438.347739
2503.387710,1608.800546,-0.000000,8586.388927
2503.388039,1532.190996,-666.185348,8882.471304
2503.388368,995.924147,-518.144159,9474.636058
2503.388697,766.095498,-814.226536,9474.636058
2503.389026,536.266849,-666.185348,9696.697840
2503.389355,306.438199,-74.020594,9622.677246
2503.389684,536.266849,-148.041188,9474.636058
2503.390013,0.000000,296.082377,9326.594869
2503.390342,0.000000,518.144159,9178.553681
2503.390671,-229.828649,-0.000000,8956.491898
2503.391000,-383.047749,-148.041188,9252.574275
2503.391329,-766.095498,-222.061783,9326.594869
2503.391658,-1072.533697,-888.247130,9400.615463
2503.391987,-995.924147,-962.267725,9622.677246
2503.392316,-1149.143247,-1184.329507,9696.697840
2503.392645,-689.485948,-962.267725,9474.636058
2503.392974,0.000000,296.082377,9622.677246
2503.393303,76.609550,888.247130,8882.471304
2503.393632,842.705048,1554.432478,8734.430116
2503.393961,1302.362347,1554.432478,8438.347739
2503.394290,1915.238745,888.247130,8364.327145
2503.394619,2298.286494,-0.000000,8364.327145
2503.394948,2451.505594,296.082377,8290.306550
2503.395277,2451.505594,-0.000000,8586.388927
2503.395606,1838.629195,-222.061783,8438.347739
2503.395935,1378.971896,-518.144159,8660.409521
2503.396265,842.705048,-370.102971,8882.471304
2503.396594,459.657299,-592.164754,9178.553681
2503.396923,229.828649,-592.164754,9252.574275
2503.397252,-459.657299,-148.041188,9474.636058
2503.397581,-1225.752797,-888.247130,9622.677246
2503.397910,-1455.581446,-962.267725,9696.697840
2503.398239,-1762.019645,-1110.308913,9770.718434
2503.398569,-1685.410096,-1258.350101,9696.697840
2503.398898,-1455.581446,-1110.308913,9770.718434
2503.399227,-919.314598,-1554.432478,9844.739029
2503.399556,-612.876398,-814.226536,9696.697840
2503.399885,-306.438199,-0.000000,9252.574275
2503.400214,-459.657299,296.082377,9030.512492
2503.400543,689.485948,592.164754,8734.430116
2503.400873,919.314598,2220.617826,7476.080014
2503.401202,1685.410096,814.226536,8068.244768
2503.401531,1532.190996,1258.350101,8364.327145
2503.401860,1455.581446,592.164754,9104.533087
2503.402189,1072.533697,-888.247130,8956.491898
2503.402518,1685.410096,-518.144159,8512.368333
2503.402847,919.314598,-1554.432478,9400.615463
2503.403177,842.705048,-518.144159,9030.512492
2503.403506,1149.143247,-666.185348,9696.697840
2503.403835,383.047749,-0.000000,9178.553681
2503.404164,383.047749,-0.000000,8882.471304
2503.404493,459.657299,592.164754,9400.615463
2503.404822,-459.657299,296.082377,8512.368333
2503.405151,0.000000,592.164754,9104.533087
2503.405481,-766.095498,-444.123565,9326.594869
2503.405810,-1225.752797,-740.205942,9178.553681
2503.406139,-995.924147,-1554.432478,9770.718434
2503.406468,-1225.752797,-1776.494261,9696.697840
2503.406797,-1302.362347,-1628.453072,9770.718434
2503.407126,-612.876398,-814.226536,9474.636058
2503.407455,153.219100,-74.020594,9326.594869
2503.407785,689.485948,814.226536,8734.430116
2503.408114,1225.752797,1332.370696,8290.306550
2503.408443,1915.238745,1036.288319,8512.368333
2503.408772,3064.381992,962.267725,8290.306550
2503.409101,3217.601092,814.226536,8068.244768
2503.409430,2681.334243,-0.000000,8586.388927
2503.409759,2451.505594,-296.082377,8734.430116
2503.410088,1838.629195,-444.123565,8882.471304
2503.410418,1762.019645,-518.144159,9178.553681
2503.410747,229.828649,-962.267725,9622.677246
2503.411076,-153.219100,-370.102971,10288.862594
2503.411405,-689.485948,-444.123565,9622.677246
2503.411734,-689.485948,-444.123565,9918.759623
2503.412063,-1149.143247,-592.164754,9622.677246
2503.412392,-919.314598,-518.144159,9770.718434
2503.412722,-766.095498,-814.226536,9474.636058
2503.413051,-1149.143247,-1184.329507,9474.636058
2503.413380,0.000000,-666.185348,9696.697840
2503.413709,536.266849,-814.226536,9030.512492
2503.414038,306.438199,222.061783,9104.533087
2503.414367,459.657299,962.267725,8882.471304
2503.414696,766.095498,1184.329507,8586.388927
2503.415026,1072.533697,1406.391290,8142.265362
2503.415355,1225.752797,1184.329507,8142.265362
2503.415684,1455.581446,518.144159,8364.327145
2503.416013,1532.190996,-148.041188,8142.265362
2503.416342,1225.752797,-370.102971,8956.491898
2503.416671,1149.143247,-1036.288319,9178.553681
2503.417000,1072.533697,-1258.350101,9104.533087
2503.417330,1608.800546,-666.185348,9178.553681
2503.417659,1302.362347,-518.144159,9178.553681
2503.417988,1149.143247,-666.185348,9104.533087
2503.418317,919.314598,-0.000000,8660.409521
2503.418646,689.485948,370.102971,8882.471304
2503.418975,229.828649,296.082377,8586.388927
2503.419304,-536.266849,-0.000000,8660.409521
2503.419634,-1072.533697,-222.061783,9178.553681
2503.419963,-1532.190996,-888.247130,9844.739029
2503.420292,-1762.019645,-1850.514855,9696.697840
2503.420621,-2068.457845,-1776.494261,10066.800811
2503.420950,-1532.190996,-1702.473667,10066.800811
2503.421279,-1378.971896,-888.247130,9474.636058
2503.421608,-842.705048,-148.041188,9770.718434
2503.421938,-459.657299,-0.000000,9474.636058
2503.422267,0.000000,666.185348,9030.512492
2503.422596,1072.533697,740.205942,8734.430116
2503.422925,1991.848295,1480.411884,8512.368333
2503.423254,2374.896044,592.164754,8364.327145
2503.423583,2681.334243,666.185348,7920.203579
2503.423912,2528.115143,296.082377,7994.224174
2503.424242,2528.115143,-370.102971,8586.388927
2503.424571,1072.533697,-296.082377,8660.409521
2503.424900,1072.533697,-592.164754,9326.594869
2503.425229,0.000000,-740.205942,9474.636058
2503.425558,-306.438199,-296.082377,9400.615463
2503.425887,-689.485948,-518.144159,9326.594869
2503.426216,-1608.800546,-148.041188,8956.491898
2503.426546,-919.314598,-1036.288319,9696.697840
2503.426875,-1378.971896,-1332.370696,9178.553681
2503.427204,-1608.800546,-1110.308913,9400.615463
2503.427533,-612.876398,-1702.473667,10140.821405
2503.427862,-689.485948,-1184.329507,9474.636058
2503.428191,-536.266849,-444.123565,9326.594869
2503.428520,0.000000,148.041188,9326.594869
2503.428850,459.657299,814.226536,8734.430116
2503.429179,1225.752797,1628.453072,8660.409521
2503.429508,1685.410096,740.205942,7994.224174
2503.429837,1685.410096,814.226536,8142.265362
2503.430166,2145.067394,296.082377,8068.244768
2503.430495,2068.457845,518.144159,8216.285956
2503.430824,1838.629195,-74.020594,8660.409521
2503.431154,1685.410096,-666.185348,8882.471304
2503.431483,1302.362347,-1184.329507,9104.533087
2503.431812,1762.019645,-888.247130,9696.697840
2503.432141,842.705048,-888.247130,8882.471304
2503.432470,536.266849,-518.144159,9474.636058
2503.432799,0.000000,-444.123565,9548.656652
2503.433128,0.000000,222.061783,9400.615463
2503.433458,-383.047749,-0.000000,9400.615463
2503.433787,-995.924147,-148.041188,9696.697840
2503.434116,-766.095498,-444.123565,9696.697840
2503.434445,-842.705048,-1110.308913,9474.636058
2503.434774,-995.924147,-814.226536,9696.697840
2503.435103,-612.876398,-888.247130,9474.636058
2503.435432,-306.438199,-518.144159,9326.594869
2503.435762,76.609550,296.082377,9178.553681
2503.436091,229.828649,740.205942,8956.491898
2503.436420,0.000000,1184.329507,8290.306550
2503.436749,1225.752797,1628.453072,8438.347739
2503.437078,1225.752797,1110.308913,8142.265362
2503.437407,1608.800546,296.082377,8364.327145
2503.437736,1455.581446,-0.000000,8364.327145
2503.438066,1302.362347,-518.144159,8808.450710
2503.438395,1225.752797,-518.144159,8734.430116
2503.438724,766.095498,-1110.308913,8586.388927
2503.439053,229.828649,-814.226536,9400.615463
2503.439382,-229.828649,-296.082377,9474.636058
2503.439711,76.609550,-148.041188,9104.533087
2503.440040,-229.828649,-0.000000,8882.471304
2503.440369,-536.266849,-0.000000,8956.491898
2503.440699,-766.095498,-592.164754,8512.368333
2503.441028,-612.876398,-740.205942,9104.533087
2503.441357,-842.705048,-962.267725,9400.615463
2503.441686,-1532.190996,-1258.350101,9548.656652
2503.442015,-1378.971896,-1332.370696,9474.636058
2503.442344,-1072.533697,-1184.329507,9770.718434
2503.442673,-842.705048,-666.185348,9474.636058
2503.443003,0.000000,-222.061783,9474.636058
2503.443332,0.000000,-0.000000,9252.574275
2503.443661,306.438199,740.205942,9030.512492
2503.443990,1072.533697,888.247130,8512.368333
2503.444319,1685.410096,740.205942,8512.368333
2503.444648,2145.067394,592.164754,8438.347739
2503.444977,2374.896044,222.061783,8438.347739
2503.445307,2451.505594,-0.000000,8438.347739
2503.445636,2221.676944,-592.164754,8512.368333
2503.445965,2145.067394,-666.185348,8882.471304
2503.446294,1378.971896,-370.102971,9030.512492
2503.446623,689.485948,-148.041188,9252.574275
2503.446952,229.828649,-296.082377,9400.615463
2503.447281,76.609550,-74.020594,9400.615463
2503.447611,-153.219100,-0.000000,9400.615463
2503.447940,0.000000,-444.123565,9178.553681
2503.448269,-995.924147,-666.185348,9548.656652
2503.448598,-995.924147,-666.185348,9844.739029
2503.448927,-689.485948,-962.267725,9548.656652
2503.449256,-612.876398,-888.247130,9400.615463
2503.449585,0.000000,-222.061783,9326.594869
2503.449915,612.876398,-222.061783,9178.553681
2503.450244,383.047749,592.164754,8734.430116
2503.450573,1149.143247,1036.288319,8142.265362
2503.450902,1455.581446,1332.370696,7920.203579
2503.451231,1838.629195,1332.370696,8216.285956
2503.451560,2068.457845,592.164754,8438.347739
2503.451889,2145.067394,-0.000000,8586.388927
2503.452219,2145.067394,-592.164754,8956.491898
2503.452548,1608.800546,-888.247130,9178.553681
2503.452877,1915.238745,-1036.288319,8882.471304
2503.453206,919.314598,-888.247130,9400.615463
2503.453535,383.047749,-296.082377,9474.636058
2503.453864,153.219100,-370.102971,9474.636058
2503.454193,0.000000,-0.000000,9326.594869
2503.454523,-383.047749,-0.000000,9400.615463
2503.454852,-1302.362347,-444.123565,9474.636058
2503.455181,-766.095498,-592.164754,9622.677246
2503.455510,-1225.752797,-740.205942,9474.636058
2503.455839,-1072.533697,-1332.370696,9326.594869
2503.456168,-1302.362347,-1406.391290,9474.636058
2503.456497,-1149.143247,-1036.288319,9326.594869
2503.456827,-1149.143247,-888.247130,9252.574275
2503.457156,-689.485948,-148.041188,9400.615463
2503.457485,-229.828649,518.144159,8882.471304
2503.457814,229.828649,1184.329507,8734.430116
2503.458143,459.657299,1258.350101,8586.388927
2503.458472,1149.143247,1480.411884,8290.306550
2503.458801,1378.971896,962.267725,8216.285956
2503.459131,1762.019645,-0.000000,8586.388927
2503.459460,1991.848295,-296.082377,8438.347739
2503.459789,1378.971896,-518.144159,8142.265362
2503.460118,1302.362347,-888.247130,8882.471304
2503.460447,766.095498,-888.247130,8956.491898
2503.460776,383.047749,-740.205942,9030.512492
2503.461105,153.219100,-592.164754,8882.471304
2503.461435,0.000000,-148.041188,9178.553681
2503.461764,-76.609550,-222.061783,9030.512492
2503.462093,-459.657299,-0.000000,9030.512492
2503.462422,-689.485948,-222.061783,9400.615463
2503.462751,-919.314598,-222.061783,9104.533087
2503.463080,-919.314598,-740.205942,9548.656652
2503.463409,-995.924147,-1184.329507,9548.656652
2503.463739,-1072.533697,-740.205942,9548.656652
2503.464068,-612.876398,-518.144159,9474.636058
2503.464397,-153.219100,-148.041188,9474.636058
2503.464726,536.266849,-0.000000,9548.656652
2503.465055,383.047749,962.267725,9104.533087
2503.465384,1149.143247,740.205942,8734.430116
2503.465713,1762.019645,888.247130,8586.388927
2503.466043,2528.115143,222.061783,8956.491898
2503.466372,2528.115143,-0.000000,8438.347739
2503.466701,2374.896044,-0.000000,8808.450710
2503.467030,2145.067394,-370.102971,8512.368333
2503.467359,1915.238745,-0.000000,9178.553681
2503.467688,1225.752797,-74.020594,9178.553681
2503.468017,689.485948,444.123565,9178.553681
2503.468347,612.876398,74.020594,10140.821405
2503.468676,-306.438199,-148.041188,9696.697840
2503.469005,-536.266849,-592.164754,9622.677246
2503.469334,-1608.800546,-444.123565,9918.759623
2503.469663,-1378.971896,-740.205942,9326.594869
2503.469992,-1225.752797,-1258.350101,9326.594869
2503.470321,-1225.752797,-1480.411884,9548.656652
2503.470650,-1149.143247,-1258.350101,9548.656652
2503.470980,-612.876398,-814.226536,9474.636058
2503.471309,-383.047749,-148.041188,8882.471304
2503.471638,383.047749,444.123565,8586.388927
2503.471967,919.314598,1628.453072,8586.388927
2503.472296,1149.143247,1628.453072,7994.224174
2503.472625,1225.752797,1554.432478,7920.203579
2503.472954,1685.410096,1110.308913,8586.388927
2503.473284,1455.581446,296.082377,8438.347739
2503.473613,766.095498,-666.185348,8956.491898
2503.473942,383.047749,-1110.308913,9474.636058
2503.474271,612.876398,-1480.411884,9030.512492
2503.474600,153.219100,-1776.494261,9178.553681
2503.474929,229.828649,-1110.308913,9400.615463
2503.475258,306.438199,-592.164754,9178.553681
2503.475588,536.266849,-74.020594,9252.574275
2503.475917,-306.438199,-0.000000,8956.491898
2503.476246,0.000000,-0.000000,8586.388927
2503.476575,-306.438199,296.082377,9030.512492
2503.476904,-612.876398,-0.000000,9326.594869
2503.477233,-995.924147,-296.082377,9696.697840
2503.477562,-919.314598,-888.247130,9844.739029
2503.477892,-1302.362347,-888.247130,10140.821405
2503.478221,-689.485948,-1110.308913,9474.636058
2503.478550,-919.314598,-370.102971,9696.697840
2503.478879,-612.876398,-0.000000,9548.656652
2503.479208,0.000000,296.082377,9030.512492
2503.479537,536.266849,814.226536,8734.430116
2503.479866,1225.752797,666.185348,8660.409521
2503.480196,2145.067394,444.123565,8586.388927
2503.480525,2298.286494,296.082377,8290.306550
2503.480854,2987.772442,-148.041188,8290.306550
2503.481183,2604.724693,222.061783,8438.347739
2503.481512,2221.676944,-0.000000,8660.409521
2503.481841,1838.629195,-0.000000,8808.450710
2503.482170,919.314598,-0.000000,9548.656652
2503.482500,153.219100,-0.000000,9326.594869
2503.482829,76.609550,-74.020594,9474.636058
2503.483158,-306.438199,-0.000000,9400.615463
2503.483487,-766.095498,-444.123565,9474.636058
2503.483816,-995.924147,-666.185348,9622.677246
2503.484145,-1532.190996,-1184.329507,9622.677246
2503.484474,-766.095498,-1628.453072,10066.800811
2503.484804,-995.924147,-1850.514855,9548.656652
2503.485133,-689.485948,-888.247130,9696.697840
2503.485462,0.000000,-370.102971,9400.615463
2503.485791,0.000000,222.061783,9252.574275
2503.486120,536.266849,1036.288319,9030.512492
2503.486449,1149.143247,1480.411884,8586.388927
2503.486778,995.924147,1406.391290,8364.327145
2503.487108,1915.238745,962.267725,8438.347739
2503.487437,1378.971896,148.041188,8956.491898
2503.487766,2145.067394,-222.061783,8586.388927
2503.488095,1915.238745,-888.247130,8808.450710
2503.488424,1532.190996,-888.247130,9104.533087
2503.488753,1378.971896,-1110.308913,9030.512492
2503.489082,842.705048,-666.185348,9252.574275
2503.489412,1072.533697,-814.226536,9474.636058
2503.489741,76.609550,-74.020594,9252.574275
2503.490070,-383.047749,-0.000000,9474.636058
2503.490399,0.000000,-0.000000,9252.574275
2503.490728,-612.876398,-0.000000,9030.512492
2503.491057,-1149.143247,-74.020594,9400.615463
2503.491386,-766.095498,-962.267725,10066.800811
2503.491716,-1149.143247,-1998.556043,9474.636058
2503.492045,-1991.848295,-1110.308913,9622.677246
2503.492374,-766.095498,-1628.453072,9400.615463
2503.492703,-1378.971896,-296.082377,8438.347739
2503.493032,0.000000,-0.000000,9474.636058
2503.493361,153.219100,518.144159,8364.327145
2503.493690,153.219100,1036.288319,8068.244768
2503.494020,919.314598,1110.308913,8216.285956
2503.494349,1915.238745,1110.308913,7920.203579
2503.494678,1685.410096,1036.288319,8734.430116
2503.495007,2145.067394,296.082377,8438.347739
2503.495336,1838.629195,-0.000000,8660.409521
2503.495665,1455.581446,-296.082377,9252.574275
2503.495994,1149.143247,-296.082377,9326.594869
2503.496324,689.485948,-740.205942,9104.533087
2503.496653,0.000000,-444.123565,9696.697840
2503.496982,229.828649,-222.061783,9326.594869
2503.497311,-306.438199,-0.000000,9326.594869
2503.497640,-612.876398,-444.123565,9252.574275
2503.497969,-536.266849,-518.144159,9474.636058
2503.498298,-459.657299,-962.267725,9252.574275
2503.498627,-612.876398,-1776.494261,9400.615463
2503.498957,-766.095498,-1702.473667,9622.677246
2503.499286,-842.705048,-1332.370696,9622.677246
2503.499615,-612.876398,-962.267725,9696.697840
2503.499944,-383.047749,296.082377,9474.636058
2503.500273,76.609550,444.123565,9030.512492
2503.500602,383.047749,962.267725,9030.512492
2503.500931,766.095498,1554.432478,8512.368333
2503.501261,995.924147,1036.288319,8586.388927
2503.501590,1455.581446,666.185348,8808.450710
2503.501919,842.705048,-0.000000,8808.450710
2503.502248,1915.238745,-444.123565,8956.491898
2503.502577,1991.848295,-222.061783,8808.450710
2503.502906,1838.629195,-370.102971,8438.347739
2503.503235,1608.800546,-148.041188,8438.347739
2503.503565,1532.190996,-0.000000,8660.409521
2503.503894,842.705048,-74.020594,8734.430116
2503.504223,995.924147,-74.020594,8808.450710
2503.504552,-306.438199,222.061783,9474.636058
2503.504881,-1149.143247,-222.061783,8956.491898
2503.505210,-1302.362347,-222.061783,9622.677246
2503.505539,-1532.190996,-592.164754,9622.677246
2503.505868,-1455.581446,-1110.308913,9474.636058
2503.506198,-1532.190996,-1332.370696,9696.697840
2503.506527,-1072.533697,-1258.350101,9696.697840
2503.506856,-306.438199,-888.247130,9622.677246
2503.507185,-612.876398,-0.000000,9622.677246
2503.507514,383.047749,592.164754,8734.430116
2503.507843,919.314598,1184.329507,8290.306550
2503.508172,1608.800546,1554.432478,7994.224174
2503.508502,2604.724693,1184.329507,8142.265362
2503.508831,2451.505594,666.185348,7994.224174
2503.509160,2298.286494,-0.000000,8290.306550
2503.509489,1915.238745,-740.205942,8438.347739
2503.509818,995.924147,-1110.308913,8956.491898
2503.510147,612.876398,-1480.411884,9400.615463
2503.510476,229.828649,-1036.288319,9548.656652
2503.510805,-459.657299,-1036.288319,9622.677246
2503.511135,-229.828649,-370.102971,9696.697840
2503.511464,-153.219100,-148.041188,9400.615463
2503.511793,-459.657299,-222.061783,9474.636058
2503.512122,-536.266849,-74.020594,8956.491898
2503.512451,-766.095498,-0.000000,9474.636058
2503.512780,-536.266849,-740.205942,9326.594869
2503.513109,-919.314598,-222.061783,9178.553681
2503.513439,-1225.752797,-666.185348,9474.636058
2503.513768,-612.876398,-740.205942,9326.594869
2503.514097,-842.705048,-814.226536,9326.594869
2503.514426,-383.047749,-0.000000,9326.594869
2503.514755,0.000000,-0.000000,9104.533087
2503.515084,-306.438199,962.267725,8882.471304
2503.515413,306.438199,888.247130,8364.327145
2503.515743,1072.533697,1184.329507,8734.430116
2503.516072,2068.457845,444.123565,8586.388927
2503.516401,2451.505594,-74.020594,8512.368333
2503.516730,2451.505594,-296.082377,8216.285956
2503.517059,2451.505594,-370.102971,8512.368333
2503.517388,2145.067394,-148.041188,8586.388927
2503.517717,1532.190996,-148.041188,9178.553681
2503.518046,995.924147,-370.102971,9252.574275
2503.518376,766.095498,-592.164754,8956.491898
2503.518705,-229.828649,-222.061783,9548.656652
2503.519034,-919.314598,-888.247130,9548.656652
2503.519363,-1149.143247,-296.082377,9696.697840
2503.519692,-1225.752797,-814.226536,9770.718434
2503.520021,-1225.752797,-814.226536,9844.739029
2503.520350,-1149.143247,-1332.370696,10066.800811
2503.520680,-1225.752797,-740.205942,9770.718434
2503.521009,0.000000,-444.123565,9326.594869
2503.521338,612.876398,-0.000000,9178.553681
2503.521667,1072.533697,740.205942,8734.430116
2503.521996,1608.800546,1258.350101,8438.347739
2503.522325,1915.238745,1554.432478,8290.306550
2503.522654,1608.800546,1184.329507,8364.327145
2503.522983,2451.505594,518.144159,8142.265362
2503.523313,1762.019645,-0.000000,8882.471304
2503.523642,1378.971896,-740.205942,8882.471304
2503.523971,995.924147,-888.247130,9474.636058
2503.524300,766.095498,-1258.350101,9474.636058
2503.524629,153.219100,-1110.308913,9696.697840
2503.524958,306.438199,-666.185348,9474.636058
2503.525287,612.876398,-296.082377,9326.594869
2503.525617,153.219100,-0.000000,8734.430116
2503.525946,0.000000,666.185348,8438.347739
2503.526275,0.000000,222.061783,8290.306550
2503.526604,-306.438199,-0.000000,8808.450710
2503.526933,-536.266849,-592.164754,8438.347739
2503.527262,-919.314598,-1480.411884,9474.636058
2503.527591,-1378.971896,-2220.617826,9548.656652
2503.527921,-1762.019645,-1480.411884,9696.697840
2503.528250,-1302.362347,-1036.288319,9770.718434
2503.528579,-1378.971896,-666.185348,9474.636058
2503.528908,-919.314598,148.041188,9474.636058
2503.529237,153.219100,888.247130,9030.512492
2503.529566,612.876398,1110.308913,8586.388927
2503.529895,919.314598,1332.370696,8290.306550
2503.530224,1991.848295,962.267725,7476.080014
2503.530554,2298.286494,666.185348,7698.141797
2503.530883,2221.676944,-0.000000,8216.285956
2503.531212,1991.848295,-666.185348,8364.327145
2503.531541,1608.800546,-962.267725,8956.491898
2503.531870,1072.533697,-1110.308913,9104.533087
2503.532199,153.219100,-1258.350101,9326.594869
2503.532528,-306.438199,-1406.391290,9696.697840
2503.532858,-766.095498,-962.267725,9918.759623
2503.533187,-995.924147,-296.082377,9622.677246
2503.533516,-1149.143247,-222.061783,9474.636058
2503.533845,-919.314598,-370.102971,9844.739029
2503.534174,-1838.629195,-74.020594,9770.718434
2503.534503,-383.047749,-0.000000,9622.677246
2503.534832,-383.047749,-296.082377,9548.656652
2503.535161,0.000000,222.061783,9400.615463
2503.535491,306.438199,666.185348,9178.553681
2503.535820,612.876398,962.267725,9030.512492
2503.536149,459.657299,740.205942,8882.471304
2503.536478,842.705048,888.247130,9030.512492
2503.536807,1685.410096,962.267725,8734.430116
2503.537136,1455.581446,148.041188,8142.265362
2503.537465,1455.581446,-0.000000,8586.388927
2503.537795,1608.800546,-370.102971,9104.533087
2503.538124,1762.019645,-592.164754,9326.594869
2503.538453,1838.629195,-370.102971,8956.491898
2503.538782,1302.362347,-444.123565,9326.594869
2503.539111,1608.800546,370.102971,9474.636058
2503.539440,1378.971896,592.164754,9400.615463
2503.539769,919.314598,814.226536,8882.471304
2503.540099,459.657299,814.226536,8660.409521
2503.540428,153.219100,444.123565,9030.512492
2503.540757,153.219100,-296.082377,9178.553681
2503.541086,-612.876398,-1036.288319,9326.594869
2503.541415,-1072.533697,-1406.391290,9474.636058
2503.541744,-1608.800546,-1850.514855,9844.739029
2503.542073,-2145.067394,-1924.535449,9992.780217
2503.542402,-1762.019645,-1480.411884,9770.718434
2503.542732,-1378.971896,-814.226536,9844.739029
2503.543061,-995.924147,-74.020594,9844.739029
2503.543390,0.000000,666.185348,9326.594869
2503.543719,766.095498,1184.329507,8956.491898
2503.544048,1378.971896,1998.556043,8216.285956
2503.544377,2145.067394,1850.514855,7994.224174
2503.544706,2145.067394,1184.329507,8142.265362
2503.545036,2068.457845,222.061783,7994.224174
2503.545365,1991.848295,-592.164754,8216.285956
2503.545694,1378.971896,-1406.391290,8660.409521
2503.546023,995.924147,-1702.473667,9104.533087
2503.546352,-306.438199,-1480.411884,9400.615463
2503.546681,-459.657299,-1258.350101,9326.594869
2503.547010,-689.485948,-888.247130,9326.594869
2503.547339,-842.705048,-444.123565,9474.636058
2503.547669,-689.485948,-296.082377,9178.553681
2503.547998,-995.924147,-222.061783,9326.594869
2503.548327,-842.705048,-444.123565,9252.574275
2503.548656,-536.266849,-666.185348,9548.656652
2503.548985,-383.047749,-666.185348,9326.594869
2503.549314,-1225.752797,-740.205942,9400.615463
2503.549643,-229.828649,-222.061783,9326.594869
2503.549973,0.000000,-0.000000,8956.491898
2503.550302,612.876398,518.144159,8734.430116
2503.550631,1225.752797,592.164754,8586.388927
2503.550960,1532.190996,666.185348,8142.265362
2503.551289,2145.067394,592.164754,8290.306550
2503.551618,2221.676944,222.061783,8512.368333
2503.551947,2221.676944,-0.000000,8956.491898
2503.552277,2221.676944,-444.123565,8734.430116
2503.552606,1838.629195,-592.164754,9030.512492
2503.552935,1991.848295,-518.144159,9474.636058
2503.553264,1072.533697,-1036.288319,9326.594869
2503.553593,919.314598,-444.123565,9770.718434
2503.553922,459.657299,296.082377,9474.636058
2503.554251,306.438199,370.102971,9400.615463
2503.554580,0.000000,-0.000000,9474.636058
2503.554910,-229.828649,-0.000000,9178.553681
2503.555239,0.000000,-444.123565,9548.656652
2503.555568,-153.219100,-814.226536,9178.553681
2503.555897,-919.314598,-1332.370696,9622.677246
2503.556226,-1378.971896,-1258.350101,9918.759623
2503.556555,-766.095498,-740.205942,9474.636058
2503.556884,-536.266849,-444.123565,9474.636058
2503.557214,-306.438199,-0.000000,9400.615463
2503.557543,459.657299,814.226536,9326.594869
2503.557872,536.266849,1406.391290,9326.594869
2503.558201,76.609550,1480.411884,8438.347739
2503.558530,1685.410096,1628.453072,8364.327145
2503.558859,1838.629195,666.185348,8660.409521
2503.559188,1915.238745,296.082377,8512.368333
2503.559517,2145.067394,-296.082377,8660.409521
2503.559847,2221.676944,-962.267725,8438.347739
2503.560176,2068.457845,-962.267725,8290.306550
2503.560505,1378.971896,-888.247130,8956.491898
2503.560834,842.705048,-740.205942,9030.512492
2503.561163,306.438199,-518.144159,8660.409521
2503.561492,-229.828649,-370.102971,9178.553681
2503.561821,-612.876398,222.061783,9104.533087
2503.562151,-1149.143247,-222.061783,9326.594869
2503.562480,-1149.143247,-666.185348,9622.677246
2503.562809,-1302.362347,-888.247130,9548.656652
2503.563138,-1225.752797,-1258.350101,9178.553681
2503.563467,-1302.362347,-962.267725,9474.636058
2503.563796,-995.924147,-666.185348,9474.636058
2503.564125,-612.876398,-518.144159,9400.615463
2503.564454,-229.828649,-222.061783,9178.553681
2503.564784,459.657299,-0.000000,9104.533087
2503.565113,766.095498,592.164754,8734.430116
2503.565442,1149.143247,592.164754,7846.182985
2503.565771,1455.581446,444.123565,8290.306550
2503.566100,1532.190996,-0.000000,8216.285956
2503.566429,1685.410096,-222.061783,8660.409521
2503.566758,1685.410096,-888.247130,8808.450710
2503.567088,1762.019645,-592.164754,8882.471304
2503.567417,1225.752797,-740.205942,8586.388927
2503.567746,536.266849,-148.041188,9252.574275
2503.568075,0.000000,-74.020594,9474.636058
2503.568404,0.000000,-0.000000,9326.594869
2503.568733,-459.657299,222.061783,9326.594869
2503.569062,-153.219100,-74.020594,9400.615463
2503.569392,-1072.533697,-444.123565,9326.594869
2503.569721,-1225.752797,-592.164754,9474.636058
2503.570050,-1149.143247,-1258.350101,9992.780217
2503.570379,-1225.752797,-1406.391290,9622.677246
2503.570708,-1225.752797,-1036.288319,9548.656652
2503.571037,-995.924147,-592.164754,9252.574275
2503.571366,-689.485948,-444.123565,9104.533087
2503.571695,766.095498,222.061783,8808.450710
2503.572025,1149.143247,888.247130,8290.306550
2503.572354,1532.190996,1628.453072,8438.347739
2503.572683,1915.238745,1480.411884,8290.306550
2503.573012,2298.286494,1406.391290,8142.265362
2503.573341,2681.334243,592.164754,8364.327145
2503.573670,2604.724693,-0.000000,8290.306550
2503.573999,2374.896044,-518.144159,8586.388927
2503.574329,1991.848295,-962.267725,8882.471304
2503.574658,995.924147,-888.247130,9030.512492
2503.574987,459.657299,-740.205942,9252.574275
2503.575316,0.000000,-888.247130,9474.636058
2503.575645,-306.438199,-740.205942,9548.656652
2503.575974,-536.266849,-518.144159,9474.636058
2503.576303,-1302.362347,-666.185348,9474.636058
2503.576632,-1378.971896,-1110.308913,10214.842000
2503.576962,-1302.362347,-592.164754,9992.780217
2503.577291,-919.314598,-444.123565,9770.718434
2503.577620,-766.095498,-740.205942,9696.697840
2503.577949,-459.657299,-370.102971,9474.636058
2503.578278,153.219100,-0.000000,9178.553681
2503.578607,536.266849,296.082377,9104.533087
2503.578936,689.485948,296.082377,8364.327145
2503.579266,842.705048,962.267725,8512.368333
2503.579595,995.924147,1036.288319,8586.388927
2503.579924,995.924147,666.185348,7994.224174
2503.580253,1225.752797,222.061783,8290.306550
2503.580582,689.485948,-222.061783,8808.450710
2503.580911,1225.752797,-888.247130,9104.533087
2503.581240,766.095498,-1258.350101,9474.636058
2503.581570,842.705048,-814.226536,9030.512492
2503.581899,689.485948,-518.144159,9474.636058
2503.582228,536.266849,-0.000000,9104.533087
2503.582557,612.876398,518.144159,8808.450710
2503.582886,536.266849,666.185348,9030.512492
2503.583215,0.000000,666.185348,8956.491898
2503.583544,0.000000,-222.061783,8660.409521
2503.583873,-612.876398,-0.000000,8882.471304
2503.584203,-1455.581446,-888.247130,9104.533087
2503.584532,-1762.019645,-1258.350101,9474.636058
2503.584861,-1685.410096,-1480.411884,10066.800811
2503.585190,-1608.800546,-1258.350101,10140.821405
2503.585519,-1455.581446,-1110.308913,9918.759623
2503.585848,-689.485948,-666.185348,9474.636058
2503.586177,-306.438199,370.102971,9696.697840
2503.586507,766.095498,888.247130,9178.553681
2503.586836,1455.581446,1332.370696,8734.430116
2503.587165,2374.896044,1480.411884,8290.306550
2503.587494,3524.039291,1480.411884,8216.285956
2503.587823,3677.258390,444.123565,7994.224174
2503.588152,3217.601092,-74.020594,8142.265362
2503.588481,2451.505594,-1184.329507,8438.347739
2503.588810,2145.067394,-888.247130,8586.388927
2503.589140,842.705048,-814.226536,9030.512492
2503.589469,229.828649,-962.267725,9400.615463
2503.589798,-536.266849,-814.226536,9918.759623
2503.590127,-995.924147,-1036.288319,10288.862594
2503.590456,-536.266849,-814.226536,10214.842000
2503.590785,-1225.752797,-888.247130,9918.759623
2503.591114,-1378.971896,-1036.288319,9548.656652
2503.591444,-766.095498,-296.082377,9474.636058
2503.591773,-766.095498,-148.041188,9474.636058
2503.592102,536.266849,-370.102971,8882.471304
2503.592431,383.047749,370.102971,8364.327145
2503.592760,612.876398,962.267725,8808.450710
2503.593089,1685.410096,296.082377,8734.430116
2503.593418,1149.143247,1406.391290,7920.203579
2503.593748,995.924147,962.267725,7920.203579
2503.594077,1532.190996,1110.308913,8364.327145
2503.594406,1149.143247,-444.123565,8068.244768
2503.594735,1532.190996,-0.000000,8956.491898
2503.595064,1685.410096,-1332.370696,8956.491898
2503.595393,766.095498,-1036.288319,9326.594869
2503.595722,1378.971896,-1184.329507,9030.512492
2503.596051,1455.581446,-296.082377,9400.615463
2503.596381,1149.143247,-222.061783,9030.512492
2503.596710,1302.362347,518.144159,8808.450710
2503.597039,995.924147,518.144159,8808.450710
2503.597368,766.095498,444.123565,8586.388927
2503.597697,0.000000,-74.020594,8586.388927
2503.598026,-306.438199,-296.082377,9474.636058
2503.598355,-1149.143247,-1184.329507,9326.594869
2503.598684,-1915.238745,-1554.432478,9696.697840
2503.599013,-1991.848295,-1998.556043,10140.821405
2503.599342,-2145.067394,-1998.556043,10066.800811
2503.599671,-2068.457845,-1332.370696,10214.842000
2503.600000,-1149.143247,-888.247130,9918.759623
2503.600329,-842.705048,-0.000000,9696.697840
2503.600659,-229.828649,518.144159,9326.594869
2503.600988,919.314598,1554.432478,8438.347739
2503.601317,1532.190996,1776.494261,7920.203579
2503.601646,2604.724693,1850.514855,8142.265362
2503.601975,2757.943793,1036.288319,7550.100608
2503.602304,2834.553343,666.185348,8290.306550
2503.602633,2298.286494,-74.020594,8068.244768
2503.602962,1302.362347,-740.205942,8808.450710
2503.603291,459.657299,-962.267725,9474.636058
2503.603620,0.000000,-814.226536,9548.656652
2503.603949,-383.047749,-1036.288319,9696.697840
2503.604278,-536.266849,-666.185348,9326.594869
2503.604607,-1072.533697,-0.000000,9770.718434
2503.604936,-1455.581446,-74.020594,9474.636058
2503.605265,-995.924147,-296.082377,9400.615463
2503.605594,-689.485948,-296.082377,9178.553681
2503.605924,-536.266849,-296.082377,9030.512492
2503.606253,-459.657299,-740.205942,8956.491898
2503.606582,459.657299,-148.041188,8808.450710
2503.606911,612.876398,-0.000000,8956.491898
2503.607240,689.485948,518.144159,8808.450710
2503.607569,1072.533697,592.164754,8512.368333
2503.607898,995.924147,666.185348,8512.368333
2503.608227,1072.533697,740.205942,8512.368333
2503.608556,1225.752797,222.061783,8660.409521
2503.608885,919.314598,444.123565,9104.533087
2503.609214,1378.971896,-666.185348,9252.574275
2503.609543,842.705048,-888.247130,9178.553681
2503.609872,1455.581446,-814.226536,9474.636058
2503.610201,1532.190996,-962.267725,8956.491898
2503.610530,1149.143247,148.041188,9178.553681
2503.610860,1532.190996,-222.061783,9178.553681
2503.611189,1685.410096,1184.329507,8808.450710
2503.611518,1455.581446,518.144159,8660.409521
2503.611847,459.657299,-74.020594,8512.368333
2503.612176,0.000000,-222.061783,9104.533087
2503.612505,-689.485948,-518.144159,9474.636058
2503.612834,-1149.143247,-1184.329507,9548.656652
2503.613163,-1685.410096,-1406.391290,10510.924376
2503.613492,-1608.800546,-1850.514855,10214.842000
2503.613821,-1149.143247,-1184.329507,9622.677246
2503.614150,-1072.533697,-370.102971,10214.842000
2503.614479,-612.876398,-0.000000,9178.553681
2503.614808,76.609550,1110.308913,8586.388927
2503.615137,1225.752797,1554.432478,8290.306550
2503.615466,1991.848295,1924.535449,7624.121203
2503.615796,2374.896044,1554.432478,7476.080014
2503.616125,2681.334243,666.185348,7624.121203
2503.616454,2374.896044,296.082377,7994.224174
2503.616783,1762.019645,-518.144159,8142.265362
2503.617112,1532.190996,-1258.350101,8734.430116
2503.617441,689.485948,-1258.350101,9104.533087
2503.617770,0.000000,-1776.494261,9696.697840
2503.618099,-842.705048,-2146.597232,9770.718434
2503.618428,-1149.143247,-1258.350101,9992.780217
2503.618757,-1378.971896,-666.185348,9844.739029
2503.619086,-1225.752797,-592.164754,9178.553681
2503.619415,-1225.752797,-222.061783,9474.636058
2503.619744,-995.924147,-74.020594,9178.553681
2503.620073,-153.219100,-592.164754,9030.512492
2503.620402,-612.876398,-1110.308913,8956.491898
2503.620731,-1149.143247,-592.164754,9252.574275
2503.621061,-383.047749,-592.164754,8734.430116
2503.621390,-229.828649,-222.061783,8956.491898
2503.621719,-153.219100,-0.000000,9104.533087
2503.622048,229.828649,-0.000000,8734.430116
2503.622377,383.047749,444.123565,8808.450710
2503.622706,1149.143247,592.164754,8882.471304
2503.623035,1302.362347,296.082377,8808.450710
2503.623364,1532.190996,-0.000000,8882.471304
2503.623693,2068.457845,-74.020594,8734.430116
2503.624022,1991.848295,-370.102971,8808.450710
2503.624351,1991.848295,-370.102971,8660.409521
2503.624680,2221.676944,-0.000000,8808.450710
2503.625009,842.705048,592.164754,8956.491898
2503.625338,1532.190996,222.061783,8586.388927
2503.625667,612.876398,518.144159,8808.450710
2503.625997,153.219100,370.102971,8660.409521
2503.626326,-383.047749,-222.061783,9104.533087
2503.626655,-919.314598,-888.247130,9326.594869
2503.626984,-1149.143247,-888.247130,9548.656652
2503.627313,-1532.190996,-1628.453072,9918.759623
2503.627642,-1762.019645,-2368.659014,10362.883188
2503.627971,-1149.143247,-1184.329507,10140.821405
2503.628300,-689.485948,-296.082377,9696.697840
2503.628629,0.000000,444.123565,9178.553681
2503.628958,919.314598,1110.308913,9252.574275
2503.629287,1915.238745,1850.514855,8734.430116
2503.629616,2681.334243,1184.329507,7920.203579
2503.629945,2604.724693,1628.453072,7624.121203
2503.630274,2681.334243,1036.288319,7624.121203
2503.630603,2451.505594,370.102971,7994.224174
2503.630933,2068.457845,-518.144159,8290.306550
2503.631262,1455.581446,-1184.329507,8882.471304
2503.631591,766.095498,-1776.494261,9548.656652
2503.631920,0.000000,-1776.494261,9992.780217
2503.632249,-612.876398,-1406.391290,10436.903782
2503.632578,-612.876398,-1480.411884,10140.821405
2503.632907,-1072.533697,-740.205942,9622.677246
2503.633236,-383.047749,-74.020594,9400.615463
2503.633565,-536.266849,-0.000000,9178.553681
2503.633894,-306.438199,444.123565,9400.615463
2503.634223,229.828649,444.123565,9178.553681
2503.634552,0.000000,-222.061783,9030.512492
2503.634881,0.000000,-444.123565,9400.615463
2503.635210,-612.876398,-370.102971,9326.594869
2503.635539,-766.095498,-74.020594,9178.553681
2503.635868,-383.047749,-296.082377,9178.553681
2503.636198,-306.438199,-0.000000,8882.471304
2503.636527,-306.438199,444.123565,8956.491898
2503.636856,-306.438199,-0.000000,8808.450710
2503.637185,536.266849,-0.000000,8586.388927
2503.637514,842.705048,-370.102971,8808.450710
2503.637843,1378.971896,-0.000000,8586.388927
2503.638172,1608.800546,-296.082377,8660.409521
2503.638501,1838.629195,-222.061783,8660.409521
2503.638830,1915.238745,-0.000000,8586.388927
2503.639159,1762.019645,-0.000000,8660.409521
2503.639488,995.924147,592.164754,8734.430116
2503.639817,1455.581446,666.185348,8734.430116
2503.640146,612.876398,740.205942,8586.388927
2503.640475,0.000000,-0.000000,8882.471304
2503.640804,-536.266849,-592.164754,9030.512492
2503.641134,-1225.752797,-1406.391290,9252.574275
2503.641463,-1685.410096,-1998.556043,9844.739029
2503.641792,-1608.800546,-2146.597232,9400.615463
2503.642121,-1838.629195,-1850.514855,10288.862594
2503.642450,-1685.410096,-1110.308913,9992.780217
2503.642779,-1225.752797,-592.164754,9770.718434
2503.643108,-536.266849,296.082377,9400.615463
2503.643437,229.828649,1110.308913,9178.553681
2503.643766,1149.143247,1480.411884,8882.471304
2503.644095,1915.238745,1480.411884,7846.182985
2503.644424,2834.553343,1332.370696,8290.306550
2503.644753,2757.943793,666.185348,8216.285956
2503.645082,2451.505594,370.102971,8290.306550
2503.645411,2374.896044,-0.000000,8364.327145
2503.645740,2145.067394,-518.144159,8512.368333
2503.646070,995.924147,-1110.308913,9178.553681
2503.646399,689.485948,-888.247130,9400.615463
2503.646728,0.000000,-666.185348,9548.656652
2503.647057,-306.438199,-518.144159,9474.636058
2503.647386,-766.095498,-444.123565,9474.636058
2503.647715,-1149.143247,-148.041188,9474.636058
2503.648044,-919.314598,-518.144159,9548.656652
2503.648373,-1225.752797,-296.082377,9696.697840
2503.648702,-919.314598,-444.123565,8882.471304
2503.649031,-306.438199,-740.205942,9474.636058
2503.649360,-766.095498,-148.041188,9474.636058
2503.649689,-306.438199,-74.020594,9252.574275
2503.650018,0.000000,-0.000000,8734.430116
2503.650347,536.266849,444.123565,8512.368333
2503.650676,1072.533697,666.185348,8438.347739
