#time,accel_x,accel_y,accel_z
2537.250922,536.266849,-0.000000,9104.533087
2537.251251,-229.828649,-0.000000,9030.512492
2537.251580,229.828649,-296.082377,9030.512492
2537.251910,536.266849,-0.000000,8586.388927
2537.252239,153.219100,-0.000000,9104.533087
2537.252568,306.438199,-74.020594,8882.471304
2537.252897,229.828649,-296.082377,9178.553681
2537.253226,459.657299,-148.041188,9178.553681
2537.253556,536.266849,-222.061783,8956.491898
2537.253885,306.438199,-0.000000,8956.491898
2537.254214,306.438199,-0.000000,9178.553681
2537.254543,229.828649,-222.061783,8882.471304
2537.254872,229.828649,-74.020594,9104.533087
2537.255202,536.266849,-296.082377,9178.553681
2537.255531,459.657299,-296.082377,9104.533087
2537.255860,536.266849,-74.020594,9326.594869
2537.256189,536.266849,-518.144159,9474.636058
2537.256519,153.219100,-148.041188,9252.574275
2537.256848,306.438199,-0.000000,9252.574275
2537.257177,306.438199,-148.041188,9030.512492
2537.257506,536.266849,-444.123565,8808.450710
2537.257835,689.485948,-222.061783,9178.553681
2537.258165,229.828649,-296.082377,9178.553681
2537.258494,536.266849,-148.041188,9178.553681
2537.258823,383.047749,-222.061783,8956.491898
2537.259152,229.828649,-370.102971,9252.574275
2537.259482,76.609550,-0.000000,8882.471304
2537.259811,536.266849,-148.041188,8808.450710
2537.260140,76.609550,222.061783,9178.553681
2537.260469,536.266849,-74.020594,9326.594869
2537.260798,153.219100,-222.061783,8586.388927
2537.261128,306.438199,-0.000000,8882.471304
2537.261457,0.000000,-148.041188,8808.450710
2537.261786,229.828649,-0.000000,9030.512492
2537.262115,536.266849,-444.123565,8956.491898
2537.262445,536.266849,-370.102971,8882.471304
2537.262774,383.047749,-74.020594,9104.533087
2537.263103,383.047749,-0.000000,8956.491898
2537.263432,306.438199,-0.000000,9104.533087
2537.263761,229.828649,-0.000000,9104.533087
2537.264091,153.219100,-148.041188,8882.471304
2537.264420,842.705048,-74.020594,9400.615463
2537.264749,306.438199,-370.102971,9030.512492
2537.265078,459.657299,-370.102971,9252.574275
2537.265408,153.219100,-74.020594,9252.574275
2537.265737,383.047749,-222.061783,9178.553681
2537.266066,306.438199,-148.041188,9030.512492
2537.266395,383.047749,-148.041188,9178.553681
2537.266724,536.266849,-370.102971,9104.533087
2537.267054,383.047749,-370.102971,9326.594869
2537.267383,919.314598,-296.082377,9178.553681
2537.267712,153.219100,-296.082377,9326.594869
2537.268041,306.438199,-444.123565,9030.512492
2537.268371,459.657299,-222.061783,9400.615463
2537.268700,306.438199,-222.061783,9252.574275
2537.269029,459.657299,-518.144159,9030.512492
2537.269358,689.485948,-296.082377,9400.615463
2537.269687,536.266849,-74.020594,8956.491898
2537.270017,612.876398,-148.041188,9030.512492
2537.270346,612.876398,-0.000000,9178.553681
2537.270675,459.657299,-0.000000,9104.533087
2537.271004,459.657299,-0.000000,9030.512492
2537.271333,689.485948,-222.061783,9030.512492
2537.271663,536.266849,-222.061783,8956.491898
2537.271992,612.876398,-148.041188,9104.533087
2537.272321,153.219100,-296.082377,8734.430116
2537.272650,153.219100,-0.000000,9104.533087
2537.272980,306.438199,-222.061783,8956.491898
2537.273309,153.219100,-0.000000,8882.471304
2537.273638,383.047749,-296.082377,8956.491898
2537.273967,229.828649,-74.020594,8882.471304
2537.274296,383.047749,-148.041188,8956.491898
2537.274626,689.485948,-148.041188,8586.388927
2537.274955,919.314598,-222.061783,9252.574275
2537.275284,383.047749,-370.102971,8882.471304
2537.275613,306.438199,-148.041188,9252.574275
2537.275943,229.828649,-74.020594,8956.491898
2537.276272,229.828649,-74.020594,9252.574275
2537.276601,229.828649,-222.061783,9030.512492
2537.276930,536.266849,-666.185348,9104.533087
2537.277259,306.438199,-370.102971,9178.553681
2537.277589,766.095498,-148.041188,9104.533087
2537.277918,229.828649,-0.000000,9104.533087
2537.278247,153.219100,-222.061783,9474.636058
2537.278576,383.047749,-296.082377,9030.512492
2537.278906,383.047749,-296.082377,9400.615463
2537.279235,1302.362347,-1110.308913,10140.821405
2537.279564,1838.629195,-1110.308913,8882.471304
2537.279893,1838.629195,-518.144159,9696.697840
2537.280222,2221.676944,-370.102971,9326.594869
2537.280552,2451.505594,-0.000000,8956.491898
2537.280881,3140.991542,592.164754,9104.533087
2537.281210,4136.915689,-74.020594,8808.450710
2537.281539,3830.477490,-0.000000,8068.244768
2537.281869,3830.477490,296.082377,8956.491898
2537.282198,3217.601092,148.041188,8290.306550
2537.282527,2604.724693,-444.123565,9326.594869
2537.282856,2834.553343,-444.123565,9104.533087
2537.283185,1532.190996,-814.226536,9400.615463
2537.283515,1685.410096,-1332.370696,10140.821405
2537.283844,2145.067394,-1924.535449,9474.636058
2537.284173,2911.162892,-148.041188,9252.574275
2537.284502,2298.286494,-740.205942,9844.739029
2537.284831,3217.601092,-518.144159,8956.491898
2537.285161,3907.087040,592.164754,8882.471304
2537.285490,5515.887586,1184.329507,7476.080014
2537.285819,4979.620737,1332.370696,7624.121203
2537.286148,4903.011187,1258.350101,9030.512492
2537.286478,4979.620737,1110.308913,7624.121203
2537.286807,3677.258390,666.185348,8734.430116
2537.287136,3600.648841,-0.000000,8956.491898
2537.287465,2374.896044,-148.041188,8290.306550
2537.287794,1838.629195,-518.144159,9844.739029
2537.288124,842.705048,-1110.308913,9696.697840
2537.288453,1608.800546,-888.247130,9696.697840
2537.288782,689.485948,-1776.494261,9696.697840
2537.289111,2068.457845,-814.226536,9622.677246
2537.289441,1302.362347,-518.144159,10066.800811
2537.289770,3447.429741,740.205942,8660.409521
2537.290099,3447.429741,-0.000000,8808.450710
2537.290428,4366.744339,1480.411884,9252.574275
2537.290757,4596.572988,518.144159,7994.224174
2537.291087,4596.572988,1258.350101,8290.306550
2537.291416,4826.401637,296.082377,9400.615463
2537.291745,3677.258390,-74.020594,8586.388927
2537.292074,2834.553343,-666.185348,9252.574275
2537.292404,2451.505594,-1554.432478,9770.718434
2537.292733,2451.505594,-1332.370696,10436.903782
2537.293062,1302.362347,-1998.556043,9918.759623
2537.293391,2681.334243,-1628.453072,10658.965565
2537.293720,2757.943793,-1332.370696,9400.615463
2537.294050,3447.429741,148.041188,9474.636058
2537.294379,3830.477490,888.247130,8142.265362
2537.294708,4673.182538,1776.494261,8586.388927
2537.295037,4673.182538,2516.700203,7624.121203
2537.295367,4903.011187,2590.720797,7254.018232
2537.295696,3983.696590,2590.720797,7550.100608
2537.296025,3753.867940,1702.473667,8068.244768
2537.296354,3294.210641,740.205942,7994.224174
2537.296683,2374.896044,-888.247130,9030.512492
2537.297013,2374.896044,-1850.514855,9844.739029
2537.297342,1149.143247,-3108.864956,10288.862594
2537.297671,1455.581446,-3108.864956,11251.130318
2537.298000,2145.067394,-2812.782580,11029.068536
2537.298330,3140.991542,-1924.535449,10732.986159
2537.298659,4290.134789,-592.164754,9696.697840
2537.298988,5669.106685,962.267725,9326.594869
2537.299317,6358.592633,2146.597232,8438.347739
2537.299646,5898.935335,2812.782580,7624.121203
2537.299976,5515.887586,3108.864956,7994.224174
2537.300305,4749.792088,4367.215058,6365.771101
2537.300634,4443.353888,2664.741391,7105.977043
2537.300963,2681.334243,666.185348,7698.141797
2537.301292,995.924147,-1480.411884,9844.739029
2537.301622,-766.095498,-3701.029710,10658.965565
2537.301951,-1532.190996,-3923.091493,12065.356855
2537.302280,-1149.143247,-5773.606348,10881.027347
2537.302609,-2068.457845,-1924.535449,10362.883188
2537.302939,-995.924147,-1258.350101,10881.027347
2537.303268,-766.095498,222.061783,9400.615463
2537.303597,842.705048,1406.391290,9844.739029
2537.303926,1915.238745,1406.391290,9548.656652
2537.304255,3677.258390,1480.411884,9400.615463
2537.304585,3830.477490,1702.473667,7105.977043
2537.304914,4903.011187,1480.411884,6291.750507
2537.305243,4366.744339,1702.473667,6365.771101
2537.305572,4519.963438,2072.576638,6661.853478
2537.305902,2834.553343,1184.329507,6957.935855
2537.306231,1072.533697,370.102971,7476.080014
2537.306560,-383.047749,-1776.494261,9178.553681
2537.306889,-1455.581446,-2886.803174,9918.759623
2537.307218,-2757.943793,-3849.070898,9252.574275
2537.307548,-2298.286494,-3997.112087,10732.986159
2537.307877,-2374.896044,-3478.967927,10362.883188
2537.308206,-2298.286494,-2146.597232,11177.109724
2537.308535,-2068.457845,-1406.391290,11251.130318
2537.308865,-1302.362347,-74.020594,10140.821405
2537.309194,0.000000,444.123565,9474.636058
2537.309523,153.219100,1924.535449,8512.368333
2537.309852,76.609550,1628.453072,9696.697840
2537.310181,1455.581446,148.041188,9474.636058
2537.310511,4213.525239,296.082377,8882.471304
2537.310840,5822.325785,148.041188,6143.709319
2537.311169,5745.716235,592.164754,5551.544565
2537.311498,5362.668486,1110.308913,5773.606348
2537.311828,5975.544884,1406.391290,7402.059420
2537.312157,4673.182538,1850.514855,7105.977043
2537.312486,2451.505594,1184.329507,7772.162391
2537.312815,229.828649,-1110.308913,9474.636058
2537.313144,-2221.676944,-1406.391290,10510.924376
2537.313474,-2987.772442,-2738.761985,11769.274478
2537.313803,-2757.943793,-2442.679609,10807.006753
2537.314132,-2451.505594,-1850.514855,11029.068536
2537.314461,-2681.334243,-518.144159,11473.192101
2537.314791,-3677.258390,222.061783,10732.986159
2537.315120,-3753.867940,370.102971,11325.150913
2537.315449,-2757.943793,-0.000000,10066.800811
2537.315778,-536.266849,592.164754,9770.718434
2537.316107,229.828649,-74.020594,9400.615463
2537.316437,536.266849,-74.020594,6587.832884
2537.316766,919.314598,-1776.494261,10881.027347
2537.317095,3447.429741,-2072.576638,10288.862594
2537.317424,5209.449386,1628.453072,5699.585753
2537.317753,6665.030833,1554.432478,6365.771101
2537.318083,6128.763984,3330.926739,3849.070898
2537.318412,4749.792088,3849.070898,7476.080014
2537.318741,1532.190996,2368.659014,8586.388927
2537.319070,-536.266849,1036.288319,8290.306550
2537.319400,-2221.676944,-2220.617826,11547.212695
2537.319729,-2374.896044,-1776.494261,10066.800811
2537.320058,-4673.182538,-2146.597232,9104.533087
2537.320387,-5745.716235,-4293.194464,12361.439231
2537.320716,-5362.668486,-2738.761985,10955.047942
2537.321046,-3294.210641,-2294.638420,12139.377449
2537.321375,-1838.629195,-888.247130,10658.965565
2537.321704,-153.219100,-0.000000,9104.533087
2537.322033,1991.848295,-1628.453072,9474.636058
2537.322363,842.705048,2146.597232,6069.688724
2537.322692,4060.306139,-1628.453072,14804.118840
2537.323021,5209.449386,1258.350101,4071.132681
2537.323350,10572.117872,3627.009116,7105.977043
2537.323679,6281.983084,2442.679609,3330.926739
2537.324009,5745.716235,4959.379811,3775.050304
2537.324338,3370.820191,3256.906145,8142.265362
2537.324667,919.314598,518.144159,6439.791695
2537.324996,-1378.971896,-2146.597232,11695.253884
2537.325326,-2068.457845,-1998.556043,11399.171507
2537.325655,-4903.011187,-2812.782580,6069.688724
2537.325984,-8197.221829,-6735.874072,15840.407159
2537.326313,-7967.393179,-2664.741391,9992.780217
2537.326642,-5132.839837,-3034.844362,14285.974681
2537.326971,-5515.887586,-2590.720797,12361.439231
2537.327300,-1532.190996,740.205942,9104.533087
2537.327629,1378.971896,-1480.411884,11177.109724
2537.327958,1608.800546,3997.112087,4515.256246
2537.328287,995.924147,1628.453072,10288.862594
2537.328616,4826.401637,-1850.514855,12953.603985
2537.328945,7048.078582,4811.338623,1850.514855
2537.329274,8350.440928,2368.659014,8142.265362
2537.329603,4136.915689,4515.256246,1184.329507
2537.329932,4979.620737,5329.482782,5625.565159
2537.330261,2451.505594,-1110.308913,8956.491898
2537.330590,383.047749,1332.370696,6809.894666
2537.330919,-1378.971896,-3478.967927,13693.809927
2537.331248,-2834.553343,-2442.679609,8586.388927
2537.331577,-5515.887586,-3034.844362,10436.903782
2537.331906,-6818.249932,-4663.297435,12361.439231
2537.332235,-4903.011187,-2294.638420,10436.903782
2537.332564,-4060.306139,-3923.091493,14804.118840
2537.332893,-2145.067394,-1184.329507,11695.253884
2537.333222,306.438199,666.185348,10214.842000
2537.333551,1915.238745,-1110.308913,9696.697840
2537.333880,766.095498,3701.029710,5699.585753
2537.334209,3677.258390,-1554.432478,16432.571912
2537.334538,6052.154434,1554.432478,4737.318029
2537.334867,9806.022374,3404.947333,6735.874072
2537.335196,5745.716235,2368.659014,4293.194464
2537.335525,4903.011187,5033.400406,3404.947333
2537.335854,3830.477490,2886.803174,8438.347739
2537.336183,3370.820191,592.164754,5403.503377
2537.336512,1225.752797,296.082377,7994.224174
2537.336841,-2757.943793,-4811.338623,13101.645173
2537.337170,-3600.648841,-3478.967927,9474.636058
2537.337499,-5056.230287,-4515.256246,11399.171507
2537.337828,-4749.792088,-2220.617826,10214.842000
2537.338157,-5515.887586,-1776.494261,11843.295072
2537.338486,-3140.991542,-2960.823768,13989.892304
2537.338815,-2604.724693,1406.391290,11325.150913
2537.339144,459.657299,-518.144159,8956.491898
2537.339473,2374.896044,592.164754,8438.347739
2537.339802,842.705048,3775.050304,6143.709319
2537.340131,4673.182538,-2072.576638,14211.954086
2537.340460,4366.744339,2220.617826,3701.029710
2537.340789,8963.317327,3182.885551,6735.874072
2537.341118,4213.525239,2220.617826,2368.659014
2537.341447,4749.792088,4219.173869,4663.297435
2537.341776,995.924147,296.082377,9178.553681
2537.342105,0.000000,-2368.659014,7328.038826
2537.342434,-1608.800546,-2886.803174,11251.130318
2537.342763,-3217.601092,-2664.741391,10066.800811
2537.343092,-4979.620737,-2368.659014,8290.306550
2537.343421,-6205.373534,-3182.885551,14434.015869
2537.343750,-4366.744339,-814.226536,9400.615463
2537.344079,-3370.820191,-2442.679609,13545.768739
2537.344408,-1991.848295,-3182.885551,13101.645173
2537.344737,0.000000,1332.370696,9548.656652
2537.345066,536.266849,-222.061783,9844.739029
2537.345395,459.657299,3478.967927,5329.482782
2537.345724,1991.848295,-74.020594,12805.562797
2537.346053,5439.278036,-0.000000,7994.224174
2537.346382,7048.078582,3478.967927,3701.029710
2537.346711,6128.763984,1850.514855,5181.441594
2537.347040,3447.429741,3330.926739,2812.782580
2537.347369,2451.505594,1110.308913,9030.512492
2537.347698,0.000000,-888.247130,8660.409521
2537.348027,-1072.533697,-888.247130,9474.636058
2537.348356,-1915.238745,-4515.256246,13323.706956
2537.348685,-4366.744339,-1332.370696,6661.853478
2537.349014,-4979.620737,-1998.556043,13249.686362
2537.349343,-5592.497135,-1406.391290,10881.027347
2537.349672,-3294.210641,-518.144159,11695.253884
2537.350001,-2221.676944,-1998.556043,13767.830521
2537.350330,-612.876398,518.144159,9696.697840
2537.350659,536.266849,-222.061783,9548.656652
2537.350988,2068.457845,888.247130,7105.977043
2537.351317,689.485948,1480.411884,8586.388927
2537.351646,4060.306139,-740.205942,11695.253884
2537.351975,5898.935335,2664.741391,2590.720797
2537.352304,7431.126331,2368.659014,6957.935855
2537.352633,3524.039291,3182.885551,2812.782580
2537.352962,3677.258390,2368.659014,6143.709319
2537.353291,459.657299,-1332.370696,8734.430116
2537.353620,-995.924147,296.082377,9178.553681
2537.353949,-1838.629195,-3775.050304,13471.748144
2537.354278,-3600.648841,-2220.617826,8586.388927
2537.354608,-4903.011187,-2072.576638,9474.636058
2537.354937,-5132.839837,-1628.453072,13175.665768
2537.355266,-3447.429741,-1406.391290,10436.903782
2537.355595,-1608.800546,-1406.391290,13027.624579
2537.355924,-306.438199,-814.226536,10732.986159
2537.356253,612.876398,1554.432478,8438.347739
2537.356582,1072.533697,-740.205942,8734.430116
2537.356911,306.438199,1554.432478,8364.327145
2537.357240,3677.258390,-1036.288319,11769.274478
2537.357569,5822.325785,2294.638420,3997.112087
2537.357898,7354.516781,2220.617826,6439.791695
2537.358227,4443.353888,1924.535449,4145.153275
2537.358556,3677.258390,2516.700203,5699.585753
2537.358885,842.705048,-518.144159,8142.265362
2537.359214,-229.828649,-1110.308913,8882.471304
2537.359543,-1378.971896,-2664.741391,12361.439231
2537.359872,-2911.162892,-1850.514855,9844.739029
2537.360201,-4979.620737,-2442.679609,9696.697840
2537.360530,-6128.763984,-2516.700203,12583.501014
2537.360859,-4213.525239,-1332.370696,10214.842000
2537.361188,-1608.800546,-518.144159,12657.521608
2537.361517,76.609550,-666.185348,10732.986159
2537.361846,1149.143247,370.102971,8956.491898
2537.362175,766.095498,-592.164754,7994.224174
2537.362504,459.657299,1628.453072,8808.450710
2537.362833,3677.258390,-666.185348,10807.006753
2537.363162,6511.811733,2294.638420,4515.256246
2537.363491,8503.660028,2294.638420,5921.647536
2537.363820,4903.011187,2368.659014,3923.091493
2537.364149,4136.915689,3108.864956,5625.565159
2537.364478,1302.362347,962.267725,7772.162391
2537.364807,306.438199,-1036.288319,8290.306550
2537.365136,-1532.190996,-2442.679609,11843.295072
2537.365465,-2528.115143,-3330.926739,11029.068536
2537.365794,-5209.449386,-3404.947333,9992.780217
2537.366123,-5669.106685,-3108.864956,12805.562797
2537.366452,-4290.134789,-1554.432478,10510.924376
2537.366781,-2221.676944,-1258.350101,12065.356855
2537.367110,-536.266849,-222.061783,11177.109724
2537.367439,995.924147,296.082377,9178.553681
2537.367768,1378.971896,-518.144159,7920.203579
2537.368097,153.219100,740.205942,9104.533087
2537.368426,2681.334243,-1184.329507,11843.295072
2537.368755,5592.497135,1628.453072,5551.544565
2537.369084,8733.488677,2294.638420,5995.668130
2537.369413,5975.544884,2886.803174,3701.029710
2537.369742,4673.182538,3478.967927,6661.853478
2537.370071,1455.581446,1258.350101,7920.203579
2537.370400,0.000000,-444.123565,8216.285956
2537.370729,-1608.800546,-1702.473667,11695.253884
2537.371058,-2451.505594,-1776.494261,10881.027347
2537.371387,-5286.058936,-2960.823768,9474.636058
2537.371716,-6741.640382,-3627.009116,13175.665768
2537.372045,-5286.058936,-2368.659014,10732.986159
2537.372374,-3140.991542,-1406.391290,11843.295072
2537.372703,-2374.896044,-1110.308913,11843.295072
2537.373032,-919.314598,-0.000000,9696.697840
2537.373361,1225.752797,-1036.288319,9622.677246
2537.373690,229.828649,2960.823768,5699.585753
2537.374019,1302.362347,592.164754,10955.047942
2537.374348,5286.058936,-0.000000,9770.718434
2537.374677,7737.564530,3849.070898,3552.988522
2537.375006,6894.859482,2072.576638,6957.935855
2537.375335,3677.258390,3627.009116,2368.659014
2537.375664,3370.820191,2590.720797,7624.121203
2537.375993,153.219100,-0.000000,8512.368333
2537.376322,0.000000,592.164754,7920.203579
2537.376651,-1378.971896,-3849.070898,13101.645173
2537.376980,-3983.696590,-3256.906145,8660.409521
2537.377309,-6205.373534,-3701.029710,12287.418637
2537.377638,-6435.202183,-3330.926739,11251.130318
2537.377967,-4749.792088,-1702.473667,11029.068536
2537.378296,-2834.553343,-2294.638420,13767.830521
2537.378625,-766.095498,148.041188,9918.759623
2537.378954,459.657299,296.082377,9474.636058
2537.379283,1225.752797,-518.144159,8068.244768
2537.379612,689.485948,1702.473667,8216.285956
2537.379941,5056.230287,-0.000000,10955.047942
2537.380270,6971.469032,3552.988522,1850.514855
2537.380599,8044.002729,2146.597232,7328.038826
2537.380928,4596.572988,3552.988522,3404.947333
2537.381257,4443.353888,2738.761985,6365.771101
2537.381586,459.657299,148.041188,7624.121203
2537.381915,0.000000,-518.144159,8142.265362
2537.382244,-2068.457845,-3108.864956,13101.645173
2537.382573,-3983.696590,-2220.617826,9178.553681
2537.382902,-6435.202183,-3997.112087,10510.924376
2537.383231,-7967.393179,-3923.091493,13989.892304
2537.383560,-5286.058936,-2072.576638,10658.965565
2537.383889,-2911.162892,-1924.535449,12509.480420
2537.384218,-919.314598,-444.123565,10362.883188
2537.384547,995.924147,962.267725,9252.574275
2537.384876,1149.143247,148.041188,9104.533087
2537.385205,766.095498,2590.720797,7698.141797
2537.385534,5669.106685,-148.041188,10807.006753
2537.385863,7277.907231,3997.112087,2442.679609
2537.386192,8810.098227,1924.535449,7031.956449
2537.386521,4903.011187,3034.844362,3330.926739
2537.386850,4979.620737,3627.009116,5921.647536
2537.387179,1455.581446,1480.411884,7772.162391
2537.387508,459.657299,-1110.308913,8068.244768
2537.387837,-1838.629195,-2146.597232,11695.253884
2537.388166,-2681.334243,-2960.823768,10362.883188
2537.388495,-6128.763984,-4145.153275,9918.759623
2537.388824,-7277.907231,-3627.009116,14730.098246
2537.389153,-5439.278036,-3034.844362,11621.233289
2537.389482,-3983.696590,-592.164754,12657.521608
2537.389811,-1378.971896,-666.185348,11547.212695
2537.390140,153.219100,814.226536,9326.594869
2537.390469,1685.410096,-666.185348,10066.800811
2537.390798,612.876398,2590.720797,7624.121203
2537.391127,6205.373534,-740.205942,13027.624579
2537.391456,6741.640382,3256.906145,2738.761985
2537.391785,10035.851024,1924.535449,7105.977043
2537.392114,5439.278036,3182.885551,4071.132681
2537.392443,5592.497135,4367.215058,4811.338623
2537.392772,3140.991542,2590.720797,6439.791695
2537.393101,2451.505594,296.082377,5773.606348
2537.393430,-612.876398,-2072.576638,10881.027347
2537.393759,-2681.334243,-2738.761985,11473.192101
2537.394089,-4826.401637,-5033.400406,10140.821405
2537.394418,-6971.469032,-4959.379811,11843.295072
2537.394747,-5209.449386,-2960.823768,10584.944971
2537.395076,-5209.449386,-1850.514855,11769.274478
2537.395405,-3524.039291,-1628.453072,12731.542202
2537.395734,-1608.800546,-148.041188,9474.636058
2537.396063,1455.581446,-962.267725,10510.924376
2537.396392,1225.752797,2886.803174,7624.121203
2537.396721,919.314598,2146.597232,7550.100608
2537.397050,4749.792088,-1110.308913,14137.933492
2537.397379,5592.497135,3701.029710,2960.823768
2537.397708,7967.393179,1776.494261,7994.224174
2537.398037,3600.648841,2294.638420,3108.864956
2537.398366,6052.154434,4959.379811,4737.318029
2537.398695,2681.334243,2146.597232,8216.285956
2537.399024,1532.190996,1480.411884,6217.729913
2537.399353,-1149.143247,-1406.391290,10288.862594
2537.399682,-2987.772442,-4219.173869,12583.501014
2537.400011,-5592.497135,-4293.194464,9474.636058
2537.400340,-6511.811733,-3256.906145,13175.665768
2537.400669,-4979.620737,-2886.803174,10658.965565
2537.400998,-5056.230287,-2738.761985,12953.603985
2537.401327,-3447.429741,-2738.761985,14211.954086
2537.401656,-2298.286494,444.123565,9844.739029
2537.401985,995.924147,-1554.432478,10658.965565
2537.402314,1685.410096,3330.926739,6439.791695
2537.402643,1685.410096,1924.535449,9992.780217
2537.402972,5132.839837,-592.164754,11473.192101
2537.403301,6818.249932,3701.029710,1998.556043
2537.403630,7431.126331,2220.617826,7550.100608
2537.403959,2757.943793,2886.803174,2368.659014
2537.404288,5209.449386,4589.276840,5625.565159
2537.404617,2068.457845,666.185348,7624.121203
2537.404946,842.705048,-1480.411884,6143.709319
2537.405275,-2221.676944,-3404.947333,12287.418637
2537.405604,-3217.601092,-3478.967927,9400.615463
2537.405933,-5286.058936,-4071.132681,9770.718434
2537.406262,-6818.249932,-2368.659014,13249.686362
2537.406591,-4443.353888,-2294.638420,10288.862594
2537.406920,-3753.867940,-2664.741391,14063.912898
2537.407249,-2068.457845,-888.247130,12583.501014
2537.407578,-459.657299,888.247130,9104.533087
2537.407907,2145.067394,-296.082377,10140.821405
2537.408236,689.485948,4515.256246,4959.379811
2537.408565,4366.744339,-1110.308913,15470.304188
2537.408894,4443.353888,1998.556043,3701.029710
2537.409223,8886.707777,3182.885551,6587.832884
2537.409552,4213.525239,2442.679609,3108.864956
2537.409881,5056.230287,4293.194464,4293.194464
2537.410210,2757.943793,2368.659014,7994.224174
2537.410539,1455.581446,-148.041188,7254.018232
2537.410868,-153.219100,-2294.638420,10584.944971
2537.411197,-3217.601092,-2590.720797,12213.398043
2537.411526,-4213.525239,-4737.318029,8438.347739
2537.411855,-6052.154434,-3034.844362,13101.645173
2537.412184,-4136.915689,-2368.659014,11029.068536
2537.412513,-4366.744339,-888.247130,11917.315666
2537.412842,-2834.553343,-2886.803174,14656.077652
2537.413171,-1378.971896,962.267725,9770.718434
2537.413500,1072.533697,-1110.308913,10658.965565
2537.413829,919.314598,3034.844362,7031.956449
2537.414158,766.095498,1184.329507,9474.636058
2537.414487,3983.696590,-1184.329507,12139.377449
2537.414816,5515.887586,3256.906145,2812.782580
2537.415145,7354.516781,2072.576638,7105.977043
2537.415474,3294.210641,2738.761985,2294.638420
2537.415803,4366.744339,3034.844362,5921.647536
2537.416132,1149.143247,-444.123565,8216.285956
2537.416461,536.266849,-148.041188,7624.121203
2537.416790,-1991.848295,-3182.885551,12731.542202
2537.417119,-2987.772442,-2516.700203,8512.368333
2537.417448,-4366.744339,-1850.514855,9770.718434
2537.417777,-5286.058936,-1998.556043,12509.480420
2537.418106,-3830.477490,-296.082377,10436.903782
2537.418435,-2757.943793,-2368.659014,13989.892304
2537.418764,-1302.362347,-1036.288319,11399.171507
2537.419093,-306.438199,592.164754,9548.656652
2537.419422,766.095498,-1332.370696,9844.739029
2537.419751,0.000000,2516.700203,6439.791695
2537.420080,2757.943793,-1480.411884,12953.603985
2537.420409,4749.792088,888.247130,5181.441594
2537.420738,7277.907231,2368.659014,5181.441594
2537.421067,4290.134789,1850.514855,4441.235652
2537.421396,4366.744339,3404.947333,4071.132681
2537.421725,2987.772442,1036.288319,8512.368333
2537.422054,1072.533697,148.041188,7550.100608
2537.422383,-306.438199,-666.185348,9992.780217
2537.422712,-2068.457845,-3552.988522,12361.439231
2537.423041,-3753.867940,-1998.556043,9030.512492
2537.423370,-3677.258390,-1924.535449,12213.398043
2537.423699,-2757.943793,-518.144159,10214.842000
2537.424028,-1685.410096,-518.144159,11769.274478
2537.424357,-919.314598,-2220.617826,13101.645173
2537.424686,229.828649,444.123565,9844.739029
2537.425015,1072.533697,-888.247130,9770.718434
2537.425344,459.657299,444.123565,7994.224174
2537.425673,842.705048,-0.000000,11547.212695
2537.426002,2987.772442,-1036.288319,9474.636058
2537.426331,5209.449386,2368.659014,5181.441594
2537.426660,6205.373534,1924.535449,7031.956449
2537.426989,3907.087040,2442.679609,3849.070898
2537.427318,2681.334243,3108.864956,6735.874072
2537.427647,612.876398,-592.164754,8290.306550
2537.427976,76.609550,-814.226536,9178.553681
2537.428306,-1302.362347,-2886.803174,11843.295072
2537.428635,-2451.505594,-2072.576638,8882.471304
2537.428964,-4136.915689,-1924.535449,10288.862594
2537.429293,-3830.477490,-1184.329507,10955.047942
2537.429622,-2374.896044,-592.164754,10214.842000
2537.429951,-1149.143247,-1776.494261,12805.562797
2537.430280,229.828649,-1036.288319,10214.842000
2537.430609,995.924147,-0.000000,9696.697840
2537.430938,306.438199,-296.082377,8734.430116
2537.431268,229.828649,1406.391290,7624.121203
2537.431597,1762.019645,-888.247130,11473.192101
2537.431926,3907.087040,740.205942,6735.874072
2537.432255,5975.544884,1924.535449,5181.441594
2537.432584,4136.915689,1702.473667,5477.523971
2537.432913,2604.724693,2294.638420,5847.626942
2537.433242,1532.190996,-0.000000,8882.471304
2537.433571,-383.047749,-222.061783,8216.285956
2537.433900,-766.095498,-1406.391290,10288.862594
2537.434230,-1685.410096,-2442.679609,10362.883188
2537.434559,-3447.429741,-666.185348,9178.553681
2537.434888,-4136.915689,-1406.391290,11917.315666
2537.435217,-2834.553343,-1258.350101,10881.027347
2537.435546,-1685.410096,-1998.556043,12287.418637
2537.435875,-1302.362347,-888.247130,11695.253884
2537.436204,536.266849,-592.164754,10436.903782
2537.436533,-306.438199,-0.000000,8734.430116
2537.436862,306.438199,1184.329507,7624.121203
2537.437192,536.266849,296.082377,10658.965565
2537.437521,1915.238745,148.041188,8586.388927
2537.437850,3907.087040,1258.350101,7179.997637
2537.438179,2911.162892,1184.329507,5329.482782
2537.438508,2145.067394,1406.391290,5847.626942
2537.438837,842.705048,740.205942,7254.018232
2537.439166,383.047749,-444.123565,8512.368333
2537.439495,-383.047749,-962.267725,9622.677246
2537.439824,-842.705048,-2442.679609,10288.862594
2537.440154,-2298.286494,-962.267725,8290.306550
2537.440483,-2604.724693,-1258.350101,10732.986159
2537.440812,-3217.601092,148.041188,9548.656652
2537.441141,-1378.971896,222.061783,10658.965565
2537.441470,-306.438199,-1184.329507,11843.295072
2537.441799,153.219100,-0.000000,10288.862594
2537.442128,689.485948,-814.226536,10066.800811
2537.442457,153.219100,-74.020594,8364.327145
2537.442786,459.657299,-444.123565,9178.553681
2537.443116,1455.581446,-592.164754,9696.697840
2537.443445,2834.553343,-222.061783,7994.224174
2537.443774,3294.210641,296.082377,7846.182985
2537.444103,3064.381992,814.226536,6217.729913
2537.444432,2681.334243,814.226536,6513.812290
2537.444761,1378.971896,-0.000000,7994.224174
2537.445090,1072.533697,-444.123565,8660.409521
2537.445419,-383.047749,-1406.391290,9548.656652
2537.445748,-919.314598,-1776.494261,10955.047942
2537.446078,-1455.581446,-1036.288319,9474.636058
2537.446407,-1302.362347,-0.000000,10066.800811
2537.446736,-536.266849,-0.000000,9696.697840
2537.447065,612.876398,518.144159,10288.862594
2537.447394,1532.190996,-148.041188,11473.192101
2537.447723,1149.143247,-74.020594,9696.697840
2537.448052,306.438199,-296.082377,9844.739029
2537.448381,-459.657299,-518.144159,10066.800811
2537.448710,1608.800546,-888.247130,9622.677246
2537.449040,2681.334243,666.185348,7772.162391
2537.449369,2834.553343,740.205942,6291.750507
2537.449698,3140.991542,666.185348,7105.977043
2537.450027,1532.190996,1258.350101,6587.832884
2537.450356,1225.752797,814.226536,7105.977043
2537.450685,0.000000,-666.185348,7994.224174
2537.451014,-1225.752797,-1776.494261,9400.615463
2537.451343,-2451.505594,-2516.700203,10881.027347
2537.451672,-2987.772442,-2146.597232,11177.109724
2537.452002,-2681.334243,-666.185348,9622.677246
2537.452331,-1378.971896,814.226536,9918.759623
2537.452660,0.000000,814.226536,9696.697840
2537.452989,689.485948,1184.329507,9400.615463
2537.453318,766.095498,740.205942,9326.594869
2537.453647,766.095498,592.164754,9474.636058
2537.453976,1608.800546,-962.267725,10881.027347
2537.454305,2681.334243,740.205942,7105.977043
2537.454634,4519.963438,1036.288319,7031.956449
2537.454964,4290.134789,370.102971,6291.750507
2537.455293,3524.039291,444.123565,6143.709319
2537.455622,1072.533697,592.164754,8364.327145
2537.455951,0.000000,-740.205942,8142.265362
2537.456280,-1072.533697,-888.247130,9474.636058
2537.456609,-2604.724693,-2960.823768,11843.295072
2537.456938,-3064.381992,-2368.659014,10584.944971
2537.457267,-3983.696590,-2442.679609,11621.233289
2537.457596,-3217.601092,-1628.453072,11473.192101
2537.457926,-2374.896044,-0.000000,10288.862594
2537.458255,-612.876398,814.226536,11103.089130
2537.458584,766.095498,1406.391290,9400.615463
2537.458913,1762.019645,666.185348,9030.512492
2537.459242,306.438199,370.102971,9770.718434
2537.459571,1838.629195,-74.020594,11103.089130
2537.459900,3600.648841,1036.288319,7254.018232
2537.460229,6205.373534,1924.535449,6809.894666
2537.460558,5286.058936,1332.370696,4737.318029
2537.460888,4060.306139,1702.473667,6143.709319
2537.461217,1991.848295,1258.350101,7550.100608
2537.461546,0.000000,-74.020594,7550.100608
2537.461875,-1378.971896,-962.267725,9992.780217
2537.462204,-2987.772442,-2072.576638,11473.192101
2537.462533,-4136.915689,-3330.926739,10214.842000
2537.462862,-4290.134789,-3182.885551,11547.212695
2537.463191,-3753.867940,-2072.576638,10955.047942
2537.463520,-3600.648841,-814.226536,10732.986159
2537.463850,-2221.676944,-0.000000,11621.233289
2537.464179,-919.314598,1184.329507,9400.615463
2537.464508,689.485948,-0.000000,9252.574275
2537.464837,612.876398,1480.411884,7698.141797
2537.465166,612.876398,1702.473667,7698.141797
2537.465495,3447.429741,-1924.535449,13027.624579
2537.465824,4213.525239,-0.000000,5773.606348
2537.466153,7814.174080,1554.432478,6661.853478
2537.466482,5056.230287,1480.411884,4071.132681
2537.466812,4749.792088,2960.823768,5181.441594
2537.467141,1762.019645,1776.494261,8882.471304
2537.467470,536.266849,962.267725,7772.162391
2537.467799,-1149.143247,-444.123565,10288.862594
2537.468128,-2528.115143,-3404.947333,11843.295072
2537.468457,-4366.744339,-3182.885551,10807.006753
2537.468786,-4903.011187,-2812.782580,12287.418637
2537.469115,-3447.429741,-1850.514855,10066.800811
2537.469444,-3140.991542,-1332.370696,11325.150913
2537.469774,-1762.019645,-370.102971,11917.315666
2537.470103,76.609550,1628.453072,9696.697840
2537.470432,689.485948,-814.226536,9474.636058
2537.470761,766.095498,740.205942,7105.977043
2537.471090,1455.581446,-0.000000,10658.965565
2537.471419,3907.087040,-666.185348,9548.656652
2537.471748,5669.106685,2516.700203,4071.132681
2537.472077,6741.640382,2442.679609,6365.771101
2537.472406,3677.258390,1850.514855,4367.215058
2537.472736,4213.525239,2294.638420,7328.038826
2537.473065,689.485948,1036.288319,7328.038826
2537.473394,229.828649,-444.123565,7624.121203
2537.473723,-2681.334243,-1702.473667,11473.192101
2537.474052,-3370.820191,-2664.741391,10436.903782
2537.474381,-5362.668486,-3330.926739,10214.842000
2537.474710,-5439.278036,-2516.700203,12583.501014
2537.475039,-4290.134789,-2664.741391,9474.636058
2537.475368,-3064.381992,-1998.556043,12213.398043
2537.475698,-1532.190996,-296.082377,11325.150913
2537.476027,306.438199,-0.000000,9178.553681
2537.476356,1225.752797,-370.102971,8660.409521
2537.476685,1378.971896,2664.741391,6661.853478
2537.477014,4443.353888,-1480.411884,13471.748144
2537.477343,4290.134789,1628.453072,4589.276840
2537.477672,8580.269578,2886.803174,7179.997637
2537.478001,5132.839837,2368.659014,4145.153275
2537.478330,5592.497135,3775.050304,4737.318029
2537.478660,2451.505594,1554.432478,7920.203579
2537.478989,1225.752797,-0.000000,7254.018232
2537.479318,-536.266849,-2072.576638,9992.780217
2537.479647,-3217.601092,-3182.885551,11769.274478
2537.479976,-4519.963438,-4959.379811,11029.068536
2537.480305,-6358.592633,-2960.823768,12287.418637
2537.480634,-3447.429741,-2368.659014,10584.944971
2537.480963,-3677.258390,-1702.473667,10955.047942
2537.481292,-1455.581446,-1480.411884,12805.562797
2537.481622,0.000000,814.226536,10362.883188
2537.481951,1378.971896,-296.082377,9474.636058
2537.482280,1072.533697,1924.535449,7179.997637
2537.482609,2681.334243,-0.000000,11991.336260
2537.482938,3983.696590,148.041188,8068.244768
2537.483267,7124.688131,2812.782580,6143.709319
2537.483596,6358.592633,2738.761985,4219.173869
2537.483925,4290.134789,2812.782580,5033.400406
2537.484254,3294.210641,2664.741391,8142.265362
2537.484584,612.876398,370.102971,7698.141797
2537.484913,0.000000,-1850.514855,9252.574275
2537.485242,-3140.991542,-2516.700203,10807.006753
2537.485571,-3983.696590,-3552.988522,9474.636058
2537.485900,-5898.935335,-3627.009116,11325.150913
2537.486229,-4673.182538,-1924.535449,11473.192101
2537.486558,-4673.182538,-1702.473667,10732.986159
2537.486887,-2911.162892,-1406.391290,13175.665768
2537.487216,-1762.019645,-0.000000,10584.944971
2537.487546,306.438199,-370.102971,9844.739029
2537.487875,919.314598,814.226536,8808.450710
2537.488204,766.095498,3256.906145,6883.915261
2537.488533,4060.306139,-2220.617826,14804.118840
2537.488862,4213.525239,1332.370696,5181.441594
2537.489191,8733.488677,2146.597232,7105.977043
2537.489520,5209.449386,2368.659014,3330.926739
2537.489849,5056.230287,3627.009116,4663.297435
2537.490178,1991.848295,1332.370696,8882.471304
2537.490508,766.095498,296.082377,7624.121203
2537.490837,-995.924147,-962.267725,10510.924376
2537.491166,-3217.601092,-3182.885551,12065.356855
2537.491495,-4519.963438,-3775.050304,9696.697840
2537.491824,-5592.497135,-2368.659014,12361.439231
2537.492153,-4213.525239,-1480.411884,10288.862594
2537.492482,-3600.648841,-1998.556043,11991.336260
2537.492811,-1838.629195,-1258.350101,13101.645173
2537.493140,-459.657299,1258.350101,10140.821405
2537.493469,919.314598,-1184.329507,10066.800811
2537.493799,1225.752797,2072.576638,6735.874072
2537.494128,1838.629195,296.082377,12361.439231
2537.494457,3983.696590,-0.000000,8290.306550
2537.494786,6894.859482,3182.885551,4441.235652
2537.495115,6128.763984,2516.700203,4885.359217
2537.495444,3907.087040,2738.761985,3404.947333
2537.495773,3907.087040,2368.659014,8216.285956
2537.496102,229.828649,296.082377,6661.853478
2537.496431,0.000000,-1184.329507,8956.491898
2537.496761,-3370.820191,-2960.823768,12065.356855
2537.497090,-4290.134789,-2516.700203,8586.388927
2537.497419,-5822.325785,-3404.947333,11769.274478
2537.497748,-5439.278036,-2590.720797,11695.253884
2537.498077,-4519.963438,-1850.514855,10807.006753
2537.498406,-1838.629195,-2146.597232,13323.706956
2537.498735,-1149.143247,-148.041188,10288.862594
2537.499064,306.438199,-0.000000,8956.491898
2537.499393,1225.752797,222.061783,8438.347739
2537.499723,612.876398,1998.556043,7550.100608
2537.500052,5362.668486,-1480.411884,11991.336260
2537.500381,5439.278036,2590.720797,2590.720797
2537.500710,8350.440928,1702.473667,6809.894666
2537.501039,4136.915689,2220.617826,3404.947333
2537.501368,5439.278036,3256.906145,5625.565159
2537.501697,1302.362347,814.226536,7920.203579
2537.502026,1072.533697,-0.000000,7624.121203
2537.502355,-1991.848295,-2294.638420,11917.315666
2537.502685,-3217.601092,-2738.761985,11325.150913
2537.503014,-4136.915689,-3849.070898,10807.006753
2537.503343,-5515.887586,-1924.535449,11991.336260
2537.503672,-2834.553343,-2220.617826,10510.924376
2537.504001,-2604.724693,-1554.432478,12065.356855
2537.504330,-612.876398,-592.164754,12213.398043
2537.504659,612.876398,518.144159,9696.697840
2537.504988,1225.752797,-74.020594,8660.409521
2537.505317,536.266849,1776.494261,8734.430116
2537.505647,3983.696590,-518.144159,11843.295072
2537.505976,4903.011187,2516.700203,4663.297435
2537.506305,8197.221829,2590.720797,6513.812290
2537.506634,5286.058936,2738.761985,3256.906145
2537.506963,5286.058936,3775.050304,5181.441594
2537.507292,2451.505594,2368.659014,6809.894666
2537.507621,1302.362347,518.144159,7328.038826
2537.507950,-919.314598,-2368.659014,11473.192101
2537.508279,-3677.258390,-2516.700203,11695.253884
2537.508609,-4903.011187,-4219.173869,10658.965565
2537.508938,-6052.154434,-2664.741391,11843.295072
2537.509267,-4060.306139,-2516.700203,10807.006753
2537.509596,-4060.306139,-1480.411884,11177.109724
2537.509925,-3064.381992,-1480.411884,12953.603985
2537.510254,-1608.800546,-814.226536,10066.800811
2537.510583,919.314598,-962.267725,9178.553681
2537.510912,612.876398,1702.473667,7624.121203
2537.511241,689.485948,814.226536,9178.553681
2537.511571,5439.278036,-962.267725,11177.109724
2537.511900,5669.106685,2368.659014,3256.906145
2537.512229,7124.688131,2960.823768,6661.853478
2537.512558,3600.648841,2220.617826,3997.112087
2537.512887,3983.696590,3034.844362,6587.832884
2537.513216,842.705048,962.267725,8142.265362
2537.513545,383.047749,-0.000000,7624.121203
2537.513874,-2987.772442,-2738.761985,12139.377449
2537.514203,-3753.867940,-1924.535449,10140.821405
2537.514533,-4673.182538,-3627.009116,10436.903782
2537.514862,-5515.887586,-2146.597232,11843.295072
2537.515191,-3140.991542,-2664.741391,10140.821405
2537.515520,-1915.238745,-1998.556043,12583.501014
2537.515849,-766.095498,-592.164754,10732.986159
2537.516178,306.438199,518.144159,9252.574275
2537.516507,612.876398,-814.226536,9178.553681
2537.516836,459.657299,1850.514855,8438.347739
2537.517165,4366.744339,-0.000000,11325.150913
2537.517495,5439.278036,3108.864956,2886.803174
2537.517824,7584.345430,2368.659014,6587.832884
2537.518153,4826.401637,3330.926739,3627.009116
2537.518482,4826.401637,3849.070898,5403.503377
2537.518811,919.314598,222.061783,7920.203579
2537.519140,153.219100,-888.247130,8142.265362
2537.519469,-2068.457845,-2590.720797,11325.150913
2537.519798,-3907.087040,-3108.864956,10658.965565
2537.520127,-6128.763984,-3997.112087,9548.656652
2537.520457,-6511.811733,-3330.926739,13471.748144
2537.520786,-4366.744339,-1406.391290,10140.821405
2537.521115,-2604.724693,-888.247130,11473.192101
2537.521444,-1532.190996,-962.267725,11695.253884
2537.521773,229.828649,1332.370696,9104.533087
2537.522102,766.095498,-0.000000,8586.388927
2537.522431,306.438199,1702.473667,8882.471304
2537.522760,3983.696590,-296.082377,11325.150913
2537.523089,5669.106685,2960.823768,3330.926739
2537.523419,8044.002729,2368.659014,6661.853478
2537.523748,4443.353888,3034.844362,3923.091493
2537.524077,4443.353888,2516.700203,6291.750507
2537.524406,459.657299,814.226536,7846.182985
2537.524735,0.000000,-1332.370696,7698.141797
2537.525064,-2068.457845,-2442.679609,12065.356855
2537.525393,-3447.429741,-2812.782580,10732.986159
2537.525722,-5362.668486,-3552.988522,10362.883188
2537.526051,-5745.716235,-3034.844362,13471.748144
2537.526381,-3600.648841,-1850.514855,10066.800811
2537.526710,-1838.629195,-222.061783,11695.253884
2537.527039,0.000000,222.061783,11103.089130
2537.527368,766.095498,1480.411884,8734.430116
2537.527698,1072.533697,-518.144159,9326.594869
2537.528027,306.438199,2072.576638,8956.491898
2537.528356,3370.820191,-148.041188,11695.253884
2537.528685,5669.106685,2516.700203,4515.256246
2537.529014,8273.831378,2220.617826,5699.585753
2537.529344,5669.106685,2664.741391,4071.132681
2537.529673,4903.011187,3552.988522,5107.421000
2537.530002,1685.410096,1332.370696,7624.121203
2537.530331,766.095498,-1332.370696,7994.224174
2537.530661,-1685.410096,-1850.514855,11251.130318
2537.530990,-3677.258390,-3478.967927,11103.089130
2537.531319,-5822.325785,-4145.153275,9918.759623
2537.531648,-6052.154434,-3552.988522,13545.768739
2537.531978,-4826.401637,-2220.617826,9992.780217
2537.532307,-2757.943793,-74.020594,11621.233289
2537.532636,-1225.752797,-740.205942,11251.130318
2537.532965,0.000000,1110.308913,9252.574275
2537.533295,1149.143247,-1110.308913,9474.636058
2537.533624,0.000000,1924.535449,7105.977043
2537.533953,1225.752797,-814.226536,11843.295072
2537.534282,4290.134789,-222.061783,9178.553681
2537.534612,6818.249932,2294.638420,3552.988522
2537.534941,6588.421283,1628.453072,6291.750507
2537.535270,3983.696590,2368.659014,3701.029710
2537.535599,4596.572988,2516.700203,7550.100608
2537.535928,1378.971896,518.144159,7328.038826
2537.536258,919.314598,592.164754,8216.285956
2537.536587,-2528.115143,-2664.741391,11177.109724
2537.536916,-3370.820191,-3034.844362,11029.068536
2537.537245,-5362.668486,-3404.947333,10955.047942
2537.537575,-4519.963438,-2368.659014,11399.171507
2537.537904,-2987.772442,-1998.556043,10362.883188
2537.538233,-536.266849,-740.205942,12065.356855
2537.538562,-689.485948,888.247130,10955.047942
2537.538892,306.438199,296.082377,9474.636058
2537.539221,1072.533697,-222.061783,9178.553681
2537.539550,842.705048,1924.535449,8512.368333
2537.539879,4213.525239,-222.061783,12065.356855
2537.540209,4903.011187,2220.617826,4145.153275
2537.540538,8350.440928,3034.844362,7105.977043
2537.540867,5132.839837,2738.761985,3923.091493
2537.541196,4903.011187,3775.050304,5699.585753
2537.541526,1991.848295,1924.535449,7550.100608
2537.541855,1072.533697,222.061783,7402.059420
2537.542184,-1149.143247,-2664.741391,10807.006753
2537.542513,-3140.991542,-3330.926739,11843.295072
2537.542842,-5362.668486,-5107.421000,10140.821405
2537.543172,-5822.325785,-3775.050304,13027.624579
2537.543501,-3983.696590,-1998.556043,9918.759623
2537.543830,-2987.772442,-1258.350101,11917.315666
2537.544159,-2221.676944,-814.226536,12139.377449
2537.544489,0.000000,888.247130,9844.739029
2537.544818,995.924147,-518.144159,8956.491898
2537.545147,1149.143247,1554.432478,7402.059420
2537.545476,2298.286494,-222.061783,11547.212695
2537.545806,4519.963438,222.061783,7994.224174
2537.546135,7354.516781,2368.659014,5625.565159
2537.546464,6128.763984,1998.556043,4663.297435
2537.546793,3753.867940,2738.761985,4811.338623
2537.547123,2451.505594,1776.494261,8586.388927
2537.547452,536.266849,-518.144159,7772.162391
2537.547781,-536.266849,-1110.308913,9844.739029
2537.548110,-3140.991542,-2664.741391,12287.418637
2537.548440,-4673.182538,-3404.947333,9326.594869
2537.548769,-4979.620737,-3552.988522,12139.377449
2537.549098,-4519.963438,-2072.576638,10288.862594
2537.549427,-2528.115143,-1258.350101,10881.027347
2537.549756,-1455.581446,-1776.494261,12287.418637
2537.550086,-383.047749,1036.288319,10214.842000
2537.550415,919.314598,-0.000000,9252.574275
2537.550744,306.438199,1406.391290,7476.080014
2537.551073,919.314598,1184.329507,10066.800811
2537.551403,3830.477490,222.061783,10066.800811
2537.551732,5439.278036,3182.885551,4293.194464
2537.552061,6281.983084,1850.514855,6513.812290
2537.552390,3524.039291,2294.638420,3034.844362
2537.552720,3524.039291,2368.659014,7254.018232
2537.553049,229.828649,-0.000000,7920.203579
2537.553378,-306.438199,-222.061783,8290.306550
2537.553707,-2451.505594,-2960.823768,11917.315666
2537.554037,-3753.867940,-2590.720797,9178.553681
2537.554366,-5515.887586,-3627.009116,11029.068536
2537.554695,-6281.983084,-3034.844362,11621.233289
2537.555024,-4366.744339,-1628.453072,10510.924376
2537.555354,-2681.334243,-1480.411884,12657.521608
2537.555683,-1532.190996,-0.000000,9992.780217
2537.556012,76.609550,-148.041188,9770.718434
2537.556341,459.657299,-222.061783,9252.574275
2537.556670,-229.828649,1776.494261,7550.100608
2537.557000,3677.258390,-1480.411884,13397.727550
2537.557329,4826.401637,1554.432478,5477.523971
2537.557658,7277.907231,1998.556043,6883.915261
2537.557987,4903.011187,2072.576638,4071.132681
2537.558317,3983.696590,3108.864956,5181.441594
2537.558646,1685.410096,592.164754,9030.512492
2537.558975,-306.438199,-0.000000,7920.203579
2537.559304,-1149.143247,-1776.494261,10807.006753
2537.559634,-2604.724693,-3552.988522,11769.274478
2537.559963,-4596.572988,-2664.741391,9252.574275
2537.560292,-4673.182538,-3256.906145,13101.645173
2537.560621,-3217.601092,-1480.411884,9622.677246
2537.560951,-1762.019645,-962.267725,11473.192101
2537.561280,-383.047749,-814.226536,12509.480420
2537.561609,995.924147,1184.329507,9548.656652
2537.561938,1302.362347,-518.144159,9400.615463
2537.562267,766.095498,1406.391290,8142.265362
2537.562597,3524.039291,-296.082377,12657.521608
2537.562926,4673.182538,2368.659014,4959.379811
2537.563255,9193.145976,2516.700203,7105.977043
2537.563584,6281.983084,2072.576638,4071.132681
2537.563914,5209.449386,3849.070898,4737.318029
2537.564243,2528.115143,1554.432478,7105.977043
2537.564572,1378.971896,370.102971,6365.771101
2537.564901,-153.219100,-1628.453072,10288.862594
2537.565231,-3140.991542,-2738.761985,11325.150913
2537.565560,-4596.572988,-4219.173869,10140.821405
2537.565889,-5822.325785,-3701.029710,12065.356855
2537.566218,-3983.696590,-2368.659014,10362.883188
2537.566548,-4060.306139,-1406.391290,11251.130318
2537.566877,-2145.067394,-740.205942,12287.418637
2537.567206,-1225.752797,592.164754,9992.780217
2537.567535,919.314598,-888.247130,9918.759623
2537.567865,766.095498,1924.535449,7624.121203
2537.568194,0.000000,1184.329507,9548.656652
2537.568523,3753.867940,-1332.370696,11769.274478
2537.568852,5515.887586,2738.761985,3330.926739
2537.569181,7507.735880,1702.473667,7105.977043
2537.569511,3524.039291,2738.761985,3034.844362
2537.569840,4519.963438,3330.926739,6735.874072
2537.570169,766.095498,814.226536,8142.265362
2537.570498,0.000000,-0.000000,7994.224174
2537.570828,-1762.019645,-3108.864956,12065.356855
2537.571157,-3524.039291,-2738.761985,9622.677246
2537.571486,-5286.058936,-3552.988522,10214.842000
2537.571815,-6205.373534,-3256.906145,12139.377449
2537.572145,-4060.306139,-2146.597232,9844.739029
2537.572474,-2298.286494,-1998.556043,13027.624579
2537.572803,-1838.629195,-1036.288319,10807.006753
2537.573132,0.000000,592.164754,8956.491898
2537.573462,689.485948,-592.164754,9548.656652
2537.573791,536.266849,2960.823768,7105.977043
2537.574120,4596.572988,-74.020594,13323.706956
2537.574449,5745.716235,2664.741391,3627.009116
2537.574779,8427.050478,2220.617826,6957.935855
2537.575108,5975.544884,2442.679609,3627.009116
2537.575437,5439.278036,3775.050304,4219.173869
2537.575766,2068.457845,1258.350101,7402.059420
2537.576095,1225.752797,296.082377,6587.832884
2537.576425,-842.705048,-1776.494261,10732.986159
2537.576754,-3753.867940,-3256.906145,12065.356855
2537.577083,-4673.182538,-4293.194464,9696.697840
2537.577412,-6128.763984,-4737.318029,13101.645173
2537.577742,-4366.744339,-1406.391290,10510.924376
2537.578071,-3677.258390,-1776.494261,12287.418637
2537.578400,-3370.820191,-1110.308913,13471.748144
2537.578729,-1532.190996,666.185348,10436.903782
2537.579059,1149.143247,-888.247130,10584.944971
2537.579388,383.047749,2368.659014,7031.956449
2537.579717,1225.752797,666.185348,10436.903782
2537.580046,4443.353888,-1184.329507,11399.171507
2537.580376,5515.887586,2960.823768,3256.906145
2537.580705,7354.516781,2072.576638,7254.018232
2537.581034,3524.039291,2960.823768,2886.803174
2537.581363,4596.572988,3849.070898,6439.791695
2537.581693,459.657299,888.247130,7476.080014
2537.582022,306.438199,-0.000000,6809.894666
2537.582351,-2604.724693,-3404.947333,12731.542202
2537.582680,-3830.477490,-2812.782580,10214.842000
2537.583009,-5209.449386,-3478.967927,10214.842000
2537.583339,-5515.887586,-2664.741391,12509.480420
2537.583668,-3600.648841,-2072.576638,9770.718434
2537.583997,-2451.505594,-1924.535449,13471.748144
2537.584326,-1225.752797,-296.082377,11695.253884
2537.584656,0.000000,740.205942,9104.533087
2537.584985,1378.971896,-814.226536,10214.842000
2537.585314,153.219100,3701.029710,5921.647536
2537.585643,3447.429741,-1110.308913,14211.954086
2537.585973,4519.963438,1332.370696,5477.523971
2537.586302,7890.783629,1924.535449,5995.668130
2537.586631,5439.278036,2886.803174,3849.070898
2537.586960,4826.401637,2368.659014,4589.276840
2537.587290,1532.190996,1406.391290,8660.409521
2537.587619,536.266849,-592.164754,7772.162391
2537.587948,-1072.533697,-2072.576638,10362.883188
2537.588277,-3600.648841,-4145.153275,13249.686362
2537.588607,-4366.744339,-3923.091493,8734.430116
2537.588936,-4826.401637,-3404.947333,13841.851115
2537.589265,-3983.696590,-1258.350101,9992.780217
2537.589594,-2451.505594,-1110.308913,10658.965565
2537.589923,-1762.019645,-1258.350101,13027.624579
2537.590253,0.000000,1998.556043,9104.533087
2537.590582,1302.362347,-296.082377,9622.677246
2537.590911,612.876398,1554.432478,7994.224174
2537.591240,2604.724693,-296.082377,13175.665768
2537.591570,3983.696590,296.082377,6809.894666
2537.591899,7354.516781,2146.597232,6365.771101
2537.592228,5592.497135,1332.370696,4589.276840
2537.592557,4519.963438,3701.029710,5255.462188
2537.592887,2451.505594,1702.473667,8216.285956
2537.593216,766.095498,-148.041188,7476.080014
2537.593545,229.828649,-1480.411884,10436.903782
2537.593874,-3370.820191,-3256.906145,11547.212695
2537.594204,-4596.572988,-3552.988522,9400.615463
2537.594533,-5209.449386,-3034.844362,12065.356855
2537.594862,-3064.381992,-1998.556043,10584.944971
2537.595191,-2528.115143,-740.205942,10436.903782
2537.595521,-995.924147,-222.061783,12139.377449
2537.595850,459.657299,962.267725,9178.553681
2537.596179,1532.190996,-0.000000,9622.677246
2537.596508,306.438199,1258.350101,8438.347739
2537.596837,1302.362347,370.102971,11399.171507
2537.597167,4443.353888,-666.185348,9178.553681
2537.597496,6665.030833,2664.741391,4737.318029
2537.597825,6665.030833,1110.308913,5329.482782
2537.598154,4213.525239,2368.659014,4885.359217
2537.598484,3907.087040,1924.535449,7772.162391
2537.598813,1225.752797,666.185348,7031.956449
2537.599142,229.828649,-296.082377,8882.471304
2537.599471,-2681.334243,-2590.720797,11769.274478
2537.599801,-3753.867940,-3552.988522,10584.944971
2537.600130,-5515.887586,-3775.050304,10955.047942
2537.600459,-4060.306139,-2960.823768,11917.315666
2537.600788,-2757.943793,-1480.411884,9474.636058
2537.601118,-1378.971896,-444.123565,12287.418637
2537.601447,-842.705048,148.041188,10436.903782
2537.601776,0.000000,-0.000000,9400.615463
2537.602105,536.266849,-74.020594,9548.656652
2537.602435,0.000000,1850.514855,8290.306550
2537.602764,2681.334243,-2220.617826,13249.686362
2537.603093,4136.915689,1258.350101,6291.750507
2537.603422,7124.688131,1628.453072,6735.874072
2537.603751,4366.744339,1998.556043,4071.132681
2537.604081,3830.477490,2664.741391,5329.482782
2537.604410,1762.019645,1702.473667,7994.224174
2537.604739,383.047749,370.102971,8142.265362
2537.605068,-766.095498,-1258.350101,9844.739029
2537.605398,-3217.601092,-2812.782580,11621.233289
2537.605727,-4060.306139,-3034.844362,8882.471304
2537.606056,-4979.620737,-2960.823768,13101.645173
2537.606385,-3447.429741,-2368.659014,10288.862594
2537.606715,-3140.991542,-1036.288319,10881.027347
2537.607044,-1225.752797,-1924.535449,12435.459826
2537.607373,-1455.581446,962.267725,8734.430116
2537.607702,766.095498,-222.061783,10881.027347
2537.608032,153.219100,1628.453072,7179.997637
2537.608361,842.705048,814.226536,9992.780217
2537.608690,4136.915689,-592.164754,10584.944971
2537.609019,5745.716235,2960.823768,2590.720797
2537.609349,6894.859482,1332.370696,7550.100608
2537.609678,3217.601092,2368.659014,3330.926739
2537.610007,4290.134789,3478.967927,6513.812290
2537.610336,995.924147,222.061783,7772.162391
2537.610665,76.609550,-0.000000,7624.121203
2537.610995,-2604.724693,-2516.700203,12065.356855
2537.611324,-3600.648841,-2960.823768,10288.862594
2537.611653,-5669.106685,-3923.091493,9992.780217
2537.611982,-5439.278036,-2738.761985,12879.583391
2537.612312,-3677.258390,-1702.473667,10584.944971
2537.612641,-2145.067394,-1036.288319,13249.686362
2537.612970,-919.314598,-74.020594,11103.089130
2537.613299,229.828649,666.185348,8956.491898
2537.613629,1072.533697,-0.000000,9030.512492
2537.613958,689.485948,2072.576638,8364.327145
2537.614287,4060.306139,-1776.494261,12657.521608
2537.614616,4749.792088,2146.597232,3775.050304
2537.614946,8044.002729,1554.432478,6809.894666
2537.615275,4443.353888,2220.617826,4145.153275
2537.615604,4749.792088,3923.091493,5033.400406
2537.615933,1455.581446,1258.350101,7698.141797
2537.616262,76.609550,222.061783,7402.059420
2537.616592,-1378.971896,-2368.659014,11547.212695
2537.616921,-2451.505594,-1776.494261,11843.295072
2537.617250,-5209.449386,-3849.070898,9548.656652
2537.617579,-5286.058936,-3256.906145,12953.603985
2537.617909,-2911.162892,-1776.494261,9622.677246
2537.618238,-1838.629195,-666.185348,11547.212695
2537.618567,-536.266849,-962.267725,11843.295072
2537.618896,229.828649,1480.411884,8808.450710
2537.619226,995.924147,-148.041188,9474.636058
2537.619555,383.047749,1184.329507,9030.512492
2537.619884,3753.867940,-444.123565,11695.253884
2537.620213,4979.620737,2146.597232,4219.173869
2537.620543,7890.783629,1554.432478,6513.812290
2537.620872,4749.792088,1998.556043,4071.132681
2537.621201,5132.839837,3404.947333,5921.647536
2537.621530,2145.067394,1554.432478,6809.894666
2537.621860,842.705048,-222.061783,7031.956449
2537.622189,-1072.533697,-2294.638420,11251.130318
2537.622518,-3524.039291,-2516.700203,11177.109724
2537.622847,-4903.011187,-4663.297435,11177.109724
2537.623176,-5822.325785,-2368.659014,11769.274478
2537.623506,-3983.696590,-2368.659014,10881.027347
2537.623835,-3217.601092,-814.226536,11769.274478
2537.624164,-1149.143247,-222.061783,11917.315666
2537.624493,-536.266849,370.102971,10140.821405
2537.624823,1149.143247,-888.247130,9918.759623
2537.625152,76.609550,2368.659014,7698.141797
2537.625481,1072.533697,-518.144159,11991.336260
2537.625810,4213.525239,-222.061783,8290.306550
2537.626140,6818.249932,2368.659014,4441.235652
2537.626469,6511.811733,1924.535449,4959.379811
2537.626798,3907.087040,3034.844362,4441.235652
2537.627127,3753.867940,2590.720797,8364.327145
2537.627457,383.047749,962.267725,7031.956449
2537.627786,-306.438199,-814.226536,9104.533087
2537.628115,-2528.115143,-3182.885551,11769.274478
2537.628444,-3830.477490,-2886.803174,9326.594869
2537.628773,-5822.325785,-3552.988522,11843.295072
2537.629103,-4826.401637,-2590.720797,11325.150913
2537.629432,-3370.820191,-1776.494261,10140.821405
2537.629761,-1915.238745,-1258.350101,12879.583391
2537.630090,-689.485948,-296.082377,10140.821405
2537.630419,306.438199,-74.020594,9548.656652
2537.630749,612.876398,222.061783,7772.162391
2537.631078,1149.143247,1332.370696,10140.821405
2537.631407,4519.963438,-296.082377,10066.800811
2537.631736,6205.373534,3256.906145,3997.112087
2537.632065,7354.516781,1332.370696,6143.709319
2537.632395,3907.087040,2664.741391,3701.029710
2537.632724,4443.353888,2220.617826,7031.956449
2537.633053,1991.848295,1184.329507,7328.038826
2537.633382,689.485948,370.102971,7994.224174
2537.633711,-3064.381992,-2146.597232,11917.315666
2537.634040,-3370.820191,-3034.844362,10658.965565
2537.634370,-5669.106685,-3775.050304,10510.924376
2537.634699,-5669.106685,-3034.844362,12805.562797
2537.635028,-3600.648841,-1480.411884,9770.718434
2537.635357,-2604.724693,-1036.288319,12657.521608
2537.635686,-2451.505594,-592.164754,11547.212695
2537.636016,0.000000,592.164754,9178.553681
2537.636345,842.705048,-666.185348,9252.574275
2537.636674,459.657299,2664.741391,7994.224174
2537.637003,3524.039291,-1258.350101,13027.624579
2537.637332,4673.182538,2146.597232,4885.359217
2537.637661,7890.783629,1702.473667,6735.874072
2537.637991,5132.839837,2072.576638,3404.947333
2537.638320,5056.230287,3997.112087,5181.441594
2537.638649,2145.067394,1924.535449,7476.080014
2537.638978,919.314598,296.082377,7179.997637
2537.639307,-766.095498,-1258.350101,10732.986159
2537.639637,-3524.039291,-2738.761985,11177.109724
2537.639966,-4749.792088,-3923.091493,9326.594869
2537.640295,-5822.325785,-3182.885551,13101.645173
2537.640624,-4060.306139,-2072.576638,9918.759623
2537.640953,-3294.210641,-1258.350101,11917.315666
2537.641282,-1608.800546,-1110.308913,12731.542202
2537.641612,-1149.143247,1184.329507,9104.533087
2537.641941,995.924147,-1258.350101,10066.800811
2537.642270,689.485948,1924.535449,6883.915261
2537.642599,1608.800546,-0.000000,11399.171507
2537.642928,3907.087040,-592.164754,9770.718434
2537.643258,6818.249932,2516.700203,3997.112087
2537.643587,6818.249932,1850.514855,5995.668130
2537.643916,4060.306139,2738.761985,3701.029710
2537.644245,4366.744339,2442.679609,7550.100608
2537.644574,919.314598,518.144159,7402.059420
2537.644904,459.657299,-0.000000,8438.347739
2537.645233,-2681.334243,-2886.803174,11547.212695
2537.645562,-3524.039291,-2812.782580,9992.780217
2537.645891,-5515.887586,-3404.947333,10584.944971
2537.646220,-5056.230287,-2368.659014,12213.398043
2537.646549,-4290.134789,-1628.453072,10658.965565
2537.646879,-1838.629195,-1332.370696,13249.686362
2537.647208,-1225.752797,-296.082377,11251.130318
2537.647537,0.000000,-370.102971,9622.677246
2537.647866,842.705048,-518.144159,9400.615463
2537.648195,153.219100,1554.432478,8438.347739
2537.648525,3447.429741,-1480.411884,13397.727550
2537.648854,4903.011187,2072.576638,4663.297435
2537.649183,8503.660028,1776.494261,7031.956449
2537.649512,4979.620737,2368.659014,3775.050304
2537.649841,5286.058936,3701.029710,5107.421000
2537.650170,2604.724693,2368.659014,7328.038826
2537.650500,1838.629195,1554.432478,7105.977043
2537.650829,0.000000,-1184.329507,10288.862594
2537.651158,-3753.867940,-2516.700203,10584.944971
2537.651487,-4213.525239,-4441.235652,10436.903782
2537.651816,-4673.182538,-3404.947333,11399.171507
2537.652146,-3524.039291,-2368.659014,10214.842000
2537.652475,-3447.429741,-1628.453072,11399.171507
2537.652804,-1532.190996,-1332.370696,12731.542202
2537.653133,-1455.581446,444.123565,9918.759623
2537.653462,689.485948,-1258.350101,9252.574275
2537.653791,766.095498,1702.473667,7179.997637
2537.654121,1915.238745,-518.144159,12065.356855
2537.654450,5132.839837,-0.000000,8216.285956
2537.654779,7354.516781,2738.761985,4959.379811
2537.655108,6818.249932,2220.617826,4737.318029
2537.655437,4290.134789,2886.803174,4219.173869
2537.655767,4519.963438,2368.659014,7698.141797
2537.656096,919.314598,962.267725,7105.977043
2537.656425,842.705048,-2072.576638,9326.594869
2537.656754,-3753.867940,-2442.679609,11917.315666
2537.657083,-4673.182538,-3552.988522,10362.883188
2537.657413,-6281.983084,-3775.050304,11695.253884
2537.657742,-5286.058936,-2294.638420,12287.418637
2537.658071,-3524.039291,-1850.514855,10362.883188
2537.658400,-2068.457845,-1258.350101,12287.418637
2537.658729,-1302.362347,-0.000000,10436.903782
2537.659058,689.485948,-0.000000,8660.409521
2537.659388,612.876398,962.267725,9030.512492
2537.659717,2068.457845,592.164754,12139.377449
2537.660046,4136.915689,-0.000000,7105.977043
2537.660375,7814.174080,1850.514855,6809.894666
2537.660704,7048.078582,1332.370696,4219.173869
2537.661034,5745.716235,3627.009116,4737.318029
2537.661363,2987.772442,2294.638420,7772.162391
2537.661692,766.095498,1110.308913,6883.915261
2537.662021,229.828649,-1480.411884,10214.842000
2537.662350,-3064.381992,-2368.659014,10732.986159
2537.662679,-4136.915689,-2886.803174,10288.862594
2537.663009,-5975.544884,-4367.215058,11251.130318
2537.663338,-5515.887586,-2812.782580,12065.356855
2537.663667,-3983.696590,-2368.659014,10362.883188
2537.663996,-1762.019645,-1036.288319,11769.274478
2537.664325,-995.924147,222.061783,9474.636058
2537.664655,536.266849,-0.000000,8882.471304
2537.664984,689.485948,1036.288319,8438.347739
2537.665313,1608.800546,518.144159,11843.295072
2537.665642,4443.353888,-370.102971,7772.162391
2537.665971,7354.516781,2590.720797,5995.668130
2537.666301,7048.078582,1332.370696,4219.173869
2537.666630,4979.620737,3108.864956,5477.523971
2537.666959,3753.867940,2664.741391,7624.121203
2537.667288,842.705048,888.247130,6809.894666
2537.667617,-153.219100,-888.247130,9326.594869
2537.667946,-2911.162892,-2072.576638,11621.233289
2537.668276,-4060.306139,-3775.050304,10362.883188
2537.668605,-6358.592633,-4441.235652,11251.130318
2537.668934,-6052.154434,-3108.864956,12509.480420
2537.669263,-4903.011187,-2442.679609,10288.862594
2537.669592,-2757.943793,-814.226536,12287.418637
2537.669922,-1532.190996,148.041188,10362.883188
2537.670251,0.000000,-0.000000,8956.491898
2537.670580,76.609550,296.082377,9178.553681
2537.670909,76.609550,1776.494261,9030.512492
2537.671238,4826.401637,-1110.308913,12139.377449
2537.671567,4903.011187,3478.967927,3330.926739
2537.671897,8350.440928,1702.473667,7105.977043
2537.672226,4519.963438,2294.638420,3997.112087
2537.672555,5592.497135,3849.070898,6365.771101
2537.672884,2528.115143,1406.391290,7402.059420
2537.673213,1302.362347,370.102971,7698.141797
2537.673543,-536.266849,-1406.391290,10732.986159
2537.673872,-3294.210641,-1850.514855,10288.862594
2537.674201,-4136.915689,-5255.462188,11399.171507
2537.674530,-5898.935335,-2442.679609,10214.842000
2537.674859,-2374.896044,-2368.659014,10140.821405
2537.675188,-2451.505594,-1628.453072,10362.883188
2537.675518,-612.876398,-0.000000,12435.459826
2537.675847,-842.705048,-74.020594,9696.697840
2537.676176,536.266849,-1110.308913,9992.780217
2537.676505,383.047749,2072.576638,8364.327145
2537.676834,1532.190996,-888.247130,11399.171507
2537.677164,3370.820191,-148.041188,9252.574275
2537.677493,5745.716235,2220.617826,4959.379811
2537.677822,6818.249932,1332.370696,6439.791695
2537.678151,3983.696590,2146.597232,4959.379811
2537.678480,4596.572988,3034.844362,7994.224174
2537.678810,2374.896044,2664.741391,5847.626942
2537.679139,1225.752797,-0.000000,7698.141797
2537.679468,-2298.286494,-2294.638420,10807.006753
2537.679797,-4213.525239,-3034.844362,11843.295072
2537.680126,-4979.620737,-5625.565159,12509.480420
2537.680455,-4443.353888,-2590.720797,9992.780217
2537.680785,-2834.553343,-1924.535449,11177.109724
2537.681114,-2451.505594,-1702.473667,11843.295072
2537.681443,-1838.629195,518.144159,11695.253884
2537.681772,-766.095498,-222.061783,9844.739029
2537.682101,1838.629195,518.144159,9326.594869
2537.682431,842.705048,1776.494261,7994.224174
2537.682760,3907.087040,-296.082377,13767.830521
2537.683089,4136.915689,1480.411884,4959.379811
2537.683418,7354.516781,1924.535449,7105.977043
2537.683747,4519.963438,1998.556043,3478.967927
2537.684076,4903.011187,4071.132681,5033.400406
2537.684406,2911.162892,2368.659014,6957.935855
2537.684735,2145.067394,1628.453072,6069.688724
2537.685064,0.000000,-2294.638420,10584.944971
2537.685393,-3753.867940,-2960.823768,10584.944971
2537.685722,-4290.134789,-3701.029710,10214.842000
2537.686052,-5592.497135,-4441.235652,12287.418637
2537.686381,-3140.991542,-2294.638420,9696.697840
2537.686710,-4136.915689,-2072.576638,11103.089130
2537.687039,-1685.410096,-1480.411884,12139.377449
2537.687368,-1149.143247,444.123565,9696.697840
2537.687697,1149.143247,-74.020594,8956.491898
2537.688027,536.266849,2368.659014,7328.038826
2537.688356,1149.143247,-0.000000,12065.356855
2537.688685,3294.210641,-296.082377,8512.368333
2537.689014,5439.278036,1998.556043,4959.379811
2537.689343,5975.544884,1110.308913,4885.359217
2537.689673,3524.039291,3108.864956,4367.215058
2537.690002,3600.648841,2664.741391,8734.430116
2537.690331,536.266849,370.102971,6883.915261
2537.690660,-306.438199,-1110.308913,9696.697840
2537.690989,-3217.601092,-2442.679609,11177.109724
2537.691319,-3753.867940,-2886.803174,9622.677246
2537.691648,-4979.620737,-3552.988522,11177.109724
2537.691977,-5056.230287,-2368.659014,12065.356855
2537.692306,-3677.258390,-1924.535449,11029.068536
2537.692635,-2451.505594,-1480.411884,12805.562797
2537.692964,-1149.143247,-222.061783,10288.862594
2537.693294,153.219100,-296.082377,8808.450710
2537.693623,766.095498,666.185348,9252.574275
2537.693952,229.828649,1406.391290,9178.553681
2537.694281,3830.477490,-1036.288319,11473.192101
2537.694610,5209.449386,2886.803174,3997.112087
2537.694940,7277.907231,1702.473667,6365.771101
2537.695269,3907.087040,2738.761985,3775.050304
2537.695598,4366.744339,3552.988522,5181.441594
2537.695927,2145.067394,1480.411884,6957.935855
2537.696256,1072.533697,740.205942,7624.121203
2537.696585,-1378.971896,-1776.494261,11621.233289
2537.696915,-3447.429741,-2294.638420,10807.006753
2537.697244,-4749.792088,-4293.194464,10807.006753
2537.697573,-5056.230287,-2960.823768,11843.295072
2537.697902,-3217.601092,-1702.473667,10214.842000
2537.698231,-2681.334243,-1554.432478,11917.315666
2537.698561,-1991.848295,-592.164754,11917.315666
2537.698890,-536.266849,-0.000000,9474.636058
2537.699219,1378.971896,-370.102971,9844.739029
2537.699548,229.828649,2590.720797,7328.038826
2537.699877,2298.286494,-1702.473667,13397.727550
2537.700207,3600.648841,148.041188,6513.812290
2537.700536,7277.907231,2294.638420,6587.832884
2537.700865,5669.106685,1036.288319,4737.318029
2537.701194,4366.744339,3627.009116,4663.297435
2537.701523,2987.772442,2072.576638,8808.450710
2537.701852,1072.533697,814.226536,7105.977043
2537.702182,0.000000,-1258.350101,10066.800811
2537.702511,-3447.429741,-2368.659014,11251.130318
2537.702840,-3600.648841,-2664.741391,9622.677246
2537.703169,-4979.620737,-3923.091493,12139.377449
2537.703498,-3064.381992,-1998.556043,10288.862594
2537.703828,-2757.943793,-1258.350101,10510.924376
2537.704157,-1378.971896,-1184.329507,12879.583391
2537.704486,-766.095498,666.185348,9326.594869
2537.704815,766.095498,-296.082377,9178.553681
2537.705144,-383.047749,518.144159,8586.388927
2537.705473,1072.533697,592.164754,10658.965565
2537.705803,3447.429741,-1258.350101,9548.656652
2537.706132,5286.058936,2368.659014,4589.276840
2537.706461,6588.421283,740.205942,6143.709319
2537.706790,4366.744339,2886.803174,3849.070898
2537.707119,3677.258390,2812.782580,6809.894666
2537.707449,1991.848295,1628.453072,6513.812290
2537.707778,689.485948,296.082377,7920.203579
2537.708107,-2145.067394,-1998.556043,11029.068536
2537.708436,-2834.553343,-2368.659014,11103.089130
2537.708765,-4903.011187,-3775.050304,9770.718434
2537.709094,-4443.353888,-2590.720797,11621.233289
2537.709424,-2834.553343,-1110.308913,9474.636058
2537.709753,-1455.581446,-888.247130,11843.295072
2537.710082,-1225.752797,-148.041188,11177.109724
2537.710411,459.657299,-0.000000,9918.759623
2537.710740,459.657299,-296.082377,9252.574275
2537.711070,536.266849,1406.391290,8882.471304
2537.711399,2451.505594,-1924.535449,12657.521608
2537.711728,3830.477490,1406.391290,6069.688724
2537.712057,6894.859482,1554.432478,6735.874072
2537.712386,4826.401637,1998.556043,4515.256246
2537.712716,3830.477490,3034.844362,5995.668130
2537.713045,1991.848295,1776.494261,7994.224174
2537.713374,612.876398,-0.000000,7476.080014
2537.713703,-1225.752797,-2146.597232,10658.965565
2537.714032,-3370.820191,-2442.679609,11695.253884
2537.714361,-4290.134789,-3478.967927,9474.636058
2537.714691,-5362.668486,-2960.823768,12287.418637
2537.715020,-3524.039291,-1702.473667,10436.903782
2537.715349,-2834.553343,-1036.288319,11621.233289
2537.715678,-1685.410096,-1480.411884,12509.480420
2537.716007,-1149.143247,-74.020594,9400.615463
2537.716337,1072.533697,-1110.308913,9770.718434
2537.716666,0.000000,1924.535449,7624.121203
2537.716995,995.924147,-296.082377,11843.295072
2537.717324,3600.648841,-296.082377,9030.512492
2537.717653,6511.811733,2368.659014,4441.235652
2537.717982,6205.373534,1702.473667,6143.709319
2537.718312,3600.648841,3552.988522,3478.967927
2537.718641,3753.867940,3034.844362,7550.100608
2537.718970,1225.752797,1258.350101,6587.832884
2537.719299,1072.533697,444.123565,7994.224174
2537.719628,-2451.505594,-2664.741391,11103.089130
2537.719958,-2834.553343,-3182.885551,10881.027347
2537.720287,-5056.230287,-3627.009116,10510.924376
2537.720616,-4060.306139,-3256.906145,11547.212695
2537.720945,-3140.991542,-1850.514855,10066.800811
2537.721274,-1149.143247,-1332.370696,12657.521608
2537.721603,-1378.971896,296.082377,10288.862594
2537.721933,536.266849,370.102971,9326.594869
2537.722262,612.876398,518.144159,8734.430116
2537.722591,153.219100,1258.350101,10510.924376
2537.722920,3524.039291,-666.185348,10584.944971
2537.723249,4826.401637,2738.761985,3775.050304
2537.723579,7048.078582,1480.411884,6587.832884
2537.723908,4136.915689,2886.803174,4145.153275
2537.724237,4673.182538,2664.741391,6809.894666
2537.724566,383.047749,962.267725,7402.059420
2537.724895,-153.219100,-1184.329507,8438.347739
2537.725225,-3064.381992,-2590.720797,12213.398043
2537.725554,-4060.306139,-2368.659014,9844.739029
2537.725883,-5898.935335,-3478.967927,10510.924376
2537.726212,-6128.763984,-2886.803174,12879.583391
2537.726541,-3677.258390,-1554.432478,10214.842000
2537.726870,-2068.457845,-962.267725,11769.274478
2537.727200,-842.705048,444.123565,10214.842000
2537.727529,459.657299,814.226536,8660.409521
2537.727858,459.657299,-0.000000,8956.491898
2537.728187,229.828649,1776.494261,9326.594869
2537.728516,3830.477490,-592.164754,9992.780217
2537.728845,5669.106685,2516.700203,3997.112087
2537.729174,7890.783629,666.185348,5625.565159
2537.729503,4366.744339,2368.659014,3923.091493
2537.729832,4596.572988,2442.679609,6513.812290
2537.730162,1225.752797,814.226536,6809.894666
2537.730491,612.876398,-370.102971,7920.203579
2537.730820,-1915.238745,-1850.514855,11325.150913
2537.731149,-3907.087040,-2738.761985,11917.315666
2537.731478,-5439.278036,-3849.070898,10881.027347
2537.731807,-4749.792088,-3182.885551,12583.501014
2537.732136,-2451.505594,-2442.679609,9622.677246
2537.732465,-1838.629195,-0.000000,11251.130318
2537.732794,0.000000,-0.000000,10881.027347
2537.733123,0.000000,1110.308913,9030.512492
2537.733453,689.485948,-518.144159,9400.615463
2537.733782,842.705048,222.061783,10955.047942
2537.734111,3830.477490,-1036.288319,9178.553681
2537.734440,5975.544884,2516.700203,5255.462188
2537.734769,7431.126331,888.247130,6069.688724
2537.735098,4826.401637,2664.741391,4737.318029
2537.735427,4749.792088,2664.741391,7179.997637
2537.735756,2068.457845,1998.556043,6439.791695
2537.736085,1149.143247,-0.000000,7698.141797
2537.736414,-1532.190996,-1924.535449,11695.253884
2537.736744,-3294.210641,-2960.823768,11473.192101
2537.737073,-5745.716235,-5107.421000,11769.274478
2537.737402,-5669.106685,-3034.844362,11473.192101
2537.737731,-3217.601092,-2590.720797,10510.924376
2537.738060,-2987.772442,-74.020594,10881.027347
2537.738389,-1378.971896,-148.041188,11177.109724
2537.738718,0.000000,222.061783,9474.636058
2537.739047,1685.410096,-370.102971,9178.553681
2537.739376,459.657299,2738.761985,8438.347739
2537.739705,2298.286494,-1998.556043,12805.562797
2537.740035,4366.744339,296.082377,6883.915261
2537.740364,8044.002729,1776.494261,6069.688724
2537.740693,5975.544884,1258.350101,4515.256246
2537.741022,5592.497135,2516.700203,5107.421000
2537.741351,3983.696590,3256.906145,7698.141797
2537.741680,2221.676944,2664.741391,6439.791695
2537.742009,1302.362347,370.102971,8808.450710
2537.742338,-2911.162892,-1258.350101,9696.697840
2537.742667,-3753.867940,-4367.215058,11843.295072
2537.742997,-5898.935335,-4737.318029,12139.377449
2537.743326,-4136.915689,-2368.659014,10807.006753
2537.743655,-2834.553343,-2664.741391,11177.109724
2537.743984,-1915.238745,-1184.329507,11325.150913
2537.744313,-1608.800546,740.205942,11029.068536
2537.744642,-612.876398,-814.226536,9918.759623
2537.744971,1378.971896,1110.308913,8512.368333
2537.745300,229.828649,3256.906145,8734.430116
2537.745629,2987.772442,-1998.556043,14508.036463
2537.745958,3447.429741,592.164754,5773.606348
2537.746288,7354.516781,2220.617826,7624.121203
2537.746617,4749.792088,1850.514855,3478.967927
2537.746946,4673.182538,3627.009116,5329.482782
2537.747275,2528.115143,3108.864956,7772.162391
2537.747604,1149.143247,1776.494261,6735.874072
2537.747933,-766.095498,-1998.556043,10881.027347
2537.748262,-4060.306139,-2664.741391,10955.047942
2537.748591,-4903.011187,-4737.318029,10214.842000
2537.748920,-6128.763984,-3849.070898,11399.171507
2537.749249,-4366.744339,-1924.535449,10510.924376
2537.749579,-4060.306139,-2590.720797,11547.212695
2537.749908,-2451.505594,-1036.288319,13101.645173
2537.750237,-1532.190996,-296.082377,9770.718434
2537.750566,1225.752797,-962.267725,9548.656652
2537.750895,612.876398,2590.720797,6587.832884
2537.751224,766.095498,888.247130,11473.192101
2537.751553,3830.477490,-888.247130,10140.821405
2537.751882,6205.373534,2664.741391,3923.091493
2537.752211,6894.859482,1776.494261,6069.688724
2537.752540,3064.381992,2590.720797,4145.153275
2537.752870,4366.744339,3034.844362,6735.874072
2537.753199,1915.238745,2442.679609,6291.750507
2537.753528,1225.752797,-0.000000,7846.182985
2537.753857,-2451.505594,-2220.617826,11251.130318
2537.754186,-3524.039291,-2516.700203,10362.883188
2537.754515,-5209.449386,-4145.153275,11399.171507
2537.754844,-4903.011187,-3034.844362,12583.501014
2537.755173,-2911.162892,-1924.535449,9992.780217
2537.755502,-1149.143247,-1850.514855,12287.418637
2537.755831,-536.266849,370.102971,11399.171507
2537.756161,0.000000,222.061783,8882.471304
2537.756490,689.485948,888.247130,8882.471304
2537.756819,842.705048,1628.453072,10881.027347
2537.757148,3753.867940,-666.185348,10066.800811
2537.757477,4519.963438,2812.782580,3923.091493
2537.757806,6818.249932,444.123565,6957.935855
2537.758135,3983.696590,2294.638420,4219.173869
2537.758464,4366.744339,2146.597232,7476.080014
2537.758793,1378.971896,592.164754,6587.832884
2537.759122,766.095498,-370.102971,7328.038826
2537.759452,-2374.896044,-2294.638420,11547.212695
2537.759781,-3677.258390,-2146.597232,10436.903782
2537.760110,-5592.497135,-4219.173869,10658.965565
2537.760439,-5132.839837,-3478.967927,12361.439231
2537.760768,-2834.553343,-2220.617826,9548.656652
2537.761097,-2451.505594,-592.164754,11325.150913
2537.761426,-1608.800546,-592.164754,11251.130318
2537.761755,-536.266849,-592.164754,9474.636058
2537.762084,766.095498,-0.000000,9474.636058
2537.762414,0.000000,2146.597232,8512.368333
2537.762743,1915.238745,-1998.556043,12287.418637
2537.763072,4136.915689,518.144159,6957.935855
2537.763401,7277.907231,2146.597232,5699.585753
2537.763730,5745.716235,1480.411884,4071.132681
2537.764059,4519.963438,3256.906145,4959.379811
2537.764388,3370.820191,2072.576638,8142.265362
2537.764717,1685.410096,1258.350101,6735.874072
2537.765046,689.485948,-222.061783,9326.594869
2537.765375,-2911.162892,-2368.659014,10658.965565
2537.765705,-3524.039291,-3849.070898,11917.315666
2537.766034,-4979.620737,-3701.029710,11547.212695
2537.766363,-2834.553343,-1850.514855,10362.883188
2537.766692,-2145.067394,-1924.535449,10584.944971
2537.767021,-612.876398,-888.247130,11473.192101
2537.767350,0.000000,814.226536,10140.821405
2537.767679,0.000000,-888.247130,9178.553681
2537.768008,536.266849,740.205942,9178.553681
2537.768337,1302.362347,-148.041188,11843.295072
2537.768666,2987.772442,-666.185348,8734.430116
2537.768996,4979.620737,1702.473667,6439.791695
2537.769325,6052.154434,1258.350101,6291.750507
2537.769654,4826.401637,2664.741391,4885.359217
2537.769983,4519.963438,2812.782580,8142.265362
2537.770312,1762.019645,2146.597232,6661.853478
2537.770641,1072.533697,518.144159,7920.203579
2537.770970,-2451.505594,-1776.494261,10955.047942
2537.771299,-3830.477490,-2812.782580,11325.150913
2537.771628,-5209.449386,-4737.318029,10881.027347
2537.771957,-4673.182538,-2442.679609,11769.274478
2537.772287,-2834.553343,-2368.659014,9844.739029
2537.772616,-2374.896044,-1184.329507,11325.150913
2537.772945,-2451.505594,-222.061783,11399.171507
2537.773274,-689.485948,-148.041188,10066.800811
2537.773603,842.705048,444.123565,9252.574275
2537.773932,76.609550,3034.844362,7328.038826
2537.774261,1838.629195,-1406.391290,13397.727550
2537.774590,4060.306139,-74.020594,7846.182985
2537.774919,6818.249932,1924.535449,5625.565159
2537.775248,5286.058936,2220.617826,4737.318029
2537.775578,4136.915689,2590.720797,4885.359217
2537.775907,3600.648841,2590.720797,8142.265362
2537.776236,1455.581446,1110.308913,7105.977043
2537.776565,919.314598,-592.164754,9104.533087
2537.776894,-3907.087040,-2516.700203,10881.027347
2537.777223,-3677.258390,-3182.885551,10658.965565
2537.777552,-4979.620737,-3330.926739,11251.130318
2537.777881,-3600.648841,-2072.576638,10881.027347
2537.778210,-2221.676944,-2294.638420,10066.800811
2537.778539,-612.876398,-1628.453072,12509.480420
2537.778869,0.000000,370.102971,10288.862594
2537.779198,459.657299,444.123565,8660.409521
2537.779527,0.000000,1036.288319,8882.471304
2537.779856,1378.971896,-0.000000,11843.295072
2537.780185,3064.381992,-148.041188,8734.430116
2537.780514,5362.668486,1776.494261,6365.771101
2537.780843,5439.278036,1406.391290,4885.359217
2537.781172,3983.696590,2960.823768,4959.379811
2537.781501,3294.210641,1924.535449,8068.244768
2537.781831,842.705048,666.185348,6957.935855
2537.782160,0.000000,-814.226536,8956.491898
2537.782489,-3447.429741,-2368.659014,10955.047942
2537.782818,-3983.696590,-2664.741391,9622.677246
2537.783147,-4596.572988,-3256.906145,10881.027347
2537.783476,-4213.525239,-2220.617826,11251.130318
2537.783805,-3064.381992,-1406.391290,9400.615463
2537.784134,-1838.629195,-1332.370696,12065.356855
2537.784463,-1532.190996,-148.041188,9992.780217
2537.784792,0.000000,-444.123565,9474.636058
2537.785122,536.266849,296.082377,8808.450710
2537.785451,459.657299,2220.617826,8290.306550
2537.785780,1838.629195,-2294.638420,13175.665768
2537.786109,3064.381992,222.061783,7105.977043
2537.786438,6281.983084,1776.494261,6735.874072
2537.786767,4213.525239,1776.494261,4367.215058
2537.787096,4060.306139,2294.638420,4959.379811
2537.787425,2451.505594,1702.473667,8216.285956
2537.787754,766.095498,444.123565,7550.100608
2537.788083,-229.828649,-666.185348,9548.656652
2537.788413,-3447.429741,-3256.906145,11177.109724
2537.788742,-4213.525239,-3923.091493,10807.006753
2537.789071,-4673.182538,-2664.741391,11399.171507
2537.789400,-2834.553343,-1702.473667,10881.027347
2537.789729,-2221.676944,-1924.535449,10436.903782
2537.790058,153.219100,222.061783,12287.418637
2537.790387,76.609550,1184.329507,9622.677246
2537.790716,919.314598,-0.000000,8512.368333
2537.791045,1225.752797,-518.144159,11917.315666
2537.791374,4213.525239,1036.288319,8512.368333
2537.791704,5898.935335,2072.576638,5107.421000
2537.792033,6281.983084,1258.350101,6439.791695
2537.792362,4826.401637,1850.514855,4737.318029
2537.792691,5362.668486,2664.741391,8142.265362
2537.793020,2298.286494,1332.370696,6217.729913
2537.793349,995.924147,-0.000000,7031.956449
2537.793678,-2221.676944,-2590.720797,11843.295072
2537.794007,-4366.744339,-2664.741391,10140.821405
2537.794336,-4673.182538,-4071.132681,11621.233289
2537.794665,-5286.058936,-3182.885551,11399.171507
2537.794995,-2987.772442,-2368.659014,10066.800811
2537.795324,-2987.772442,-0.000000,10807.006753
2537.795653,-383.047749,444.123565,10807.006753
2537.795982,0.000000,-370.102971,9030.512492
2537.796311,612.876398,-0.000000,8660.409521
2537.796640,1072.533697,888.247130,10881.027347
2537.796969,3753.867940,-74.020594,8660.409521
2537.797298,5975.544884,1702.473667,5699.585753
2537.797627,7201.297681,1628.453072,5329.482782
2537.797956,5592.497135,1998.556043,4811.338623
2537.798286,4213.525239,2442.679609,7624.121203
2537.798615,2221.676944,2368.659014,6587.832884
2537.798944,1225.752797,444.123565,7920.203579
2537.799273,-2068.457845,-1702.473667,10881.027347
2537.799602,-4366.744339,-2516.700203,10510.924376
2537.799931,-4979.620737,-5181.441594,12287.418637
2537.800260,-5592.497135,-3034.844362,11029.068536
2537.800589,-4060.306139,-3404.947333,10066.800811
2537.800918,-3524.039291,-1776.494261,11473.192101
2537.801248,-1532.190996,-0.000000,10807.006753
2537.801577,-459.657299,-0.000000,9400.615463
2537.801906,306.438199,-0.000000,9326.594869
2537.802235,842.705048,1332.370696,10584.944971
2537.802564,4443.353888,-0.000000,10288.862594
2537.802893,5439.278036,2072.576638,5625.565159
2537.803222,6894.859482,2294.638420,6513.812290
2537.803551,5439.278036,2590.720797,4441.235652
2537.803880,5132.839837,3552.988522,6513.812290
2537.804209,2604.724693,2590.720797,6957.935855
2537.804539,1225.752797,1184.329507,7254.018232
2537.804868,-1838.629195,-1480.411884,11251.130318
2537.805197,-4826.401637,-2738.761985,10955.047942
2537.805526,-5439.278036,-4959.379811,11325.150913
2537.805855,-6435.202183,-3997.112087,10955.047942
2537.806184,-4979.620737,-3552.988522,10362.883188
2537.806513,-4903.011187,-1702.473667,11103.089130
2537.806842,-2374.896044,-666.185348,11251.130318
2537.807171,-1532.190996,222.061783,9918.759623
2537.807500,536.266849,-0.000000,8956.491898
2537.807830,536.266849,2664.741391,7476.080014
2537.808159,1532.190996,-592.164754,11695.253884
2537.808488,4673.182538,222.061783,9104.533087
2537.808817,6358.592633,2294.638420,4959.379811
2537.809146,6511.811733,1628.453072,4737.318029
2537.809475,4443.353888,2442.679609,4367.215058
2537.809804,4213.525239,3330.926739,8216.285956
2537.810133,1685.410096,2072.576638,6661.853478
2537.810462,766.095498,222.061783,8364.327145
2537.810791,-2834.553343,-1776.494261,10362.883188
2537.811121,-3907.087040,-3404.947333,11103.089130
2537.811450,-5669.106685,-4811.338623,11399.171507
2537.811779,-4443.353888,-3256.906145,11547.212695
2537.812108,-4136.915689,-3108.864956,9548.656652
2537.812437,-2374.896044,-1480.411884,11769.274478
2537.812766,-1685.410096,518.144159,11251.130318
2537.813095,-766.095498,-0.000000,9622.677246
2537.813424,612.876398,-74.020594,9622.677246
2537.813753,459.657299,1702.473667,9548.656652
2537.814082,3294.210641,-1776.494261,13175.665768
2537.814412,4366.744339,1184.329507,6439.791695
2537.814741,7048.078582,2146.597232,8068.244768
2537.815070,5439.278036,1998.556043,4367.215058
2537.815399,5132.839837,2960.823768,5625.565159
2537.815728,3600.648841,3627.009116,6735.874072
2537.816057,2987.772442,2072.576638,5699.585753
2537.816386,1532.190996,962.267725,8068.244768
2537.816715,-4519.963438,-2294.638420,10881.027347
2537.817044,-4826.401637,-6069.688724,12287.418637
2537.817374,-6052.154434,-3256.906145,11103.089130
2537.817703,-3064.381992,-4367.215058,11399.171507
2537.818032,-4366.744339,-1702.473667,9844.739029
2537.818361,-2374.896044,-888.247130,11843.295072
2537.818690,-1685.410096,518.144159,10140.821405
2537.819019,0.000000,-222.061783,10214.842000
2537.819348,1532.190996,2072.576638,8216.285956
2537.819677,1149.143247,1702.473667,8660.409521
2537.820006,3983.696590,-1184.329507,13545.768739
2537.820335,3753.867940,1776.494261,2368.659014
2537.820665,7660.954980,814.226536,8142.265362
2537.820994,3907.087040,740.205942,3701.029710
2537.821323,6052.154434,4219.173869,6069.688724
2537.821652,2911.162892,3256.906145,6957.935855
2537.821981,2451.505594,1702.473667,5033.400406
2537.822310,-689.485948,-814.226536,10214.842000
2537.822639,-3753.867940,-4071.132681,10658.965565
2537.822968,-4749.792088,-4515.256246,11621.233289
2537.823297,-5592.497135,-5329.482782,12435.459826
2537.823626,-2451.505594,-2590.720797,9474.636058
2537.823956,-3140.991542,-1554.432478,12509.480420
2537.824285,-689.485948,-740.205942,11473.192101
2537.824614,-1225.752797,1924.535449,9918.759623
2537.824943,1532.190996,-592.164754,10584.944971
2537.825272,2145.067394,2220.617826,8956.491898
2537.825601,4290.134789,1554.432478,12435.459826
2537.825930,3677.258390,2146.597232,4071.132681
2537.826259,6205.373534,666.185348,7698.141797
2537.826588,4596.572988,2368.659014,5181.441594
2537.826917,4979.620737,3256.906145,5403.503377
2537.827247,2604.724693,2590.720797,7105.977043
2537.827576,2298.286494,1554.432478,6365.771101
2537.827905,-995.924147,-1702.473667,10584.944971
2537.828234,-5056.230287,-3775.050304,10288.862594
2537.828563,-4596.572988,-3627.009116,10955.047942
2537.828892,-6128.763984,-4737.318029,11621.233289
2537.829221,-3907.087040,-2812.782580,10584.944971
2537.829550,-4749.792088,-1628.453072,11029.068536
2537.829879,-2298.286494,-888.247130,11177.109724
2537.830209,-1532.190996,-370.102971,9992.780217
2537.830538,1225.752797,-592.164754,8882.471304
2537.830867,919.314598,2368.659014,7994.224174
2537.831196,1838.629195,-0.000000,12065.356855
2537.831525,3370.820191,222.061783,7402.059420
2537.831854,5745.716235,1924.535449,6217.729913
2537.832183,6128.763984,1110.308913,4737.318029
2537.832513,3830.477490,2368.659014,3627.009116
2537.832842,3677.258390,2960.823768,8068.244768
2537.833171,1455.581446,888.247130,6883.915261
2537.833500,383.047749,-518.144159,9844.739029
2537.833829,-3294.210641,-2368.659014,10288.862594
2537.834158,-4060.306139,-2886.803174,10288.862594
2537.834488,-5286.058936,-4737.318029,11695.253884
2537.834817,-3830.477490,-2738.761985,11399.171507
2537.835146,-2604.724693,-1776.494261,10288.862594
2537.835475,-2068.457845,-962.267725,11251.130318
2537.835804,-1532.190996,222.061783,10214.842000
2537.836133,-306.438199,-740.205942,9474.636058
2537.836462,689.485948,-0.000000,9400.615463
2537.836792,1072.533697,888.247130,11621.233289
2537.837121,3830.477490,-148.041188,8882.471304
2537.837450,5975.544884,2368.659014,6661.853478
2537.837779,6665.030833,2146.597232,5403.503377
2537.838108,4596.572988,3627.009116,5255.462188
2537.838437,4213.525239,2960.823768,7994.224174
2537.838766,2451.505594,2516.700203,5921.647536
2537.839096,1685.410096,962.267725,7624.121203
2537.839425,-2298.286494,-1184.329507,10510.924376
2537.839754,-4213.525239,-3256.906145,10584.944971
2537.840083,-4596.572988,-4589.276840,12361.439231
2537.840412,-3753.867940,-3775.050304,10807.006753
2537.840741,-3600.648841,-2220.617826,10140.821405
2537.841070,-3370.820191,-740.205942,11103.089130
2537.841400,-1915.238745,148.041188,11251.130318
2537.841729,-1378.971896,-518.144159,9696.697840
2537.842058,842.705048,222.061783,9400.615463
2537.842387,612.876398,1332.370696,8438.347739
2537.842716,2298.286494,-962.267725,12657.521608
2537.843045,3140.991542,962.267725,6439.791695
2537.843375,5975.544884,1850.514855,7476.080014
2537.843704,5439.278036,1628.453072,4441.235652
2537.844033,4903.011187,3108.864956,5403.503377
2537.844362,3830.477490,2664.741391,7772.162391
2537.844691,1072.533697,962.267725,7031.956449
2537.845020,-383.047749,-2146.597232,9992.780217
2537.845349,-3907.087040,-2442.679609,10732.986159
2537.845679,-3753.867940,-4293.194464,10807.006753
2537.846008,-5362.668486,-3849.070898,10732.986159
2537.846337,-2987.772442,-2072.576638,11621.233289
2537.846666,-2528.115143,-1776.494261,9992.780217
2537.846995,-1149.143247,-814.226536,11843.295072
2537.847324,-842.705048,148.041188,10288.862594
2537.847653,689.485948,-296.082377,9252.574275
2537.847983,459.657299,74.020594,9474.636058
2537.848312,2528.115143,1184.329507,11695.253884
2537.848641,3830.477490,1184.329507,5995.668130
2537.848970,6435.202183,1628.453072,7254.018232
2537.849299,5669.106685,2368.659014,5033.400406
2537.849628,4290.134789,3552.988522,6217.729913
2537.849957,3217.601092,2220.617826,6957.935855
2537.850287,2221.676944,2516.700203,6143.709319
2537.850616,0.000000,-1554.432478,9992.780217
2537.850945,-3217.601092,-1406.391290,9696.697840
2537.851274,-4136.915689,-3627.009116,11103.089130
2537.851603,-5975.544884,-4589.276840,10584.944971
2537.851932,-4060.306139,-2738.761985,11177.109724
2537.852262,-3983.696590,-1554.432478,10807.006753
2537.852591,-2604.724693,-296.082377,11029.068536
2537.852920,-1762.019645,-0.000000,10732.986159
2537.853249,-306.438199,-1258.350101,9770.718434
2537.853578,1225.752797,1258.350101,8660.409521
2537.853907,612.876398,1036.288319,9992.780217
2537.854236,4136.915689,-1480.411884,11917.315666
2537.854566,4136.915689,2368.659014,3997.112087
2537.854895,7431.126331,1998.556043,7476.080014
2537.855224,4519.963438,2960.823768,3849.070898
2537.855553,5515.887586,3997.112087,6661.853478
2537.855882,2604.724693,2368.659014,7105.977043
2537.856211,1915.238745,1702.473667,6217.729913
2537.856540,-1302.362347,-2368.659014,11251.130318
2537.856870,-4673.182538,-3552.988522,11325.150913
2537.857199,-5439.278036,-5329.482782,12065.356855
2537.857528,-6052.154434,-4367.215058,11843.295072
2537.857857,-3600.648841,-3108.864956,10362.883188
2537.858186,-4136.915689,-1850.514855,11843.295072
2537.858515,-2298.286494,-0.000000,12213.398043
2537.858844,-995.924147,740.205942,9918.759623
2537.859174,1991.848295,-0.000000,9696.697840
2537.859503,2528.115143,1036.288319,10584.944971
2537.859832,5439.278036,814.226536,9252.574275
2537.860161,6894.859482,1702.473667,5255.462188
2537.860490,7048.078582,2220.617826,5403.503377
2537.860819,5056.230287,2664.741391,4959.379811
2537.861149,5056.230287,3034.844362,7698.141797
2537.861478,2451.505594,2664.741391,6365.771101
2537.861807,2757.943793,2886.803174,5625.565159
2537.862136,-1225.752797,-888.247130,10362.883188
2537.862465,-4826.401637,-3701.029710,10732.986159
2537.862794,-5209.449386,-5255.462188,11991.336260
2537.863123,-5898.935335,-5033.400406,11399.171507
2537.863453,-5056.230287,-5033.400406,10436.903782
2537.863782,-5745.716235,-1258.350101,11843.295072
2537.864111,-2221.676944,-1258.350101,11843.295072
2537.864440,-2451.505594,518.144159,9474.636058
2537.864769,1608.800546,-0.000000,9400.615463
2537.865098,1762.019645,3478.967927,7328.038826
2537.865427,5898.935335,740.205942,12657.521608
2537.865757,4749.792088,2368.659014,2812.782580
2537.866086,7124.688131,1258.350101,7698.141797
2537.866415,4826.401637,2516.700203,5107.421000
2537.866744,5132.839837,4293.194464,4515.256246
2537.867073,2757.943793,3108.864956,7476.080014
2537.867402,1225.752797,2664.741391,5625.565159
2537.867731,-1225.752797,-2072.576638,11917.315666
2537.868061,-4136.915689,-4071.132681,11251.130318
2537.868390,-6128.763984,-3701.029710,9696.697840
2537.868719,-7124.688131,-7031.956449,13915.871710
2537.869048,-5822.325785,-3404.947333,9992.780217
2537.869377,-5209.449386,-2294.638420,11917.315666
2537.869706,-2681.334243,-1702.473667,12213.398043
2537.870036,-1991.848295,1332.370696,9252.574275
2537.870365,919.314598,-1480.411884,10584.944971
2537.870694,842.705048,2886.803174,6957.935855
2537.871023,4979.620737,962.267725,14804.118840
2537.871352,4749.792088,2812.782580,2368.659014
2537.871681,8273.831378,1702.473667,8512.368333
2537.872010,5132.839837,2516.700203,4885.359217
2537.872340,6588.421283,5033.400406,4219.173869
2537.872669,3064.381992,3182.885551,7846.182985
2537.872998,1302.362347,3182.885551,5403.503377
2537.873327,766.095498,-0.000000,10732.986159
2537.873656,-4519.963438,-3330.926739,10140.821405
2537.873985,-4749.792088,-5033.400406,11843.295072
2537.874314,-7277.907231,-4441.235652,10881.027347
2537.874644,-3753.867940,-5255.462188,11917.315666
2537.874973,-6052.154434,-1628.453072,10436.903782
2537.875302,-2298.286494,-2220.617826,12287.418637
2537.875631,-2528.115143,1332.370696,10066.800811
2537.875960,536.266849,-1110.308913,9696.697840
2537.876289,2145.067394,2442.679609,7328.038826
2537.876618,2145.067394,-0.000000,12435.459826
2537.876948,4673.182538,-518.144159,8734.430116
2537.877277,6358.592633,1480.411884,6439.791695
2537.877606,6741.640382,1480.411884,5181.441594
2537.877935,4443.353888,2220.617826,3775.050304
2537.878264,5669.106685,3923.091493,9474.636058
2537.878593,2145.067394,3108.864956,6291.750507
2537.878923,3830.477490,2368.659014,5403.503377
2537.879252,-306.438199,-740.205942,10288.862594
2537.879581,-4519.963438,-4441.235652,9696.697840
2537.879910,-4749.792088,-5403.503377,14434.015869
2537.880239,-4749.792088,-4515.256246,10658.965565
2537.880568,-3064.381992,-3182.885551,9696.697840
2537.880897,-3447.429741,-2072.576638,12435.459826
2537.881227,-1302.362347,148.041188,10510.924376
2537.881556,-1685.410096,-0.000000,10584.944971
2537.881885,1378.971896,222.061783,9622.677246
2537.882214,1762.019645,3182.885551,7402.059420
2537.882543,4136.915689,-740.205942,15470.304188
2537.882872,3907.087040,1924.535449,4145.153275
2537.883201,7584.345430,518.144159,8438.347739
2537.883531,5132.839837,1702.473667,4663.297435
2537.883860,6665.030833,4367.215058,4145.153275
2537.884189,4060.306139,2442.679609,8660.409521
2537.884518,1915.238745,4145.153275,4959.379811
2537.884847,2451.505594,370.102971,8734.430116
2537.885176,-2987.772442,-1776.494261,9178.553681
2537.885505,-5132.839837,-7031.956449,12361.439231
2537.885835,-6358.592633,-4219.173869,12213.398043
2537.886164,-3217.601092,-5107.421000,11251.130318
2537.886493,-4979.620737,-2368.659014,9178.553681
2537.886822,-3294.210641,-1998.556043,12435.459826
2537.887151,-2757.943793,592.164754,10214.842000
2537.887480,-995.924147,-1184.329507,10881.027347
2537.887809,2451.505594,1924.535449,7698.141797
2537.888139,1149.143247,2072.576638,8660.409521
2537.888468,3983.696590,444.123565,12583.501014
2537.888797,3830.477490,2072.576638,3330.926739
2537.889126,7048.078582,1332.370696,8216.285956
2537.889455,3830.477490,2738.761985,3552.988522
2537.889784,5898.935335,3256.906145,6809.894666
2537.890114,2221.676944,2368.659014,7624.121203
2537.890443,459.657299,1776.494261,5921.647536
2537.890772,-2221.676944,-2516.700203,11917.315666
2537.891101,-4673.182538,-2738.761985,10510.924376
2537.891430,-5745.716235,-5403.503377,10584.944971
2537.891759,-6052.154434,-4663.297435,13027.624579
2537.892088,-4443.353888,-2812.782580,9474.636058
2537.892418,-3524.039291,-2368.659014,11991.336260
2537.892747,-2757.943793,-592.164754,12065.356855
2537.893076,-842.705048,1036.288319,9252.574275
2537.893405,1685.410096,-296.082377,9622.677246
2537.893734,306.438199,3404.947333,8068.244768
2537.894063,4673.182538,148.041188,13397.727550
2537.894392,4213.525239,2664.741391,3330.926739
2537.894722,7277.907231,2738.761985,8660.409521
2537.895051,4903.011187,1628.453072,4367.215058
2537.895380,5362.668486,4515.256246,4589.276840
2537.895709,2681.334243,3034.844362,7105.977043
2537.896038,2374.896044,1332.370696,6143.709319
2537.896367,0.000000,-296.082377,9770.718434
2537.896696,-4213.525239,-3256.906145,10732.986159
2537.897026,-4903.011187,-4885.359217,11103.089130
2537.897355,-7048.078582,-5329.482782,11843.295072
2537.897684,-3370.820191,-4515.256246,11251.130318
2537.898013,-5056.230287,-962.267725,11029.068536
2537.898342,-1838.629195,-592.164754,11991.336260
2537.898671,-1915.238745,1110.308913,9622.677246
2537.899001,1378.971896,-518.144159,9030.512492
2537.899330,1072.533697,2664.741391,8142.265362
2537.899659,2451.505594,-888.247130,12879.583391
2537.899988,4060.306139,296.082377,7254.018232
2537.900317,6588.421283,1776.494261,6439.791695
2537.900646,6435.202183,1924.535449,4737.318029
2537.900975,4903.011187,2368.659014,4367.215058
2537.901305,4366.744339,2664.741391,8882.471304
2537.901634,2068.457845,1776.494261,6143.709319
2537.901963,1149.143247,-518.144159,9104.533087
2537.902292,-3294.210641,-2590.720797,10732.986159
2537.902621,-4366.744339,-3997.112087,10955.047942
2537.902950,-6281.983084,-4811.338623,12065.356855
2537.903279,-4519.963438,-3478.967927,11547.212695
2537.903609,-4596.572988,-2146.597232,10214.842000
2537.903938,-1608.800546,-962.267725,11399.171507
2537.904267,-1685.410096,666.185348,10288.862594
2537.904596,-153.219100,-1036.288319,9400.615463
2537.904925,1149.143247,888.247130,9252.574275
2537.905254,1455.581446,814.226536,11621.233289
2537.905583,4213.525239,-222.061783,8660.409521
2537.905913,5362.668486,2442.679609,5699.585753
2537.906242,7584.345430,1258.350101,6365.771101
2537.906571,4673.182538,2960.823768,4071.132681
2537.906900,4826.401637,2590.720797,7772.162391
2537.907229,2374.896044,2886.803174,5625.565159
2537.907558,2834.553343,1184.329507,6957.935855
2537.907888,-1225.752797,-592.164754,9992.780217
2537.908217,-3983.696590,-3256.906145,9992.780217
2537.908546,-5132.839837,-4811.338623,13545.768739
2537.908875,-5515.887586,-4071.132681,11177.109724
2537.909204,-3677.258390,-3256.906145,9622.677246
2537.909533,-3830.477490,-2072.576638,11399.171507
2537.909862,-1915.238745,-0.000000,11251.130318
2537.910192,-1378.971896,-222.061783,10066.800811
2537.910521,1838.629195,-0.000000,9030.512492
2537.910850,919.314598,2220.617826,8438.347739
2537.911179,3907.087040,-888.247130,14063.912898
2537.911508,3217.601092,2072.576638,4515.256246
2537.911837,7048.078582,1554.432478,8290.306550
2537.912166,5439.278036,2072.576638,4515.256246
2537.912496,4903.011187,4145.153275,5255.462188
2537.912825,3370.820191,2738.761985,8438.347739
2537.913154,1991.848295,3182.885551,5847.626942
2537.913483,0.000000,-1480.411884,10362.883188
2537.913812,-3983.696590,-2220.617826,9992.780217
2537.914141,-4213.525239,-4145.153275,10881.027347
2537.914470,-6128.763984,-4959.379811,11547.212695
2537.914800,-3830.477490,-3404.947333,11103.089130
2537.915129,-3753.867940,-2812.782580,10881.027347
2537.915458,-2298.286494,-1480.411884,11843.295072
2537.915787,-2145.067394,296.082377,10140.821405
2537.916116,153.219100,-1036.288319,10066.800811
2537.916445,995.924147,2368.659014,8364.327145
2537.916775,1302.362347,1554.432478,10658.965565
2537.917104,3447.429741,-148.041188,10510.924376
2537.917433,4826.401637,2294.638420,4441.235652
2537.917762,8120.612279,1776.494261,7105.977043
2537.918091,3677.258390,3108.864956,4071.132681
2537.918420,5056.230287,3701.029710,7920.203579
2537.918749,2451.505594,2960.823768,5699.585753
2537.919079,1991.848295,2072.576638,6365.771101
2537.919408,-1455.581446,-1184.329507,9696.697840
2537.919737,-3830.477490,-3034.844362,9474.636058
2537.920066,-4903.011187,-5477.523971,12213.398043
2537.920395,-5209.449386,-4071.132681,10658.965565
2537.920724,-3753.867940,-3404.947333,9992.780217
2537.921053,-4749.792088,-2960.823768,11769.274478
2537.921383,-2528.115143,-370.102971,11251.130318
2537.921712,-1455.581446,-148.041188,10140.821405
2537.922041,919.314598,-74.020594,9326.594869
2537.922370,612.876398,2960.823768,7254.018232
2537.922699,4290.134789,-148.041188,14211.954086
2537.923028,3524.039291,1480.411884,3923.091493
2537.923357,6894.859482,1258.350101,8068.244768
2537.923687,4903.011187,2812.782580,4441.235652
2537.924016,5515.887586,3330.926739,5625.565159
2537.924345,2604.724693,2368.659014,7476.080014
2537.924674,1608.800546,2368.659014,5921.647536
2537.925003,-612.876398,-2368.659014,11251.130318
2537.925332,-4443.353888,-2664.741391,10436.903782
2537.925662,-5056.230287,-5255.462188,10658.965565
2537.925991,-7201.297681,-4737.318029,12065.356855
2537.926320,-4826.401637,-3034.844362,11103.089130
2537.926649,-4749.792088,-1850.514855,11029.068536
2537.926978,-2374.896044,-888.247130,11991.336260
2537.927307,-1225.752797,1332.370696,9400.615463
2537.927636,1149.143247,-888.247130,9400.615463
2537.927966,919.314598,2072.576638,8438.347739
2537.928295,4903.011187,1184.329507,11251.130318
2537.928624,4903.011187,2516.700203,3330.926739
2537.928953,7354.516781,1628.453072,7476.080014
2537.929282,4903.011187,1776.494261,5033.400406
2537.929611,6358.592633,3627.009116,5847.626942
2537.929940,2987.772442,2294.638420,6513.812290
2537.930270,2681.334243,1110.308913,6513.812290
2537.930599,-1302.362347,-1628.453072,11399.171507
2537.930928,-3677.258390,-2960.823768,9992.780217
2537.931257,-5286.058936,-4515.256246,11843.295072
2537.931586,-6818.249932,-5403.503377,11843.295072
2537.931915,-4749.792088,-3775.050304,10214.842000
2537.932244,-4366.744339,-2294.638420,11991.336260
2537.932573,-2451.505594,-592.164754,10732.986159
2537.932903,-1608.800546,296.082377,9474.636058
2537.933232,689.485948,-518.144159,9326.594869
2537.933561,2298.286494,1628.453072,9770.718434
2537.933890,4673.182538,592.164754,9474.636058
2537.934219,6665.030833,1406.391290,4293.194464
2537.934548,6511.811733,1258.350101,6069.688724
2537.934877,5132.839837,1776.494261,6069.688724
2537.935206,5975.544884,3552.988522,6883.915261
2537.935535,3370.820191,3330.926739,6661.853478
2537.935864,3217.601092,2294.638420,6217.729913
2537.936194,76.609550,-148.041188,10214.842000
2537.936523,-3294.210641,-3478.967927,10732.986159
2537.936852,-4903.011187,-5181.441594,13027.624579
2537.937181,-6818.249932,-4811.338623,12065.356855
2537.937510,-4213.525239,-4737.318029,11177.109724
2537.937839,-4979.620737,-1554.432478,11251.130318
2537.938168,-2451.505594,-888.247130,10881.027347
2537.938497,-2451.505594,-0.000000,9548.656652
2537.938826,459.657299,-148.041188,9622.677246
2537.939155,1991.848295,1702.473667,9252.574275
2537.939485,4596.572988,1036.288319,10140.821405
2537.939814,6128.763984,2442.679609,5033.400406
2537.940143,7048.078582,444.123565,6809.894666
2537.940472,5592.497135,2590.720797,5551.544565
2537.940801,7354.516781,3923.091493,5773.606348
2537.941130,4903.011187,3775.050304,6809.894666
2537.941459,2987.772442,3849.070898,6143.709319
2537.941788,1762.019645,1258.350101,9104.533087
2537.942117,-3064.381992,-1480.411884,9622.677246
2537.942446,-5286.058936,-6957.935855,13101.645173
2537.942776,-6128.763984,-3775.050304,11251.130318
2537.943105,-4826.401637,-6291.750507,12213.398043
2537.943434,-6281.983084,-3182.885551,10140.821405
2537.943763,-4366.744339,-1998.556043,12509.480420
2537.944092,-3600.648841,-666.185348,10362.883188
2537.944421,-1838.629195,-444.123565,9770.718434
2537.944750,1378.971896,1406.391290,8216.285956
2537.945079,2681.334243,814.226536,10584.944971
2537.945408,4979.620737,2220.617826,9474.636058
2537.945737,6435.202183,962.267725,5551.544565
2537.946067,7048.078582,2146.597232,5181.441594
2537.946396,5132.839837,2442.679609,5477.523971
2537.946725,5975.544884,4145.153275,7402.059420
2537.947054,2757.943793,4663.297435,6513.812290
2537.947383,2068.457845,1184.329507,6809.894666
2537.947712,-1608.800546,-1036.288319,11325.150913
2537.948041,-4979.620737,-4885.359217,10807.006753
2537.948370,-5669.106685,-4219.173869,11769.274478
2537.948699,-6281.983084,-5403.503377,12361.439231
2537.949029,-6435.202183,-4515.256246,10140.821405
2537.949358,-5898.935335,-2664.741391,11991.336260
2537.949687,-3447.429741,-888.247130,11917.315666
2537.950016,-2911.162892,-370.102971,9696.697840
2537.950345,1378.971896,-148.041188,9104.533087
2537.950674,2298.286494,1406.391290,9770.718434
2537.951003,4826.401637,2294.638420,9326.594869
2537.951332,6741.640382,2442.679609,4811.338623
2537.951661,6971.469032,1850.514855,6809.894666
2537.951990,5822.325785,3330.926739,5255.462188
2537.952320,6818.249932,4515.256246,5847.626942
2537.952649,3217.601092,3849.070898,6661.853478
2537.952978,2451.505594,3701.029710,5699.585753
2537.953307,1378.971896,814.226536,10066.800811
2537.953636,-4443.353888,-3182.885551,10510.924376
2537.953965,-5362.668486,-7179.997637,13175.665768
2537.954294,-6052.154434,-3404.947333,10362.883188
2537.954623,-4519.963438,-7105.977043,12139.377449
2537.954952,-6281.983084,-2516.700203,9992.780217
2537.955281,-2987.772442,-1924.535449,11991.336260
2537.955611,-3524.039291,-74.020594,10436.903782
2537.955940,-229.828649,-0.000000,9770.718434
2537.956269,1532.190996,1554.432478,8734.430116
2537.956598,1149.143247,1184.329507,9178.553681
2537.956927,4519.963438,518.144159,12657.521608
2537.957256,5132.839837,1036.288319,3701.029710
2537.957585,6894.859482,1184.329507,7772.162391
2537.957914,3600.648841,1850.514855,5477.523971
2537.958243,6741.640382,3923.091493,7476.080014
2537.958572,2451.505594,3478.967927,6513.812290
2537.958902,2604.724693,3256.906145,4663.297435
2537.959231,919.314598,370.102971,8882.471304
2537.959560,-3753.867940,-3775.050304,9992.780217
2537.959889,-4903.011187,-7105.977043,13101.645173
2537.960218,-5286.058936,-4367.215058,12287.418637
2537.960547,-3217.601092,-4811.338623,9696.697840
2537.960876,-4596.572988,-2368.659014,10881.027347
2537.961205,-2987.772442,-1480.411884,11621.233289
2537.961534,-2987.772442,888.247130,10807.006753
2537.961863,0.000000,-518.144159,11325.150913
2537.962193,2068.457845,1480.411884,7920.203579
2537.962522,2145.067394,518.144159,10807.006753
2537.962851,4366.744339,-0.000000,11103.089130
2537.963180,5592.497135,1258.350101,2664.741391
2537.963509,6665.030833,1702.473667,6217.729913
2537.963838,4749.792088,1850.514855,3997.112087
2537.964167,5898.935335,3775.050304,7550.100608
2537.964496,1685.410096,3701.029710,6883.915261
2537.964825,2834.553343,2812.782580,4367.215058
2537.965155,-229.828649,-222.061783,8882.471304
2537.965484,-5286.058936,-4811.338623,9992.780217
2537.965813,-4596.572988,-5847.626942,13693.809927
2537.966142,-5515.887586,-4219.173869,11325.150913
2537.966471,-3064.381992,-4811.338623,10732.986159
2537.966800,-4060.306139,-1702.473667,11473.192101
2537.967129,-2374.896044,-1110.308913,12731.542202
2537.967458,-2528.115143,444.123565,10066.800811
2537.967787,919.314598,-296.082377,10807.006753
2537.968116,1455.581446,2368.659014,7402.059420
2537.968446,4519.963438,1702.473667,12287.418637
2537.968775,3753.867940,1924.535449,5181.441594
2537.969104,6971.469032,518.144159,7624.121203
2537.969433,5209.449386,2368.659014,5477.523971
2537.969762,5286.058936,3182.885551,4663.297435
2537.970091,3294.210641,3256.906145,7994.224174
2537.970420,1762.019645,4219.173869,5921.647536
2537.970749,229.828649,-0.000000,8438.347739
2537.971078,-3600.648841,-3034.844362,10807.006753
2537.971407,-4903.011187,-4145.153275,12139.377449
2537.971737,-5822.325785,-5255.462188,11917.315666
2537.972066,-4060.306139,-4737.318029,12435.459826
2537.972395,-4749.792088,-1332.370696,10510.924376
2537.972724,-2068.457845,-1702.473667,11769.274478
2537.973053,-2221.676944,518.144159,10436.903782
2537.973382,766.095498,-888.247130,10510.924376
2537.973711,1532.190996,1924.535449,8364.327145
2537.974040,4596.572988,1776.494261,11473.192101
2537.974369,4596.572988,2738.761985,4737.318029
2537.974698,6588.421283,1110.308913,7772.162391
2537.975028,5745.716235,2442.679609,4959.379811
2537.975357,5209.449386,3849.070898,4071.132681
2537.975686,3677.258390,2812.782580,7328.038826
2537.976015,1685.410096,3552.988522,4737.318029
2537.976344,1378.971896,740.205942,8586.388927
2537.976673,-3064.381992,-1776.494261,11029.068536
2537.977002,-5515.887586,-5921.647536,11843.295072
2537.977331,-6128.763984,-4441.235652,12361.439231
2537.977660,-4290.134789,-5773.606348,12731.542202
2537.977989,-6052.154434,-2072.576638,9992.780217
2537.978319,-3753.867940,-2738.761985,12065.356855
2537.978648,-3294.210641,-0.000000,10658.965565
2537.978977,-766.095498,-1332.370696,10584.944971
2537.979306,1532.190996,1850.514855,7846.182985
2537.979635,2298.286494,592.164754,10955.047942
2537.979964,4366.744339,1110.308913,9474.636058
2537.980293,5898.935335,1702.473667,5255.462188
2537.980622,6588.421283,1850.514855,4885.359217
2537.980951,4290.134789,2146.597232,4145.153275
2537.981280,4903.011187,3775.050304,7772.162391
2537.981610,2298.286494,3256.906145,6513.812290
2537.981939,2298.286494,2072.576638,5773.606348
2537.982268,-1378.971896,-962.267725,11547.212695
2537.982597,-4443.353888,-4219.173869,9696.697840
2537.982926,-5209.449386,-4219.173869,13101.645173
2537.983255,-6205.373534,-5033.400406,11843.295072
2537.983584,-4443.353888,-2590.720797,9992.780217
2537.983913,-4443.353888,-2146.597232,12731.542202
2537.984242,-2604.724693,370.102971,11103.089130
2537.984572,-1762.019645,-370.102971,10955.047942
2537.984901,1072.533697,-222.061783,9474.636058
2537.985230,1762.019645,2294.638420,7328.038826
2537.985559,3677.258390,-0.000000,13989.892304
2537.985888,2681.334243,1924.535449,4663.297435
2537.986217,7507.735880,962.267725,7994.224174
2537.986546,5056.230287,2220.617826,3701.029710
2537.986875,5362.668486,2738.761985,5847.626942
2537.987204,3753.867940,2960.823768,6957.935855
2537.987533,2451.505594,3552.988522,5551.544565
2537.987863,76.609550,-592.164754,10140.821405
2537.988192,-2757.943793,-1850.514855,10066.800811
2537.988521,-4519.963438,-4885.359217,11769.274478
2537.988850,-5286.058936,-5403.503377,12731.542202
2537.989179,-3830.477490,-2812.782580,9918.759623
2537.989508,-4060.306139,-2146.597232,11029.068536
2537.989837,-2987.772442,-1850.514855,11695.253884
2537.990166,-1991.848295,962.267725,11399.171507
2537.990495,0.000000,-1554.432478,10066.800811
2537.990824,1378.971896,1702.473667,7550.100608
2537.991154,2681.334243,444.123565,12879.583391
2537.991483,2911.162892,1258.350101,6217.729913
2537.991812,6971.469032,888.247130,7624.121203
2537.992141,6052.154434,1998.556043,5551.544565
2537.992470,4979.620737,2368.659014,5181.441594
2537.992799,3830.477490,2368.659014,7550.100608
2537.993128,2681.334243,3478.967927,5551.544565
2537.993457,2068.457845,740.205942,8142.265362
2537.993786,-1991.848295,-1628.453072,10066.800811
2537.994115,-4979.620737,-3478.967927,10955.047942
2537.994445,-5056.230287,-5921.647536,13545.768739
2537.994774,-4596.572988,-2886.803174,10066.800811
2537.995103,-4519.963438,-2442.679609,11547.212695
2537.995432,-3370.820191,-1480.411884,10658.965565
2537.995761,-1608.800546,1184.329507,10881.027347
2537.996090,153.219100,-1480.411884,9548.656652
2537.996419,1915.238745,1332.370696,7402.059420
2537.996748,4826.401637,1184.329507,13249.686362
2537.997077,4366.744339,2146.597232,3552.988522
2537.997406,6971.469032,1184.329507,8586.388927
2537.997736,5056.230287,1924.535449,5477.523971
2537.998065,6818.249932,4293.194464,4663.297435
2537.998394,3370.820191,2886.803174,7550.100608
2537.998723,2374.896044,3923.091493,5033.400406
2537.999052,2528.115143,1554.432478,8660.409521
2537.999381,-2451.505594,-2220.617826,10436.903782
2537.999710,-5286.058936,-5181.441594,11917.315666
2538.000039,-6588.421283,-4811.338623,13175.665768
2538.000368,-4979.620737,-6069.688724,11843.295072
2538.000697,-6128.763984,-2886.803174,10510.924376
2538.001027,-3907.087040,-1850.514855,11695.253884
2538.001356,-2374.896044,370.102971,10955.047942
2538.001685,0.000000,-962.267725,10066.800811
2538.002014,1838.629195,1406.391290,7402.059420
2538.002343,3370.820191,592.164754,12287.418637
2538.002672,4596.572988,1184.329507,8438.347739
2538.003001,6894.859482,1110.308913,6661.853478
2538.003330,5362.668486,1628.453072,5699.585753
2538.003659,6205.373534,3182.885551,5255.462188
2538.003989,4826.401637,3552.988522,7772.162391
2538.004318,2451.505594,3923.091493,7031.956449
2538.004647,2451.505594,2590.720797,6069.688724
2538.004976,-919.314598,-74.020594,10584.944971
2538.005305,-4903.011187,-4515.256246,10584.944971
2538.005634,-4826.401637,-4589.276840,12731.542202
2538.005963,-5592.497135,-4737.318029,10881.027347
2538.006292,-5132.839837,-4145.153275,10288.862594
2538.006621,-4673.182538,-1850.514855,12139.377449
2538.006950,-2451.505594,-444.123565,10436.903782
2538.007280,-1991.848295,-518.144159,10140.821405
2538.007609,1455.581446,518.144159,8956.491898
2538.007938,2221.676944,1036.288319,9400.615463
2538.008267,5286.058936,518.144159,10510.924376
2538.008596,5209.449386,1554.432478,3627.009116
2538.008925,5822.325785,1258.350101,6809.894666
2538.009254,4443.353888,2886.803174,4885.359217
2538.009583,5362.668486,3701.029710,6661.853478
2538.009912,2451.505594,3256.906145,7550.100608
2538.010241,2221.676944,3701.029710,4811.338623
2538.010571,-383.047749,-1480.411884,10658.965565
2538.010900,-4519.963438,-4145.153275,9770.718434
2538.011229,-4826.401637,-5107.421000,11991.336260
2538.011558,-6971.469032,-5847.626942,11251.130318
2538.011887,-5439.278036,-5255.462188,11473.192101
2538.012216,-6358.592633,-1924.535449,12287.418637
2538.012545,-2834.553343,-1406.391290,11251.130318
2538.012874,-2987.772442,666.185348,9696.697840
2538.013203,153.219100,-888.247130,9548.656652
2538.013532,1225.752797,1998.556043,8216.285956
2538.013862,4979.620737,888.247130,11991.336260
2538.014191,4979.620737,2664.741391,2960.823768
2538.014520,6052.154434,592.164754,8438.347739
2538.014849,4979.620737,2442.679609,5921.647536
2538.015178,6281.983084,4145.153275,4959.379811
2538.015507,4060.306139,2812.782580,7402.059420
2538.015836,2145.067394,4071.132681,4367.215058
2538.016165,1302.362347,-518.144159,10362.883188
2538.016494,-3140.991542,-2590.720797,10140.821405
2538.016823,-5056.230287,-5033.400406,11769.274478
2538.017153,-6588.421283,-4811.338623,11843.295072
2538.017482,-4519.963438,-5403.503377,11843.295072
2538.017811,-5669.106685,-1998.556043,11177.109724
2538.018140,-2374.896044,-2516.700203,10807.006753
2538.018469,-2987.772442,1036.288319,10658.965565
2538.018798,536.266849,-888.247130,10214.842000
2538.019127,2681.334243,2294.638420,7328.038826
2538.019456,4903.011187,1184.329507,11695.253884
2538.019785,5209.449386,2294.638420,3034.844362
2538.020114,6741.640382,222.061783,8586.388927
2538.020444,5439.278036,2368.659014,6143.709319
2538.020773,7354.516781,4737.318029,4367.215058
2538.021102,4673.182538,2442.679609,7920.203579
2538.021431,2068.457845,4959.379811,4885.359217
2538.021760,3064.381992,2294.638420,8216.285956
2538.022089,-1225.752797,444.123565,7476.080014
2538.022418,-5056.230287,-7105.977043,12065.356855
2538.022747,-5515.887586,-5773.606348,12805.562797
2538.023076,-4060.306139,-4737.318029,10510.924376
2538.023406,-5515.887586,-5921.647536,11769.274478
2538.023735,-5286.058936,-888.247130,11769.274478
2538.024064,-1991.848295,-148.041188,10955.047942
2538.024393,-1762.019645,370.102971,9696.697840
2538.024722,1532.190996,1332.370696,8142.265362
2538.025051,2145.067394,1184.329507,8290.306550
2538.025380,5822.325785,-74.020594,13471.748144
2538.025709,4519.963438,2220.617826,2368.659014
2538.026038,6818.249932,-518.144159,8438.347739
2538.026367,4290.134789,1924.535449,5847.626942
2538.026697,6358.592633,4515.256246,5773.606348
2538.027026,3524.039291,3330.926739,8142.265362
2538.027355,1608.800546,5329.482782,4219.173869
2538.027684,1302.362347,-518.144159,11029.068536
2538.028013,-3370.820191,-2516.700203,9696.697840
2538.028342,-4290.134789,-5329.482782,12435.459826
2538.028671,-6435.202183,-3775.050304,11547.212695
2538.029000,-3217.601092,-5181.441594,11103.089130
2538.029329,-5209.449386,-2146.597232,10732.986159
2538.029658,-1608.800546,-1924.535449,11103.089130
2538.029988,-2911.162892,740.205942,9474.636058
2538.030317,306.438199,-1406.391290,10584.944971
2538.030646,1991.848295,2442.679609,7105.977043
2538.030975,2528.115143,296.082377,11991.336260
2538.031304,3600.648841,740.205942,7402.059420
2538.031633,6205.373534,666.185348,7179.997637
2538.031962,6205.373534,1628.453072,4959.379811
2538.032292,4136.915689,3775.050304,4441.235652
2538.032621,4443.353888,2812.782580,9400.615463
2538.032950,995.924147,3701.029710,6735.874072
2538.033279,1072.533697,592.164754,7994.224174
2538.033608,-2528.115143,-1702.473667,11029.068536
2538.033937,-4673.182538,-3849.070898,10214.842000
2538.034266,-5209.449386,-5921.647536,12879.583391
2538.034596,-5132.839837,-3775.050304,10732.986159
2538.034925,-4596.572988,-2516.700203,9770.718434
2538.035254,-3753.867940,-2368.659014,11103.089130
2538.035583,-3064.381992,370.102971,11251.130318
2538.035912,-1225.752797,-1258.350101,10066.800811
2538.036241,1225.752797,296.082377,9474.636058
2538.036570,0.000000,2220.617826,7624.121203
2538.036900,2374.896044,-1776.494261,13915.871710
2538.037229,3140.991542,740.205942,7179.997637
2538.037558,7201.297681,1850.514855,7476.080014
2538.037887,4903.011187,1998.556043,4145.153275
2538.038216,4826.401637,3701.029710,5847.626942
2538.038545,3907.087040,4145.153275,8438.347739
2538.038874,2374.896044,3108.864956,6217.729913
2538.039204,1991.848295,666.185348,8068.244768
2538.039533,-1991.848295,-1036.288319,10140.821405
2538.039862,-4060.306139,-5255.462188,11399.171507
2538.040191,-4979.620737,-4589.276840,12287.418637
2538.040520,-2834.553343,-3627.009116,10362.883188
2538.040849,-2604.724693,-2590.720797,9400.615463
2538.041178,-1608.800546,-1554.432478,11325.150913
2538.041508,-995.924147,1110.308913,9770.718434
2538.041837,0.000000,148.041188,9770.718434
2538.042166,1072.533697,1480.411884,8216.285956
2538.042495,2068.457845,-148.041188,12583.501014
2538.042824,3907.087040,518.144159,8290.306550
2538.043153,5822.325785,1480.411884,6735.874072
2538.043482,5515.887586,1628.453072,5847.626942
2538.043812,3677.258390,2516.700203,5403.503377
2538.044141,4213.525239,2516.700203,8512.368333
2538.044470,2298.286494,3849.070898,6217.729913
2538.044799,2374.896044,1184.329507,7328.038826
2538.045128,-1991.848295,-1406.391290,9696.697840
2538.045457,-4443.353888,-4663.297435,10362.883188
2538.045786,-4903.011187,-5847.626942,12361.439231
2538.046116,-3907.087040,-4219.173869,10288.862594
2538.046445,-3447.429741,-2368.659014,10732.986159
2538.046774,-4060.306139,-814.226536,11103.089130
2538.047103,-1915.238745,296.082377,11621.233289
2538.047432,-1685.410096,-444.123565,10510.924376
2538.047761,842.705048,370.102971,9474.636058
2538.048090,459.657299,1998.556043,8364.327145
2538.048420,2145.067394,-1110.308913,13693.809927
2538.048749,3064.381992,1332.370696,6365.771101
2538.049078,6281.983084,888.247130,7550.100608
2538.049407,4826.401637,1480.411884,3923.091493
2538.049736,4596.572988,2516.700203,5033.400406
2538.050065,3370.820191,2886.803174,7846.182985
2538.050394,1915.238745,2960.823768,4959.379811
2538.050724,2145.067394,-666.185348,9030.512492
2538.051053,-2987.772442,-1702.473667,9992.780217
2538.051382,-3753.867940,-4663.297435,11325.150913
2538.051711,-5286.058936,-4515.256246,11843.295072
2538.052040,-2681.334243,-2738.761985,10288.862594
2538.052369,-3064.381992,-1628.453072,10658.965565
2538.052698,-1455.581446,-1258.350101,10881.027347
2538.053028,-1149.143247,1036.288319,10881.027347
2538.053357,0.000000,-1258.350101,9992.780217
2538.053686,1072.533697,1258.350101,8586.388927
2538.054015,1838.629195,-0.000000,12953.603985
2538.054344,3140.991542,222.061783,7402.059420
2538.054673,5745.716235,1480.411884,7476.080014
2538.055002,5592.497135,1628.453072,5403.503377
2538.055332,4213.525239,2590.720797,4367.215058
2538.055661,4213.525239,2516.700203,8808.450710
2538.055990,1838.629195,4145.153275,5551.544565
2538.056319,1762.019645,740.205942,8068.244768
2538.056648,-2451.505594,-2146.597232,10955.047942
2538.056977,-4290.134789,-3775.050304,10288.862594
2538.057306,-4060.306139,-5329.482782,13323.706956
2538.057636,-3524.039291,-3775.050304,10955.047942
2538.057965,-2834.553343,-2220.617826,9770.718434
2538.058294,-2757.943793,-1258.350101,10732.986159
2538.058623,-1685.410096,1036.288319,11399.171507
2538.058952,-1225.752797,-740.205942,9918.759623
2538.059281,1072.533697,740.205942,8586.388927
2538.059610,689.485948,962.267725,10288.862594
2538.059940,2834.553343,-1110.308913,11325.150913
2538.060269,3370.820191,740.205942,5033.400406
2538.060598,5975.544884,666.185348,7846.182985
2538.060927,4519.963438,1850.514855,4367.215058
2538.061256,4673.182538,2812.782580,6735.874072
2538.061585,2451.505594,3108.864956,6365.771101
