#time,accel_x,accel_y,accel_z
2710.432260,536.266849,-148.041188,9400.615463
2710.432589,229.828649,-148.041188,9252.574275
2710.432918,306.438199,-296.082377,9252.574275
2710.433247,306.438199,-0.000000,9178.553681
2710.433575,229.828649,-74.020594,9252.574275
2710.433904,229.828649,-0.000000,9178.553681
2710.434233,-306.438199,-222.061783,9326.594869
2710.434562,919.314598,-148.041188,9474.636058
2710.434891,306.438199,-148.041188,9252.574275
2710.435220,306.438199,-222.061783,9178.553681
2710.435549,153.219100,-296.082377,9178.553681
2710.435878,383.047749,-148.041188,9178.553681
2710.436207,153.219100,-444.123565,9400.615463
2710.436536,612.876398,-296.082377,9474.636058
2710.436865,383.047749,-0.000000,9030.512492
2710.437194,383.047749,-0.000000,9178.553681
2710.437523,306.438199,-74.020594,8882.471304
2710.437852,459.657299,-0.000000,8808.450710
2710.438181,459.657299,-0.000000,8882.471304
2710.438510,229.828649,-0.000000,9326.594869
2710.438839,153.219100,-370.102971,8956.491898
2710.439168,76.609550,-296.082377,9178.553681
2710.439496,76.609550,-74.020594,8956.491898
2710.439825,153.219100,-222.061783,9104.533087
2710.440154,229.828649,-0.000000,8808.450710
2710.440483,153.219100,-0.000000,9030.512492
2710.440812,229.828649,-74.020594,8808.450710
2710.441141,-536.266849,-74.020594,9326.594869
2710.441470,766.095498,-0.000000,9030.512492
2710.441799,536.266849,-0.000000,9104.533087
2710.442128,306.438199,-0.000000,8882.471304
2710.442457,383.047749,-0.000000,8808.450710
2710.442786,306.438199,-222.061783,8882.471304
2710.443115,306.438199,-222.061783,9400.615463
2710.443444,689.485948,-370.102971,8882.471304
2710.443773,383.047749,-148.041188,9474.636058
2710.444102,229.828649,-518.144159,9252.574275
2710.444431,153.219100,-296.082377,9326.594869
2710.444760,76.609550,-296.082377,9326.594869
2710.445089,76.609550,-222.061783,9326.594869
2710.445418,383.047749,-148.041188,9030.512492
2710.445746,919.314598,-222.061783,9178.553681
2710.446075,153.219100,-222.061783,9252.574275
2710.446404,306.438199,-0.000000,9104.533087
2710.446733,383.047749,-74.020594,9104.533087
2710.447062,306.438199,-74.020594,9030.512492
2710.447391,229.828649,-222.061783,9178.553681
2710.447720,0.000000,-518.144159,9104.533087
2710.448049,766.095498,-444.123565,9252.574275
2710.448378,383.047749,-296.082377,8660.409521
2710.448707,383.047749,-0.000000,9400.615463
2710.449036,229.828649,-0.000000,8882.471304
2710.449365,383.047749,-74.020594,8882.471304
2710.449694,383.047749,222.061783,8808.450710
2710.450023,459.657299,-0.000000,8734.430116
2710.450352,612.876398,370.102971,8808.450710
2710.450681,459.657299,-222.061783,8808.450710
2710.451010,383.047749,-296.082377,8808.450710
2710.451339,383.047749,-74.020594,8956.491898
2710.451667,153.219100,-74.020594,8882.471304
2710.451996,229.828649,-148.041188,9030.512492
2710.452325,536.266849,-370.102971,8882.471304
2710.452654,306.438199,-222.061783,8438.347739
2710.452983,306.438199,444.123565,9622.677246
2710.453312,153.219100,-0.000000,9104.533087
2710.453641,229.828649,-222.061783,9030.512492
2710.453970,229.828649,-0.000000,8956.491898
2710.454299,383.047749,-148.041188,8882.471304
2710.454628,766.095498,-444.123565,8734.430116
2710.454957,536.266849,-444.123565,9104.533087
2710.455286,229.828649,-444.123565,9178.553681
2710.455615,306.438199,-370.102971,9252.574275
2710.455944,76.609550,-148.041188,9252.574275
2710.456273,229.828649,-370.102971,9326.594869
2710.456602,153.219100,-222.061783,9178.553681
2710.456931,0.000000,-518.144159,9400.615463
2710.457260,459.657299,-444.123565,9326.594869
2710.457589,459.657299,-444.123565,9326.594869
2710.457917,459.657299,-74.020594,9104.533087
2710.458246,229.828649,-0.000000,9030.512492
2710.458575,459.657299,-74.020594,9104.533087
2710.458904,306.438199,-0.000000,9030.512492
2710.459233,459.657299,-222.061783,9030.512492
2710.459562,153.219100,222.061783,9400.615463
2710.459891,383.047749,-222.061783,9104.533087
2710.460220,0.000000,-296.082377,8956.491898
2710.460549,76.609550,-0.000000,9104.533087
2710.460878,229.828649,-148.041188,8734.430116
2710.461207,306.438199,-0.000000,8808.450710
2710.461536,76.609550,444.123565,8808.450710
2710.461865,459.657299,-222.061783,8660.409521
2710.462194,459.657299,-0.000000,9178.553681
2710.462523,383.047749,-74.020594,9104.533087
2710.462852,919.314598,-740.205942,9548.656652
2710.463181,1302.362347,-888.247130,9178.553681
2710.463510,1532.190996,-666.185348,9326.594869
2710.463838,1838.629195,-666.185348,9622.677246
2710.464167,2451.505594,-222.061783,9030.512492
2710.464496,3064.381992,592.164754,8882.471304
2710.464825,3524.039291,-296.082377,8882.471304
2710.465154,3907.087040,-74.020594,8438.347739
2710.465483,3064.381992,444.123565,8660.409521
2710.465812,3294.210641,592.164754,8290.306550
2710.466141,2987.772442,-370.102971,9030.512492
2710.466470,3217.601092,444.123565,9400.615463
2710.466799,2068.457845,-814.226536,9400.615463
2710.467128,1532.190996,-1258.350101,10140.821405
2710.467457,2374.896044,-2220.617826,9474.636058
2710.467786,2911.162892,-148.041188,9474.636058
2710.468115,2451.505594,-1036.288319,9770.718434
2710.468444,3447.429741,-814.226536,9474.636058
2710.468773,3447.429741,148.041188,9326.594869
2710.469102,4903.011187,962.267725,8734.430116
2710.469431,5056.230287,962.267725,7476.080014
2710.469759,4903.011187,1554.432478,9104.533087
2710.470088,5439.278036,1036.288319,7920.203579
2710.470417,3983.696590,888.247130,7772.162391
2710.470746,3600.648841,-0.000000,9104.533087
2710.471075,2757.943793,-74.020594,8586.388927
2710.471404,2374.896044,-518.144159,9474.636058
2710.471733,459.657299,-1554.432478,9474.636058
2710.472062,1455.581446,-666.185348,9844.739029
2710.472391,766.095498,-1332.370696,9474.636058
2710.472720,1302.362347,-592.164754,9622.677246
2710.473049,1378.971896,-444.123565,9696.697840
2710.473378,2451.505594,666.185348,9548.656652
2710.473707,3140.991542,148.041188,8216.285956
2710.474036,4366.744339,1258.350101,9474.636058
2710.474365,4213.525239,666.185348,7624.121203
2710.474694,4673.182538,1184.329507,8068.244768
2710.475023,4366.744339,666.185348,8956.491898
2710.475352,3830.477490,-0.000000,8808.450710
2710.475681,3217.601092,-740.205942,9104.533087
2710.476009,2298.286494,-1924.535449,9918.759623
2710.476338,1991.848295,-1258.350101,10362.883188
2710.476667,1685.410096,-2072.576638,9918.759623
2710.476996,2068.457845,-1702.473667,10066.800811
2710.477325,2604.724693,-1332.370696,9770.718434
2710.477654,3524.039291,-444.123565,9548.656652
2710.477983,3064.381992,148.041188,8512.368333
2710.478312,4749.792088,1258.350101,8438.347739
2710.478641,4366.744339,2220.617826,8438.347739
2710.478970,4826.401637,2442.679609,7476.080014
2710.479299,4443.353888,2368.659014,7550.100608
2710.479628,3830.477490,1998.556043,7920.203579
2710.479957,3064.381992,888.247130,7920.203579
2710.480286,2451.505594,-666.185348,8882.471304
2710.480615,2834.553343,-1406.391290,10436.903782
2710.480944,1838.629195,-2886.803174,10510.924376
2710.481273,1455.581446,-2664.741391,10658.965565
2710.481602,2221.676944,-2812.782580,10807.006753
2710.481930,2834.553343,-1924.535449,10510.924376
2710.482259,3907.087040,-222.061783,9844.739029
2710.482588,5592.497135,-444.123565,9400.615463
2710.482917,6128.763984,1184.329507,8660.409521
2710.483246,5132.839837,2368.659014,8512.368333
2710.483575,4903.011187,3108.864956,7328.038826
2710.483904,4366.744339,4145.153275,6957.935855
2710.484233,4136.915689,2738.761985,7254.018232
2710.484562,3983.696590,2590.720797,6069.688724
2710.484891,3524.039291,518.144159,8290.306550
2710.485220,919.314598,-2738.761985,9770.718434
2710.485549,-306.438199,-3997.112087,10732.986159
2710.485878,-842.705048,-4441.235652,11991.336260
2710.486207,-919.314598,-5329.482782,11917.315666
2710.486536,-1149.143247,-2072.576638,10362.883188
2710.486865,306.438199,-1850.514855,10807.006753
2710.487194,2145.067394,296.082377,10584.944971
2710.487523,4290.134789,1702.473667,9474.636058
2710.487852,7201.297681,1184.329507,8512.368333
2710.488180,7048.078582,1406.391290,7846.182985
2710.488509,6205.373534,666.185348,7698.141797
2710.488838,5822.325785,2072.576638,6365.771101
2710.489167,5362.668486,1554.432478,7179.997637
2710.489496,5362.668486,1924.535449,6217.729913
2710.489825,4979.620737,2664.741391,6661.853478
2710.490154,4749.792088,1924.535449,6809.894666
2710.490483,4749.792088,592.164754,6513.812290
2710.490812,2528.115143,-3404.947333,9400.615463
2710.491141,0.000000,-6809.894666,12287.418637
2710.491470,-766.095498,-2886.803174,11325.150913
2710.491799,-842.705048,-5847.626942,13989.892304
2710.492128,-1532.190996,-3775.050304,11695.253884
2710.492457,766.095498,740.205942,12139.377449
2710.492786,3370.820191,-74.020594,11177.109724
2710.493115,4366.744339,2220.617826,9030.512492
2710.493444,7201.297681,962.267725,9400.615463
2710.493773,7048.078582,1924.535449,9178.553681
2710.494101,7584.345430,3849.070898,5995.668130
2710.494430,6971.469032,3330.926739,5921.647536
2710.494759,7277.907231,962.267725,5329.482782
2710.495088,7201.297681,1998.556043,5773.606348
2710.495417,5975.544884,962.267725,6439.791695
2710.495746,4290.134789,1628.453072,6291.750507
2710.496075,4519.963438,1924.535449,6587.832884
2710.496404,3217.601092,-2220.617826,9844.739029
2710.496733,-1225.752797,-5551.544565,11843.295072
2710.497062,-2604.724693,-1332.370696,11473.192101
2710.497391,-919.314598,-4885.359217,13545.768739
2710.497720,-995.924147,-3627.009116,10881.027347
2710.498049,0.000000,1998.556043,12361.439231
2710.498378,1762.019645,-74.020594,10658.965565
2710.498707,229.828649,1554.432478,11769.274478
2710.499036,6128.763984,-1480.411884,10436.903782
2710.499365,8886.707777,1480.411884,5625.565159
2710.499694,6741.640382,1110.308913,7550.100608
2710.500022,5745.716235,740.205942,6587.832884
2710.500351,6128.763984,1554.432478,5921.647536
2710.500680,5822.325785,-0.000000,8216.285956
2710.501009,4979.620737,1850.514855,4589.276840
2710.501338,4673.182538,2590.720797,9696.697840
2710.501667,2451.505594,1628.453072,7179.997637
2710.501996,3907.087040,814.226536,8882.471304
2710.502325,1838.629195,-370.102971,9326.594869
2710.502654,1225.752797,-3330.926739,11991.336260
2710.502983,-383.047749,-1332.370696,11547.212695
2710.503312,459.657299,-5403.503377,13101.645173
2710.503641,-383.047749,-666.185348,9548.656652
2710.503970,2145.067394,-148.041188,11177.109724
2710.504299,1762.019645,814.226536,8882.471304
2710.504628,2911.162892,1036.288319,8290.306550
2710.504957,3370.820191,592.164754,7698.141797
2710.505286,3983.696590,1998.556043,8068.244768
2710.505615,4213.525239,962.267725,6661.853478
2710.505944,3677.258390,-1480.411884,7920.203579
2710.506272,2681.334243,-1110.308913,8512.368333
2710.506601,3217.601092,-2368.659014,9548.656652
2710.506930,2298.286494,-1258.350101,9696.697840
2710.507259,1915.238745,-74.020594,9696.697840
2710.507588,2757.943793,-296.082377,9770.718434
2710.507917,3830.477490,1554.432478,9992.780217
2710.508246,3753.867940,1554.432478,9326.594869
2710.508575,3677.258390,370.102971,8956.491898
2710.508904,4749.792088,1702.473667,7772.162391
2710.509233,5745.716235,1258.350101,9252.574275
2710.509558,4903.011187,1036.288319,7994.224174
2710.509887,4596.572988,-296.082377,8364.327145
2710.510216,4443.353888,-1110.308913,8142.265362
2710.510545,3370.820191,222.061783,7994.224174
2710.510874,2145.067394,-370.102971,9252.574275
2710.511203,612.876398,-1628.453072,10066.800811
2710.511531,0.000000,-1628.453072,10584.944971
2710.511860,1149.143247,-2146.597232,10658.965565
2710.512189,1302.362347,-1628.453072,9474.636058
2710.512518,1149.143247,-1480.411884,10362.883188
2710.512847,1915.238745,-1702.473667,11547.212695
2710.513176,3524.039291,740.205942,9770.718434
2710.513505,5592.497135,2072.576638,8734.430116
2710.513834,6818.249932,1480.411884,8586.388927
2710.514162,5439.278036,2146.597232,8586.388927
2710.514491,5286.058936,1036.288319,8512.368333
2710.514820,6052.154434,1184.329507,7105.977043
2710.515149,6588.421283,148.041188,7698.141797
2710.515478,5669.106685,518.144159,7105.977043
2710.515807,4903.011187,1258.350101,8068.244768
2710.516136,3830.477490,814.226536,7772.162391
2710.516465,3677.258390,-2294.638420,8956.491898
2710.516793,2374.896044,-2664.741391,9622.677246
2710.517122,995.924147,444.123565,11325.150913
2710.517451,459.657299,-2590.720797,11473.192101
2710.517780,229.828649,-0.000000,8956.491898
2710.518109,2068.457845,-1110.308913,10288.862594
2710.518438,3524.039291,370.102971,9474.636058
2710.518767,4290.134789,-0.000000,8734.430116
2710.519096,4366.744339,1998.556043,7328.038826
2710.519424,5975.544884,1406.391290,8216.285956
2710.519753,4749.792088,962.267725,7624.121203
2710.520082,4673.182538,-0.000000,6661.853478
2710.520411,2987.772442,444.123565,7772.162391
2710.520740,1455.581446,-1332.370696,8956.491898
2710.521069,1455.581446,-1406.391290,8734.430116
2710.521398,612.876398,-1258.350101,10584.944971
2710.521727,-1838.629195,-2886.803174,10732.986159
2710.522056,-1838.629195,-814.226536,9992.780217
2710.522384,-536.266849,-1628.453072,10436.903782
2710.522713,-383.047749,-222.061783,9918.759623
2710.523042,766.095498,-888.247130,10362.883188
2710.523371,2145.067394,-222.061783,9844.739029
2710.523700,2298.286494,-0.000000,8586.388927
2710.524029,2911.162892,1258.350101,8956.491898
2710.524358,3447.429741,1184.329507,8142.265362
2710.524687,4213.525239,1850.514855,7179.997637
2710.525015,4366.744339,2442.679609,6809.894666
2710.525344,3600.648841,1258.350101,8068.244768
2710.525673,2451.505594,-74.020594,8956.491898
2710.526002,1532.190996,-666.185348,8216.285956
2710.526331,-536.266849,-592.164754,8364.327145
2710.526660,-2987.772442,-740.205942,10066.800811
2710.526989,-2451.505594,-1850.514855,10732.986159
2710.527318,-1915.238745,-962.267725,9696.697840
2710.527646,-1378.971896,-296.082377,10362.883188
2710.527975,-1915.238745,-666.185348,9844.739029
2710.528304,-1302.362347,-888.247130,9104.533087
2710.528633,-459.657299,-0.000000,10658.965565
2710.528962,-1455.581446,-370.102971,9992.780217
2710.529291,-306.438199,-592.164754,9326.594869
2710.529620,-536.266849,-74.020594,8808.450710
2710.529949,0.000000,-1036.288319,11103.089130
2710.530277,1302.362347,-1258.350101,9400.615463
2710.530606,1762.019645,1406.391290,6365.771101
2710.530935,2451.505594,1776.494261,7328.038826
2710.531264,1915.238745,2664.741391,7994.224174
2710.531593,1915.238745,962.267725,7328.038826
2710.531922,1225.752797,370.102971,7772.162391
2710.532251,995.924147,-814.226536,9474.636058
2710.532580,229.828649,-1850.514855,9992.780217
2710.532908,-1225.752797,-2146.597232,8586.388927
2710.533237,-995.924147,-1628.453072,11399.171507
2710.533566,-842.705048,-1036.288319,10807.006753
2710.533895,0.000000,-1702.473667,9622.677246
2710.534224,0.000000,-1628.453072,9622.677246
2710.534553,1149.143247,148.041188,10955.047942
2710.534882,2451.505594,814.226536,8290.306550
2710.535211,2068.457845,740.205942,7402.059420
2710.535539,2451.505594,1554.432478,8216.285956
2710.535868,2987.772442,2516.700203,7846.182985
2710.536197,3064.381992,1554.432478,6809.894666
2710.536526,1608.800546,666.185348,7476.080014
2710.536855,1915.238745,-296.082377,9548.656652
2710.537184,536.266849,-1702.473667,8956.491898
2710.537513,-1455.581446,-1184.329507,8956.491898
2710.537842,-1838.629195,-2738.761985,11843.295072
2710.538170,-1225.752797,-518.144159,10881.027347
2710.538499,-842.705048,-1258.350101,9104.533087
2710.538828,-306.438199,-1258.350101,10510.924376
2710.539157,-76.609550,-1036.288319,10732.986159
2710.539486,919.314598,-0.000000,8734.430116
2710.539815,1072.533697,592.164754,8068.244768
2710.540144,689.485948,1036.288319,9178.553681
2710.540473,2528.115143,1332.370696,7846.182985
2710.540801,1915.238745,1850.514855,6143.709319
2710.541130,536.266849,1036.288319,8808.450710
2710.541459,1072.533697,-888.247130,8882.471304
2710.541788,153.219100,-592.164754,7920.203579
2710.542117,-2068.457845,-1776.494261,8882.471304
2710.542446,-1225.752797,-1036.288319,10807.006753
2710.542775,-2145.067394,-1702.473667,8808.450710
2710.543104,-842.705048,-814.226536,9178.553681
2710.543432,-306.438199,-1184.329507,10732.986159
2710.543761,-766.095498,-518.144159,10140.821405
2710.544090,-536.266849,-814.226536,9104.533087
2710.544419,-919.314598,-0.000000,9622.677246
2710.544748,-766.095498,148.041188,9770.718434
2710.545077,229.828649,1110.308913,6957.935855
2710.545406,1532.190996,-74.020594,8808.450710
2710.545735,1378.971896,1110.308913,8438.347739
2710.546064,1762.019645,-518.144159,7772.162391
2710.546392,995.924147,-518.144159,7624.121203
2710.546721,76.609550,-0.000000,9252.574275
2710.547050,153.219100,-0.000000,9326.594869
2710.547379,-383.047749,-888.247130,8882.471304
2710.547708,-536.266849,-444.123565,10658.965565
2710.548037,-229.828649,-518.144159,10881.027347
2710.548366,229.828649,592.164754,9104.533087
2710.548695,306.438199,-444.123565,9918.759623
2710.549023,0.000000,518.144159,9992.780217
2710.549352,229.828649,814.226536,9326.594869
2710.549681,689.485948,-0.000000,8216.285956
2710.550010,612.876398,-222.061783,8660.409521
2710.550339,1072.533697,370.102971,8882.471304
2710.550668,1608.800546,222.061783,7105.977043
2710.550997,383.047749,-74.020594,7698.141797
2710.551326,0.000000,-518.144159,9474.636058
2710.551654,229.828649,-518.144159,8882.471304
2710.551983,0.000000,-592.164754,7772.162391
2710.552312,0.000000,-1406.391290,9696.697840
2710.552641,919.314598,-444.123565,9696.697840
2710.552970,0.000000,296.082377,8660.409521
2710.553299,0.000000,-74.020594,9400.615463
2710.553628,-919.314598,-0.000000,10658.965565
2710.553957,0.000000,296.082377,9400.615463
2710.554285,229.828649,518.144159,8364.327145
2710.554614,-995.924147,-0.000000,9696.697840
2710.554943,1762.019645,-1036.288319,10288.862594
2710.555272,612.876398,-666.185348,7179.997637
2710.555601,76.609550,-444.123565,9178.553681
2710.555930,919.314598,-1258.350101,9622.677246
2710.556259,1225.752797,-222.061783,7772.162391
2710.556588,1149.143247,-1036.288319,7994.224174
2710.556916,1762.019645,-148.041188,9992.780217
2710.557245,1838.629195,-1776.494261,9844.739029
2710.557574,1838.629195,444.123565,8808.450710
2710.557903,766.095498,518.144159,9252.574275
2710.558232,229.828649,370.102971,10214.842000
2710.558561,1149.143247,370.102971,8290.306550
2710.558890,1302.362347,666.185348,8808.450710
2710.559219,1302.362347,-74.020594,10214.842000
2710.559547,2068.457845,-0.000000,9770.718434
2710.559876,1149.143247,-1110.308913,8216.285956
2710.560205,0.000000,-296.082377,9696.697840
2710.560534,383.047749,-888.247130,9770.718434
2710.560863,0.000000,-1258.350101,8290.306550
2710.561192,76.609550,-222.061783,8512.368333
2710.561521,459.657299,-0.000000,9992.780217
2710.561850,919.314598,-740.205942,8882.471304
2710.562178,842.705048,148.041188,7994.224174
2710.562507,612.876398,888.247130,9326.594869
2710.562836,383.047749,1480.411884,8068.244768
2710.563165,0.000000,370.102971,7846.182985
2710.563494,229.828649,-74.020594,9918.759623
2710.563823,0.000000,-74.020594,9104.533087
2710.564152,-919.314598,-148.041188,8734.430116
2710.564481,-842.705048,-2146.597232,9474.636058
2710.564809,-1378.971896,-0.000000,10288.862594
2710.565138,-766.095498,-0.000000,9030.512492
2710.565467,-459.657299,-518.144159,7624.121203
2710.565796,-995.924147,-518.144159,10140.821405
2710.566125,766.095498,296.082377,10214.842000
2710.566454,612.876398,148.041188,7698.141797
2710.566783,-689.485948,-666.185348,9252.574275
2710.567112,-306.438199,296.082377,9548.656652
2710.567440,76.609550,740.205942,9252.574275
2710.567769,-459.657299,518.144159,8512.368333
2710.568098,-153.219100,-296.082377,10214.842000
2710.568427,0.000000,-666.185348,10510.924376
2710.568756,-229.828649,-1036.288319,7994.224174
2710.569085,-153.219100,-666.185348,9622.677246
2710.569414,76.609550,-222.061783,9622.677246
2710.569743,995.924147,-518.144159,8512.368333
2710.570072,766.095498,222.061783,8438.347739
2710.570400,1762.019645,-0.000000,9548.656652
2710.570729,2068.457845,592.164754,7624.121203
2710.571058,2528.115143,740.205942,7550.100608
2710.571387,766.095498,962.267725,8882.471304
2710.571716,689.485948,1184.329507,8882.471304
2710.572045,229.828649,-74.020594,7476.080014
2710.572374,0.000000,-444.123565,8734.430116
2710.572703,-306.438199,-1184.329507,10732.986159
2710.573031,-1149.143247,-1702.473667,9178.553681
2710.573360,-612.876398,-1850.514855,9178.553681
2710.573689,-919.314598,-962.267725,10807.006753
2710.574018,-459.657299,-0.000000,9770.718434
2710.574347,76.609550,-148.041188,8586.388927
2710.574676,689.485948,296.082377,9474.636058
2710.575005,1608.800546,1332.370696,9474.636058
2710.575334,2374.896044,1258.350101,7772.162391
2710.575662,2145.067394,666.185348,7772.162391
2710.575991,1532.190996,1332.370696,9178.553681
2710.576320,229.828649,666.185348,8438.347739
2710.576649,229.828649,-666.185348,8290.306550
2710.576978,-689.485948,-1258.350101,9770.718434
2710.577307,-383.047749,-1184.329507,10732.986159
2710.577636,-612.876398,-1776.494261,9252.574275
2710.577965,-766.095498,-740.205942,9400.615463
2710.578293,-536.266849,-888.247130,10214.842000
2710.578622,-459.657299,-444.123565,9918.759623
2710.578951,0.000000,-740.205942,8882.471304
2710.579280,919.314598,-222.061783,9844.739029
2710.579609,1455.581446,518.144159,8660.409521
2710.579938,1762.019645,1258.350101,7550.100608
2710.580267,1378.971896,814.226536,8290.306550
2710.580596,842.705048,592.164754,9326.594869
2710.580924,1225.752797,962.267725,7846.182985
2710.581253,536.266849,-370.102971,7994.224174
2710.581582,-306.438199,-1036.288319,9400.615463
2710.581911,-459.657299,-962.267725,10510.924376
2710.582240,306.438199,-2368.659014,9400.615463
2710.582569,-1149.143247,-2294.638420,8882.471304
2710.582898,-1149.143247,-444.123565,11029.068536
2710.583227,0.000000,-962.267725,9252.574275
2710.583555,0.000000,-444.123565,8068.244768
2710.583884,1072.533697,444.123565,9030.512492
2710.584213,2757.943793,370.102971,8734.430116
2710.584542,2068.457845,592.164754,6513.812290
2710.584871,1838.629195,814.226536,8364.327145
2710.585200,1378.971896,1036.288319,8142.265362
2710.585529,306.438199,-148.041188,7402.059420
2710.585858,-306.438199,-1110.308913,7994.224174
2710.586186,-995.924147,-962.267725,9548.656652
2710.586515,-995.924147,-2146.597232,10362.883188
2710.586844,-919.314598,-1702.473667,8808.450710
2710.587173,-1608.800546,-888.247130,10214.842000
2710.587502,-1302.362347,-444.123565,10584.944971
2710.587831,-1149.143247,-148.041188,8142.265362
2710.588160,-306.438199,296.082377,9474.636058
2710.588489,0.000000,-74.020594,10066.800811
2710.588817,-459.657299,444.123565,9104.533087
2710.589146,459.657299,-1184.329507,9770.718434
2710.589475,459.657299,1036.288319,8734.430116
2710.589804,995.924147,1036.288319,7920.203579
2710.590133,1455.581446,592.164754,6513.812290
2710.590462,689.485948,-222.061783,8956.491898
2710.590791,766.095498,-0.000000,9918.759623
2710.591120,689.485948,-296.082377,7920.203579
2710.591448,-459.657299,-1924.535449,10140.821405
2710.591777,-459.657299,-444.123565,10510.924376
2710.592106,306.438199,-148.041188,9622.677246
2710.592435,0.000000,-1184.329507,9844.739029
2710.592764,1378.971896,-370.102971,11251.130318
2710.593093,1991.848295,-0.000000,9622.677246
2710.593422,2528.115143,666.185348,8142.265362
2710.593751,2068.457845,1628.453072,8142.265362
2710.594080,2374.896044,1554.432478,8808.450710
2710.594408,2451.505594,1702.473667,7846.182985
2710.594737,1838.629195,1554.432478,7105.977043
2710.595066,1072.533697,-814.226536,9696.697840
2710.595395,-153.219100,-1184.329507,10436.903782
2710.595724,0.000000,-1480.411884,8734.430116
2710.596053,-1378.971896,-1776.494261,9770.718434
2710.596382,-842.705048,-1554.432478,10584.944971
2710.596711,0.000000,-962.267725,8660.409521
2710.597039,229.828649,-740.205942,9400.615463
2710.597368,689.485948,296.082377,10881.027347
2710.597697,2298.286494,370.102971,8734.430116
2710.598026,2298.286494,1924.535449,7105.977043
2710.598355,1915.238745,1850.514855,8142.265362
2710.598684,1991.848295,2072.576638,8142.265362
2710.599013,995.924147,740.205942,7254.018232
2710.599342,995.924147,370.102971,9178.553681
2710.599670,383.047749,-666.185348,9622.677246
2710.599999,-842.705048,-2220.617826,9326.594869
2710.600328,-1302.362347,-2072.576638,9696.697840
2710.600657,-1762.019645,-1776.494261,10881.027347
2710.600986,-1608.800546,-1554.432478,9548.656652
2710.601315,-766.095498,-1258.350101,8882.471304
2710.601644,-766.095498,-1036.288319,10288.862594
2710.601973,-153.219100,-0.000000,11103.089130
2710.602301,383.047749,-0.000000,8882.471304
2710.602630,689.485948,-0.000000,8956.491898
2710.602959,1072.533697,1184.329507,9252.574275
2710.603288,1378.971896,2368.659014,7920.203579
2710.603617,1378.971896,-0.000000,7402.059420
2710.603946,1455.581446,444.123565,8808.450710
2710.604275,1838.629195,-296.082377,9622.677246
2710.604604,689.485948,-74.020594,7254.018232
2710.604932,306.438199,-1258.350101,9178.553681
2710.605261,-995.924147,-1036.288319,10732.986159
2710.605590,0.000000,-518.144159,8586.388927
2710.605919,76.609550,-1332.370696,8586.388927
2710.606248,536.266849,-222.061783,10362.883188
2710.606577,536.266849,296.082377,9770.718434
2710.606906,842.705048,740.205942,8512.368333
2710.607235,0.000000,666.185348,9474.636058
2710.607563,76.609550,1184.329507,10584.944971
2710.607892,153.219100,962.267725,7550.100608
2710.608221,0.000000,296.082377,8142.265362
2710.608550,0.000000,-444.123565,10732.986159
2710.608879,153.219100,-1036.288319,10881.027347
2710.609208,-919.314598,-2516.700203,9622.677246
2710.609537,-919.314598,-814.226536,9252.574275
2710.609866,-459.657299,-888.247130,10584.944971
2710.610195,153.219100,-962.267725,8438.347739
2710.610524,0.000000,-814.226536,8734.430116
2710.610853,995.924147,-814.226536,9770.718434
2710.611182,1762.019645,-0.000000,7920.203579
2710.611511,1762.019645,444.123565,7254.018232
2710.611840,536.266849,1110.308913,8882.471304
2710.612169,612.876398,1110.308913,8216.285956
2710.612498,76.609550,-148.041188,7772.162391
2710.612828,-383.047749,-444.123565,8512.368333
2710.613157,76.609550,-296.082377,10436.903782
2710.613486,0.000000,-1480.411884,8586.388927
2710.613815,-766.095498,-1480.411884,9178.553681
2710.614144,-1838.629195,-1850.514855,11399.171507
2710.614473,-1608.800546,-2072.576638,11029.068536
2710.614802,-306.438199,-1036.288319,8512.368333
2710.615131,-995.924147,296.082377,8512.368333
2710.615460,1378.971896,-444.123565,11695.253884
2710.615789,1685.410096,148.041188,7105.977043
2710.616118,2068.457845,1850.514855,7920.203579
2710.616447,3217.601092,1332.370696,8364.327145
2710.616776,3217.601092,3108.864956,5699.585753
2710.617105,2604.724693,1184.329507,7105.977043
2710.617434,2298.286494,814.226536,8438.347739
2710.617763,1072.533697,-666.185348,9696.697840
2710.618092,-1302.362347,-2368.659014,9104.533087
2710.618421,-1838.629195,-1184.329507,9474.636058
2710.618750,-2221.676944,-1628.453072,12065.356855
2710.619079,-2068.457845,-1628.453072,9252.574275
2710.619408,-1915.238745,-962.267725,9474.636058
2710.619737,-1072.533697,-1258.350101,11399.171507
2710.620066,383.047749,740.205942,10066.800811
2710.620395,842.705048,-888.247130,8660.409521
2710.620724,76.609550,444.123565,8882.471304
2710.621053,1378.971896,1184.329507,9474.636058
2710.621382,1608.800546,2072.576638,6957.935855
2710.621711,1149.143247,1110.308913,7550.100608
2710.622040,1378.971896,-222.061783,9326.594869
2710.622369,1685.410096,444.123565,9104.533087
2710.622698,383.047749,-962.267725,7994.224174
2710.623027,-766.095498,-1628.453072,9918.759623
2710.623356,-1225.752797,-1554.432478,10214.842000
2710.623685,-1532.190996,-888.247130,8734.430116
2710.624014,-1608.800546,-1850.514855,10214.842000
2710.624343,-842.705048,-1776.494261,11029.068536
2710.624672,0.000000,-148.041188,9030.512492
2710.625001,383.047749,-74.020594,8290.306550
2710.625330,459.657299,1332.370696,8956.491898
2710.625659,1149.143247,1628.453072,8956.491898
2710.625988,1608.800546,1036.288319,7105.977043
2710.626317,1838.629195,1036.288319,8068.244768
2710.626646,1455.581446,148.041188,9548.656652
2710.626975,1532.190996,-666.185348,8216.285956
2710.627304,306.438199,-814.226536,8290.306550
2710.627633,-306.438199,-666.185348,10140.821405
2710.627962,76.609550,-740.205942,9400.615463
2710.628291,-229.828649,-592.164754,8586.388927
2710.628620,153.219100,-0.000000,9770.718434
2710.628949,2145.067394,-148.041188,10214.842000
2710.629278,1455.581446,-444.123565,7476.080014
2710.629607,612.876398,740.205942,8216.285956
2710.629936,306.438199,962.267725,9770.718434
2710.630265,306.438199,1258.350101,8364.327145
2710.630594,689.485948,444.123565,7698.141797
2710.630923,842.705048,-518.144159,9474.636058
2710.631252,76.609550,-592.164754,9400.615463
2710.631581,0.000000,-1406.391290,8586.388927
2710.631910,-1149.143247,-1332.370696,8956.491898
2710.632239,-995.924147,-74.020594,9992.780217
2710.632568,-459.657299,-1628.453072,9326.594869
2710.632897,-612.876398,-1924.535449,8956.491898
2710.633226,0.000000,-1110.308913,10214.842000
2710.633555,766.095498,-148.041188,9030.512492
2710.633884,536.266849,222.061783,8956.491898
2710.634213,0.000000,-0.000000,9844.739029
2710.634542,536.266849,1628.453072,9326.594869
2710.634871,995.924147,1776.494261,8956.491898
2710.635200,1149.143247,-0.000000,8660.409521
2710.635529,612.876398,1110.308913,10362.883188
2710.635858,383.047749,-74.020594,9918.759623
2710.636187,0.000000,-1258.350101,9104.533087
2710.636516,-689.485948,-296.082377,9918.759623
2710.636845,-459.657299,-1332.370696,9918.759623
2710.637174,153.219100,-888.247130,8586.388927
2710.637503,153.219100,-888.247130,9622.677246
2710.637832,689.485948,-814.226536,10362.883188
2710.638161,1455.581446,-148.041188,9178.553681
2710.638490,1225.752797,-0.000000,7994.224174
2710.638819,1762.019645,1480.411884,8216.285956
2710.639148,1991.848295,2072.576638,8808.450710
2710.639477,1838.629195,888.247130,7550.100608
2710.639806,1455.581446,1036.288319,7846.182985
2710.640135,1762.019645,592.164754,9918.759623
2710.640465,1685.410096,-0.000000,7920.203579
2710.640794,153.219100,-666.185348,9400.615463
2710.641123,-1149.143247,-1628.453072,10584.944971
2710.641452,-995.924147,-1332.370696,9474.636058
2710.641781,-1225.752797,-1554.432478,8956.491898
2710.642110,-1225.752797,-1480.411884,9474.636058
2710.642439,-383.047749,-1184.329507,9918.759623
2710.642768,76.609550,-592.164754,7476.080014
2710.643097,0.000000,-148.041188,8290.306550
2710.643426,536.266849,814.226536,9474.636058
2710.643755,842.705048,888.247130,7846.182985
2710.644084,536.266849,592.164754,8882.471304
2710.644413,995.924147,444.123565,8956.491898
2710.644742,1225.752797,148.041188,9696.697840
2710.645071,229.828649,-370.102971,8512.368333
2710.645400,0.000000,296.082377,9030.512492
2710.645729,-689.485948,370.102971,8734.430116
2710.646058,-1378.971896,-2072.576638,9474.636058
2710.646387,306.438199,-1110.308913,8586.388927
2710.646716,76.609550,-740.205942,9030.512492
2710.647045,-842.705048,-740.205942,9844.739029
2710.647374,612.876398,-1110.308913,9474.636058
2710.647703,-306.438199,148.041188,9992.780217
2710.648032,0.000000,-74.020594,8808.450710
2710.648361,1532.190996,1184.329507,7846.182985
2710.648690,0.000000,-1480.411884,8734.430116
2710.649019,1532.190996,666.185348,9252.574275
2710.649348,2757.943793,-666.185348,9030.512492
2710.649677,995.924147,-0.000000,7402.059420
2710.650006,1149.143247,-222.061783,8808.450710
2710.650335,1455.581446,1036.288319,9474.636058
2710.650664,1072.533697,-370.102971,7476.080014
2710.650993,1532.190996,-592.164754,9178.553681
2710.651322,1225.752797,-0.000000,10066.800811
2710.651651,689.485948,-0.000000,7994.224174
2710.651980,-153.219100,-370.102971,8142.265362
2710.652309,229.828649,-1110.308913,10288.862594
2710.652638,-995.924147,148.041188,8438.347739
2710.652967,-306.438199,-1258.350101,8586.388927
2710.653296,-536.266849,-2072.576638,8882.471304
2710.653625,0.000000,-888.247130,10955.047942
2710.653954,153.219100,-1184.329507,8364.327145
2710.654283,842.705048,-518.144159,8290.306550
2710.654612,0.000000,-296.082377,10807.006753
2710.654941,766.095498,1258.350101,8808.450710
2710.655270,1225.752797,444.123565,7328.038826
2710.655599,766.095498,962.267725,9918.759623
2710.655928,1302.362347,1036.288319,9326.594869
2710.656257,919.314598,222.061783,8586.388927
2710.656586,-995.924147,-148.041188,8734.430116
2710.656915,-1149.143247,-444.123565,10214.842000
2710.657244,-1378.971896,-888.247130,9474.636058
2710.657573,-1685.410096,-1332.370696,8586.388927
2710.657902,-1762.019645,-1702.473667,10584.944971
2710.658231,-612.876398,-1332.370696,10066.800811
2710.658560,-153.219100,-1406.391290,8068.244768
2710.658889,-766.095498,-0.000000,9400.615463
2710.659218,0.000000,-222.061783,9918.759623
2710.659547,459.657299,-74.020594,8290.306550
2710.659876,1149.143247,222.061783,7698.141797
2710.660205,2068.457845,740.205942,9178.553681
2710.660534,2681.334243,518.144159,8216.285956
2710.660863,1225.752797,444.123565,8216.285956
2710.661192,612.876398,1406.391290,9326.594869
2710.661521,459.657299,666.185348,9104.533087
2710.661850,-689.485948,370.102971,7846.182985
2710.662179,-229.828649,-1110.308913,8660.409521
2710.662508,-766.095498,-222.061783,10436.903782
2710.662837,-842.705048,-2294.638420,10288.862594
2710.663166,-689.485948,-1036.288319,8956.491898
2710.663495,-995.924147,-370.102971,10362.883188
2710.663824,-536.266849,-0.000000,10066.800811
2710.664153,76.609550,-74.020594,8142.265362
2710.664482,1149.143247,-0.000000,9252.574275
2710.664811,1378.971896,1036.288319,9474.636058
2710.665140,1838.629195,1184.329507,8364.327145
2710.665469,1149.143247,1184.329507,7920.203579
2710.665798,612.876398,1406.391290,8882.471304
2710.666127,229.828649,1258.350101,9326.594869
2710.666456,-612.876398,-0.000000,8290.306550
2710.666785,0.000000,-1258.350101,10140.821405
2710.667114,0.000000,-518.144159,10066.800811
2710.667443,-536.266849,-1554.432478,10066.800811
2710.667772,-1762.019645,-2886.803174,10066.800811
2710.668102,-1762.019645,-1480.411884,11103.089130
2710.668431,-1149.143247,-1258.350101,10066.800811
2710.668760,-612.876398,-666.185348,8734.430116
2710.669089,229.828649,-0.000000,9992.780217
2710.669418,2451.505594,814.226536,9326.594869
2710.669747,3217.601092,-74.020594,7105.977043
2710.670076,3064.381992,1628.453072,7179.997637
2710.670405,2834.553343,814.226536,8068.244768
2710.670734,2451.505594,1184.329507,7402.059420
2710.671063,2068.457845,962.267725,7031.956449
2710.671392,1302.362347,222.061783,9696.697840
2710.671721,76.609550,-814.226536,11251.130318
2710.672050,459.657299,-1406.391290,9474.636058
2710.672379,-383.047749,-888.247130,10140.821405
2710.672708,-383.047749,-222.061783,10584.944971
2710.673037,229.828649,-518.144159,8882.471304
2710.673366,1149.143247,-444.123565,9326.594869
2710.673695,1608.800546,222.061783,8882.471304
2710.674024,3064.381992,1332.370696,7624.121203
2710.674353,2374.896044,814.226536,6069.688724
2710.674682,1915.238745,1554.432478,6143.709319
2710.675011,1149.143247,-148.041188,9030.512492
2710.675340,1225.752797,-0.000000,8068.244768
2710.675669,-306.438199,-814.226536,7698.141797
2710.675998,-459.657299,-2220.617826,10362.883188
2710.676327,-1072.533697,-1332.370696,9548.656652
2710.676656,-1302.362347,-1628.453072,9918.759623
2710.676985,-1225.752797,-2072.576638,10510.924376
2710.677314,-383.047749,444.123565,10140.821405
2710.677643,-612.876398,-222.061783,8512.368333
2710.677972,229.828649,962.267725,8290.306550
2710.678301,1915.238745,592.164754,9326.594869
2710.678630,2068.457845,740.205942,7550.100608
2710.678959,766.095498,740.205942,6809.894666
2710.679288,306.438199,518.144159,8956.491898
2710.679617,-842.705048,-0.000000,8290.306550
2710.679946,-689.485948,-518.144159,8512.368333
2710.680275,-2068.457845,-1406.391290,10140.821405
2710.680604,-1838.629195,-2442.679609,11325.150913
2710.680933,-1838.629195,-2368.659014,10140.821405
2710.681262,-2221.676944,-74.020594,9770.718434
2710.681591,-1302.362347,-518.144159,10732.986159
2710.681920,-536.266849,-370.102971,9474.636058
2710.682249,-383.047749,1480.411884,9770.718434
2710.682578,1225.752797,296.082377,10288.862594
2710.682907,2834.553343,1480.411884,7105.977043
2710.683236,2911.162892,1850.514855,6365.771101
2710.683565,2068.457845,1998.556043,7550.100608
2710.683894,1149.143247,1258.350101,9030.512492
2710.684223,919.314598,444.123565,9030.512492
2710.684552,229.828649,222.061783,6809.894666
2710.684881,-689.485948,-1110.308913,10362.883188
2710.685210,-1072.533697,-2294.638420,10510.924376
2710.685539,-919.314598,-2220.617826,9400.615463
2710.685868,-2068.457845,-2368.659014,11251.130318
2710.686197,-766.095498,-1480.411884,10214.842000
2710.686526,-459.657299,-222.061783,9548.656652
2710.686855,0.000000,-0.000000,9400.615463
2710.687184,1302.362347,592.164754,9400.615463
2710.687513,2451.505594,814.226536,8660.409521
2710.687842,1915.238745,1406.391290,6957.935855
2710.688171,995.924147,1406.391290,8660.409521
2710.688500,1455.581446,1480.411884,9104.533087
2710.688829,459.657299,148.041188,6957.935855
2710.689158,-383.047749,-888.247130,8586.388927
2710.689487,-689.485948,-1850.514855,10362.883188
2710.689816,-919.314598,-2590.720797,9770.718434
2710.690145,-1532.190996,-2294.638420,9918.759623
2710.690474,-2145.067394,-2442.679609,10510.924376
2710.690803,-995.924147,-814.226536,10584.944971
2710.691132,-919.314598,-1184.329507,9400.615463
2710.691461,0.000000,-222.061783,10066.800811
2710.691790,2068.457845,370.102971,9474.636058
2710.692119,2911.162892,1776.494261,7105.977043
2710.692448,2757.943793,1702.473667,6809.894666
2710.692777,2911.162892,2738.761985,8142.265362
2710.693106,2298.286494,2368.659014,7550.100608
2710.693435,1685.410096,1184.329507,6809.894666
2710.693764,995.924147,-0.000000,9030.512492
2710.694093,0.000000,-1628.453072,9696.697840
2710.694422,-306.438199,-2590.720797,9400.615463
2710.694751,-689.485948,-2368.659014,9548.656652
2710.695080,-842.705048,-2146.597232,11991.336260
2710.695409,-459.657299,-814.226536,10807.006753
2710.695739,0.000000,-814.226536,9474.636058
2710.696068,995.924147,518.144159,9178.553681
2710.696397,3907.087040,1998.556043,9178.553681
2710.696726,3677.258390,1702.473667,7105.977043
2710.697055,3447.429741,1924.535449,7105.977043
2710.697384,3294.210641,2442.679609,7994.224174
2710.697713,2068.457845,1554.432478,7402.059420
2710.698042,919.314598,370.102971,7328.038826
2710.698371,-766.095498,-1258.350101,10140.821405
2710.698700,-2221.676944,-2516.700203,11621.233289
2710.699029,-1991.848295,-3034.844362,10288.862594
2710.699358,-3064.381992,-1924.535449,10288.862594
2710.699687,-2834.553343,-1036.288319,11325.150913
2710.700016,-1915.238745,-1850.514855,9474.636058
2710.700345,-1991.848295,-814.226536,10066.800811
2710.700674,-306.438199,-0.000000,11251.130318
2710.701003,995.924147,296.082377,8512.368333
2710.701332,1532.190996,1924.535449,7476.080014
2710.701661,1685.410096,1924.535449,8290.306550
2710.701990,1838.629195,2886.803174,7772.162391
2710.702319,842.705048,1184.329507,7772.162391
2710.702648,76.609550,666.185348,8808.450710
2710.702977,153.219100,-1184.329507,10362.883188
2710.703306,-612.876398,-1480.411884,9400.615463
2710.703635,-2221.676944,-2368.659014,8660.409521
2710.703964,-2145.067394,-2516.700203,11325.150913
2710.704293,-1991.848295,-2294.638420,9622.677246
2710.704622,-1072.533697,-666.185348,8956.491898
2710.704951,76.609550,-74.020594,9474.636058
2710.705280,1762.019645,222.061783,8956.491898
2710.705609,3140.991542,888.247130,7402.059420
2710.705938,3217.601092,1850.514855,5551.544565
2710.706267,2911.162892,2146.597232,7179.997637
2710.706596,2757.943793,1776.494261,7328.038826
2710.706925,1302.362347,1850.514855,6661.853478
2710.707254,383.047749,-370.102971,9252.574275
2710.707583,-383.047749,-1480.411884,9918.759623
2710.707912,-766.095498,-2738.761985,9622.677246
2710.708241,-1532.190996,-2220.617826,9918.759623
2710.708570,-2298.286494,-1998.556043,11251.130318
2710.708899,-612.876398,-1998.556043,10510.924376
2710.709228,-306.438199,-814.226536,9326.594869
2710.709557,76.609550,-74.020594,9918.759623
2710.709886,1991.848295,222.061783,8956.491898
2710.710215,3294.210641,1406.391290,7402.059420
2710.710544,2374.896044,2220.617826,7105.977043
2710.710873,2451.505594,2516.700203,8808.450710
2710.711202,2298.286494,1332.370696,8068.244768
2710.711531,766.095498,1554.432478,7179.997637
2710.711860,842.705048,-444.123565,10362.883188
2710.712189,-612.876398,-1554.432478,10807.006753
2710.712518,-1455.581446,-2590.720797,10288.862594
2710.712847,-2068.457845,-2590.720797,11843.295072
2710.713175,-1838.629195,-1998.556043,11399.171507
2710.713504,-919.314598,-1480.411884,10288.862594
2710.713833,-459.657299,-1036.288319,9474.636058
2710.714162,383.047749,592.164754,10881.027347
2710.714491,2145.067394,1110.308913,8734.430116
2710.714820,3294.210641,2146.597232,6809.894666
2710.715149,2298.286494,2368.659014,8142.265362
2710.715478,2604.724693,2368.659014,8068.244768
2710.715807,2451.505594,1702.473667,6661.853478
2710.716136,1072.533697,-296.082377,8290.306550
2710.716465,-229.828649,-296.082377,9992.780217
2710.716794,-612.876398,-2442.679609,10066.800811
2710.717123,-1378.971896,-3108.864956,9696.697840
2710.717452,-2221.676944,-2368.659014,10362.883188
2710.717781,-1378.971896,-1184.329507,11177.109724
2710.718110,-536.266849,-2146.597232,9178.553681
2710.718439,0.000000,-222.061783,9474.636058
2710.718768,2068.457845,-0.000000,9696.697840
2710.719096,3064.381992,1480.411884,6809.894666
2710.719425,2757.943793,2146.597232,6217.729913
2710.719754,2911.162892,2442.679609,7994.224174
2710.720083,2068.457845,2368.659014,6735.874072
2710.720412,1455.581446,1702.473667,6143.709319
2710.720741,153.219100,-296.082377,7698.141797
2710.721070,-1149.143247,-1628.453072,10732.986159
2710.721399,-2681.334243,-3478.967927,10214.842000
2710.721728,-2987.772442,-3256.906145,10362.883188
2710.722057,-3830.477490,-2072.576638,10436.903782
2710.722386,-2834.553343,-2886.803174,10584.944971
2710.722715,-3600.648841,-0.000000,8808.450710
2710.723044,-1225.752797,-74.020594,10362.883188
2710.723373,-766.095498,-74.020594,10436.903782
2710.723702,1149.143247,148.041188,9326.594869
2710.724031,1762.019645,1628.453072,7105.977043
2710.724360,2451.505594,2072.576638,8216.285956
2710.724689,1991.848295,2738.761985,5699.585753
2710.725017,2451.505594,1554.432478,7031.956449
2710.725346,1685.410096,370.102971,9178.553681
2710.725675,919.314598,296.082377,8956.491898
2710.726004,-612.876398,-2220.617826,8290.306550
2710.726333,-2145.067394,-2294.638420,10214.842000
2710.726662,-2987.772442,-3182.885551,11177.109724
2710.726991,-1838.629195,-2220.617826,9770.718434
2710.727320,-766.095498,-1702.473667,9770.718434
2710.727649,0.000000,-0.000000,11251.130318
2710.727978,2374.896044,1258.350101,9696.697840
2710.728307,2911.162892,2442.679609,7179.997637
2710.728636,2911.162892,2220.617826,8438.347739
2710.728965,3294.210641,3256.906145,8068.244768
2710.729294,3294.210641,2294.638420,6957.935855
2710.729623,2451.505594,1702.473667,8660.409521
2710.729952,2757.943793,962.267725,8512.368333
2710.730281,1838.629195,-888.247130,8068.244768
2710.730610,0.000000,-2220.617826,9770.718434
2710.730938,-842.705048,-1924.535449,10584.944971
2710.731267,-1608.800546,-3108.864956,10658.965565
2710.731596,-1532.190996,-2146.597232,9326.594869
2710.731925,-842.705048,-370.102971,10214.842000
2710.732254,536.266849,-888.247130,11177.109724
2710.732583,536.266849,-74.020594,8216.285956
2710.732912,2451.505594,1480.411884,7846.182985
2710.733241,1838.629195,1850.514855,8734.430116
2710.733570,2451.505594,2294.638420,7031.956449
2710.733899,2221.676944,1480.411884,7550.100608
2710.734228,842.705048,1110.308913,8660.409521
2710.734557,689.485948,-592.164754,10214.842000
2710.734886,-383.047749,-1258.350101,8882.471304
2710.735215,-1608.800546,-2368.659014,9474.636058
2710.735544,-2374.896044,-2146.597232,10362.883188
2710.735873,-2221.676944,-2220.617826,10584.944971
2710.736202,-2145.067394,-2442.679609,9474.636058
2710.736531,-1149.143247,-1702.473667,9992.780217
2710.736860,306.438199,666.185348,8142.265362
2710.737188,306.438199,814.226536,8290.306550
2710.737517,995.924147,666.185348,8216.285956
2710.737846,766.095498,1480.411884,7846.182985
2710.738175,1149.143247,1702.473667,7105.977043
2710.738504,1072.533697,1036.288319,7031.956449
2710.738833,1302.362347,-370.102971,10658.965565
2710.739162,383.047749,-518.144159,8956.491898
2710.739491,919.314598,-1406.391290,8364.327145
2710.739820,-689.485948,-1628.453072,9474.636058
2710.740149,0.000000,-814.226536,9844.739029
2710.740478,229.828649,-666.185348,8586.388927
2710.740807,0.000000,-296.082377,8438.347739
2710.741136,842.705048,-1110.308913,10214.842000
2710.741465,1838.629195,592.164754,8808.450710
2710.741794,1455.581446,814.226536,7994.224174
2710.742123,689.485948,1110.308913,8364.327145
2710.742452,842.705048,1258.350101,9104.533087
2710.742781,-459.657299,370.102971,8290.306550
2710.743109,-766.095498,592.164754,9474.636058
2710.743438,-1455.581446,-740.205942,11103.089130
2710.743767,-766.095498,-1702.473667,9770.718434
2710.744096,-1608.800546,-1110.308913,9992.780217
2710.744425,-2451.505594,-1258.350101,11177.109724
2710.744754,-1685.410096,-2146.597232,10140.821405
2710.745083,-1225.752797,-1036.288319,9104.533087
2710.745412,0.000000,-1110.308913,10066.800811
2710.745741,306.438199,-518.144159,9918.759623
2710.746070,1455.581446,222.061783,8808.450710
2710.746399,1378.971896,1184.329507,8512.368333
2710.746728,1072.533697,1628.453072,7920.203579
2710.747057,1149.143247,1702.473667,8290.306550
2710.747386,1302.362347,1480.411884,7105.977043
2710.747715,536.266849,-0.000000,9030.512492
2710.748044,229.828649,-222.061783,9770.718434
2710.748373,76.609550,-1628.453072,8734.430116
2710.748702,-1455.581446,-1628.453072,10288.862594
2710.749030,-1838.629195,-1258.350101,10584.944971
2710.749359,-459.657299,-518.144159,9252.574275
2710.749688,-229.828649,-814.226536,8216.285956
2710.750017,919.314598,-222.061783,9622.677246
2710.750346,2451.505594,-0.000000,9474.636058
2710.750675,3294.210641,814.226536,7698.141797
2710.751004,3600.648841,1184.329507,7254.018232
2710.751333,3217.601092,1628.453072,7994.224174
2710.751662,2911.162892,1924.535449,7402.059420
2710.751991,2604.724693,1406.391290,7254.018232
2710.752320,2757.943793,592.164754,9474.636058
2710.752649,2451.505594,296.082377,9474.636058
2710.752978,1302.362347,-1554.432478,8142.265362
2710.753307,-766.095498,-2220.617826,10288.862594
2710.753636,-689.485948,-1702.473667,9992.780217
2710.753965,-689.485948,-1628.453072,8734.430116
2710.754294,-1378.971896,-1258.350101,9400.615463
2710.754623,-536.266849,-888.247130,10140.821405
2710.754951,-383.047749,-888.247130,9474.636058
2710.755280,1072.533697,518.144159,7698.141797
2710.755609,1072.533697,444.123565,9400.615463
2710.755938,536.266849,962.267725,8364.327145
2710.756267,1072.533697,962.267725,8068.244768
2710.756596,689.485948,296.082377,8882.471304
2710.756925,0.000000,518.144159,9696.697840
2710.757254,919.314598,-1110.308913,9252.574275
2710.757583,-536.266849,-592.164754,8882.471304
2710.757912,-2221.676944,-444.123565,11177.109724
2710.758241,-1608.800546,-1110.308913,10214.842000
2710.758570,-842.705048,-0.000000,8290.306550
2710.758899,-2374.896044,-518.144159,10140.821405
2710.759228,-612.876398,-592.164754,10436.903782
2710.759557,-536.266849,-814.226536,8216.285956
2710.759886,-1072.533697,-222.061783,9252.574275
2710.760215,76.609550,-0.000000,9104.533087
2710.760544,-229.828649,444.123565,7476.080014
2710.760872,0.000000,222.061783,8142.265362
2710.761201,76.609550,-0.000000,9178.553681
2710.761530,1532.190996,-444.123565,9252.574275
2710.761859,1072.533697,-592.164754,7476.080014
2710.762188,1072.533697,-1036.288319,8364.327145
2710.762517,76.609550,-1036.288319,9844.739029
2710.762846,1072.533697,-0.000000,8216.285956
2710.763175,1149.143247,-74.020594,7772.162391
2710.763504,1302.362347,-222.061783,9474.636058
2710.763833,1302.362347,444.123565,7994.224174
2710.764162,995.924147,-74.020594,8660.409521
2710.764491,-229.828649,-0.000000,8068.244768
2710.764820,-1149.143247,370.102971,10140.821405
2710.765149,-1225.752797,-1258.350101,8142.265362
2710.765478,-1991.848295,-518.144159,9770.718434
2710.765807,-2068.457845,-1850.514855,11251.130318
2710.766136,-1378.971896,-2368.659014,9474.636058
2710.766465,76.609550,-666.185348,9474.636058
2710.766794,-919.314598,-592.164754,9548.656652
2710.767122,1455.581446,444.123565,10140.821405
2710.767451,1532.190996,740.205942,7550.100608
2710.767780,1762.019645,1702.473667,7846.182985
2710.768109,2374.896044,962.267725,9326.594869
2710.768438,2528.115143,1480.411884,8290.306550
2710.768767,1455.581446,1184.329507,8512.368333
2710.769096,689.485948,666.185348,9622.677246
2710.769425,-153.219100,518.144159,9474.636058
2710.769754,-1072.533697,-518.144159,9104.533087
2710.770083,-1302.362347,-888.247130,10288.862594
2710.770412,-995.924147,-1702.473667,11251.130318
2710.770741,-1149.143247,-1480.411884,10510.924376
2710.771070,-1608.800546,-1332.370696,10140.821405
2710.771399,-766.095498,-740.205942,10881.027347
2710.771728,306.438199,-0.000000,9696.697840
2710.772057,2145.067394,-0.000000,7846.182985
2710.772386,2451.505594,518.144159,8734.430116
2710.772715,3907.087040,592.164754,8586.388927
2710.773043,4903.011187,1258.350101,7772.162391
2710.773372,3830.477490,1628.453072,6957.935855
2710.773701,2528.115143,1406.391290,8586.388927
2710.774030,2145.067394,1628.453072,8142.265362
2710.774359,1991.848295,666.185348,7328.038826
2710.774688,459.657299,-444.123565,9696.697840
2710.775017,-306.438199,-1480.411884,10510.924376
2710.775346,-766.095498,-2442.679609,9992.780217
2710.775675,-1685.410096,-2294.638420,10436.903782
2710.776004,-2221.676944,-1480.411884,10732.986159
2710.776333,-995.924147,-1110.308913,8956.491898
2710.776662,-153.219100,814.226536,8290.306550
2710.776991,459.657299,-0.000000,8882.471304
2710.777320,1608.800546,740.205942,8512.368333
2710.777649,1532.190996,-0.000000,7254.018232
2710.777978,1072.533697,-0.000000,7550.100608
2710.778307,536.266849,370.102971,8882.471304
2710.778636,0.000000,-0.000000,7920.203579
2710.778964,-995.924147,-0.000000,8290.306550
2710.779293,-1149.143247,-1480.411884,10955.047942
2710.779622,-1378.971896,-2220.617826,9770.718434
2710.779951,-1532.190996,-1850.514855,9326.594869
2710.780280,-1838.629195,-1702.473667,9992.780217
2710.780609,-1991.848295,-2146.597232,10066.800811
2710.780938,-1685.410096,-518.144159,9030.512492
2710.781267,-1225.752797,-814.226536,8586.388927
2710.781596,153.219100,-814.226536,9252.574275
2710.781925,1149.143247,740.205942,7624.121203
2710.782254,1685.410096,814.226536,6735.874072
2710.782583,689.485948,296.082377,8290.306550
2710.782912,842.705048,1406.391290,7920.203579
2710.783241,842.705048,296.082377,7476.080014
2710.783570,153.219100,-0.000000,9030.512492
2710.783899,0.000000,-666.185348,9696.697840
2710.784228,153.219100,-1184.329507,9696.697840
2710.784557,-229.828649,-592.164754,9474.636058
2710.784885,-229.828649,-296.082377,10510.924376
2710.785214,842.705048,444.123565,9770.718434
2710.785543,306.438199,-296.082377,8956.491898
2710.785872,1149.143247,666.185348,8808.450710
2710.786201,2145.067394,666.185348,8956.491898
2710.786530,3370.820191,1480.411884,7402.059420
2710.786859,1532.190996,1332.370696,8142.265362
2710.787188,1302.362347,-222.061783,9844.739029
2710.787517,612.876398,444.123565,9474.636058
2710.787846,-689.485948,-74.020594,9104.533087
2710.788175,0.000000,-1924.535449,10140.821405
2710.788504,-536.266849,-444.123565,10584.944971
2710.788833,-229.828649,-2368.659014,10288.862594
2710.789162,-459.657299,-74.020594,9400.615463
2710.789491,153.219100,-888.247130,11251.130318
2710.789820,919.314598,-222.061783,9992.780217
2710.790149,1455.581446,814.226536,7846.182985
2710.790478,1915.238745,518.144159,9474.636058
2710.790806,2681.334243,1702.473667,7624.121203
2710.791135,3370.820191,1628.453072,7031.956449
2710.791464,919.314598,814.226536,9252.574275
2710.791793,1072.533697,814.226536,6809.894666
2710.792122,-306.438199,-518.144159,9622.677246
2710.792451,766.095498,-0.000000,9400.615463
2710.792780,-1455.581446,-740.205942,9252.574275
2710.793109,-2068.457845,-2812.782580,11399.171507
2710.793438,-1072.533697,-2516.700203,10288.862594
2710.793767,-1685.410096,-666.185348,9548.656652
2710.794096,-995.924147,-1258.350101,10732.986159
2710.794425,-153.219100,-1184.329507,7624.121203
2710.794754,383.047749,-740.205942,9696.697840
2710.795083,2528.115143,1554.432478,9474.636058
2710.795412,3217.601092,2664.741391,6513.812290
2710.795741,3830.477490,1998.556043,6365.771101
2710.796070,3064.381992,2146.597232,7402.059420
2710.796399,2374.896044,2368.659014,7846.182985
2710.796727,842.705048,-518.144159,8216.285956
2710.797056,229.828649,-0.000000,7994.224174
2710.797385,-842.705048,-1554.432478,10510.924376
2710.797714,-1532.190996,-2368.659014,10214.842000
2710.798043,-1685.410096,-1776.494261,9548.656652
2710.798372,-2221.676944,-2812.782580,11251.130318
2710.798701,-1149.143247,-1184.329507,9696.697840
2710.799030,-536.266849,666.185348,9474.636058
2710.799359,-383.047749,-740.205942,9992.780217
2710.799688,229.828649,814.226536,9178.553681
2710.800017,1378.971896,2146.597232,7846.182985
2710.800346,0.000000,1110.308913,7105.977043
2710.800675,-459.657299,2146.597232,8734.430116
2710.801004,-536.266849,740.205942,8586.388927
2710.801333,-2604.724693,-74.020594,7772.162391
2710.801662,-4213.525239,-1850.514855,10510.924376
2710.801991,-3600.648841,-2812.782580,11547.212695
2710.802320,-4903.011187,-2220.617826,8290.306550
2710.802649,-5286.058936,-2886.803174,10584.944971
2710.802977,-6052.154434,-1776.494261,10955.047942
2710.803306,-5362.668486,-1258.350101,10288.862594
2710.803635,-4290.134789,-1036.288319,9548.656652
2710.803964,-3830.477490,-222.061783,9104.533087
2710.804293,-1991.848295,-888.247130,9474.636058
2710.804622,-1378.971896,592.164754,7772.162391
2710.804951,-2068.457845,296.082377,9178.553681
2710.805280,-2068.457845,962.267725,8512.368333
2710.805609,-536.266849,2294.638420,6291.750507
2710.805938,0.000000,1702.473667,6587.832884
2710.806267,-1225.752797,1184.329507,7328.038826
2710.806596,-1608.800546,-1036.288319,9326.594869
2710.806925,-1532.190996,-1628.453072,8660.409521
2710.807254,-1225.752797,-1258.350101,9178.553681
2710.807583,-2528.115143,-888.247130,9696.697840
2710.807912,-2604.724693,-1036.288319,8882.471304
2710.808241,-2451.505594,-666.185348,9696.697840
2710.808570,-612.876398,148.041188,9104.533087
2710.808898,0.000000,-518.144159,9622.677246
2710.809227,766.095498,-444.123565,9400.615463
2710.809556,995.924147,1406.391290,8808.450710
2710.809885,0.000000,1924.535449,7772.162391
2710.810214,-612.876398,1036.288319,7254.018232
2710.810543,-536.266849,2072.576638,7698.141797
2710.810872,-1149.143247,1554.432478,8956.491898
2710.811201,-1762.019645,148.041188,8808.450710
2710.811530,-3524.039291,-1924.535449,9918.759623
2710.811859,-3907.087040,-2294.638420,9992.780217
2710.812188,-3983.696590,-1628.453072,9622.677246
2710.812517,-5439.278036,-1628.453072,9696.697840
2710.812846,-6205.373534,-2146.597232,10881.027347
2710.813175,-5209.449386,-666.185348,10658.965565
2710.813503,-3983.696590,-74.020594,9770.718434
2710.813832,-2834.553343,-518.144159,9326.594869
2710.814161,-3140.991542,-1480.411884,9696.697840
2710.814490,-3600.648841,962.267725,8882.471304
2710.814819,-2834.553343,1480.411884,9326.594869
2710.815148,-1915.238745,1258.350101,8734.430116
2710.815477,-2681.334243,1258.350101,7994.224174
2710.815806,-3064.381992,962.267725,8808.450710
2710.816135,-2681.334243,-296.082377,8290.306550
2710.816464,-1915.238745,-0.000000,7772.162391
2710.816793,-2757.943793,-1110.308913,8216.285956
2710.817122,-3677.258390,-888.247130,9474.636058
2710.817451,-4290.134789,-1776.494261,10584.944971
2710.817780,-3907.087040,-1036.288319,9844.739029
2710.818108,-2834.553343,-888.247130,9326.594869
2710.818437,-2374.896044,-370.102971,9696.697840
2710.818766,-1991.848295,-518.144159,9770.718434
2710.819095,-1608.800546,666.185348,9178.553681
2710.819424,-1225.752797,740.205942,7994.224174
2710.819753,-1149.143247,1258.350101,8364.327145
2710.820082,-689.485948,-814.226536,9474.636058
2710.820411,-306.438199,-0.000000,7328.038826
2710.820740,-536.266849,1554.432478,6735.874072
2710.821069,-766.095498,-0.000000,6735.874072
2710.821398,-2068.457845,-0.000000,8512.368333
2710.821727,-2911.162892,-1110.308913,9474.636058
2710.822056,-3217.601092,-1332.370696,9474.636058
2710.822385,-3217.601092,-1184.329507,8142.265362
2710.822713,-3370.820191,-1554.432478,9548.656652
2710.823042,-4060.306139,-2220.617826,9770.718434
2710.823371,-3907.087040,-2368.659014,10955.047942
2710.823700,-3524.039291,-2294.638420,11103.089130
2710.824029,-2681.334243,-1110.308913,9918.759623
2710.824358,-2221.676944,-0.000000,9400.615463
2710.824687,-2374.896044,1406.391290,8142.265362
2710.825016,-2068.457845,518.144159,8438.347739
2710.825345,-1685.410096,-0.000000,9400.615463
2710.825674,-1302.362347,296.082377,8068.244768
2710.826003,-1608.800546,814.226536,8142.265362
2710.826332,-1532.190996,962.267725,7402.059420
2710.826661,-1838.629195,-370.102971,7550.100608
2710.826990,-2451.505594,-1258.350101,9104.533087
2710.827318,-2451.505594,-1184.329507,9622.677246
2710.827647,-2987.772442,-148.041188,9400.615463
2710.827976,-2451.505594,888.247130,9030.512492
2710.828305,-2451.505594,1406.391290,7846.182985
2710.828634,-2681.334243,1184.329507,8512.368333
2710.828963,-3217.601092,518.144159,9696.697840
2710.829292,-2757.943793,370.102971,9548.656652
2710.829621,-3753.867940,1406.391290,9104.533087
2710.829950,-3447.429741,592.164754,9252.574275
2710.830279,-2834.553343,-888.247130,9474.636058
2710.830608,-4060.306139,-1554.432478,9844.739029
2710.830937,-3753.867940,-1702.473667,9622.677246
2710.831266,-3524.039291,-1480.411884,9252.574275
2710.831595,-3217.601092,-1110.308913,9400.615463
2710.831923,-2987.772442,-666.185348,8956.491898
2710.832252,-3217.601092,-148.041188,9326.594869
2710.832581,-2911.162892,-444.123565,9696.697840
2710.832910,-2374.896044,-0.000000,9030.512492
2710.833239,-2221.676944,-296.082377,9770.718434
2710.833568,-1685.410096,-0.000000,9696.697840
2710.833897,-1532.190996,-148.041188,9178.553681
2710.834226,-1915.238745,-148.041188,9178.553681
2710.834555,-1915.238745,-0.000000,10214.842000
2710.834884,-1532.190996,370.102971,8882.471304
2710.835213,-1378.971896,-0.000000,8290.306550
2710.835542,-1378.971896,-74.020594,7994.224174
2710.835871,-1685.410096,-666.185348,8068.244768
2710.836199,-1991.848295,-814.226536,7846.182985
2710.836528,-2374.896044,-666.185348,7846.182985
2710.836857,-3064.381992,-666.185348,8586.388927
2710.837186,-2911.162892,-444.123565,8512.368333
2710.837515,-3447.429741,444.123565,8512.368333
2710.837844,-4136.915689,370.102971,8586.388927
2710.838173,-4979.620737,518.144159,9178.553681
2710.838502,-4979.620737,-740.205942,10362.883188
2710.838831,-5286.058936,-2146.597232,10584.944971
2710.839160,-3983.696590,-2368.659014,11177.109724
2710.839489,-3217.601092,-2072.576638,10362.883188
2710.839818,-1762.019645,-740.205942,8956.491898
2710.840147,-842.705048,888.247130,7476.080014
2710.840476,-383.047749,2072.576638,7550.100608
2710.840804,1455.581446,814.226536,9844.739029
2710.841133,1225.752797,2960.823768,5551.544565
2710.841462,2068.457845,2516.700203,7550.100608
2710.841791,0.000000,1998.556043,5329.482782
2710.842120,-612.876398,1480.411884,7476.080014
2710.842449,-3140.991542,-888.247130,9696.697840
2710.842778,-3600.648841,-1776.494261,10214.842000
2710.843107,-3753.867940,-2368.659014,9992.780217
2710.843436,-5286.058936,-1628.453072,10140.821405
2710.843765,-6971.469032,-2738.761985,11177.109724
2710.844094,-7431.126331,-1554.432478,12509.480420
2710.844423,-5056.230287,-1554.432478,11695.253884
2710.844752,-3907.087040,-1406.391290,10732.986159
2710.845081,-1149.143247,-0.000000,9622.677246
2710.845409,229.828649,2072.576638,7994.224174
2710.845738,-1378.971896,222.061783,7254.018232
2710.846067,1149.143247,-444.123565,13101.645173
2710.846396,2068.457845,1554.432478,5847.626942
2710.846725,4060.306139,1480.411884,7994.224174
2710.847054,612.876398,1702.473667,5699.585753
2710.847383,612.876398,2146.597232,7920.203579
2710.847712,-1915.238745,-444.123565,9622.677246
2710.848041,-2681.334243,-0.000000,8956.491898
2710.848370,-2374.896044,-2590.720797,11325.150913
2710.848699,-4519.963438,-962.267725,9326.594869
2710.849028,-5669.106685,-222.061783,8734.430116
2710.849357,-6894.859482,-1776.494261,10955.047942
2710.849686,-5898.935335,-666.185348,9696.697840
2710.850014,-5132.839837,-1924.535449,10436.903782
2710.850343,-4060.306139,-1776.494261,9474.636058
2710.850672,-3370.820191,-222.061783,9178.553681
2710.851001,-3217.601092,-2886.803174,8586.388927
2710.851330,-2604.724693,-444.123565,8290.306550
2710.851659,-2068.457845,740.205942,8882.471304
2710.851988,-1225.752797,-0.000000,8364.327145
2710.852317,-2145.067394,740.205942,9326.594869
2710.852646,-2221.676944,296.082377,9326.594869
2710.852975,-2528.115143,814.226536,8660.409521
2710.853304,-2604.724693,888.247130,7698.141797
2710.853633,-2298.286494,518.144159,8290.306550
2710.853962,-2145.067394,1702.473667,8512.368333
2710.854291,-2374.896044,1332.370696,7254.018232
2710.854619,-2604.724693,814.226536,8142.265362
2710.854948,-2221.676944,296.082377,7698.141797
2710.855277,-2221.676944,666.185348,7550.100608
2710.855606,-2374.896044,-296.082377,7476.080014
2710.855935,-2681.334243,-0.000000,8512.368333
2710.856264,-2987.772442,-518.144159,9622.677246
2710.856593,-3830.477490,1036.288319,8734.430116
2710.856922,-3907.087040,1776.494261,9474.636058
2710.857251,-3370.820191,296.082377,10288.862594
2710.857580,-3370.820191,2072.576638,9918.759623
2710.857909,-2911.162892,1480.411884,10288.862594
2710.858238,-3447.429741,-0.000000,11251.130318
2710.858567,-3064.381992,444.123565,10881.027347
2710.858896,-2145.067394,888.247130,9992.780217
2710.859224,-995.924147,962.267725,9622.677246
2710.859553,-612.876398,1628.453072,8068.244768
2710.859882,-459.657299,-740.205942,11325.150913
2710.860211,1378.971896,888.247130,9548.656652
2710.860540,2757.943793,3330.926739,6143.709319
2710.860869,3983.696590,3478.967927,7254.018232
2710.861198,3140.991542,4367.215058,5329.482782
2710.861527,3753.867940,5033.400406,8068.244768
2710.861856,2298.286494,4293.194464,7328.038826
2710.862185,1991.848295,3923.091493,8142.265362
2710.862514,612.876398,2368.659014,10436.903782
2710.862843,-229.828649,3256.906145,10066.800811
2710.863172,-2068.457845,814.226536,12065.356855
2710.863501,-1838.629195,1258.350101,10584.944971
2710.863829,-1302.362347,1184.329507,10658.965565
2710.864158,-1302.362347,1702.473667,10955.047942
2710.864487,1149.143247,3256.906145,9622.677246
2710.864816,1838.629195,3552.988522,7920.203579
2710.865145,2604.724693,3034.844362,7105.977043
2710.865474,3600.648841,5551.544565,6365.771101
2710.865803,2451.505594,4663.297435,6143.709319
2710.866132,2221.676944,4811.338623,7624.121203
2710.866461,919.314598,4515.256246,8364.327145
2710.866790,-1072.533697,3404.947333,9474.636058
2710.867119,-3294.210641,2072.576638,10140.821405
2710.867448,-4290.134789,148.041188,11917.315666
2710.867777,-4060.306139,296.082377,11917.315666
2710.868106,-3983.696590,2664.741391,9844.739029
2710.868434,-3524.039291,2442.679609,10510.924376
2710.868763,-3600.648841,2368.659014,10658.965565
2710.869092,-2298.286494,2368.659014,11325.150913
2710.869421,-1762.019645,2590.720797,10214.842000
2710.869750,-842.705048,3256.906145,8068.244768
2710.870079,-995.924147,2960.823768,8290.306550
2710.870408,-842.705048,2442.679609,10140.821405
2710.870737,1915.238745,2812.782580,9474.636058
2710.871066,3217.601092,4737.318029,5773.606348
2710.871395,4979.620737,4071.132681,7476.080014
2710.871724,2451.505594,5107.421000,5921.647536
2710.872053,3524.039291,6069.688724,8586.388927
2710.872382,1915.238745,7179.997637,5995.668130
2710.872711,2145.067394,5329.482782,7031.956449
2710.873039,383.047749,5107.421000,8660.409521
2710.873368,-229.828649,6069.688724,6809.894666
2710.873697,-1378.971896,1998.556043,10584.944971
2710.874026,-3294.210641,-0.000000,10436.903782
2710.874355,-1532.190996,592.164754,10066.800811
2710.874684,-2068.457845,-296.082377,10732.986159
2710.875013,-2145.067394,1480.411884,10288.862594
2710.875342,-1532.190996,2960.823768,11251.130318
2710.875671,995.924147,2368.659014,9474.636058
2710.876000,2451.505594,5699.585753,7476.080014
2710.876329,4136.915689,3478.967927,7772.162391
2710.876658,4366.744339,4515.256246,7920.203579
2710.876987,3140.991542,5699.585753,6735.874072
2710.877316,2987.772442,5255.462188,7105.977043
2710.877644,919.314598,3404.947333,7254.018232
2710.877973,1149.143247,3034.844362,10510.924376
2710.878302,-2528.115143,1628.453072,11103.089130
2710.878631,-2681.334243,-814.226536,13323.706956
2710.878960,-3753.867940,1184.329507,11251.130318
2710.879289,-2221.676944,-1850.514855,11621.233289
2710.879618,-3447.429741,1924.535449,9030.512492
2710.879947,-1838.629195,1480.411884,10881.027347
2710.880276,-1149.143247,2442.679609,8956.491898
2710.880605,-459.657299,1036.288319,10955.047942
2710.880934,3524.039291,1702.473667,9178.553681
2710.881263,4443.353888,3182.885551,5921.647536
2710.881592,3677.258390,2738.761985,8290.306550
2710.881921,3064.381992,3552.988522,4663.297435
2710.882249,4903.011187,5329.482782,8512.368333
2710.882578,2987.772442,4219.173869,7105.977043
2710.882907,2374.896044,5921.647536,5477.523971
2710.883236,1455.581446,3849.070898,9622.677246
2710.883565,-766.095498,2072.576638,7698.141797
2710.883894,-3830.477490,-3256.906145,14434.015869
2710.884223,-4979.620737,-2590.720797,11917.315666
2710.884552,-3524.039291,296.082377,11177.109724
2710.884881,-3524.039291,-2442.679609,12139.377449
2710.885210,-2911.162892,2738.761985,8660.409521
2710.885539,76.609550,2886.803174,8438.347739
2710.885868,0.000000,3034.844362,7402.059420
2710.886197,1838.629195,2368.659014,11251.130318
2710.886526,2681.334243,1184.329507,9474.636058
2710.886854,4060.306139,4219.173869,6513.812290
2710.887183,4366.744339,7105.977043,2294.638420
2710.887512,3600.648841,3997.112087,4811.338623
2710.887841,4366.744339,3478.967927,9104.533087
2710.888170,2374.896044,5625.565159,7105.977043
2710.888499,3524.039291,3701.029710,7254.018232
2710.888828,-1302.362347,5699.585753,7328.038826
2710.889157,-3983.696590,1110.308913,9030.512492
2710.889486,-4826.401637,-3775.050304,15396.283594
2710.889815,-5362.668486,3923.091493,9474.636058
2710.890144,-2528.115143,-3404.947333,11843.295072
2710.890473,-3907.087040,-2664.741391,10807.006753
2710.890802,-1915.238745,3330.926739,13027.624579
2710.891131,-919.314598,1998.556043,7994.224174
2710.891459,-2604.724693,3108.864956,8734.430116
2710.891788,2757.943793,1480.411884,14952.160028
2710.892117,3600.648841,5255.462188,4811.338623
2710.892446,4366.744339,5477.523971,9696.697840
2710.892775,2221.676944,4663.297435,5181.441594
2710.893104,5132.839837,8586.388927,4811.338623
2710.893433,1072.533697,4589.276840,8142.265362
2710.893762,-153.219100,6661.853478,5255.462188
2710.894091,1149.143247,5921.647536,12879.583391
2710.894420,-842.705048,4663.297435,6661.853478
2710.894749,-459.657299,1554.432478,11325.150913
2710.895078,-4826.401637,-666.185348,15100.201217
2710.895407,-3294.210641,-2294.638420,10807.006753
2710.895736,-2911.162892,444.123565,12583.501014
2710.896064,-995.924147,-3404.947333,11843.295072
2710.896393,-3217.601092,3923.091493,6957.935855
2710.896722,1072.533697,1110.308913,11769.274478
2710.897051,1072.533697,6587.832884,6513.812290
2710.897380,2528.115143,6365.771101,9474.636058
2710.897709,4136.915689,4811.338623,6809.894666
2710.898038,1915.238745,5403.503377,8882.471304
2710.898367,0.000000,6513.812290,9992.780217
2710.898696,612.876398,5329.482782,5995.668130
2710.899025,919.314598,4293.194464,8956.491898
2710.899354,2145.067394,2812.782580,8660.409521
2710.899683,1608.800546,2590.720797,9918.759623
2710.900012,-306.438199,1036.288319,9918.759623
2710.900341,-229.828649,-1184.329507,9696.697840
2710.900669,536.266849,2516.700203,9696.697840
2710.900998,536.266849,2294.638420,9326.594869
2710.901327,-1149.143247,4663.297435,7994.224174
2710.901656,842.705048,3923.091493,10066.800811
2710.901985,2374.896044,2886.803174,8364.327145
2710.902314,2911.162892,5847.626942,9178.553681
2710.902643,2757.943793,3256.906145,8808.450710
2710.902972,1915.238745,2294.638420,8660.409521
2710.903301,459.657299,3330.926739,8956.491898
2710.903630,536.266849,3182.885551,9030.512492
2710.903959,-459.657299,1702.473667,10214.842000
2710.904288,-1915.238745,2368.659014,10881.027347
2710.904617,-1915.238745,2442.679609,9918.759623
2710.904946,-1378.971896,-0.000000,9622.677246
2710.905274,-1149.143247,370.102971,10288.862594
2710.905603,0.000000,-222.061783,9696.697840
2710.905932,-689.485948,2294.638420,9400.615463
2710.906261,766.095498,2442.679609,9030.512492
2710.906590,3064.381992,2368.659014,7105.977043
2710.906919,2987.772442,3923.091493,6809.894666
2710.907248,995.924147,3997.112087,8068.244768
2710.907577,536.266849,3478.967927,7920.203579
2710.907906,1532.190996,2664.741391,8808.450710
2710.908235,2451.505594,3330.926739,6957.935855
2710.908564,536.266849,3182.885551,8438.347739
2710.908893,-1915.238745,-0.000000,10732.986159
2710.909222,-1915.238745,-222.061783,10732.986159
2710.909551,-1991.848295,-0.000000,10881.027347
2710.909879,-3447.429741,2146.597232,9326.594869
2710.910208,-3524.039291,1184.329507,10881.027347
2710.910537,-2221.676944,1480.411884,10510.924376
2710.910866,-612.876398,2516.700203,8142.265362
2710.911195,0.000000,1702.473667,7550.100608
2710.911525,1072.533697,2146.597232,8364.327145
2710.911854,2374.896044,3108.864956,7920.203579
2710.912183,1378.971896,3849.070898,6957.935855
2710.912512,995.924147,2812.782580,7624.121203
2710.912841,1072.533697,962.267725,9400.615463
2710.913170,1072.533697,1258.350101,9992.780217
2710.913499,612.876398,1998.556043,9400.615463
2710.913828,-306.438199,296.082377,10510.924376
2710.914157,-229.828649,370.102971,11325.150913
2710.914486,-689.485948,1998.556043,10362.883188
2710.914815,-1532.190996,2590.720797,9918.759623
2710.915144,-612.876398,2146.597232,10214.842000
2710.915473,919.314598,1184.329507,9844.739029
2710.915802,1685.410096,2220.617826,7994.224174
2710.916132,1915.238745,1554.432478,8364.327145
2710.916461,2068.457845,-296.082377,8216.285956
2710.916790,1991.848295,2146.597232,7772.162391
2710.917119,1532.190996,3404.947333,7328.038826
2710.917448,1455.581446,1332.370696,8364.327145
2710.917777,1838.629195,888.247130,8142.265362
2710.918106,2221.676944,296.082377,9622.677246
2710.918435,1225.752797,148.041188,10955.047942
2710.918764,459.657299,-814.226536,9622.677246
2710.919093,76.609550,-222.061783,10140.821405
2710.919422,-766.095498,1776.494261,10066.800811
2710.919751,-1225.752797,1406.391290,9992.780217
2710.920080,-383.047749,222.061783,9474.636058
2710.920409,-459.657299,1184.329507,8438.347739
2710.920738,536.266849,1554.432478,8808.450710
2710.921068,536.266849,-0.000000,8364.327145
2710.921397,612.876398,-370.102971,7698.141797
2710.921726,153.219100,1554.432478,7328.038826
2710.922055,-153.219100,1258.350101,7624.121203
2710.922384,0.000000,-1036.288319,8734.430116
2710.922713,0.000000,-1406.391290,9992.780217
2710.923042,766.095498,-370.102971,9844.739029
2710.923371,306.438199,-1406.391290,9992.780217
2710.923700,-383.047749,-888.247130,10288.862594
2710.924029,-919.314598,888.247130,10732.986159
2710.924358,-995.924147,1998.556043,9770.718434
2710.924687,-229.828649,-0.000000,10436.903782
2710.925016,1378.971896,444.123565,9104.533087
2710.925345,689.485948,1480.411884,8586.388927
2710.925675,842.705048,-148.041188,10066.800811
2710.926004,1072.533697,-518.144159,8660.409521
2710.926333,536.266849,-0.000000,7254.018232
2710.926662,383.047749,370.102971,7846.182985
2710.926991,919.314598,-222.061783,8216.285956
2710.927320,1225.752797,-0.000000,8364.327145
2710.927649,1149.143247,-518.144159,8216.285956
2710.927978,1072.533697,-962.267725,9104.533087
2710.928307,536.266849,-814.226536,9548.656652
2710.928636,-459.657299,-148.041188,9844.739029
2710.928965,-383.047749,-0.000000,9992.780217
2710.929294,689.485948,592.164754,9548.656652
2710.929623,995.924147,-370.102971,9326.594869
2710.929952,689.485948,-444.123565,9326.594869
2710.930282,919.314598,-814.226536,9622.677246
2710.930611,1608.800546,518.144159,8364.327145
2710.930940,766.095498,814.226536,7105.977043
2710.931269,383.047749,-0.000000,7846.182985
2710.931598,995.924147,-444.123565,7994.224174
2710.931927,536.266849,-222.061783,7994.224174
2710.932256,1302.362347,-1628.453072,7920.203579
2710.932585,-153.219100,-2294.638420,9104.533087
2710.932914,-1149.143247,-1332.370696,8808.450710
2710.933243,-1608.800546,-740.205942,9400.615463
2710.933572,-1378.971896,-1776.494261,9918.759623
2710.933901,-1149.143247,-1702.473667,10140.821405
2710.934230,0.000000,-444.123565,10288.862594
2710.934559,-153.219100,-370.102971,9474.636058
2710.934889,153.219100,-1036.288319,10140.821405
2710.935218,995.924147,740.205942,9252.574275
2710.935547,0.000000,666.185348,7994.224174
2710.935876,383.047749,-518.144159,9104.533087
2710.936205,689.485948,-370.102971,9252.574275
2710.936534,919.314598,-518.144159,8438.347739
2710.936863,0.000000,-1332.370696,8512.368333
2710.937192,306.438199,-1332.370696,9252.574275
2710.937521,-536.266849,-666.185348,9474.636058
2710.937850,-995.924147,222.061783,8364.327145
2710.938179,0.000000,-962.267725,9474.636058
2710.938508,229.828649,-222.061783,9474.636058
2710.938837,306.438199,296.082377,9770.718434
2710.939166,766.095498,-444.123565,10214.842000
2710.939496,1685.410096,-740.205942,9474.636058
2710.939825,2145.067394,2146.597232,8290.306550
2710.940154,1455.581446,1258.350101,7698.141797
2710.940483,1072.533697,666.185348,10584.944971
2710.940812,2145.067394,740.205942,8808.450710
2710.941141,1838.629195,518.144159,7402.059420
2710.941470,1378.971896,-296.082377,8808.450710
2710.941799,919.314598,-444.123565,9104.533087
2710.942128,383.047749,-0.000000,8290.306550
2710.942457,-995.924147,-1110.308913,9400.615463
2710.942786,0.000000,-888.247130,10362.883188
2710.943115,-229.828649,-296.082377,9030.512492
2710.943444,-306.438199,-1036.288319,9696.697840
2710.943773,536.266849,-888.247130,10066.800811
2710.944103,1225.752797,-74.020594,9548.656652
2710.944432,612.876398,444.123565,7328.038826
2710.944761,383.047749,888.247130,8808.450710
2710.945090,1455.581446,-0.000000,10436.903782
2710.945419,612.876398,962.267725,7846.182985
2710.945748,0.000000,-296.082377,8956.491898
2710.946077,-306.438199,-1332.370696,9474.636058
2710.946406,-689.485948,-962.267725,9918.759623
2710.946735,-1455.581446,-1036.288319,9474.636058
2710.947064,-1532.190996,-2664.741391,9474.636058
2710.947393,-536.266849,-1554.432478,9622.677246
2710.947722,-689.485948,-518.144159,8882.471304
2710.948051,-153.219100,-1406.391290,9474.636058
2710.948380,536.266849,-1332.370696,9696.697840
2710.948710,1225.752797,-148.041188,7105.977043
2710.949039,1072.533697,1332.370696,7254.018232
2710.949368,995.924147,1110.308913,9326.594869
2710.949697,1915.238745,592.164754,8142.265362
2710.950026,919.314598,962.267725,7624.121203
2710.950355,766.095498,-222.061783,9474.636058
2710.950684,689.485948,-888.247130,9548.656652
2710.951013,-306.438199,-740.205942,8734.430116
2710.951342,-306.438199,-0.000000,8512.368333
2710.951671,76.609550,-962.267725,10066.800811
2710.952000,0.000000,-1184.329507,9030.512492
2710.952329,306.438199,-296.082377,8290.306550
2710.952658,766.095498,-814.226536,9548.656652
2710.952987,1608.800546,-74.020594,8882.471304
2710.953317,1608.800546,2146.597232,6587.832884
2710.953646,1685.410096,518.144159,8734.430116
2710.953975,1838.629195,740.205942,9104.533087
2710.954304,2221.676944,1036.288319,8290.306550
2710.954633,1302.362347,-0.000000,8956.491898
2710.954962,229.828649,-518.144159,9622.677246
2710.955291,229.828649,-1110.308913,10510.924376
2710.955620,-1149.143247,-814.226536,8956.491898
2710.955949,-1149.143247,-1628.453072,10955.047942
2710.956278,-383.047749,-1850.514855,11177.109724
2710.956607,-1378.971896,-1776.494261,9622.677246
2710.956936,-536.266849,-222.061783,9844.739029
2710.957265,689.485948,-740.205942,8808.450710
2710.957594,612.876398,888.247130,8142.265362
2710.957924,842.705048,814.226536,9030.512492
2710.958253,1532.190996,370.102971,8808.450710
2710.958582,1532.190996,1184.329507,8142.265362
2710.958911,1532.190996,962.267725,7920.203579
2710.959240,612.876398,444.123565,8956.491898
2710.959569,76.609550,-666.185348,10584.944971
2710.959898,0.000000,-444.123565,8808.450710
2710.960227,-1072.533697,-0.000000,8216.285956
2710.960556,-1072.533697,-1480.411884,10584.944971
2710.960885,-459.657299,-814.226536,10807.006753
2710.961214,-919.314598,-888.247130,9622.677246
2710.961543,-306.438199,-1184.329507,9326.594869
2710.961872,1225.752797,-0.000000,9178.553681
2710.962201,1378.971896,1184.329507,8512.368333
2710.962531,766.095498,1258.350101,7254.018232
2710.962860,1915.238745,962.267725,8882.471304
2710.963189,2604.724693,1332.370696,7476.080014
2710.963518,1532.190996,1332.370696,7402.059420
2710.963847,1532.190996,1036.288319,7994.224174
2710.964176,383.047749,-814.226536,9326.594869
2710.964505,-842.705048,370.102971,9104.533087
2710.964834,-842.705048,-1406.391290,9104.533087
2710.965163,-383.047749,-2442.679609,10362.883188
2710.965492,-1838.629195,-1332.370696,9844.739029
2710.965821,-842.705048,-1628.453072,10807.006753
2710.966150,-995.924147,-1406.391290,9622.677246
2710.966479,306.438199,-592.164754,9178.553681
2710.966808,919.314598,1628.453072,8586.388927
2710.967138,1072.533697,-0.000000,8142.265362
2710.967467,1532.190996,-0.000000,8364.327145
2710.967796,2298.286494,1110.308913,6809.894666
2710.968125,2451.505594,1406.391290,7402.059420
2710.968454,995.924147,296.082377,7920.203579
2710.968783,153.219100,-0.000000,8660.409521
2710.969112,-1302.362347,-0.000000,8660.409521
2710.969441,-1378.971896,-740.205942,9548.656652
2710.969770,-1225.752797,-1628.453072,9918.759623
2710.970099,-2068.457845,-2738.761985,10288.862594
2710.970428,-1991.848295,-1776.494261,11103.089130
2710.970757,-689.485948,-2590.720797,10732.986159
2710.971086,0.000000,-518.144159,9474.636058
2710.971415,383.047749,740.205942,8142.265362
2710.971745,1378.971896,740.205942,8734.430116
2710.972074,3064.381992,1628.453072,8290.306550
2710.972403,4443.353888,2664.741391,7179.997637
2710.972732,3140.991542,1184.329507,7031.956449
2710.973061,1455.581446,666.185348,9030.512492
2710.973390,842.705048,1332.370696,8956.491898
2710.973719,-383.047749,-296.082377,7846.182985
2710.974048,-689.485948,-1628.453072,9918.759623
2710.974377,-612.876398,-2738.761985,10732.986159
2710.974706,-1532.190996,-2664.741391,10510.924376
2710.975035,-1455.581446,-1702.473667,10807.006753
2710.975364,-536.266849,-1110.308913,10214.842000
2710.975693,-306.438199,-0.000000,9178.553681
2710.976022,229.828649,444.123565,9252.574275
2710.976352,1685.410096,-444.123565,9400.615463
2710.976681,2221.676944,1406.391290,8216.285956
2710.977010,3140.991542,1924.535449,7179.997637
2710.977339,2298.286494,296.082377,8364.327145
2710.977668,919.314598,296.082377,9252.574275
2710.977997,153.219100,814.226536,8068.244768
2710.978326,-689.485948,-0.000000,8364.327145
2710.978655,-1225.752797,-1702.473667,10362.883188
2710.978984,-1149.143247,-1480.411884,10510.924376
2710.979313,-1685.410096,-1924.535449,10732.986159
2710.979642,-2068.457845,-2960.823768,10584.944971
2710.979971,-689.485948,-1406.391290,9770.718434
2710.980300,-612.876398,1184.329507,9030.512492
2710.980629,0.000000,888.247130,8882.471304
2710.980959,1915.238745,1184.329507,9400.615463
2710.981288,2604.724693,1924.535449,6661.853478
2710.981617,2834.553343,1702.473667,6957.935855
2710.981946,2374.896044,1332.370696,8512.368333
2710.982275,1225.752797,518.144159,8808.450710
2710.982604,383.047749,1258.350101,7920.203579
2710.982933,-459.657299,-296.082377,9104.533087
2710.983262,-842.705048,-2072.576638,10288.862594
2710.983591,-1302.362347,-1702.473667,10584.944971
2710.983920,-1072.533697,-1702.473667,9474.636058
2710.984249,-612.876398,-2516.700203,10510.924376
2710.984578,-842.705048,-74.020594,9474.636058
2710.984907,153.219100,296.082377,8290.306550
2710.985236,919.314598,370.102971,9030.512492
2710.985565,2221.676944,1332.370696,8142.265362
2710.985895,3294.210641,1554.432478,6883.915261
2710.986224,2604.724693,1480.411884,7920.203579
2710.986553,3370.820191,814.226536,8660.409521
2710.986882,1532.190996,1184.329507,7624.121203
2710.987211,-306.438199,888.247130,7994.224174
2710.987540,-995.924147,-666.185348,9844.739029
2710.987869,-1378.971896,-1998.556043,10510.924376
2710.988198,-2451.505594,-2220.617826,10658.965565
2710.988527,-2145.067394,-2886.803174,10732.986159
2710.988856,-2221.676944,-2442.679609,11621.233289
2710.989185,-1838.629195,-666.185348,10288.862594
2710.989514,-459.657299,-0.000000,9474.636058
2710.989843,1225.752797,148.041188,9400.615463
2710.990172,2298.286494,1776.494261,7994.224174
2710.990502,3370.820191,1998.556043,7698.141797
2710.990831,3370.820191,2072.576638,7920.203579
2710.991160,3294.210641,1850.514855,8290.306550
2710.991489,1455.581446,1850.514855,7402.059420
2710.991818,0.000000,1184.329507,8290.306550
2710.992147,-459.657299,-2146.597232,10362.883188
2710.992476,-1225.752797,-2442.679609,10362.883188
2710.992805,-2374.896044,-2516.700203,10362.883188
2710.993134,-2221.676944,-3256.906145,11103.089130
2710.993463,-2298.286494,-2294.638420,10807.006753
2710.993792,-2145.067394,-1036.288319,8882.471304
2710.994121,-766.095498,-444.123565,9326.594869
2710.994450,1608.800546,-444.123565,9400.615463
2710.994779,2757.943793,1258.350101,7254.018232
2710.995109,3830.477490,2146.597232,7402.059420
2710.995438,4596.572988,222.061783,7550.100608
2710.995767,3294.210641,962.267725,8216.285956
2710.996096,1991.848295,2294.638420,6587.832884
2710.996425,1378.971896,814.226536,7624.121203
2710.996754,919.314598,-0.000000,9178.553681
2710.997083,-306.438199,-1184.329507,9548.656652
2710.997412,-1532.190996,-2072.576638,10288.862594
2710.997741,-1762.019645,-3552.988522,11251.130318
2710.998070,-2604.724693,-2738.761985,10288.862594
2710.998399,-2604.724693,-1406.391290,10436.903782
2710.998728,-1685.410096,-1184.329507,10288.862594
2710.999057,306.438199,-814.226536,10214.842000
2710.999386,1532.190996,888.247130,7772.162391
2710.999716,2451.505594,-0.000000,8068.244768
2711.000045,2987.772442,1850.514855,8956.491898
2711.000374,2681.334243,1628.453072,6735.874072
2711.000703,1532.190996,2368.659014,6587.832884
2711.001032,1072.533697,1332.370696,8364.327145
2711.001361,459.657299,222.061783,8956.491898
2711.001690,-689.485948,-592.164754,10140.821405
2711.002019,-1608.800546,-2590.720797,9992.780217
2711.002348,-1915.238745,-3256.906145,10658.965565
2711.002677,-2451.505594,-740.205942,10140.821405
2711.003006,-2681.334243,-1406.391290,9918.759623
2711.003335,-1532.190996,-1480.411884,11177.109724
2711.003664,229.828649,592.164754,9104.533087
2711.003993,1685.410096,592.164754,7550.100608
2711.004323,2145.067394,1702.473667,8216.285956
2711.004652,2987.772442,666.185348,8364.327145
2711.004981,1915.238745,2368.659014,6957.935855
2711.005310,919.314598,2442.679609,7105.977043
2711.005639,1532.190996,814.226536,8882.471304
2711.005968,1455.581446,666.185348,8734.430116
2711.006297,153.219100,-740.205942,9252.574275
2711.006626,76.609550,-2886.803174,10510.924376
2711.006955,-459.657299,-2368.659014,9622.677246
2711.007284,-2298.286494,-1702.473667,9696.697840
2711.007613,-1532.190996,-1332.370696,10807.006753
2711.007942,-153.219100,-888.247130,9474.636058
2711.008271,536.266849,1184.329507,7772.162391
2711.008600,1608.800546,1184.329507,8364.327145
2711.008930,2068.457845,666.185348,9326.594869
2711.009259,2298.286494,1776.494261,8216.285956
2711.009588,1608.800546,1628.453072,6735.874072
2711.009917,536.266849,740.205942,8290.306550
2711.010246,229.828649,-592.164754,9622.677246
2711.010575,0.000000,-1776.494261,9918.759623
2711.010904,-1072.533697,-962.267725,9474.636058
2711.011233,-995.924147,-2072.576638,10066.800811
2711.011562,-1608.800546,-444.123565,10510.924376
2711.011891,-2068.457845,-0.000000,9918.759623
2711.012220,-995.924147,-592.164754,10362.883188
2711.012549,0.000000,518.144159,8660.409521
2711.012879,919.314598,1184.329507,7920.203579
2711.013208,1455.581446,666.185348,8586.388927
2711.013537,2068.457845,-74.020594,9474.636058
2711.013866,1378.971896,-0.000000,8142.265362
2711.014195,153.219100,1406.391290,7105.977043
2711.014524,153.219100,-222.061783,9326.594869
2711.014854,76.609550,-666.185348,8956.491898
2711.015183,-612.876398,-444.123565,8808.450710
2711.015512,-689.485948,-1850.514855,10436.903782
2711.015841,-536.266849,-2146.597232,9918.759623
2711.016170,-919.314598,-740.205942,9326.594869
2711.016499,-689.485948,-1332.370696,9104.533087
2711.016829,306.438199,-740.205942,9400.615463
2711.017158,1455.581446,-1258.350101,9400.615463
2711.017487,2298.286494,-148.041188,7179.997637
2711.017816,2298.286494,-444.123565,8956.491898
2711.018145,2451.505594,740.205942,7920.203579
2711.018474,2145.067394,1850.514855,6661.853478
2711.018804,1608.800546,1702.473667,7624.121203
2711.019133,1302.362347,-814.226536,9400.615463
2711.019462,-306.438199,-740.205942,9178.553681
2711.019791,-229.828649,-2220.617826,9844.739029
2711.020120,-383.047749,-2516.700203,9992.780217
2711.020449,-612.876398,-2516.700203,9992.780217
2711.020779,-1072.533697,-1406.391290,8956.491898
2711.021108,-1302.362347,-962.267725,9548.656652
2711.021437,-153.219100,-814.226536,9844.739029
2711.021766,0.000000,-0.000000,8216.285956
2711.022095,1838.629195,592.164754,8142.265362
2711.022425,1532.190996,518.144159,9178.553681
2711.022754,1149.143247,444.123565,8956.491898
2711.023083,612.876398,1184.329507,7179.997637
2711.023412,689.485948,-370.102971,8882.471304
2711.023741,383.047749,296.082377,9622.677246
2711.024070,612.876398,-592.164754,9326.594869
2711.024400,-229.828649,-296.082377,9622.677246
2711.024729,-306.438199,-1406.391290,9548.656652
2711.025058,-689.485948,148.041188,9474.636058
2711.025387,-1378.971896,222.061783,8734.430116
2711.025716,-536.266849,-814.226536,9918.759623
2711.026045,153.219100,-74.020594,9474.636058
2711.026375,919.314598,-0.000000,8364.327145
2711.026704,383.047749,148.041188,9030.512492
2711.027033,919.314598,-518.144159,9548.656652
2711.027362,536.266849,888.247130,8438.347739
2711.027691,76.609550,814.226536,8364.327145
2711.028020,689.485948,-0.000000,8882.471304
2711.028350,1072.533697,-0.000000,8364.327145
2711.028679,1149.143247,1036.288319,9400.615463
2711.029008,689.485948,-740.205942,8956.491898
2711.029337,919.314598,-1110.308913,9548.656652
2711.029666,306.438199,518.144159,8660.409521
2711.029996,306.438199,-74.020594,8512.368333
2711.030325,383.047749,-518.144159,9770.718434
2711.030654,919.314598,-148.041188,9104.533087
2711.030983,1072.533697,370.102971,7920.203579
2711.031312,459.657299,518.144159,8882.471304
2711.031641,536.266849,-0.000000,9104.533087
2711.031971,-536.266849,518.144159,8586.388927
2711.032300,-1072.533697,518.144159,8438.347739
2711.032629,-536.266849,-1406.391290,9844.739029
2711.032958,-536.266849,-888.247130,9474.636058
2711.033287,-995.924147,-888.247130,9030.512492
2711.033616,-689.485948,-1850.514855,10362.883188
2711.033946,-842.705048,-1036.288319,10066.800811
2711.034275,-536.266849,814.226536,8438.347739
2711.034604,0.000000,-518.144159,8734.430116
2711.034933,689.485948,962.267725,9918.759623
2711.035262,842.705048,1480.411884,8438.347739
2711.035591,1455.581446,592.164754,8142.265362
2711.035921,919.314598,-0.000000,9326.594869
2711.036250,1072.533697,1258.350101,8586.388927
2711.036579,0.000000,1406.391290,9178.553681
2711.036908,-536.266849,-0.000000,9400.615463
2711.037237,0.000000,-1036.288319,9770.718434
2711.037567,0.000000,-518.144159,9622.677246
2711.037896,0.000000,-1776.494261,9844.739029
2711.038225,0.000000,-1184.329507,10584.944971
2711.038554,-536.266849,-592.164754,8734.430116
2711.038883,0.000000,1110.308913,7624.121203
2711.039212,459.657299,-518.144159,9696.697840
2711.039542,1532.190996,-0.000000,9474.636058
2711.039871,2298.286494,-0.000000,7772.162391
2711.040200,1991.848295,296.082377,7920.203579
2711.040529,1762.019645,148.041188,8882.471304
2711.040858,1149.143247,518.144159,8882.471304
2711.041187,383.047749,-0.000000,7624.121203
2711.041517,689.485948,-1258.350101,9400.615463
2711.041846,995.924147,-888.247130,9548.656652
2711.042175,153.219100,-518.144159,7772.162391
2711.042504,306.438199,-1036.288319,9400.615463
2711.042833,536.266849,-1258.350101,9770.718434
2711.043162,-459.657299,-296.082377,8734.430116
2711.043492,-536.266849,-666.185348,8512.368333
2711.043821,0.000000,-1184.329507,9548.656652
2711.044150,459.657299,-666.185348,9252.574275
2711.044479,536.266849,-888.247130,8290.306550
2711.044808,459.657299,-1702.473667,9474.636058
2711.045138,306.438199,-888.247130,8808.450710
2711.045467,0.000000,1332.370696,8586.388927
2711.045796,-383.047749,1184.329507,8512.368333
2711.046125,76.609550,-296.082377,9622.677246
2711.046454,153.219100,-74.020594,8882.471304
2711.046783,229.828649,-370.102971,9178.553681
2711.047113,-306.438199,-1702.473667,9844.739029
2711.047442,459.657299,-74.020594,9326.594869
2711.047771,-306.438199,740.205942,7846.182985
2711.048100,0.000000,-148.041188,9474.636058
2711.048429,842.705048,296.082377,9696.697840
2711.048758,1149.143247,-0.000000,8512.368333
2711.049088,612.876398,592.164754,8068.244768
2711.049417,0.000000,-0.000000,9104.533087
2711.049746,842.705048,-222.061783,9696.697840
2711.050075,-459.657299,1406.391290,8660.409521
2711.050404,0.000000,592.164754,9252.574275
2711.050733,383.047749,-444.123565,9770.718434
2711.051063,383.047749,444.123565,8512.368333
2711.051392,612.876398,-740.205942,9770.718434
2711.051721,1225.752797,-740.205942,9696.697840
2711.052050,842.705048,518.144159,9178.553681
2711.052379,306.438199,962.267725,8364.327145
2711.052708,536.266849,666.185348,8216.285956
2711.053038,1685.410096,814.226536,9104.533087
2711.053367,1378.971896,1480.411884,7772.162391
2711.053696,459.657299,-0.000000,8808.450710
2711.054025,536.266849,-0.000000,9844.739029
2711.054354,-536.266849,-0.000000,9104.533087
2711.054684,-1149.143247,370.102971,9474.636058
2711.055013,-919.314598,-962.267725,10288.862594
2711.055342,-459.657299,-1110.308913,10732.986159
2711.055671,-612.876398,-814.226536,9400.615463
2711.056000,0.000000,-1036.288319,9696.697840
2711.056329,766.095498,-962.267725,10140.821405
2711.056659,842.705048,1406.391290,8068.244768
2711.056988,536.266849,1702.473667,7920.203579
2711.057317,1072.533697,296.082377,9178.553681
2711.057646,1532.190996,444.123565,8512.368333
2711.057975,1149.143247,666.185348,7846.182985
2711.058304,1302.362347,-666.185348,9104.533087
2711.058634,229.828649,-518.144159,9918.759623
2711.058963,0.000000,-666.185348,8734.430116
2711.059292,-842.705048,-666.185348,8808.450710
2711.059621,-306.438199,-1554.432478,10510.924376
2711.059950,-306.438199,-962.267725,9696.697840
2711.060279,-383.047749,-148.041188,8438.347739
2711.060609,383.047749,-814.226536,9770.718434
2711.060938,995.924147,-74.020594,8882.471304
2711.061267,1149.143247,1480.411884,7994.224174
2711.061596,995.924147,888.247130,8660.409521
2711.061925,1762.019645,74.020594,9326.594869
2711.062255,1838.629195,-0.000000,7772.162391
2711.062584,1378.971896,-740.205942,8142.265362
2711.062913,919.314598,-1406.391290,9326.594869
2711.063242,612.876398,-74.020594,9104.533087
2711.063571,-459.657299,-0.000000,8438.347739
2711.063900,-306.438199,-962.267725,9696.697840
2711.064230,229.828649,-222.061783,9696.697840
2711.064559,0.000000,-74.020594,8882.471304
2711.064888,0.000000,-0.000000,8808.450710
2711.065217,842.705048,-814.226536,9770.718434
2711.065546,919.314598,-222.061783,9104.533087
2711.065875,842.705048,-74.020594,8364.327145
2711.066205,1149.143247,-370.102971,9178.553681
2711.066534,1378.971896,370.102971,8660.409521
2711.066863,1225.752797,518.144159,8512.368333
2711.067192,459.657299,296.082377,8956.491898
2711.067521,536.266849,-1258.350101,9992.780217
2711.067850,-536.266849,444.123565,8586.388927
2711.068180,-1302.362347,-222.061783,9622.677246
2711.068509,-1302.362347,-1036.288319,10510.924376
2711.068838,-1378.971896,-1924.535449,9474.636058
2711.069167,-919.314598,-1480.411884,10288.862594
2711.069496,-383.047749,-1628.453072,9844.739029
2711.069826,383.047749,-962.267725,10140.821405
2711.070155,612.876398,814.226536,8142.265362
2711.070484,1072.533697,1258.350101,6883.915261
2711.070813,842.705048,-0.000000,9696.697840
2711.071142,2221.676944,740.205942,8216.285956
2711.071471,1608.800546,1036.288319,7476.080014
2711.071801,536.266849,148.041188,9178.553681
2711.072130,459.657299,-296.082377,9104.533087
2711.072459,-229.828649,-1110.308913,8882.471304
2711.072788,-1302.362347,-592.164754,9400.615463
2711.073117,-229.828649,-1850.514855,10807.006753
2711.073446,-1532.190996,-1480.411884,9696.697840
2711.073776,-766.095498,-592.164754,9326.594869
2711.074105,383.047749,-1184.329507,9474.636058
2711.074434,1149.143247,-222.061783,9326.594869
2711.074763,1455.581446,1184.329507,7550.100608
2711.075092,1685.410096,962.267725,8660.409521
2711.075421,2145.067394,518.144159,9252.574275
2711.075751,2374.896044,1554.432478,7105.977043
2711.076080,2221.676944,888.247130,8734.430116
2711.076409,1532.190996,592.164754,8660.409521
2711.076738,306.438199,-0.000000,9104.533087
2711.077067,-689.485948,740.205942,8882.471304
2711.077397,-612.876398,-1332.370696,10510.924376
2711.077726,-919.314598,-1702.473667,10881.027347
2711.078055,-1302.362347,-1998.556043,10066.800811
2711.078384,-1072.533697,-1184.329507,9918.759623
2711.078713,0.000000,-1184.329507,9992.780217
2711.079042,306.438199,222.061783,9178.553681
2711.079372,919.314598,1406.391290,8660.409521
2711.079701,1838.629195,444.123565,9400.615463
2711.080030,2298.286494,888.247130,8438.347739
2711.080359,1991.848295,1776.494261,6513.812290
2711.080688,1608.800546,740.205942,8290.306550
2711.081017,1378.971896,740.205942,8660.409521
2711.081347,0.000000,1036.288319,8290.306550
2711.081676,-1378.971896,-148.041188,8586.388927
2711.082005,-1302.362347,-1776.494261,9696.697840
2711.082334,-1225.752797,-2294.638420,10436.903782
2711.082663,-1378.971896,-2442.679609,9696.697840
2711.082992,-1302.362347,-2516.700203,10362.883188
2711.083322,-689.485948,-2294.638420,10066.800811
2711.083651,0.000000,-0.000000,8660.409521
2711.083980,612.876398,444.123565,8882.471304
2711.084309,2451.505594,518.144159,7920.203579
2711.084638,3447.429741,1850.514855,7476.080014
2711.084968,2834.553343,2516.700203,6957.935855
2711.085297,2681.334243,296.082377,8438.347739
2711.085626,2145.067394,1406.391290,7476.080014
2711.085955,1225.752797,814.226536,7698.141797
2711.086284,153.219100,-370.102971,9104.533087
2711.086613,-536.266849,-2664.741391,10214.842000
2711.086943,-842.705048,-2368.659014,10955.047942
2711.087272,-1762.019645,-1998.556043,10362.883188
2711.087601,-1608.800546,-2220.617826,10881.027347
2711.087930,-1225.752797,-1406.391290,10807.006753
2711.088259,-612.876398,-0.000000,8586.388927
2711.088588,153.219100,-0.000000,9474.636058
2711.088918,2068.457845,148.041188,9252.574275
2711.089247,2451.505594,1702.473667,7179.997637
2711.089576,2681.334243,1554.432478,8290.306550
2711.089905,2374.896044,962.267725,8734.430116
2711.090234,1149.143247,1036.288319,8512.368333
2711.090563,76.609550,1480.411884,7772.162391
2711.090893,0.000000,-296.082377,8660.409521
2711.091222,-1455.581446,-2072.576638,11473.192101
2711.091551,-2068.457845,-1776.494261,10510.924376
2711.091880,-1991.848295,-2960.823768,10807.006753
2711.092209,-1991.848295,-2368.659014,10732.986159
2711.092538,-1762.019645,-888.247130,9696.697840
2711.092868,-766.095498,370.102971,8882.471304
2711.093197,536.266849,740.205942,9622.677246
2711.093526,2451.505594,1480.411884,8216.285956
2711.093855,2834.553343,1998.556043,7550.100608
2711.094184,2604.724693,962.267725,8142.265362
2711.094514,2528.115143,444.123565,8068.244768
2711.094843,1762.019645,444.123565,7550.100608
2711.095172,383.047749,518.144159,6957.935855
2711.095501,0.000000,-1332.370696,9918.759623
2711.095830,-919.314598,-1406.391290,10584.944971
2711.096159,-1838.629195,-1924.535449,9104.533087
2711.096489,-1991.848295,-2886.803174,10658.965565
2711.096818,-1225.752797,-1998.556043,10140.821405
2711.097147,-1302.362347,-444.123565,8956.491898
2711.097476,-1378.971896,-592.164754,9770.718434
2711.097805,536.266849,-1184.329507,10066.800811
2711.098134,2911.162892,-444.123565,7920.203579
2711.098464,3677.258390,962.267725,6957.935855
2711.098793,3294.210641,444.123565,7476.080014
2711.099122,2298.286494,1036.288319,8438.347739
2711.099451,1378.971896,2960.823768,6291.750507
2711.099780,1149.143247,1702.473667,7476.080014
2711.100109,459.657299,-0.000000,9844.739029
2711.100439,-842.705048,-1850.514855,9918.759623
2711.100768,-2068.457845,-3478.967927,10436.903782
2711.101097,-1532.190996,-4515.256246,11251.130318
2711.101426,-2451.505594,-4219.173869,11177.109724
2711.101755,-2604.724693,-1110.308913,10732.986159
2711.102085,-842.705048,-444.123565,10066.800811
2711.102414,536.266849,1184.329507,8586.388927
2711.102743,2298.286494,1628.453072,8068.244768
2711.103072,2911.162892,1702.473667,7031.956449
2711.103401,3064.381992,1184.329507,8512.368333
2711.103730,2298.286494,2516.700203,7105.977043
2711.104060,1225.752797,1850.514855,6365.771101
2711.104389,1225.752797,444.123565,8808.450710
2711.104718,536.266849,-370.102971,8586.388927
2711.105047,-306.438199,-1628.453072,9252.574275
2711.105376,-1608.800546,-1850.514855,9696.697840
2711.105705,-2145.067394,-3330.926739,11843.295072
2711.106035,-2221.676944,-2220.617826,10362.883188
2711.106364,-2757.943793,-370.102971,10066.800811
2711.106693,-1378.971896,-1036.288319,10584.944971
2711.107022,76.609550,592.164754,9696.697840
2711.107351,1762.019645,1258.350101,7328.038826
2711.107680,2757.943793,1184.329507,8438.347739
2711.108010,2987.772442,740.205942,8734.430116
2711.108339,2221.676944,1184.329507,7846.182985
2711.108668,842.705048,2368.659014,7105.977043
2711.108997,1149.143247,1554.432478,8660.409521
2711.109326,995.924147,444.123565,8734.430116
2711.109656,-306.438199,-518.144159,9104.533087
2711.109985,-842.705048,-2516.700203,10807.006753
2711.110314,-919.314598,-3108.864956,10658.965565
2711.110643,-2145.067394,-0.000000,10066.800811
2711.110972,-1991.848295,-1776.494261,10362.883188
2711.111301,-1225.752797,-1702.473667,11029.068536
2711.111630,459.657299,1036.288319,9474.636058
2711.111960,1532.190996,1332.370696,8290.306550
2711.112289,1991.848295,1480.411884,8660.409521
2711.112618,2451.505594,1850.514855,7698.141797
2711.112947,1225.752797,1480.411884,7846.182985
2711.113276,842.705048,666.185348,8142.265362
2711.113605,459.657299,-0.000000,9030.512492
2711.113934,-153.219100,-0.000000,9252.574275
2711.114263,-995.924147,-222.061783,9992.780217
2711.114592,-1072.533697,-2072.576638,10955.047942
2711.114921,-383.047749,-2072.576638,9770.718434
2711.115250,-1455.581446,-1110.308913,9252.574275
2711.115579,-766.095498,-370.102971,9992.780217
2711.115909,229.828649,-0.000000,9326.594869
2711.116238,1225.752797,222.061783,8512.368333
2711.116567,2374.896044,1998.556043,7402.059420
2711.116896,2834.553343,296.082377,8438.347739
2711.117225,2298.286494,1850.514855,7550.100608
2711.117554,1608.800546,518.144159,6661.853478
2711.117883,612.876398,1184.329507,8068.244768
2711.118212,766.095498,-0.000000,9030.512492
2711.118541,0.000000,-296.082377,9104.533087
2711.118870,-766.095498,-2368.659014,9918.759623
2711.119199,-612.876398,-2738.761985,10732.986159
2711.119528,-306.438199,-1924.535449,9252.574275
2711.119857,-612.876398,-1628.453072,9770.718434
2711.120187,229.828649,-1110.308913,9992.780217
2711.120516,1072.533697,-0.000000,9030.512492
2711.120845,1685.410096,1998.556043,7476.080014
2711.121174,2374.896044,592.164754,8808.450710
2711.121503,2681.334243,1850.514855,8364.327145
2711.121832,2451.505594,1480.411884,7624.121203
2711.122161,1149.143247,1480.411884,7772.162391
2711.122490,536.266849,-888.247130,8808.450710
2711.122819,0.000000,-1406.391290,9844.739029
2711.123148,-1225.752797,-1406.391290,10066.800811
2711.123477,-1225.752797,-3404.947333,11029.068536
2711.123806,-1608.800546,-2886.803174,10214.842000
2711.124136,-1532.190996,-1924.535449,9992.780217
2711.124465,-2451.505594,-740.205942,9548.656652
2711.124794,153.219100,-2072.576638,10658.965565
2711.125123,919.314598,-0.000000,8808.450710
2711.125452,1762.019645,222.061783,8290.306550
2711.125781,2757.943793,888.247130,8586.388927
2711.126110,2221.676944,1036.288319,7328.038826
2711.126439,1302.362347,1628.453072,7105.977043
2711.126768,1225.752797,1036.288319,8216.285956
2711.127097,766.095498,-888.247130,9622.677246
2711.127426,0.000000,-1184.329507,9178.553681
2711.127755,-689.485948,-1628.453072,8660.409521
2711.128084,-1608.800546,-2590.720797,10288.862594
2711.128414,-1915.238745,-1924.535449,10288.862594
2711.128743,-1838.629195,-1258.350101,9104.533087
2711.129072,-995.924147,-1850.514855,9326.594869
2711.129401,612.876398,-296.082377,9548.656652
2711.129730,1455.581446,-222.061783,8438.347739
2711.130059,1532.190996,1480.411884,7624.121203
2711.130388,2374.896044,222.061783,8882.471304
2711.130717,2451.505594,1480.411884,7476.080014
2711.131046,1225.752797,1628.453072,7402.059420
2711.131375,1072.533697,1036.288319,8364.327145
2711.131704,1762.019645,296.082377,8142.265362
2711.132033,995.924147,814.226536,7994.224174
2711.132363,-383.047749,-1406.391290,9400.615463
2711.132692,-1302.362347,-814.226536,10288.862594
2711.133021,-2221.676944,-1036.288319,9696.697840
2711.133350,-3294.210641,-0.000000,9474.636058
2711.133679,-1991.848295,-1480.411884,10732.986159
2711.134008,-1455.581446,-1258.350101,10140.821405
2711.134337,-842.705048,-296.082377,8956.491898
2711.134666,689.485948,-0.000000,9622.677246
2711.134995,1225.752797,-222.061783,9326.594869
2711.135324,919.314598,2368.659014,7624.121203
2711.135653,842.705048,2146.597232,9030.512492
2711.135982,1072.533697,1332.370696,9400.615463
2711.136311,1378.971896,2220.617826,7920.203579
2711.136641,1225.752797,1184.329507,8290.306550
2711.136970,229.828649,296.082377,9474.636058
2711.137299,0.000000,-518.144159,9844.739029
2711.137628,-995.924147,-444.123565,8882.471304
2711.137957,-1378.971896,-592.164754,9030.512492
2711.138286,-1072.533697,-74.020594,10732.986159
2711.138615,-536.266849,-1184.329507,9770.718434
2711.138944,-306.438199,-296.082377,9548.656652
2711.139273,1072.533697,-444.123565,9622.677246
2711.139602,1225.752797,666.185348,8290.306550
2711.139931,1302.362347,1184.329507,8438.347739
2711.140260,1149.143247,1036.288319,8290.306550
2711.140590,2068.457845,-518.144159,9178.553681
2711.140919,2221.676944,1776.494261,7994.224174
2711.141248,1762.019645,-148.041188,8586.388927
2711.141577,1378.971896,-0.000000,9474.636058
2711.141906,842.705048,-222.061783,8882.471304
2711.142235,459.657299,-0.000000,9178.553681
2711.142564,-536.266849,-962.267725,9326.594869
2711.142893,0.000000,-1332.370696,10436.903782
2711.143222,0.000000,-1184.329507,9844.739029
2711.143551,153.219100,-1480.411884,9548.656652
2711.143880,995.924147,-1184.329507,9992.780217
2711.144209,536.266849,-370.102971,8216.285956
2711.144538,0.000000,1036.288319,8882.471304
2711.144868,459.657299,-0.000000,9474.636058
2711.145197,383.047749,-0.000000,9474.636058
2711.145526,1225.752797,518.144159,8660.409521
2711.145855,766.095498,296.082377,8142.265362
2711.146184,229.828649,-740.205942,10510.924376
2711.146513,0.000000,222.061783,8882.471304
2711.146842,-306.438199,-1110.308913,8956.491898
2711.147171,-766.095498,-1184.329507,9548.656652
2711.147500,229.828649,-1850.514855,9622.677246
2711.147829,229.828649,-1184.329507,8808.450710
2711.148158,0.000000,-1184.329507,9178.553681
2711.148487,689.485948,-296.082377,9030.512492
2711.148817,0.000000,1554.432478,7105.977043
2711.149146,-459.657299,814.226536,8734.430116
2711.149475,536.266849,-666.185348,9770.718434
2711.149804,1072.533697,-666.185348,8512.368333
2711.150133,383.047749,-1332.370696,8142.265362
2711.150462,229.828649,-1628.453072,9178.553681
2711.150791,153.219100,-888.247130,9252.574275
2711.151120,-229.828649,-74.020594,8808.450710
2711.151449,-229.828649,-222.061783,8364.327145
2711.151778,536.266849,-962.267725,8882.471304
2711.152107,842.705048,518.144159,7994.224174
2711.152436,995.924147,666.185348,7920.203579
2711.152765,1455.581446,-888.247130,9400.615463
2711.153095,383.047749,-666.185348,8216.285956
2711.153424,0.000000,814.226536,8438.347739
2711.153753,0.000000,-0.000000,9178.553681
2711.154082,459.657299,-1702.473667,9474.636058
2711.154411,383.047749,-0.000000,9400.615463
2711.154740,612.876398,-444.123565,9326.594869
2711.155069,536.266849,-962.267725,10288.862594
2711.155398,536.266849,1184.329507,9030.512492
2711.155727,-536.266849,1184.329507,8142.265362
2711.156056,-306.438199,-0.000000,9696.697840
2711.156385,536.266849,-74.020594,9622.677246
2711.156714,459.657299,-740.205942,8808.450710
2711.157044,612.876398,962.267725,9326.594869
2711.157373,459.657299,-740.205942,9474.636058
2711.157702,0.000000,-0.000000,9622.677246
2711.158031,-536.266849,1480.411884,8438.347739
2711.158360,76.609550,-0.000000,9992.780217
2711.158689,536.266849,444.123565,9474.636058
2711.159018,-229.828649,-0.000000,9548.656652
2711.159347,612.876398,-888.247130,10955.047942
2711.159676,995.924147,-666.185348,9770.718434
2711.160005,306.438199,-222.061783,8660.409521
2711.160334,-306.438199,962.267725,8512.368333
2711.160663,76.609550,1110.308913,9696.697840
2711.160992,612.876398,666.185348,8882.471304
2711.161322,842.705048,296.082377,8438.347739
2711.161651,306.438199,-370.102971,9474.636058
2711.161980,995.924147,-1258.350101,9252.574275
2711.162309,0.000000,518.144159,7624.121203
2711.162638,-383.047749,-666.185348,9252.574275
2711.162967,383.047749,-1924.535449,10214.842000
2711.163296,919.314598,-962.267725,8438.347739
2711.163625,536.266849,-1184.329507,9178.553681
2711.163954,766.095498,-666.185348,8956.491898
2711.164283,1302.362347,370.102971,7772.162391
2711.164612,842.705048,1332.370696,7772.162391
2711.164941,229.828649,888.247130,8364.327145
2711.165271,1072.533697,-148.041188,9696.697840
2711.165600,1225.752797,-222.061783,8364.327145
2711.165929,1072.533697,-666.185348,8808.450710
2711.166258,995.924147,-1628.453072,9918.759623
2711.166587,229.828649,-888.247130,8660.409521
2711.166916,-306.438199,814.226536,8808.450710
2711.167245,-229.828649,-148.041188,8660.409521
2711.167574,229.828649,-74.020594,9622.677246
2711.167903,459.657299,296.082377,9326.594869
2711.168232,229.828649,-222.061783,8734.430116
2711.168561,306.438199,-1184.329507,9326.594869
2711.168890,612.876398,-518.144159,8586.388927
2711.169220,229.828649,-0.000000,8734.430116
2711.169549,229.828649,-814.226536,9400.615463
2711.169878,689.485948,-518.144159,9252.574275
2711.170207,1072.533697,-0.000000,8512.368333
2711.170536,306.438199,-74.020594,9252.574275
2711.170865,0.000000,-888.247130,9770.718434
2711.171194,-229.828649,444.123565,9400.615463
2711.171523,-995.924147,-0.000000,9326.594869
2711.171852,-459.657299,-1332.370696,9548.656652
2711.172181,0.000000,-740.205942,8956.491898
2711.172510,229.828649,-1776.494261,9474.636058
2711.172839,0.000000,-1554.432478,9474.636058
2711.173168,612.876398,-1554.432478,10066.800811
2711.173498,229.828649,370.102971,7402.059420
2711.173827,229.828649,740.205942,8142.265362
2711.174156,842.705048,592.164754,9252.574275
2711.174485,995.924147,370.102971,8364.327145
2711.174814,1149.143247,444.123565,8512.368333
2711.175143,536.266849,-1332.370696,9548.656652
2711.175472,229.828649,-888.247130,9474.636058
2711.175801,-536.266849,-814.226536,9252.574275
2711.176130,-689.485948,-592.164754,9104.533087
2711.176459,0.000000,-1332.370696,9992.780217
2711.176788,0.000000,-370.102971,9252.574275
2711.177117,-306.438199,296.082377,9252.574275
2711.177447,612.876398,-740.205942,9844.739029
2711.177776,919.314598,888.247130,8142.265362
2711.178105,536.266849,1554.432478,7846.182985
2711.178434,536.266849,-0.000000,9178.553681
2711.178763,1149.143247,-740.205942,9474.636058
2711.179092,1532.190996,-0.000000,8808.450710
2711.179421,766.095498,-0.000000,7920.203579
2711.179750,153.219100,-1258.350101,9770.718434
2711.180079,-383.047749,222.061783,9178.553681
2711.180408,-1149.143247,370.102971,8660.409521
2711.180737,-1072.533697,-148.041188,10140.821405
2711.181066,-536.266849,-1406.391290,9992.780217
2711.181395,-689.485948,-740.205942,9474.636058
2711.181725,-76.609550,-296.082377,10436.903782
2711.182054,153.219100,-1554.432478,9844.739029
2711.182383,0.000000,-74.020594,8216.285956
2711.182712,919.314598,1554.432478,8438.347739
2711.183041,1378.971896,1332.370696,9030.512492
2711.183370,1915.238745,1702.473667,7846.182985
2711.183699,1838.629195,1480.411884,7402.059420
2711.184028,1685.410096,-0.000000,8808.450710
2711.184357,1225.752797,-74.020594,8512.368333
2711.184686,0.000000,-1184.329507,7772.162391
2711.185015,-383.047749,-814.226536,9252.574275
2711.185344,-536.266849,-1036.288319,10362.883188
2711.185674,0.000000,-1628.453072,10214.842000
2711.186003,-536.266849,-0.000000,9104.533087
2711.186332,-306.438199,-74.020594,9918.759623
2711.186661,306.438199,-0.000000,9770.718434
2711.186990,1378.971896,1184.329507,8216.285956
2711.187319,995.924147,814.226536,8882.471304
2711.187648,1838.629195,222.061783,8438.347739
2711.187977,2451.505594,444.123565,8216.285956
2711.188306,2068.457845,444.123565,7179.997637
2711.188635,1532.190996,148.041188,8290.306550
2711.188964,536.266849,-0.000000,9696.697840
2711.189293,0.000000,962.267725,7846.182985
2711.189622,-842.705048,666.185348,8956.491898
2711.189952,-459.657299,-1480.411884,10288.862594
2711.190281,-689.485948,-2294.638420,10362.883188
2711.190610,-1378.971896,-1850.514855,10881.027347
2711.190939,-459.657299,-3182.885551,11251.130318
2711.191268,76.609550,-2368.659014,10214.842000
2711.191597,383.047749,-592.164754,9326.594869
2711.191926,536.266849,-296.082377,9474.636058
2711.192255,1455.581446,-222.061783,9178.553681
2711.192584,2221.676944,962.267725,7328.038826
2711.192913,1532.190996,444.123565,7328.038826
2711.193242,1302.362347,-814.226536,9104.533087
2711.193571,536.266849,-1628.453072,8364.327145
2711.193901,-536.266849,-3108.864956,8956.491898
2711.194230,-1838.629195,-2738.761985,9400.615463
2711.194559,-1149.143247,-5181.441594,11325.150913
2711.194888,-1378.971896,-3849.070898,9474.636058
2711.195217,-1532.190996,-3627.009116,9992.780217
2711.195546,-842.705048,-4367.215058,10658.965565
2711.195875,459.657299,-2442.679609,9030.512492
2711.196204,1302.362347,-1036.288319,8216.285956
2711.196533,1302.362347,-1406.391290,8216.285956
2711.196862,2528.115143,-1554.432478,7846.182985
2711.197191,3677.258390,-2072.576638,7624.121203
2711.197520,2987.772442,-1776.494261,6661.853478
2711.197849,1762.019645,-2664.741391,8512.368333
2711.198179,1915.238745,-3775.050304,8734.430116
2711.198508,-153.219100,-2294.638420,7920.203579
2711.198837,-2451.505594,-3330.926739,9326.594869
2711.199166,-2374.896044,-4367.215058,9770.718434
2711.199495,-1608.800546,-5033.400406,9992.780217
2711.199824,-1608.800546,-4441.235652,10140.821405
2711.200153,-1532.190996,-4737.318029,9548.656652
2711.200482,-153.219100,-5477.523971,10881.027347
2711.200811,1149.143247,-3627.009116,9474.636058
2711.201140,1608.800546,-1850.514855,8068.244768
2711.201469,1915.238745,-1480.411884,8290.306550
2711.201798,3447.429741,-1554.432478,7105.977043
2711.202128,4136.915689,222.061783,7550.100608
2711.202457,2757.943793,-222.061783,7698.141797
2711.202786,1302.362347,-1776.494261,8216.285956
2711.203115,0.000000,-3404.947333,9844.739029
2711.203444,-306.438199,-4515.256246,10066.800811
2711.203773,-2451.505594,-4959.379811,9696.697840
2711.204102,-3370.820191,-5921.647536,10510.924376
2711.204431,-2834.553343,-6439.791695,11325.150913
2711.204760,-2221.676944,-4367.215058,10214.842000
2711.205089,-1378.971896,-3775.050304,9252.574275
2711.205418,-995.924147,-4293.194464,9400.615463
2711.205747,612.876398,-2368.659014,9400.615463
2711.206076,3064.381992,-1702.473667,8290.306550
2711.206406,3370.820191,-962.267725,6365.771101
2711.206735,3140.991542,-814.226536,7179.997637
2711.207064,3447.429741,-1258.350101,8216.285956
2711.207393,4060.306139,-2294.638420,7772.162391
2711.207722,2757.943793,-2368.659014,7402.059420
2711.208051,536.266849,-2368.659014,8142.265362
2711.208380,-842.705048,-2442.679609,9400.615463
2711.208709,-1302.362347,-4515.256246,10214.842000
2711.209038,-1685.410096,-4367.215058,9992.780217
2711.209367,-2604.724693,-4589.276840,10214.842000
2711.209696,-3370.820191,-4441.235652,10362.883188
2711.210025,-2221.676944,-5107.421000,10066.800811
2711.210355,153.219100,-4071.132681,9918.759623
2711.210684,1225.752797,-3775.050304,8734.430116
2711.211013,1532.190996,-2590.720797,8882.471304
2711.211342,2298.286494,-2220.617826,8808.450710
2711.211671,3677.258390,-1184.329507,8290.306550
2711.212000,4519.963438,222.061783,7846.182985
2711.212329,3600.648841,-74.020594,7624.121203
2711.212658,995.924147,-0.000000,8734.430116
2711.212987,2451.505594,-888.247130,8586.388927
2711.213316,1915.238745,-2220.617826,9326.594869
2711.213645,536.266849,-3330.926739,9918.759623
2711.213974,-1685.410096,-4145.153275,10214.842000
2711.214304,-2528.115143,-5477.523971,11473.192101
2711.214633,-2528.115143,-4441.235652,10732.986159
2711.214962,-2298.286494,-4145.153275,9918.759623
2711.215291,-2757.943793,-3108.864956,9548.656652
2711.215620,-1455.581446,-2738.761985,9474.636058
2711.215949,-536.266849,-2812.782580,9548.656652
2711.216278,689.485948,-2516.700203,7698.141797
2711.216607,1915.238745,-2368.659014,7624.121203
2711.216936,2757.943793,-2294.638420,7920.203579
2711.217265,2068.457845,-2738.761985,8734.430116
2711.217594,1838.629195,-2516.700203,8734.430116
2711.217924,1762.019645,-2072.576638,7994.224174
2711.218253,1608.800546,-1554.432478,7920.203579
2711.218582,842.705048,-2146.597232,8586.388927
2711.218911,76.609550,-2812.782580,9474.636058
2711.219240,-459.657299,-3701.029710,9770.718434
2711.219569,-995.924147,-3627.009116,8808.450710
2711.219898,-1072.533697,-4441.235652,8734.430116
2711.220227,-842.705048,-4885.359217,9474.636058
2711.220556,0.000000,-5551.544565,10140.821405
2711.220885,0.000000,-5921.647536,9696.697840
2711.221214,229.828649,-5699.585753,8882.471304
2711.221544,383.047749,-3997.112087,8586.388927
2711.221873,306.438199,-1776.494261,8512.368333
2711.222202,229.828649,-814.226536,8956.491898
2711.222531,459.657299,-1776.494261,8734.430116
2711.222860,1225.752797,-2516.700203,9400.615463
2711.223189,1532.190996,-2886.803174,9622.677246
2711.223518,1225.752797,-3552.988522,9030.512492
2711.223847,536.266849,-3775.050304,9178.553681
2711.224176,612.876398,-4071.132681,8956.491898
2711.224505,612.876398,-3182.885551,9326.594869
2711.224834,766.095498,-2812.782580,8956.491898
2711.225164,766.095498,-2590.720797,8142.265362
2711.225493,229.828649,-2590.720797,8216.285956
2711.225822,229.828649,-2812.782580,8142.265362
2711.226151,-612.876398,-3256.906145,9474.636058
2711.226480,-2298.286494,-3849.070898,10140.821405
2711.226809,-1608.800546,-4441.235652,9844.739029
2711.227138,-919.314598,-4441.235652,10140.821405
2711.227467,306.438199,-4663.297435,9844.739029
2711.227796,919.314598,-4071.132681,9696.697840
2711.228125,1991.848295,-2738.761985,9104.533087
2711.228454,2681.334243,-2368.659014,7994.224174
2711.228784,3217.601092,-592.164754,7105.977043
2711.229113,4136.915689,-962.267725,6587.832884
2711.229442,3907.087040,-1332.370696,6809.894666
2711.229771,2604.724693,-2664.741391,7624.121203
2711.230100,995.924147,-4145.153275,8512.368333
2711.230429,-306.438199,-5033.400406,9474.636058
2711.230758,-2145.067394,-5329.482782,10510.924376
2711.231087,-3600.648841,-5847.626942,11103.089130
2711.231416,-4060.306139,-4811.338623,11103.089130
2711.231745,-3830.477490,-4071.132681,10955.047942
2711.232074,-2757.943793,-2738.761985,9918.759623
2711.232404,-1149.143247,-2664.741391,9696.697840
2711.232733,919.314598,-2812.782580,9622.677246
2711.233062,2681.334243,-3256.906145,8734.430116
2711.233391,4903.011187,-2368.659014,8068.244768
2711.233720,4903.011187,-1924.535449,7328.038826
2711.234049,4749.792088,-1628.453072,7402.059420
2711.234378,4596.572988,-444.123565,7402.059420
2711.234707,4443.353888,222.061783,7105.977043
2711.235036,3983.696590,-444.123565,7328.038826
2711.235365,2451.505594,-1480.411884,8142.265362
2711.235694,-1149.143247,-3108.864956,10658.965565
2711.236024,-3524.039291,-6439.791695,12213.398043
2711.236353,-4979.620737,-5329.482782,12065.356855
2711.236682,-5056.230287,-8512.368333,13693.809927
2711.237011,-5592.497135,-4959.379811,10140.821405
2711.237340,-3983.696590,-3997.112087,10881.027347
2711.237669,-3140.991542,-3330.926739,9178.553681
2711.237998,-1915.238745,-962.267725,8586.388927
2711.238327,1149.143247,-2738.761985,10584.944971
2711.238656,3983.696590,-1480.411884,7624.121203
2711.238985,5209.449386,-370.102971,6587.832884
2711.239314,4826.401637,-1480.411884,4959.379811
2711.239644,3830.477490,-1184.329507,5625.565159
2711.239973,4903.011187,-296.082377,8290.306550
2711.240302,4290.134789,-1554.432478,7254.018232
2711.240631,4060.306139,814.226536,5847.626942
2711.240960,2528.115143,-666.185348,7772.162391
2711.241289,-1072.533697,-2072.576638,7846.182985
2711.241618,-3447.429741,-7105.977043,13175.665768
2711.241947,-4443.353888,-5033.400406,11547.212695
2711.242276,-2221.676944,-7550.100608,12139.377449
2711.242605,-4519.963438,-7254.018232,9918.759623
2711.242934,-3217.601092,-5847.626942,11843.295072
2711.243264,-919.314598,-6809.894666,12361.439231
2711.243593,919.314598,-4071.132681,7254.018232
2711.243922,5132.839837,-1332.370696,6735.874072
2711.244251,5975.544884,444.123565,4959.379811
2711.244580,4443.353888,1702.473667,5921.647536
2711.244909,3600.648841,518.144159,7105.977043
2711.245238,1915.238745,-0.000000,5329.482782
2711.245567,2451.505594,-3256.906145,9548.656652
2711.245896,-1532.190996,-5995.668130,10807.006753
2711.246225,-3753.867940,-6513.812290,12731.542202
2711.246554,-5975.544884,-6957.935855,13545.768739
2711.246884,-4443.353888,-8216.285956,13767.830521
2711.247213,-4443.353888,-3701.029710,9770.718434
2711.247542,-2068.457845,-3256.906145,10066.800811
2711.247871,-2451.505594,-740.205942,8142.265362
2711.248200,-842.705048,-2664.741391,8438.347739
2711.248529,2987.772442,-3775.050304,9474.636058
2711.248858,4060.306139,-0.000000,3330.926739
2711.249187,4903.011187,-1184.329507,7476.080014
2711.249516,1991.848295,-1184.329507,5107.421000
2711.249845,4213.525239,-296.082377,7698.141797
2711.250174,1915.238745,1628.453072,6069.688724
2711.250504,2681.334243,2294.638420,5699.585753
2711.250833,306.438199,-962.267725,8438.347739
2711.251162,-3600.648841,-3627.009116,10066.800811
2711.251491,-4673.182538,-4589.276840,11621.233289
2711.251820,-6435.202183,-5477.523971,12879.583391
2711.252149,-5745.716235,-6143.709319,11547.212695
2711.252478,-6741.640382,-3478.967927,11547.212695
2711.252807,-3753.867940,-2886.803174,9474.636058
2711.253136,-3524.039291,-814.226536,8512.368333
2711.253465,-2911.162892,-2072.576638,7624.121203
2711.253794,-1915.238745,148.041188,7846.182985
2711.254124,-3140.991542,-1480.411884,9474.636058
2711.254453,-2068.457845,888.247130,8438.347739
2711.254782,-1608.800546,-148.041188,6439.791695
2711.255111,-383.047749,-518.144159,7402.059420
2711.255440,-459.657299,-814.226536,6735.874072
2711.255769,919.314598,-1998.556043,10436.903782
