#time,accel_x,accel_y,accel_z
2626.389399,612.876398,-74.020594,8956.491898
2626.389728,0.000000,-0.000000,8882.471304
2626.390058,306.438199,-0.000000,8882.471304
2626.390387,229.828649,-0.000000,8956.491898
2626.390716,229.828649,-0.000000,8956.491898
2626.391045,306.438199,-370.102971,8808.450710
2626.391375,612.876398,-518.144159,9030.512492
2626.391704,153.219100,-222.061783,9104.533087
2626.392033,459.657299,-370.102971,8956.491898
2626.392363,229.828649,-222.061783,9030.512492
2626.392692,153.219100,-74.020594,9030.512492
2626.393021,306.438199,-0.000000,9178.553681
2626.393350,306.438199,-370.102971,9104.533087
2626.393680,459.657299,-518.144159,9030.512492
2626.394009,536.266849,-296.082377,9178.553681
2626.394338,0.000000,-0.000000,9400.615463
2626.394667,229.828649,-222.061783,9326.594869
2626.394997,229.828649,-222.061783,9252.574275
2626.395326,229.828649,-222.061783,9178.553681
2626.395655,153.219100,-444.123565,9178.553681
2626.395984,229.828649,-444.123565,9474.636058
2626.396314,766.095498,-518.144159,9030.512492
2626.396643,536.266849,-0.000000,9326.594869
2626.396972,229.828649,-74.020594,9252.574275
2626.397302,229.828649,-0.000000,9030.512492
2626.397631,229.828649,-0.000000,9104.533087
2626.397960,-76.609550,-296.082377,8956.491898
2626.398289,536.266849,-296.082377,9030.512492
2626.398619,229.828649,148.041188,9104.533087
2626.398948,0.000000,-296.082377,8882.471304
2626.399277,0.000000,-0.000000,9030.512492
2626.399606,153.219100,-74.020594,9104.533087
2626.399936,383.047749,-222.061783,9030.512492
2626.400265,153.219100,-222.061783,9104.533087
2626.400594,306.438199,-0.000000,9030.512492
2626.400924,229.828649,-0.000000,8882.471304
2626.401253,306.438199,-0.000000,8956.491898
2626.401582,766.095498,-0.000000,8808.450710
2626.401911,306.438199,-0.000000,8734.430116
2626.402241,306.438199,-148.041188,8882.471304
2626.402570,229.828649,-296.082377,8956.491898
2626.402899,459.657299,-74.020594,9030.512492
2626.403228,536.266849,-592.164754,8882.471304
2626.403558,0.000000,-222.061783,9400.615463
2626.403887,76.609550,-370.102971,9030.512492
2626.404216,153.219100,-148.041188,9030.512492
2626.404545,153.219100,-222.061783,8882.471304
2626.404875,612.876398,-444.123565,9326.594869
2626.405204,689.485948,-296.082377,9030.512492
2626.405533,689.485948,-296.082377,9030.512492
2626.405863,306.438199,-222.061783,9326.594869
2626.406192,229.828649,-222.061783,9178.553681
2626.406521,383.047749,-148.041188,9104.533087
2626.406850,229.828649,-296.082377,9178.553681
2626.407180,-229.828649,-370.102971,9178.553681
2626.407509,1302.362347,-518.144159,9178.553681
2626.407838,612.876398,-296.082377,9326.594869
2626.408167,536.266849,-148.041188,9326.594869
2626.408497,229.828649,-222.061783,9104.533087
2626.408826,153.219100,-0.000000,8956.491898
2626.409155,383.047749,-74.020594,9030.512492
2626.409485,76.609550,-148.041188,9178.553681
2626.409814,306.438199,148.041188,9030.512492
2626.410143,306.438199,-296.082377,9178.553681
2626.410472,229.828649,-0.000000,9104.533087
2626.410802,383.047749,-74.020594,8734.430116
2626.411131,229.828649,-148.041188,8882.471304
2626.411460,383.047749,-0.000000,9030.512492
2626.411789,612.876398,-0.000000,9030.512492
2626.412119,536.266849,-0.000000,9104.533087
2626.412448,842.705048,-0.000000,9252.574275
2626.412777,229.828649,-74.020594,8882.471304
2626.413106,229.828649,-0.000000,8956.491898
2626.413436,459.657299,-0.000000,8956.491898
2626.413765,306.438199,-74.020594,9030.512492
2626.414094,76.609550,-444.123565,9400.615463
2626.414424,383.047749,-0.000000,9104.533087
2626.414753,536.266849,-370.102971,9252.574275
2626.415082,536.266849,-370.102971,8956.491898
2626.415411,459.657299,-444.123565,9178.553681
2626.415741,689.485948,-444.123565,9104.533087
2626.416070,306.438199,-296.082377,9030.512492
2626.416399,229.828649,-0.000000,9252.574275
2626.416728,383.047749,-370.102971,9548.656652
2626.417058,1149.143247,-1036.288319,9696.697840
2626.417387,1915.238745,-1036.288319,9474.636058
2626.417716,1838.629195,-888.247130,9548.656652
2626.418046,2068.457845,-814.226536,9474.636058
2626.418375,2451.505594,222.061783,8882.471304
2626.418704,3370.820191,370.102971,8808.450710
2626.419033,3907.087040,-222.061783,8808.450710
2626.419363,4136.915689,222.061783,8734.430116
2626.419692,3217.601092,666.185348,8734.430116
2626.420021,2757.943793,-0.000000,8586.388927
2626.420350,2987.772442,-740.205942,9252.574275
2626.420680,2911.162892,-222.061783,9030.512492
2626.421009,1455.581446,-666.185348,9474.636058
2626.421338,1915.238745,-1480.411884,9992.780217
2626.421667,2604.724693,-1702.473667,9400.615463
2626.421997,2987.772442,-0.000000,9030.512492
2626.422326,3064.381992,-1480.411884,9844.739029
2626.422655,3370.820191,-592.164754,8512.368333
2626.422985,3830.477490,888.247130,9400.615463
2626.423314,5286.058936,962.267725,7402.059420
2626.423643,4826.401637,1184.329507,8068.244768
2626.423972,4519.963438,1184.329507,8734.430116
2626.424302,4673.182538,814.226536,7105.977043
2626.424631,3600.648841,444.123565,8364.327145
2626.424960,3064.381992,-444.123565,9252.574275
2626.425289,2068.457845,222.061783,8512.368333
2626.425619,1838.629195,-592.164754,9770.718434
2626.425948,766.095498,-1258.350101,9474.636058
2626.426277,1991.848295,-740.205942,10214.842000
2626.426607,689.485948,-1036.288319,9474.636058
2626.426936,1608.800546,-962.267725,9918.759623
2626.427265,1608.800546,-296.082377,10436.903782
2626.427594,3294.210641,888.247130,8068.244768
2626.427924,3600.648841,222.061783,9252.574275
2626.428253,4213.525239,1554.432478,9030.512492
2626.428582,4673.182538,962.267725,8290.306550
2626.428911,4596.572988,1184.329507,8512.368333
2626.429241,4366.744339,296.082377,9548.656652
2626.429570,3677.258390,-222.061783,8956.491898
2626.429899,2911.162892,-1036.288319,9474.636058
2626.430228,2451.505594,-1554.432478,9918.759623
2626.430558,2298.286494,-1702.473667,10584.944971
2626.430887,2298.286494,-2146.597232,9770.718434
2626.431216,2757.943793,-1998.556043,10510.924376
2626.431546,2757.943793,-1036.288319,9918.759623
2626.431875,3370.820191,222.061783,9474.636058
2626.432204,4213.525239,814.226536,8068.244768
2626.432533,4673.182538,1924.535449,8364.327145
2626.432863,4673.182538,2516.700203,7846.182985
2626.433192,4749.792088,2738.761985,7402.059420
2626.433521,4366.744339,1702.473667,7402.059420
2626.433850,3753.867940,1258.350101,7624.121203
2626.434180,3524.039291,-0.000000,7920.203579
2626.434509,2374.896044,-1036.288319,9104.533087
2626.434838,1915.238745,-2146.597232,9844.739029
2626.435167,1762.019645,-2886.803174,10288.862594
2626.435497,2068.457845,-3034.844362,10955.047942
2626.435826,2451.505594,-2442.679609,11103.089130
2626.436155,3140.991542,-2368.659014,10140.821405
2626.436485,4749.792088,-74.020594,9918.759623
2626.436814,5745.716235,962.267725,9326.594869
2626.437143,5822.325785,1776.494261,8512.368333
2626.437472,5362.668486,2368.659014,8216.285956
2626.437802,5056.230287,3701.029710,7476.080014
2626.438131,4366.744339,3256.906145,7179.997637
2626.438460,3677.258390,2146.597232,6809.894666
2626.438789,3677.258390,2516.700203,7105.977043
2626.439119,2451.505594,-740.205942,8290.306550
2626.439448,0.000000,-4145.153275,10658.965565
2626.439777,-995.924147,-4071.132681,10955.047942
2626.440107,-383.047749,-5255.462188,12731.542202
2626.440436,-919.314598,-3627.009116,11251.130318
2626.440765,-229.828649,-1554.432478,11473.192101
2626.441094,919.314598,-1184.329507,10288.862594
2626.441424,2681.334243,1258.350101,10658.965565
2626.441753,5515.887586,1406.391290,9696.697840
2626.442082,7584.345430,1850.514855,8660.409521
2626.442411,6358.592633,1480.411884,8142.265362
2626.442741,5898.935335,592.164754,7328.038826
2626.443070,5515.887586,2516.700203,6513.812290
2626.443399,5286.058936,1702.473667,7031.956449
2626.443728,5286.058936,2886.803174,5329.482782
2626.444058,5132.839837,2886.803174,6809.894666
2626.444387,4443.353888,1702.473667,5995.668130
2626.444716,4596.572988,-518.144159,6957.935855
2626.445046,1685.410096,-5107.421000,9696.697840
2626.445375,153.219100,-7105.977043,13249.686362
2626.445704,-1685.410096,-2442.679609,11621.233289
2626.446033,-1149.143247,-6735.874072,13841.851115
2626.446363,-1762.019645,-1850.514855,11177.109724
2626.446692,1915.238745,740.205942,12435.459826
2626.447021,3983.696590,666.185348,10955.047942
2626.447350,5056.230287,2072.576638,9178.553681
2626.447680,7048.078582,666.185348,9030.512492
2626.448009,7967.393179,1998.556043,7772.162391
2626.448338,7584.345430,4145.153275,5995.668130
2626.448668,7660.954980,2368.659014,5847.626942
2626.448997,7048.078582,740.205942,4885.359217
2626.449326,6511.811733,1998.556043,6365.771101
2626.449655,5515.887586,148.041188,6809.894666
2626.449985,4136.915689,2220.617826,6217.729913
2626.450314,4213.525239,-592.164754,9030.512492
2626.450643,306.438199,-3775.050304,12583.501014
2626.450972,-2374.896044,-4663.297435,12065.356855
2626.451302,-2451.505594,-1480.411884,13323.706956
2626.451631,-1685.410096,-6735.874072,13619.789333
2626.451960,-1225.752797,592.164754,10140.821405
2626.452289,2068.457845,518.144159,12509.480420
2626.452619,306.438199,1924.535449,9400.615463
2626.452948,2911.162892,148.041188,14285.974681
2626.453277,6894.859482,-0.000000,6291.750507
2626.453607,9729.412825,1850.514855,7994.224174
2626.453936,6052.154434,1332.370696,6439.791695
2626.454265,7584.345430,2368.659014,4663.297435
2626.454594,5286.058936,1554.432478,7550.100608
2626.454924,5745.716235,1036.288319,5847.626942
2626.455253,4903.011187,2368.659014,6143.709319
2626.455582,2987.772442,2220.617826,7846.182985
2626.455911,2528.115143,-0.000000,7994.224174
2626.456241,536.266849,-74.020594,9770.718434
2626.456570,536.266849,-3404.947333,11029.068536
2626.456899,-1608.800546,-0.000000,10066.800811
2626.457229,-919.314598,-5329.482782,13915.871710
2626.457558,-2451.505594,-2294.638420,9548.656652
2626.457887,-1225.752797,-296.082377,11399.171507
2626.458216,-383.047749,370.102971,9326.594869
2626.458546,-536.266849,2220.617826,8290.306550
2626.458875,1072.533697,-888.247130,7846.182985
2626.459204,2221.676944,666.185348,7550.100608
2626.459533,2068.457845,1036.288319,7772.162391
2626.459863,919.314598,-592.164754,7328.038826
2626.460192,459.657299,-1702.473667,6957.935855
2626.460521,0.000000,-1406.391290,8364.327145
2626.460850,-383.047749,-1924.535449,9178.553681
2626.461180,-2068.457845,-2072.576638,11029.068536
2626.461509,-1915.238745,-1628.453072,10510.924376
2626.461838,-766.095498,888.247130,9770.718434
2626.462168,-1072.533697,1332.370696,9104.533087
2626.462497,-153.219100,-74.020594,10066.800811
2626.462826,76.609550,-74.020594,9992.780217
2626.463155,766.095498,-0.000000,9400.615463
2626.463484,1608.800546,1406.391290,8216.285956
2626.463814,1762.019645,666.185348,8808.450710
2626.464143,2221.676944,-222.061783,9104.533087
2626.464472,2374.896044,-1776.494261,7994.224174
2626.464801,1838.629195,-1332.370696,8956.491898
2626.465130,919.314598,-444.123565,8808.450710
2626.465460,842.705048,666.185348,9104.533087
2626.465789,1072.533697,-666.185348,9918.759623
2626.466118,689.485948,-1184.329507,9474.636058
2626.466447,306.438199,-888.247130,9844.739029
2626.466776,0.000000,1554.432478,9622.677246
2626.467106,229.828649,1850.514855,9030.512492
2626.467435,459.657299,1702.473667,8808.450710
2626.467764,1149.143247,740.205942,9400.615463
2626.468093,1532.190996,-0.000000,9400.615463
2626.468422,1685.410096,666.185348,8734.430116
2626.468751,995.924147,-0.000000,8512.368333
2626.469081,612.876398,-296.082377,8882.471304
2626.469410,459.657299,-1036.288319,9474.636058
2626.469739,612.876398,-1406.391290,9474.636058
2626.470068,459.657299,-1036.288319,9104.533087
2626.470397,612.876398,-74.020594,8956.491898
2626.470727,612.876398,-518.144159,9178.553681
2626.471056,689.485948,-814.226536,9548.656652
2626.471385,1302.362347,-518.144159,9992.780217
2626.471714,1072.533697,518.144159,9030.512492
2626.472043,842.705048,2072.576638,8512.368333
2626.472373,459.657299,1850.514855,8438.347739
2626.472702,-153.219100,518.144159,8882.471304
2626.473031,-383.047749,-444.123565,9030.512492
2626.473360,-536.266849,-0.000000,8586.388927
2626.473689,-383.047749,-0.000000,8660.409521
2626.474018,-842.705048,-814.226536,9178.553681
2626.474348,-919.314598,-2220.617826,9474.636058
2626.474677,-1149.143247,-2590.720797,9548.656652
2626.475006,-459.657299,-1998.556043,9770.718434
2626.475335,0.000000,-518.144159,9104.533087
2626.475664,153.219100,666.185348,9252.574275
2626.475994,842.705048,148.041188,8956.491898
2626.476323,1149.143247,-148.041188,8882.471304
2626.476652,1149.143247,592.164754,8364.327145
2626.476981,1302.362347,1702.473667,7920.203579
2626.477310,1149.143247,1776.494261,8216.285956
2626.477640,0.000000,666.185348,8882.471304
2626.477969,0.000000,-1036.288319,8734.430116
2626.478298,-1302.362347,-2072.576638,8216.285956
2626.478627,-2451.505594,518.144159,9474.636058
2626.478956,-1225.752797,-1184.329507,9770.718434
2626.479285,-1378.971896,-740.205942,8216.285956
2626.479615,-1072.533697,-1480.411884,8364.327145
2626.479944,-612.876398,-2368.659014,9622.677246
2626.480273,0.000000,-592.164754,9474.636058
2626.480602,0.000000,-0.000000,9178.553681
2626.480931,306.438199,296.082377,8290.306550
2626.481261,-306.438199,-1036.288319,9696.697840
2626.481590,-689.485948,-1628.453072,10658.965565
2626.481919,76.609550,-666.185348,10140.821405
2626.482248,689.485948,666.185348,8660.409521
2626.482577,1302.362347,888.247130,8438.347739
2626.482907,1378.971896,518.144159,8512.368333
2626.483236,1378.971896,296.082377,8438.347739
2626.483565,1608.800546,666.185348,8068.244768
2626.483894,1608.800546,1184.329507,7994.224174
2626.484223,1608.800546,814.226536,8808.450710
2626.484552,612.876398,-1184.329507,8734.430116
2626.484882,459.657299,-1998.556043,9622.677246
2626.485211,0.000000,-1554.432478,9622.677246
2626.485540,76.609550,-74.020594,9622.677246
2626.485869,229.828649,148.041188,9178.553681
2626.486198,229.828649,-0.000000,9548.656652
2626.486528,459.657299,-296.082377,9918.759623
2626.486857,919.314598,-370.102971,9474.636058
2626.487186,1149.143247,1258.350101,8882.471304
2626.487515,1532.190996,666.185348,8512.368333
2626.487844,1302.362347,-148.041188,8586.388927
2626.488174,1532.190996,-666.185348,9252.574275
2626.488503,1608.800546,-518.144159,9030.512492
2626.488832,1455.581446,296.082377,7994.224174
2626.489161,1762.019645,1406.391290,8142.265362
2626.489490,1455.581446,-74.020594,9104.533087
2626.489819,689.485948,-1406.391290,9474.636058
2626.490149,306.438199,-740.205942,9104.533087
2626.490478,306.438199,-518.144159,9178.553681
2626.490807,0.000000,-0.000000,8808.450710
2626.491136,0.000000,296.082377,8956.491898
2626.491465,-153.219100,-592.164754,9770.718434
2626.491795,0.000000,-962.267725,10066.800811
2626.492124,-536.266849,-74.020594,8956.491898
2626.492453,-383.047749,1406.391290,8808.450710
2626.492782,0.000000,518.144159,9104.533087
2626.493111,-536.266849,-444.123565,9030.512492
2626.493441,-536.266849,-962.267725,9696.697840
2626.493770,-766.095498,-592.164754,9326.594869
2626.494099,-919.314598,-0.000000,8956.491898
2626.494428,-536.266849,-296.082377,8882.471304
2626.494757,-306.438199,-1480.411884,9326.594869
2626.495086,-1072.533697,-1924.535449,10066.800811
2626.495416,-919.314598,-1258.350101,9918.759623
2626.495745,-383.047749,-518.144159,9622.677246
2626.496074,-153.219100,370.102971,9178.553681
2626.496403,229.828649,-0.000000,9178.553681
2626.496732,-612.876398,-888.247130,9844.739029
2626.497062,0.000000,-0.000000,9326.594869
2626.497391,153.219100,1332.370696,8216.285956
2626.497720,842.705048,1036.288319,8142.265362
2626.498049,153.219100,-0.000000,7920.203579
2626.498378,153.219100,-814.226536,8882.471304
2626.498708,153.219100,-370.102971,9030.512492
2626.499037,0.000000,-0.000000,8882.471304
2626.499366,0.000000,370.102971,9400.615463
2626.499695,306.438199,-148.041188,8882.471304
2626.500024,0.000000,-962.267725,9400.615463
2626.500353,-229.828649,-962.267725,9474.636058
2626.500683,842.705048,-0.000000,8882.471304
2626.501012,1302.362347,1258.350101,8068.244768
2626.501341,1685.410096,-0.000000,8438.347739
2626.501670,2068.457845,-666.185348,9178.553681
2626.501999,1762.019645,-1110.308913,9178.553681
2626.502329,1762.019645,666.185348,8364.327145
2626.502658,1915.238745,222.061783,8068.244768
2626.502987,1149.143247,222.061783,8364.327145
2626.503316,1532.190996,-888.247130,9474.636058
2626.503645,1225.752797,-1480.411884,9326.594869
2626.503974,842.705048,-592.164754,9030.512492
2626.504304,919.314598,-0.000000,8660.409521
2626.504633,1378.971896,296.082377,8956.491898
2626.504962,995.924147,-888.247130,9400.615463
2626.505291,1149.143247,-1036.288319,9696.697840
2626.505620,766.095498,-592.164754,9474.636058
2626.505950,995.924147,1554.432478,8734.430116
2626.506279,689.485948,814.226536,8734.430116
2626.506608,1302.362347,-74.020594,9474.636058
2626.506937,229.828649,-740.205942,9696.697840
2626.507266,459.657299,-444.123565,9474.636058
2626.507596,0.000000,222.061783,8882.471304
2626.507925,0.000000,592.164754,8882.471304
2626.508254,383.047749,-740.205942,9252.574275
2626.508583,-306.438199,-1628.453072,9918.759623
2626.508912,-383.047749,-740.205942,9992.780217
2626.509241,-229.828649,-0.000000,9474.636058
2626.509571,0.000000,592.164754,8882.471304
2626.509900,306.438199,592.164754,8734.430116
2626.510229,306.438199,-222.061783,9474.636058
2626.510558,306.438199,-296.082377,8586.388927
2626.510887,459.657299,1036.288319,8438.347739
2626.511217,919.314598,1480.411884,8364.327145
2626.511546,229.828649,-74.020594,8734.430116
2626.511875,-306.438199,-1110.308913,9548.656652
2626.512204,-995.924147,-1184.329507,9474.636058
2626.512533,-1072.533697,-592.164754,9400.615463
2626.512863,-1378.971896,-0.000000,9696.697840
2626.513192,-536.266849,666.185348,8734.430116
2626.513521,-1532.190996,-1184.329507,9770.718434
2626.513850,-1915.238745,-1110.308913,10288.862594
2626.514179,-612.876398,-444.123565,9400.615463
2626.514508,-842.705048,370.102971,8512.368333
2626.514838,-153.219100,148.041188,8142.265362
2626.515167,-229.828649,-1110.308913,9178.553681
2626.515496,-842.705048,-962.267725,10288.862594
2626.515825,229.828649,-888.247130,10066.800811
2626.516154,1149.143247,370.102971,7698.141797
2626.516484,2145.067394,1036.288319,7624.121203
2626.516813,2145.067394,148.041188,7402.059420
2626.517142,1991.848295,444.123565,8364.327145
2626.517471,1685.410096,1480.411884,8364.327145
2626.517800,2068.457845,1258.350101,7846.182985
2626.518130,1532.190996,592.164754,8956.491898
2626.518459,459.657299,-666.185348,9030.512492
2626.518788,-689.485948,-1924.535449,10362.883188
2626.519117,-1072.533697,-1480.411884,10510.924376
2626.519446,-842.705048,-296.082377,9770.718434
2626.519775,0.000000,370.102971,10362.883188
2626.520105,0.000000,-0.000000,9548.656652
2626.520434,-842.705048,-222.061783,9770.718434
2626.520763,536.266849,-444.123565,9844.739029
2626.521092,1072.533697,1258.350101,7624.121203
2626.521421,1685.410096,1036.288319,8290.306550
2626.521751,2221.676944,-0.000000,8364.327145
2626.522080,2451.505594,-740.205942,8290.306550
2626.522409,2451.505594,-740.205942,9030.512492
2626.522738,1991.848295,518.144159,8216.285956
2626.523067,1838.629195,592.164754,8364.327145
2626.523397,1302.362347,518.144159,8882.471304
2626.523726,1455.581446,-296.082377,9252.574275
2626.524055,229.828649,-666.185348,9770.718434
2626.524384,306.438199,518.144159,9474.636058
2626.524713,-766.095498,740.205942,9178.553681
2626.525042,0.000000,-296.082377,9696.697840
2626.525372,0.000000,-1184.329507,9474.636058
2626.525701,-383.047749,-1850.514855,9992.780217
2626.526030,-919.314598,-370.102971,8882.471304
2626.526359,-995.924147,222.061783,8734.430116
2626.526688,-995.924147,-222.061783,9178.553681
2626.527018,-612.876398,-888.247130,9474.636058
2626.527347,-766.095498,-1702.473667,9918.759623
2626.527676,-766.095498,-1406.391290,8808.450710
2626.528005,-459.657299,-0.000000,8660.409521
2626.528334,0.000000,-0.000000,8660.409521
2626.528664,0.000000,-1110.308913,9030.512492
2626.528993,459.657299,-1998.556043,9992.780217
2626.529322,995.924147,-0.000000,9104.533087
2626.529651,1072.533697,740.205942,8216.285956
2626.529980,842.705048,1110.308913,8512.368333
2626.530309,919.314598,444.123565,8660.409521
2626.530639,612.876398,-222.061783,9030.512492
2626.530968,229.828649,296.082377,8290.306550
2626.531297,229.828649,666.185348,8808.450710
2626.531626,383.047749,-814.226536,8586.388927
2626.531955,-612.876398,-740.205942,9252.574275
2626.532285,-612.876398,-2886.803174,9770.718434
2626.532614,-919.314598,-2146.597232,9474.636058
2626.532943,-612.876398,-370.102971,9474.636058
2626.533272,-689.485948,740.205942,9400.615463
2626.533601,-153.219100,222.061783,9104.533087
2626.533931,153.219100,-814.226536,9770.718434
2626.534260,842.705048,444.123565,9178.553681
2626.534589,1072.533697,1036.288319,8364.327145
2626.534918,1608.800546,1628.453072,8364.327145
2626.535247,2068.457845,740.205942,8216.285956
2626.535576,2604.724693,-148.041188,9104.533087
2626.535906,2298.286494,-1184.329507,8956.491898
2626.536235,1915.238745,-222.061783,8734.430116
2626.536564,1378.971896,370.102971,8956.491898
2626.536893,995.924147,-222.061783,9326.594869
2626.537222,536.266849,-1258.350101,9918.759623
2626.537552,76.609550,-1332.370696,9844.739029
2626.537881,153.219100,-0.000000,9326.594869
2626.538210,153.219100,888.247130,8882.471304
2626.538539,689.485948,-74.020594,9326.594869
2626.538868,229.828649,-370.102971,9844.739029
2626.539198,0.000000,-1332.370696,10510.924376
2626.539527,-153.219100,-296.082377,8882.471304
2626.539856,-612.876398,666.185348,9030.512492
2626.540185,76.609550,814.226536,8808.450710
2626.540514,153.219100,296.082377,9474.636058
2626.540843,-76.609550,-592.164754,9622.677246
2626.541173,229.828649,-222.061783,9400.615463
2626.541502,459.657299,1406.391290,8438.347739
2626.541831,306.438199,222.061783,8512.368333
2626.542160,1225.752797,-370.102971,9104.533087
2626.542489,612.876398,-1258.350101,9696.697840
2626.542819,766.095498,-740.205942,9030.512492
2626.543148,842.705048,148.041188,8512.368333
2626.543477,76.609550,1258.350101,8290.306550
2626.543806,536.266849,-0.000000,8734.430116
2626.544135,1225.752797,-148.041188,9326.594869
2626.544465,-612.876398,-740.205942,8882.471304
2626.544794,-306.438199,666.185348,8364.327145
2626.545123,0.000000,814.226536,8142.265362
2626.545452,-306.438199,-518.144159,8068.244768
2626.545781,-383.047749,-1776.494261,9770.718434
2626.546110,-919.314598,-1924.535449,9696.697840
2626.546440,-1072.533697,-1110.308913,9252.574275
2626.546769,-612.876398,296.082377,8808.450710
2626.547098,-689.485948,296.082377,8734.430116
2626.547427,-459.657299,-592.164754,8956.491898
2626.547756,0.000000,-814.226536,9474.636058
2626.548086,-383.047749,370.102971,8734.430116
2626.548415,0.000000,592.164754,8142.265362
2626.548744,689.485948,370.102971,9178.553681
2626.549073,229.828649,-1258.350101,9696.697840
2626.549402,459.657299,-962.267725,9104.533087
2626.549732,459.657299,-370.102971,8512.368333
2626.550061,766.095498,444.123565,8660.409521
2626.550390,1149.143247,1036.288319,8290.306550
2626.550719,1149.143247,-592.164754,9030.512492
2626.551048,612.876398,-1110.308913,9622.677246
2626.551377,919.314598,-148.041188,8808.450710
2626.551707,766.095498,592.164754,8660.409521
2626.552036,459.657299,-0.000000,9252.574275
2626.552365,306.438199,-666.185348,9474.636058
2626.552694,306.438199,-1702.473667,9844.739029
2626.553023,229.828649,-592.164754,9474.636058
2626.553353,612.876398,518.144159,9622.677246
2626.553682,76.609550,-0.000000,9474.636058
2626.554011,-383.047749,-0.000000,9696.697840
2626.554340,0.000000,-740.205942,10066.800811
2626.554669,153.219100,-222.061783,9474.636058
2626.554999,383.047749,740.205942,8734.430116
2626.555328,1225.752797,296.082377,8586.388927
2626.555657,2068.457845,-0.000000,8660.409521
2626.555986,1915.238745,-1110.308913,9844.739029
2626.556315,1762.019645,-148.041188,8956.491898
2626.556644,2145.067394,296.082377,8808.450710
2626.556974,1302.362347,1036.288319,8512.368333
2626.557303,1608.800546,962.267725,8290.306550
2626.557632,1532.190996,-148.041188,8512.368333
2626.557961,689.485948,-0.000000,9104.533087
2626.558290,766.095498,814.226536,9178.553681
2626.558620,229.828649,592.164754,8808.450710
2626.558949,0.000000,-0.000000,9252.574275
2626.559278,-612.876398,-1480.411884,9770.718434
2626.559607,-1532.190996,-2146.597232,10584.944971
2626.559936,-1302.362347,-1184.329507,10140.821405
2626.560266,-459.657299,-0.000000,9104.533087
2626.560595,-536.266849,148.041188,9104.533087
2626.560924,-919.314598,-296.082377,9474.636058
2626.561253,-306.438199,-666.185348,9474.636058
2626.561582,-229.828649,222.061783,8290.306550
2626.561911,229.828649,1036.288319,8216.285956
2626.562241,76.609550,-0.000000,8364.327145
2626.562570,306.438199,-1776.494261,9474.636058
2626.562899,383.047749,-962.267725,9548.656652
2626.563228,306.438199,-1332.370696,9104.533087
2626.563557,306.438199,-0.000000,8290.306550
2626.563887,229.828649,1628.453072,8956.491898
2626.564216,383.047749,-0.000000,8734.430116
2626.564545,612.876398,296.082377,9252.574275
2626.564874,1302.362347,-296.082377,9400.615463
2626.565203,1532.190996,1480.411884,7920.203579
2626.565532,689.485948,296.082377,8512.368333
2626.565861,-229.828649,-740.205942,8586.388927
2626.566190,0.000000,-1554.432478,9400.615463
2626.566519,-612.876398,-1554.432478,9474.636058
2626.566848,-689.485948,-1110.308913,8882.471304
2626.567177,-383.047749,1036.288319,8882.471304
2626.567506,0.000000,-592.164754,8882.471304
2626.567835,-383.047749,-740.205942,9474.636058
2626.568164,306.438199,-592.164754,9548.656652
2626.568493,0.000000,370.102971,8734.430116
2626.568822,689.485948,962.267725,8586.388927
2626.569151,1225.752797,296.082377,9178.553681
2626.569480,1915.238745,-222.061783,9326.594869
2626.569809,2681.334243,-740.205942,8956.491898
2626.570138,2068.457845,518.144159,7772.162391
2626.570467,2145.067394,1036.288319,8068.244768
2626.570796,1991.848295,740.205942,8290.306550
2626.571125,1838.629195,-296.082377,8808.450710
2626.571454,1225.752797,-592.164754,9178.553681
2626.571783,1149.143247,-0.000000,8882.471304
2626.572112,612.876398,370.102971,8882.471304
2626.572441,459.657299,-74.020594,9770.718434
2626.572770,153.219100,-1554.432478,10140.821405
2626.573099,76.609550,-1850.514855,10362.883188
2626.573428,-153.219100,-518.144159,9474.636058
2626.573757,-612.876398,-0.000000,10066.800811
2626.574086,306.438199,296.082377,9474.636058
2626.574415,0.000000,222.061783,8808.450710
2626.574744,153.219100,-296.082377,9696.697840
2626.575073,229.828649,-0.000000,9252.574275
2626.575402,689.485948,1110.308913,8364.327145
2626.575731,459.657299,666.185348,8290.306550
2626.576060,1072.533697,-0.000000,9400.615463
2626.576389,612.876398,-2368.659014,9844.739029
2626.576718,-459.657299,-444.123565,9326.594869
2626.577047,-153.219100,296.082377,9326.594869
2626.577376,-306.438199,666.185348,8438.347739
2626.577705,0.000000,444.123565,9178.553681
2626.578034,0.000000,-444.123565,10066.800811
2626.578363,-229.828649,-444.123565,8734.430116
2626.578692,0.000000,370.102971,8808.450710
2626.579021,-153.219100,518.144159,8512.368333
2626.579350,-153.219100,-222.061783,8734.430116
2626.579679,-459.657299,-1258.350101,9178.553681
2626.580009,-1378.971896,-1850.514855,9474.636058
2626.580338,-766.095498,-148.041188,9178.553681
2626.580667,-995.924147,518.144159,8290.306550
2626.580996,-1225.752797,962.267725,9104.533087
2626.581325,-766.095498,-1110.308913,9400.615463
2626.581654,-766.095498,-518.144159,9104.533087
2626.581983,-919.314598,-0.000000,8808.450710
2626.582312,0.000000,296.082377,9178.553681
2626.582641,306.438199,-518.144159,8882.471304
2626.582970,612.876398,-518.144159,9474.636058
2626.583299,842.705048,-1702.473667,9696.697840
2626.583628,153.219100,-148.041188,9474.636058
2626.583957,1225.752797,1110.308913,8512.368333
2626.584286,1608.800546,1110.308913,7994.224174
2626.584615,1072.533697,222.061783,9326.594869
2626.584944,1532.190996,-444.123565,8808.450710
2626.585273,2221.676944,444.123565,8216.285956
2626.585602,1455.581446,888.247130,8216.285956
2626.585931,995.924147,370.102971,8808.450710
2626.586260,459.657299,-1332.370696,9400.615463
2626.586589,0.000000,-1702.473667,10362.883188
2626.586918,459.657299,-1110.308913,9474.636058
2626.587247,0.000000,-296.082377,9104.533087
2626.587576,0.000000,518.144159,9548.656652
2626.587905,459.657299,222.061783,9696.697840
2626.588234,612.876398,-296.082377,9696.697840
2626.588563,766.095498,222.061783,9474.636058
2626.588892,1455.581446,1332.370696,8586.388927
2626.589221,1685.410096,814.226536,8142.265362
2626.589550,2451.505594,296.082377,8586.388927
2626.589879,2374.896044,-1036.288319,9104.533087
2626.590208,1762.019645,-888.247130,9030.512492
2626.590537,1455.581446,-0.000000,9400.615463
2626.590866,995.924147,740.205942,8512.368333
2626.591195,1225.752797,296.082377,8512.368333
2626.591524,689.485948,-518.144159,9400.615463
2626.591853,612.876398,-74.020594,9104.533087
2626.592182,919.314598,-0.000000,8734.430116
2626.592511,612.876398,888.247130,8512.368333
2626.592840,536.266849,-0.000000,8364.327145
2626.593169,0.000000,-1258.350101,9696.697840
2626.593498,-536.266849,-1924.535449,9992.780217
2626.593827,-919.314598,-1184.329507,9400.615463
2626.594156,-1302.362347,-0.000000,9326.594869
2626.594485,-689.485948,-148.041188,9104.533087
2626.594814,-1455.581446,-0.000000,9400.615463
2626.595143,-919.314598,-1628.453072,9622.677246
2626.595472,-1149.143247,-296.082377,8734.430116
2626.595801,-612.876398,-0.000000,9030.512492
2626.596130,0.000000,-74.020594,8586.388927
2626.596459,-306.438199,-1110.308913,9178.553681
2626.596788,0.000000,-1850.514855,10066.800811
2626.597117,0.000000,-740.205942,8660.409521
2626.597446,689.485948,666.185348,8660.409521
2626.597775,153.219100,1332.370696,8068.244768
2626.598104,536.266849,592.164754,8734.430116
2626.598433,459.657299,-518.144159,9104.533087
2626.598762,76.609550,-74.020594,8586.388927
2626.599091,229.828649,296.082377,8216.285956
2626.599420,0.000000,74.020594,8586.388927
2626.599749,229.828649,-1036.288319,8808.450710
2626.600078,-536.266849,-1702.473667,9474.636058
2626.600407,-612.876398,-1628.453072,9252.574275
2626.600736,-536.266849,-444.123565,8660.409521
2626.601065,-306.438199,888.247130,8660.409521
2626.601394,-919.314598,-0.000000,9326.594869
2626.601723,76.609550,-444.123565,9474.636058
2626.602052,536.266849,-518.144159,9474.636058
2626.602381,229.828649,888.247130,8734.430116
2626.602710,612.876398,962.267725,8512.368333
2626.603039,842.705048,370.102971,8882.471304
2626.603368,1225.752797,-1036.288319,9696.697840
2626.603697,919.314598,-1184.329507,9622.677246
2626.604026,1072.533697,592.164754,9252.574275
2626.604355,1072.533697,888.247130,8660.409521
2626.604684,1532.190996,740.205942,8808.450710
2626.605013,1455.581446,-444.123565,9844.739029
2626.605342,1608.800546,-0.000000,9474.636058
2626.605671,1915.238745,370.102971,9178.553681
2626.606000,995.924147,2220.617826,8882.471304
2626.606329,1455.581446,370.102971,9474.636058
2626.606658,1302.362347,-666.185348,9696.697840
2626.606987,995.924147,-1184.329507,10658.965565
2626.607316,919.314598,-518.144159,9918.759623
2626.607645,919.314598,444.123565,9622.677246
2626.607974,612.876398,740.205942,9030.512492
2626.608303,1072.533697,-0.000000,9474.636058
2626.608632,612.876398,-518.144159,9622.677246
2626.608961,229.828649,-444.123565,9474.636058
2626.609290,383.047749,518.144159,8660.409521
2626.609619,689.485948,370.102971,8512.368333
2626.609948,689.485948,-518.144159,8660.409521
2626.610277,919.314598,-1850.514855,9548.656652
2626.610606,536.266849,-888.247130,9474.636058
2626.610935,0.000000,-0.000000,8734.430116
2626.611264,153.219100,592.164754,7994.224174
2626.611593,689.485948,518.144159,8290.306550
2626.611922,536.266849,-296.082377,9252.574275
2626.612251,229.828649,-0.000000,8734.430116
2626.612580,0.000000,666.185348,8438.347739
2626.612909,0.000000,592.164754,8068.244768
2626.613238,0.000000,-74.020594,8808.450710
2626.613567,-306.438199,-2220.617826,9548.656652
2626.613896,-842.705048,-1850.514855,9104.533087
2626.614225,-1225.752797,-148.041188,9178.553681
2626.614554,-1225.752797,296.082377,8660.409521
2626.614883,-995.924147,370.102971,8364.327145
2626.615212,-842.705048,-592.164754,9178.553681
2626.615541,-1225.752797,-1554.432478,9548.656652
2626.615870,-1762.019645,-888.247130,8734.430116
2626.616199,-536.266849,-0.000000,8734.430116
2626.616528,-766.095498,-296.082377,8734.430116
2626.616857,-842.705048,-1258.350101,9474.636058
2626.617186,-766.095498,-1924.535449,10140.821405
2626.617515,-153.219100,-888.247130,9474.636058
2626.617844,229.828649,666.185348,8734.430116
2626.618173,766.095498,518.144159,8586.388927
2626.618502,919.314598,-0.000000,8512.368333
2626.618831,766.095498,-0.000000,9844.739029
2626.619160,766.095498,592.164754,8882.471304
2626.619489,995.924147,1702.473667,8068.244768
2626.619818,919.314598,592.164754,8586.388927
2626.620147,0.000000,-0.000000,9030.512492
2626.620476,76.609550,-2072.576638,10955.047942
2626.620805,0.000000,-1998.556043,9548.656652
2626.621134,-229.828649,-0.000000,9326.594869
2626.621464,-306.438199,-74.020594,9252.574275
2626.621793,153.219100,-222.061783,9474.636058
2626.622122,76.609550,-666.185348,10362.883188
2626.622451,1225.752797,-222.061783,9474.636058
2626.622780,1378.971896,1258.350101,8882.471304
2626.623109,1532.190996,1258.350101,8882.471304
2626.623438,2145.067394,888.247130,8734.430116
2626.623767,1685.410096,-962.267725,9474.636058
2626.624096,1685.410096,-518.144159,8808.450710
2626.624425,1608.800546,296.082377,8882.471304
2626.624754,1838.629195,1184.329507,9104.533087
2626.625083,1378.971896,518.144159,8808.450710
2626.625412,919.314598,-1258.350101,9622.677246
2626.625741,766.095498,-592.164754,9474.636058
2626.626070,536.266849,1110.308913,7994.224174
2626.626399,383.047749,222.061783,7698.141797
2626.626728,1685.410096,444.123565,8290.306550
2626.627057,383.047749,-518.144159,8956.491898
2626.627386,229.828649,-2072.576638,10584.944971
2626.627715,689.485948,-740.205942,9474.636058
2626.628044,-306.438199,1110.308913,8364.327145
2626.628373,76.609550,1184.329507,8438.347739
2626.628702,76.609550,-592.164754,9474.636058
2626.629031,-689.485948,-740.205942,9770.718434
2626.629360,153.219100,444.123565,8660.409521
2626.629689,0.000000,-296.082377,8438.347739
2626.630018,-153.219100,-370.102971,8290.306550
2626.630347,-306.438199,-1776.494261,9474.636058
2626.630676,-612.876398,-2294.638420,9918.759623
2626.631005,-536.266849,-1184.329507,9252.574275
2626.631334,383.047749,740.205942,8512.368333
2626.631663,76.609550,814.226536,8660.409521
2626.631992,383.047749,444.123565,9030.512492
2626.632321,842.705048,-222.061783,9326.594869
2626.632650,536.266849,-74.020594,8586.388927
2626.632979,689.485948,1184.329507,7550.100608
2626.633308,919.314598,962.267725,7624.121203
2626.633637,612.876398,-370.102971,8660.409521
2626.633966,-306.438199,-2294.638420,9696.697840
2626.634295,-153.219100,-1554.432478,9622.677246
2626.634624,-995.924147,-518.144159,8808.450710
2626.634953,-1302.362347,592.164754,9030.512492
2626.635282,-919.314598,-0.000000,9104.533087
2626.635611,-1072.533697,-962.267725,9622.677246
2626.635940,-612.876398,-1184.329507,9548.656652
2626.636269,153.219100,518.144159,8956.491898
2626.636598,229.828649,1332.370696,7772.162391
2626.636927,1149.143247,222.061783,9178.553681
2626.637256,1838.629195,-1776.494261,9474.636058
2626.637585,1378.971896,-740.205942,9474.636058
2626.637914,1455.581446,-74.020594,8586.388927
2626.638243,1072.533697,1110.308913,7920.203579
2626.638572,1532.190996,666.185348,8660.409521
2626.638901,919.314598,-518.144159,9622.677246
2626.639230,919.314598,-962.267725,9918.759623
2626.639559,383.047749,-296.082377,9326.594869
2626.639888,459.657299,888.247130,8734.430116
2626.640217,306.438199,-0.000000,9696.697840
2626.640546,229.828649,-740.205942,9622.677246
2626.640875,383.047749,-1480.411884,10140.821405
2626.641204,689.485948,-740.205942,9696.697840
2626.641533,229.828649,444.123565,9104.533087
2626.641862,459.657299,814.226536,8956.491898
2626.642191,459.657299,-0.000000,9400.615463
2626.642520,995.924147,-814.226536,9474.636058
2626.642849,689.485948,148.041188,8660.409521
2626.643178,536.266849,666.185348,7994.224174
2626.643507,919.314598,444.123565,8808.450710
2626.643836,1225.752797,-0.000000,8438.347739
2626.644165,1302.362347,-1258.350101,9178.553681
2626.644494,689.485948,-1332.370696,9326.594869
2626.644823,766.095498,296.082377,8660.409521
2626.645152,689.485948,814.226536,8734.430116
2626.645481,536.266849,814.226536,8808.450710
2626.645810,229.828649,-222.061783,9548.656652
2626.646139,0.000000,-148.041188,9622.677246
2626.646468,0.000000,444.123565,7994.224174
2626.646797,-229.828649,518.144159,7846.182985
2626.647126,-229.828649,-518.144159,8956.491898
2626.647455,-689.485948,-1776.494261,10140.821405
2626.647784,-612.876398,-2072.576638,9104.533087
2626.648113,-842.705048,-296.082377,8364.327145
2626.648442,-536.266849,-0.000000,8364.327145
2626.648771,0.000000,-148.041188,8586.388927
2626.649100,0.000000,-518.144159,9326.594869
2626.649429,0.000000,-1554.432478,9400.615463
2626.649758,153.219100,-444.123565,9030.512492
2626.650087,383.047749,444.123565,9030.512492
2626.650416,842.705048,-0.000000,8808.450710
2626.650745,689.485948,-1628.453072,9400.615463
2626.651074,306.438199,-1258.350101,9918.759623
2626.651403,1685.410096,-222.061783,9030.512492
2626.651732,919.314598,1406.391290,8290.306550
2626.652061,842.705048,1036.288319,8216.285956
2626.652390,1225.752797,-148.041188,9030.512492
2626.652719,229.828649,-814.226536,9326.594869
2626.653048,536.266849,-370.102971,9252.574275
2626.653377,612.876398,296.082377,8290.306550
2626.653706,0.000000,1110.308913,9030.512492
2626.654035,153.219100,-962.267725,9918.759623
2626.654364,-306.438199,-1702.473667,10140.821405
2626.654693,-383.047749,-962.267725,9918.759623
2626.655022,0.000000,518.144159,9400.615463
2626.655351,0.000000,1480.411884,8660.409521
2626.655680,76.609550,1036.288319,9030.512492
2626.656009,766.095498,-444.123565,10066.800811
2626.656338,919.314598,-148.041188,9326.594869
2626.656667,1532.190996,1258.350101,8512.368333
2626.656996,1302.362347,962.267725,8216.285956
2626.657325,1149.143247,148.041188,8660.409521
2626.657654,1302.362347,-962.267725,9474.636058
2626.657983,1072.533697,-1036.288319,9326.594869
2626.658312,383.047749,-592.164754,9104.533087
2626.658641,229.828649,222.061783,8882.471304
2626.658970,0.000000,-148.041188,9178.553681
2626.659299,153.219100,-444.123565,9548.656652
2626.659628,0.000000,-888.247130,9844.739029
2626.659957,76.609550,-0.000000,9178.553681
2626.660286,153.219100,1258.350101,8734.430116
2626.660615,-766.095498,740.205942,9474.636058
2626.660944,536.266849,-1332.370696,9918.759623
2626.661273,153.219100,-1036.288319,9548.656652
2626.661602,-536.266849,222.061783,9326.594869
2626.661931,0.000000,592.164754,8512.368333
2626.662260,0.000000,666.185348,8660.409521
2626.662589,76.609550,-518.144159,9104.533087
2626.662919,0.000000,-1110.308913,9252.574275
2626.663248,-459.657299,-740.205942,8956.491898
2626.663577,0.000000,370.102971,7772.162391
2626.663906,0.000000,-74.020594,8586.388927
2626.664235,-306.438199,-1258.350101,9400.615463
2626.664564,-306.438199,-1480.411884,9696.697840
2626.664893,0.000000,-1184.329507,9770.718434
2626.665222,76.609550,-0.000000,9030.512492
2626.665551,76.609550,1110.308913,8142.265362
2626.665880,0.000000,-0.000000,8956.491898
2626.666209,76.609550,-444.123565,9770.718434
2626.666538,383.047749,-0.000000,8660.409521
2626.666867,536.266849,666.185348,8438.347739
2626.667196,766.095498,296.082377,8216.285956
2626.667525,842.705048,-296.082377,8956.491898
2626.667854,459.657299,-1110.308913,9548.656652
2626.668182,536.266849,-1036.288319,8290.306550
2626.668511,459.657299,296.082377,8438.347739
2626.668840,0.000000,814.226536,8142.265362
2626.669169,76.609550,296.082377,8808.450710
2626.669498,0.000000,-1184.329507,9696.697840
2626.669827,612.876398,-1184.329507,9474.636058
2626.670156,766.095498,-0.000000,8142.265362
2626.670485,76.609550,296.082377,8586.388927
2626.670814,919.314598,-1406.391290,10288.862594
2626.671143,1225.752797,-1184.329507,9696.697840
2626.671472,1225.752797,-1184.329507,9548.656652
2626.671801,1302.362347,-148.041188,8512.368333
2626.672130,1455.581446,962.267725,9400.615463
2626.672459,1378.971896,888.247130,9474.636058
2626.672788,1149.143247,-444.123565,9400.615463
2626.673117,1225.752797,-740.205942,9474.636058
2626.673446,842.705048,-74.020594,8956.491898
2626.673775,766.095498,888.247130,8586.388927
2626.674104,536.266849,-370.102971,9178.553681
2626.674433,0.000000,-1258.350101,9474.636058
2626.674762,0.000000,-2220.617826,10658.965565
2626.675091,-612.876398,-1480.411884,9992.780217
2626.675420,-536.266849,-74.020594,9474.636058
2626.675749,229.828649,148.041188,9474.636058
2626.676078,229.828649,444.123565,9178.553681
2626.676407,995.924147,-0.000000,9622.677246
2626.676736,1225.752797,814.226536,8438.347739
2626.677065,1685.410096,1406.391290,8142.265362
2626.677394,2221.676944,1628.453072,7698.141797
2626.677723,1991.848295,74.020594,7994.224174
2626.678052,995.924147,-1184.329507,8882.471304
2626.678381,612.876398,-888.247130,8512.368333
2626.678710,383.047749,-222.061783,8734.430116
2626.679039,-153.219100,148.041188,8364.327145
2626.679368,-383.047749,-0.000000,8956.491898
2626.679697,-842.705048,-1110.308913,9696.697840
2626.680026,-1225.752797,-1036.288319,9918.759623
2626.680355,-1225.752797,296.082377,9474.636058
2626.680684,-995.924147,518.144159,9030.512492
2626.681013,-536.266849,-148.041188,9104.533087
2626.681341,-383.047749,-1406.391290,9844.739029
2626.681670,-842.705048,-962.267725,9400.615463
2626.681999,76.609550,-74.020594,9178.553681
2626.682328,-306.438199,814.226536,7550.100608
2626.682657,76.609550,370.102971,8660.409521
2626.682986,-306.438199,-1036.288319,9400.615463
2626.683315,-306.438199,-1036.288319,9104.533087
2626.683644,-612.876398,-0.000000,8438.347739
2626.683973,0.000000,592.164754,8660.409521
2626.684302,0.000000,-962.267725,9400.615463
2626.684631,459.657299,-1332.370696,9622.677246
2626.684960,459.657299,-1184.329507,9474.636058
2626.685289,0.000000,-0.000000,9104.533087
2626.685618,536.266849,888.247130,8808.450710
2626.685947,766.095498,1702.473667,8438.347739
2626.686276,689.485948,-0.000000,9252.574275
2626.686605,1149.143247,-740.205942,9104.533087
2626.686934,842.705048,-296.082377,9178.553681
2626.687263,536.266849,666.185348,8734.430116
2626.687592,383.047749,222.061783,8364.327145
2626.687921,153.219100,-962.267725,9548.656652
2626.688250,306.438199,-1554.432478,9696.697840
2626.688579,459.657299,-1480.411884,9326.594869
2626.688908,-229.828649,-0.000000,8956.491898
2626.689237,76.609550,1036.288319,8956.491898
2626.689566,383.047749,296.082377,8882.471304
2626.689895,689.485948,-296.082377,10214.842000
2626.690224,842.705048,-0.000000,9474.636058
2626.690553,1378.971896,888.247130,8660.409521
2626.690882,1762.019645,1258.350101,8586.388927
2626.691211,2451.505594,-0.000000,8808.450710
2626.691540,2145.067394,-814.226536,9474.636058
2626.691869,2451.505594,-592.164754,8808.450710
2626.692198,1762.019645,666.185348,8290.306550
2626.692527,1378.971896,888.247130,8290.306550
2626.692856,1685.410096,-0.000000,8882.471304
2626.693185,689.485948,-518.144159,9474.636058
2626.693514,995.924147,-592.164754,9696.697840
2626.693843,766.095498,-0.000000,8956.491898
2626.694171,459.657299,518.144159,8808.450710
2626.694500,-536.266849,-148.041188,9622.677246
2626.694829,-229.828649,-1110.308913,10140.821405
2626.695158,-689.485948,-1702.473667,9844.739029
2626.695487,-1225.752797,-0.000000,9474.636058
2626.695816,-689.485948,444.123565,9474.636058
2626.696145,-1302.362347,296.082377,8808.450710
2626.696474,229.828649,-666.185348,9474.636058
2626.696803,0.000000,-888.247130,9474.636058
2626.697132,0.000000,-444.123565,8882.471304
2626.697461,0.000000,1036.288319,8068.244768
2626.697790,306.438199,-0.000000,8364.327145
2626.698119,0.000000,-1184.329507,8808.450710
2626.698448,766.095498,-1554.432478,9252.574275
2626.698777,153.219100,-222.061783,9030.512492
2626.699106,-153.219100,370.102971,7994.224174
2626.699435,0.000000,888.247130,8364.327145
2626.699764,0.000000,370.102971,9030.512492
2626.700093,-536.266849,-1110.308913,9252.574275
2626.700422,0.000000,-666.185348,9178.553681
2626.700751,0.000000,370.102971,8808.450710
2626.701080,-306.438199,-0.000000,8142.265362
2626.701409,-1072.533697,-444.123565,8808.450710
2626.701738,-689.485948,-1924.535449,9400.615463
2626.702067,-536.266849,-1850.514855,9548.656652
2626.702396,-689.485948,-0.000000,8734.430116
2626.702725,0.000000,-74.020594,8438.347739
2626.703054,766.095498,296.082377,8142.265362
2626.703383,536.266849,-222.061783,8660.409521
2626.703712,689.485948,-222.061783,9178.553681
2626.704041,1302.362347,592.164754,8512.368333
2626.704370,1225.752797,1036.288319,8216.285956
2626.704699,1149.143247,444.123565,8882.471304
2626.705028,1608.800546,-1110.308913,9696.697840
2626.705357,1302.362347,-1406.391290,9104.533087
2626.705686,1378.971896,296.082377,9178.553681
2626.706015,1149.143247,370.102971,9178.553681
2626.706344,995.924147,370.102971,9400.615463
2626.706673,1149.143247,296.082377,9696.697840
2626.707001,1378.971896,-888.247130,9548.656652
2626.707330,1072.533697,-74.020594,8956.491898
2626.707659,919.314598,518.144159,8216.285956
2626.707988,995.924147,666.185348,8882.471304
2626.708317,1072.533697,-1036.288319,9474.636058
2626.708646,842.705048,-1332.370696,9770.718434
2626.708975,306.438199,-518.144159,9178.553681
2626.709304,0.000000,592.164754,9104.533087
2626.709633,153.219100,296.082377,9400.615463
2626.709962,229.828649,-74.020594,9178.553681
2626.710291,229.828649,-740.205942,10288.862594
2626.710620,306.438199,-148.041188,9622.677246
2626.710949,536.266849,888.247130,8660.409521
2626.711278,919.314598,740.205942,8734.430116
2626.711607,1608.800546,-0.000000,9104.533087
2626.711936,995.924147,-592.164754,9474.636058
2626.712265,1532.190996,-666.185348,8734.430116
2626.712594,1762.019645,1036.288319,8216.285956
2626.712923,1072.533697,1406.391290,7772.162391
2626.713252,919.314598,814.226536,8290.306550
2626.713581,536.266849,-444.123565,9326.594869
2626.713910,0.000000,-444.123565,9030.512492
2626.714239,-536.266849,296.082377,8956.491898
2626.714568,-919.314598,-444.123565,8956.491898
2626.714897,-1532.190996,-1924.535449,9992.780217
2626.715226,-1762.019645,-2368.659014,9992.780217
2626.715555,-1991.848295,-1702.473667,9178.553681
2626.715884,-1838.629195,-1554.432478,10584.944971
2626.716213,-1532.190996,-0.000000,9696.697840
2626.716542,-1149.143247,296.082377,8808.450710
2626.716871,-1608.800546,-1258.350101,9474.636058
2626.717200,383.047749,-1036.288319,8734.430116
2626.717529,919.314598,370.102971,9030.512492
2626.717858,689.485948,1184.329507,8216.285956
2626.718187,842.705048,296.082377,7994.224174
2626.718516,995.924147,-592.164754,8882.471304
2626.718845,1072.533697,-814.226536,8734.430116
2626.719174,1532.190996,-148.041188,8364.327145
2626.719503,612.876398,814.226536,8142.265362
2626.719832,0.000000,1184.329507,8512.368333
2626.720160,0.000000,-1036.288319,9548.656652
2626.720489,-459.657299,-1628.453072,9844.739029
2626.720818,-383.047749,-370.102971,9178.553681
2626.721147,-306.438199,-0.000000,9252.574275
2626.721476,306.438199,-148.041188,8808.450710
2626.721805,229.828649,-592.164754,9400.615463
2626.722134,76.609550,-1702.473667,9622.677246
2626.722463,306.438199,-1036.288319,9548.656652
2626.722792,459.657299,592.164754,8734.430116
2626.723121,612.876398,1184.329507,8290.306550
2626.723450,842.705048,-0.000000,8660.409521
2626.723779,689.485948,-666.185348,9474.636058
2626.724108,1072.533697,-0.000000,8882.471304
2626.724437,1608.800546,296.082377,8512.368333
2626.724766,1532.190996,518.144159,8512.368333
2626.725095,1608.800546,222.061783,8512.368333
2626.725424,1838.629195,-1110.308913,9770.718434
2626.725753,1302.362347,-740.205942,9104.533087
2626.726082,1455.581446,222.061783,9104.533087
2626.726411,1685.410096,1110.308913,9030.512492
2626.726740,1302.362347,962.267725,8882.471304
2626.727069,1072.533697,-0.000000,9474.636058
2626.727398,459.657299,-222.061783,9622.677246
2626.727727,995.924147,-222.061783,9474.636058
2626.728056,612.876398,666.185348,8290.306550
2626.728385,459.657299,-148.041188,9474.636058
2626.728714,919.314598,-2294.638420,10214.842000
2626.729043,0.000000,-1702.473667,9696.697840
2626.729372,-229.828649,-592.164754,8956.491898
2626.729701,0.000000,962.267725,9104.533087
2626.730030,-383.047749,-0.000000,8956.491898
2626.730359,-919.314598,-0.000000,9474.636058
2626.730688,306.438199,-1110.308913,9548.656652
2626.731017,-612.876398,592.164754,9030.512492
2626.731346,153.219100,518.144159,8512.368333
2626.731675,153.219100,370.102971,8956.491898
2626.732004,459.657299,-666.185348,9400.615463
2626.732333,536.266849,-1258.350101,9178.553681
2626.732662,76.609550,-888.247130,8512.368333
2626.732990,383.047749,148.041188,8364.327145
2626.733319,153.219100,888.247130,8438.347739
2626.733648,0.000000,-148.041188,8808.450710
2626.733977,0.000000,-1184.329507,8956.491898
2626.734306,306.438199,-666.185348,8882.471304
2626.734635,306.438199,592.164754,7846.182985
2626.734964,0.000000,296.082377,8290.306550
2626.735293,-306.438199,-0.000000,8882.471304
2626.735622,0.000000,-1480.411884,10066.800811
2626.735951,-842.705048,-814.226536,9326.594869
2626.736280,-612.876398,-0.000000,8808.450710
2626.736609,-383.047749,1110.308913,8586.388927
2626.736938,-306.438199,444.123565,8808.450710
2626.737267,-459.657299,-888.247130,9844.739029
2626.737596,-766.095498,-1480.411884,9622.677246
2626.737925,229.828649,-0.000000,8438.347739
2626.738254,0.000000,296.082377,8956.491898
2626.738583,306.438199,-222.061783,8956.491898
2626.738912,459.657299,-1184.329507,9844.739029
2626.739241,689.485948,-1850.514855,9622.677246
2626.739570,383.047749,-0.000000,9030.512492
2626.739899,1072.533697,740.205942,8586.388927
2626.740228,1302.362347,1110.308913,9178.553681
2626.740557,1455.581446,-0.000000,9400.615463
2626.740886,1762.019645,-444.123565,9474.636058
2626.741215,1302.362347,740.205942,9104.533087
2626.741544,1608.800546,962.267725,9178.553681
2626.741873,1455.581446,740.205942,9326.594869
2626.742202,536.266849,-814.226536,9474.636058
2626.742531,1072.533697,-1776.494261,10362.883188
2626.742860,383.047749,-1110.308913,9474.636058
2626.743189,0.000000,518.144159,9548.656652
2626.743518,153.219100,518.144159,9326.594869
2626.743847,-459.657299,-592.164754,9400.615463
2626.744176,0.000000,-962.267725,10140.821405
2626.744505,383.047749,-962.267725,9474.636058
2626.744834,0.000000,962.267725,8364.327145
2626.745163,612.876398,740.205942,8216.285956
2626.745492,1302.362347,518.144159,8808.450710
2626.745820,1455.581446,-592.164754,9474.636058
2626.746149,1685.410096,-222.061783,8660.409521
2626.746478,1455.581446,888.247130,7994.224174
2626.746807,1608.800546,1628.453072,7994.224174
2626.747136,1608.800546,888.247130,8142.265362
2626.747465,1072.533697,-444.123565,9104.533087
2626.747794,306.438199,-666.185348,9474.636058
2626.748123,-306.438199,444.123565,8586.388927
2626.748452,-383.047749,-0.000000,8364.327145
2626.748781,-459.657299,-888.247130,9178.553681
2626.749110,-536.266849,-2368.659014,10140.821405
2626.749439,-1225.752797,-2368.659014,9844.739029
2626.749768,-1532.190996,-888.247130,9400.615463
2626.750097,-1302.362347,148.041188,8882.471304
2626.750426,-1149.143247,-0.000000,8808.450710
2626.750755,-995.924147,-1110.308913,9400.615463
2626.751084,-689.485948,-1184.329507,9844.739029
2626.751413,76.609550,-518.144159,9030.512492
2626.751742,306.438199,518.144159,8364.327145
2626.752071,842.705048,814.226536,8512.368333
2626.752400,919.314598,-814.226536,9104.533087
2626.752729,1149.143247,-888.247130,9178.553681
2626.753058,995.924147,148.041188,8364.327145
2626.753387,1302.362347,962.267725,8364.327145
2626.753716,612.876398,740.205942,8660.409521
2626.754045,1149.143247,-0.000000,9178.553681
2626.754374,766.095498,-1258.350101,8956.491898
2626.754703,536.266849,-592.164754,8882.471304
2626.755032,76.609550,592.164754,8586.388927
2626.755361,306.438199,222.061783,8734.430116
2626.755690,-153.219100,-1184.329507,9474.636058
2626.756019,-229.828649,-1554.432478,9992.780217
2626.756348,0.000000,-1258.350101,9992.780217
2626.756677,-153.219100,814.226536,9104.533087
2626.757006,153.219100,1184.329507,8068.244768
2626.757335,689.485948,666.185348,8882.471304
2626.757664,842.705048,-222.061783,9622.677246
2626.757993,1149.143247,148.041188,8956.491898
2626.758322,1991.848295,740.205942,8290.306550
2626.758651,1149.143247,740.205942,8808.450710
2626.758979,1225.752797,-148.041188,9696.697840
2626.759308,1149.143247,-666.185348,9548.656652
2626.759637,919.314598,-1184.329507,9696.697840
2626.759966,766.095498,444.123565,9474.636058
2626.760295,995.924147,888.247130,9400.615463
2626.760624,1302.362347,444.123565,9474.636058
2626.760953,1378.971896,-814.226536,9252.574275
2626.761282,1532.190996,-1554.432478,10066.800811
2626.761611,1378.971896,740.205942,8660.409521
2626.761940,1072.533697,1258.350101,7994.224174
2626.762269,1149.143247,666.185348,8290.306550
2626.762598,842.705048,-814.226536,9104.533087
2626.762927,536.266849,-1184.329507,9326.594869
2626.763256,76.609550,-740.205942,8882.471304
2626.763585,-689.485948,296.082377,9030.512492
2626.763914,-1302.362347,518.144159,9104.533087
2626.764243,-1378.971896,-740.205942,9696.697840
2626.764572,-1455.581446,-1702.473667,9918.759623
2626.764901,-1072.533697,-1258.350101,9474.636058
2626.765230,-689.485948,-296.082377,7846.182985
2626.765559,76.609550,-296.082377,8512.368333
2626.765888,612.876398,-962.267725,8660.409521
2626.766217,919.314598,-1184.329507,9178.553681
2626.766546,1149.143247,-148.041188,8586.388927
2626.766875,1072.533697,962.267725,7920.203579
2626.767204,1072.533697,1258.350101,7994.224174
2626.767533,1072.533697,-0.000000,8808.450710
2626.767862,383.047749,-518.144159,8808.450710
2626.768191,-229.828649,-444.123565,9400.615463
2626.768520,0.000000,-74.020594,8364.327145
2626.768849,-459.657299,444.123565,8734.430116
2626.769178,-536.266849,-1406.391290,9104.533087
2626.769507,-842.705048,-2368.659014,9252.574275
2626.769836,-306.438199,-1776.494261,9622.677246
2626.770165,-919.314598,-0.000000,8734.430116
2626.770494,-689.485948,222.061783,8586.388927
2626.770823,-689.485948,222.061783,9178.553681
2626.771152,-153.219100,-740.205942,9474.636058
2626.771481,306.438199,-296.082377,9770.718434
2626.771810,766.095498,296.082377,8660.409521
2626.772139,919.314598,814.226536,8290.306550
2626.772468,1302.362347,370.102971,8808.450710
2626.772797,1532.190996,-888.247130,9992.780217
2626.773126,919.314598,-814.226536,9326.594869
2626.773454,1225.752797,296.082377,9400.615463
2626.773783,1302.362347,1110.308913,8660.409521
2626.774112,766.095498,666.185348,8956.491898
2626.774441,1455.581446,-1036.288319,9844.739029
2626.774770,842.705048,-444.123565,9696.697840
2626.775099,536.266849,-148.041188,8882.471304
2626.775428,459.657299,740.205942,8808.450710
2626.775757,306.438199,592.164754,8734.430116
2626.776086,536.266849,-814.226536,9474.636058
2626.776415,766.095498,-1406.391290,9622.677246
2626.776744,229.828649,-518.144159,9326.594869
2626.777073,536.266849,1258.350101,9326.594869
2626.777402,919.314598,518.144159,8956.491898
2626.777731,383.047749,370.102971,8956.491898
2626.778060,612.876398,-296.082377,9622.677246
2626.778389,766.095498,222.061783,8660.409521
2626.778718,459.657299,666.185348,8586.388927
2626.779047,1302.362347,296.082377,8808.450710
2626.779376,995.924147,-74.020594,8808.450710
2626.779705,842.705048,-1406.391290,9548.656652
2626.780034,0.000000,-814.226536,9030.512492
2626.780363,-306.438199,-0.000000,8808.450710
2626.780692,-459.657299,814.226536,8660.409521
2626.781021,153.219100,296.082377,9104.533087
2626.781350,-383.047749,-1258.350101,9400.615463
2626.781679,-842.705048,-888.247130,9548.656652
2626.782008,-383.047749,148.041188,9696.697840
2626.782337,-459.657299,370.102971,8512.368333
2626.782666,306.438199,-0.000000,8512.368333
2626.782995,0.000000,-1406.391290,9992.780217
2626.783324,0.000000,-1184.329507,9400.615463
2626.783653,0.000000,-518.144159,8512.368333
2626.783982,0.000000,592.164754,7920.203579
2626.784311,-383.047749,296.082377,8734.430116
2626.784640,-383.047749,-1110.308913,9622.677246
2626.784969,-306.438199,-1258.350101,9474.636058
2626.785298,-229.828649,-370.102971,9030.512492
2626.785627,-459.657299,-74.020594,8512.368333
2626.785956,229.828649,-444.123565,9104.533087
2626.786285,0.000000,-1110.308913,9992.780217
2626.786614,306.438199,-1998.556043,9844.739029
2626.786943,229.828649,-370.102971,8956.491898
2626.787272,229.828649,962.267725,8364.327145
2626.787601,842.705048,1184.329507,8660.409521
2626.787930,1225.752797,296.082377,8882.471304
2626.788259,1072.533697,-444.123565,9622.677246
2626.788588,1762.019645,518.144159,8734.430116
2626.788917,1685.410096,1702.473667,8290.306550
2626.789246,1455.581446,592.164754,8142.265362
2626.789575,1302.362347,-222.061783,8438.347739
2626.789904,766.095498,-1036.288319,9548.656652
2626.790233,995.924147,-1406.391290,9030.512492
2626.790562,-229.828649,222.061783,8364.327145
2626.790891,0.000000,1480.411884,9252.574275
2626.791220,0.000000,-296.082377,8882.471304
2626.791549,0.000000,-1258.350101,9992.780217
2626.791878,536.266849,-592.164754,9992.780217
2626.792207,612.876398,148.041188,8586.388927
2626.792536,689.485948,296.082377,8734.430116
2626.792865,1378.971896,-0.000000,8956.491898
2626.793194,1608.800546,-444.123565,9992.780217
2626.793523,2145.067394,-814.226536,9474.636058
2626.793852,1608.800546,296.082377,8438.347739
2626.794181,1072.533697,1332.370696,8068.244768
2626.794509,1302.362347,370.102971,8956.491898
2626.794838,1455.581446,-222.061783,8882.471304
2626.795167,1302.362347,-1036.288319,9548.656652
2626.795496,459.657299,-222.061783,9104.533087
2626.795825,-153.219100,296.082377,8956.491898
2626.796154,0.000000,-0.000000,9326.594869
2626.796483,-383.047749,-1332.370696,9474.636058
2626.796812,-383.047749,-1332.370696,10362.883188
2626.797141,-383.047749,518.144159,9104.533087
2626.797470,0.000000,740.205942,8586.388927
2626.797799,-153.219100,962.267725,8290.306550
2626.798128,383.047749,-0.000000,9474.636058
2626.798457,0.000000,-592.164754,9696.697840
2626.798786,76.609550,-74.020594,8734.430116
2626.799115,0.000000,592.164754,8364.327145
2626.799444,-459.657299,-0.000000,8586.388927
2626.799773,-306.438199,-666.185348,9622.677246
2626.800102,-383.047749,-1332.370696,9474.636058
2626.800431,-153.219100,-1036.288319,9548.656652
2626.800760,-842.705048,-0.000000,9252.574275
2626.801089,-612.876398,296.082377,9696.697840
2626.801418,0.000000,-296.082377,9474.636058
2626.801747,-612.876398,-592.164754,8512.368333
2626.802076,306.438199,-0.000000,8956.491898
2626.802405,536.266849,962.267725,8290.306550
2626.802734,919.314598,1184.329507,7920.203579
2626.803063,1072.533697,-962.267725,8142.265362
2626.803392,383.047749,-2220.617826,9474.636058
2626.803721,383.047749,-1850.514855,9326.594869
2626.804050,0.000000,-518.144159,8660.409521
2626.804379,-766.095498,148.041188,8734.430116
2626.804708,-612.876398,-0.000000,9326.594869
2626.805037,-383.047749,-814.226536,9622.677246
2626.805366,-536.266849,-1406.391290,9770.718434
2626.805695,0.000000,-296.082377,9252.574275
2626.806024,306.438199,592.164754,8290.306550
2626.806353,919.314598,-0.000000,9030.512492
2626.806682,995.924147,-888.247130,9252.574275
2626.807011,1455.581446,-666.185348,9178.553681
2626.807340,1608.800546,-444.123565,8734.430116
2626.807669,2834.553343,888.247130,8512.368333
2626.807998,1685.410096,888.247130,8512.368333
2626.808327,1455.581446,-666.185348,9474.636058
2626.808656,766.095498,-1480.411884,10066.800811
2626.808985,689.485948,-0.000000,9474.636058
2626.809314,612.876398,518.144159,8882.471304
2626.809643,1072.533697,-0.000000,9178.553681
2626.809972,1378.971896,-592.164754,9548.656652
2626.810301,1378.971896,-1110.308913,10066.800811
2626.810630,1072.533697,-370.102971,9252.574275
2626.810959,842.705048,1332.370696,8290.306550
2626.811288,383.047749,1924.535449,7772.162391
2626.811617,995.924147,148.041188,9104.533087
2626.811946,306.438199,-888.247130,9326.594869
2626.812275,306.438199,-444.123565,9178.553681
2626.812604,766.095498,-296.082377,9474.636058
2626.812933,383.047749,222.061783,7994.224174
2626.813262,842.705048,-74.020594,9252.574275
2626.813591,919.314598,-888.247130,10066.800811
2626.813920,536.266849,-518.144159,9696.697840
2626.814249,689.485948,444.123565,9474.636058
2626.814578,612.876398,1258.350101,8586.388927
2626.814907,536.266849,1036.288319,9474.636058
2626.815235,766.095498,-592.164754,9548.656652
2626.815564,306.438199,-370.102971,9622.677246
2626.815893,76.609550,740.205942,8734.430116
2626.816222,0.000000,1406.391290,8364.327145
2626.816551,-306.438199,-370.102971,8956.491898
2626.816880,-612.876398,-2072.576638,9474.636058
2626.817209,-1378.971896,-2368.659014,9474.636058
2626.817538,-1685.410096,-1036.288319,9400.615463
2626.817867,-1455.581446,-222.061783,8882.471304
2626.818196,-1149.143247,-296.082377,8660.409521
2626.818525,-1149.143247,-1332.370696,9622.677246
2626.818854,-995.924147,-1850.514855,10140.821405
2626.819183,-612.876398,-222.061783,8882.471304
2626.819512,-153.219100,518.144159,8290.306550
2626.819841,76.609550,518.144159,8364.327145
2626.820170,383.047749,-740.205942,9474.636058
2626.820499,689.485948,-1184.329507,9326.594869
2626.820828,612.876398,-74.020594,8882.471304
2626.821157,612.876398,888.247130,8290.306550
2626.821486,766.095498,888.247130,8068.244768
2626.821815,612.876398,-370.102971,8216.285956
2626.822144,229.828649,-962.267725,8660.409521
2626.822473,229.828649,-592.164754,8586.388927
2626.822802,0.000000,-0.000000,8512.368333
2626.823131,536.266849,-0.000000,8660.409521
2626.823460,153.219100,-518.144159,8438.347739
2626.823789,-766.095498,-1998.556043,9770.718434
2626.824118,0.000000,-1110.308913,9474.636058
2626.824447,0.000000,518.144159,8586.388927
2626.824776,229.828649,1406.391290,8512.368333
2626.825105,1149.143247,962.267725,8808.450710
2626.825434,1149.143247,-666.185348,10066.800811
2626.825763,1149.143247,-0.000000,9696.697840
2626.826092,383.047749,370.102971,9474.636058
2626.826421,1378.971896,370.102971,8438.347739
2626.826750,1455.581446,-518.144159,8882.471304
2626.827079,1685.410096,-1184.329507,9474.636058
2626.827408,1302.362347,-666.185348,9252.574275
2626.827737,1302.362347,148.041188,9178.553681
2626.828066,919.314598,1258.350101,8734.430116
2626.828395,1149.143247,444.123565,9326.594869
2626.828724,1532.190996,-444.123565,9696.697840
2626.829053,995.924147,-444.123565,9844.739029
2626.829382,612.876398,-74.020594,9992.780217
2626.829711,1225.752797,962.267725,9104.533087
2626.830040,842.705048,666.185348,8956.491898
2626.830369,919.314598,-740.205942,9622.677246
2626.830698,536.266849,-1110.308913,10288.862594
2626.831027,0.000000,592.164754,9622.677246
2626.831356,-306.438199,1702.473667,8734.430116
2626.831685,0.000000,740.205942,8512.368333
2626.832014,0.000000,-148.041188,9178.553681
2626.832343,0.000000,-592.164754,9326.594869
2626.832672,-76.609550,-296.082377,9326.594869
2626.833001,-306.438199,888.247130,8956.491898
2626.833330,0.000000,-0.000000,8142.265362
2626.833659,-689.485948,-814.226536,9104.533087
2626.833988,-842.705048,-1480.411884,10066.800811
2626.834317,-1149.143247,-1480.411884,9696.697840
2626.834646,-536.266849,-0.000000,8882.471304
2626.834975,-689.485948,296.082377,8438.347739
2626.835304,536.266849,-296.082377,9326.594869
2626.835633,76.609550,-1554.432478,9548.656652
2626.835962,0.000000,-814.226536,9252.574275
2626.836290,0.000000,592.164754,7846.182985
2626.836619,306.438199,666.185348,7624.121203
2626.836948,459.657299,-148.041188,7846.182985
2626.837277,612.876398,-1406.391290,8734.430116
2626.837606,0.000000,-1036.288319,8512.368333
2626.837935,-842.705048,-370.102971,8216.285956
2626.838264,-689.485948,518.144159,7994.224174
2626.838593,-766.095498,222.061783,8290.306550
2626.838922,-1072.533697,-1480.411884,9918.759623
2626.839251,-689.485948,-2146.597232,9918.759623
2626.839580,-536.266849,-1184.329507,9178.553681
2626.839909,229.828649,-296.082377,9104.533087
2626.840238,0.000000,-1036.288319,9178.553681
2626.840567,919.314598,-1258.350101,9400.615463
2626.840896,1072.533697,-888.247130,8956.491898
2626.841225,1455.581446,518.144159,9326.594869
2626.841554,1302.362347,888.247130,7920.203579
2626.841883,1685.410096,1628.453072,8512.368333
2626.842212,1532.190996,-0.000000,9178.553681
2626.842541,1072.533697,-0.000000,9400.615463
2626.842870,919.314598,-0.000000,9622.677246
2626.843199,842.705048,888.247130,8512.368333
2626.843528,689.485948,666.185348,8956.491898
2626.843857,153.219100,-1406.391290,9844.739029
2626.844186,153.219100,-1924.535449,10658.965565
2626.844515,306.438199,-1036.288319,10066.800811
2626.844844,153.219100,-0.000000,9548.656652
2626.845173,0.000000,-0.000000,8956.491898
2626.845502,459.657299,962.267725,9104.533087
2626.845831,766.095498,-296.082377,9696.697840
2626.846160,1302.362347,-74.020594,9770.718434
2626.846489,1608.800546,1110.308913,7920.203579
2626.846818,2145.067394,1258.350101,7920.203579
2626.847147,2374.896044,592.164754,8438.347739
2626.847476,2145.067394,-370.102971,9104.533087
2626.847805,1762.019645,-74.020594,9178.553681
2626.848134,842.705048,1332.370696,8290.306550
2626.848463,689.485948,666.185348,8586.388927
2626.848792,0.000000,444.123565,9178.553681
2626.849121,-612.876398,-1258.350101,10362.883188
2626.849450,-1302.362347,-1776.494261,10362.883188
2626.849779,-995.924147,-370.102971,9400.615463
2626.850108,-995.924147,-370.102971,9400.615463
2626.850437,-919.314598,-444.123565,9474.636058
2626.850766,-689.485948,-1184.329507,9770.718434
2626.851095,-229.828649,-1850.514855,10066.800811
2626.851424,153.219100,-444.123565,9104.533087
2626.851753,153.219100,888.247130,8290.306550
2626.852082,0.000000,666.185348,8142.265362
2626.852411,689.485948,-0.000000,9474.636058
2626.852740,689.485948,-814.226536,8882.471304
2626.853069,0.000000,-0.000000,8364.327145
2626.853398,383.047749,-370.102971,8660.409521
2626.853727,459.657299,-0.000000,7920.203579
2626.854056,0.000000,-888.247130,8512.368333
2626.854385,-153.219100,-1406.391290,10066.800811
2626.854714,0.000000,-962.267725,8660.409521
2626.855043,0.000000,1184.329507,8882.471304
2626.855372,153.219100,444.123565,8290.306550
2626.855701,76.609550,-0.000000,9400.615463
2626.856030,76.609550,-1110.308913,10066.800811
2626.856359,1149.143247,-0.000000,9474.636058
2626.856688,383.047749,296.082377,8808.450710
2626.857016,536.266849,444.123565,8586.388927
2626.857345,1149.143247,-222.061783,9030.512492
2626.857674,1149.143247,-1184.329507,9474.636058
2626.858003,536.266849,-1110.308913,8956.491898
2626.858332,229.828649,-0.000000,9326.594869
2626.858661,76.609550,888.247130,8956.491898
2626.858990,842.705048,370.102971,8660.409521
2626.859319,383.047749,-518.144159,8882.471304
2626.859648,383.047749,-1184.329507,9474.636058
2626.859977,459.657299,592.164754,9104.533087
2626.860306,1072.533697,370.102971,8586.388927
2626.860635,536.266849,-888.247130,9326.594869
2626.860964,1225.752797,-1332.370696,9918.759623
2626.861293,1685.410096,-740.205942,10362.883188
2626.861622,1072.533697,370.102971,9474.636058
2626.861951,1149.143247,1332.370696,8808.450710
2626.862280,1225.752797,1258.350101,9030.512492
2626.862609,1378.971896,-0.000000,9400.615463
2626.862938,1378.971896,-444.123565,9474.636058
2626.863267,1225.752797,-222.061783,9030.512492
2626.863596,1378.971896,962.267725,7920.203579
2626.863925,766.095498,518.144159,8734.430116
2626.864254,229.828649,-1332.370696,9326.594869
2626.864583,0.000000,-1036.288319,9474.636058
2626.864912,-919.314598,-296.082377,8882.471304
2626.865241,-919.314598,370.102971,8586.388927
2626.865570,-919.314598,-0.000000,8734.430116
2626.865899,-1378.971896,-888.247130,9992.780217
2626.866228,-1149.143247,-1332.370696,9992.780217
2626.866557,-842.705048,-962.267725,8956.491898
2626.866886,-995.924147,-74.020594,8882.471304
2626.867215,0.000000,370.102971,8882.471304
2626.867544,612.876398,-814.226536,9326.594869
2626.867873,919.314598,-1184.329507,9252.574275
2626.868202,919.314598,-518.144159,8586.388927
2626.868532,1378.971896,148.041188,8438.347739
2626.868861,1225.752797,888.247130,7402.059420
2626.869190,995.924147,518.144159,7920.203579
2626.869519,1149.143247,-962.267725,9400.615463
2626.869848,536.266849,-518.144159,8734.430116
2626.870177,459.657299,-0.000000,7994.224174
2626.870507,-229.828649,444.123565,8216.285956
2626.870836,-842.705048,-962.267725,8956.491898
2626.871165,-1302.362347,-2294.638420,9770.718434
2626.871494,-995.924147,-1702.473667,9992.780217
2626.871823,-1608.800546,-370.102971,9400.615463
2626.872153,-766.095498,-222.061783,8956.491898
2626.872482,-1149.143247,-148.041188,9030.512492
2626.872811,0.000000,-1036.288319,9696.697840
2626.873140,536.266849,-444.123565,9474.636058
2626.873469,919.314598,518.144159,8586.388927
2626.873798,1072.533697,444.123565,8364.327145
2626.874128,1915.238745,518.144159,8660.409521
2626.874457,2298.286494,-814.226536,9252.574275
2626.874786,1302.362347,-148.041188,9474.636058
2626.875115,1685.410096,518.144159,8808.450710
2626.875444,1532.190996,1480.411884,8512.368333
2626.875774,1072.533697,1480.411884,8734.430116
2626.876103,766.095498,-518.144159,9770.718434
2626.876432,0.000000,-740.205942,10288.862594
2626.876761,-153.219100,-962.267725,10214.842000
2626.877090,0.000000,148.041188,9252.574275
2626.877419,0.000000,-148.041188,9696.697840
2626.877749,-689.485948,-1184.329507,10066.800811
2626.878078,229.828649,-1332.370696,10288.862594
2626.878407,153.219100,-592.164754,8882.471304
2626.878736,766.095498,888.247130,7550.100608
2626.879065,1455.581446,1258.350101,7846.182985
2626.879395,1225.752797,1332.370696,9104.533087
2626.879724,1455.581446,-0.000000,9474.636058
2626.880053,1302.362347,740.205942,8882.471304
2626.880382,1608.800546,1184.329507,8438.347739
2626.880711,1685.410096,1110.308913,8142.265362
2626.881040,1608.800546,-444.123565,9474.636058
2626.881370,919.314598,-1184.329507,8956.491898
2626.881699,153.219100,-1480.411884,9844.739029
2626.882028,0.000000,-0.000000,9992.780217
2626.882357,-153.219100,518.144159,8068.244768
2626.882686,229.828649,-0.000000,9104.533087
2626.883016,0.000000,-814.226536,9474.636058
2626.883345,995.924147,-888.247130,9474.636058
2626.883674,229.828649,-296.082377,9178.553681
2626.884003,383.047749,370.102971,8438.347739
2626.884332,-459.657299,-444.123565,9178.553681
2626.884661,229.828649,-444.123565,8882.471304
2626.884991,-153.219100,-1110.308913,9474.636058
2626.885320,-995.924147,-814.226536,9622.677246
2626.885649,-229.828649,370.102971,8882.471304
2626.885978,0.000000,-74.020594,8142.265362
2626.886307,-1302.362347,-1036.288319,9252.574275
2626.886637,-229.828649,-1036.288319,10955.047942
2626.886966,-995.924147,-666.185348,9400.615463
2626.887295,-612.876398,666.185348,8660.409521
2626.887624,76.609550,-74.020594,9030.512492
2626.887953,153.219100,-1184.329507,8660.409521
2626.888283,995.924147,-962.267725,8734.430116
2626.888612,842.705048,-0.000000,8808.450710
2626.888941,842.705048,444.123565,7994.224174
2626.889270,842.705048,1480.411884,7846.182985
2626.889599,1225.752797,-74.020594,8660.409521
2626.889928,383.047749,-592.164754,8734.430116
2626.890258,919.314598,-222.061783,8438.347739
2626.890587,612.876398,-0.000000,8290.306550
2626.890916,76.609550,-222.061783,8734.430116
2626.891245,76.609550,-814.226536,8882.471304
2626.891574,76.609550,-2072.576638,9992.780217
2626.891904,-383.047749,-1406.391290,9770.718434
2626.892233,-612.876398,-0.000000,9178.553681
2626.892562,-306.438199,444.123565,8808.450710
2626.892891,-229.828649,148.041188,9178.553681
2626.893220,612.876398,-666.185348,10510.924376
2626.893549,1302.362347,-962.267725,9622.677246
2626.893879,1072.533697,444.123565,8882.471304
2626.894208,1838.629195,666.185348,8512.368333
2626.894537,1915.238745,518.144159,8364.327145
2626.894866,2221.676944,-444.123565,9474.636058
2626.895195,2298.286494,-222.061783,9030.512492
2626.895525,2145.067394,444.123565,8808.450710
2626.895854,1378.971896,1036.288319,8438.347739
2626.896183,919.314598,814.226536,9252.574275
2626.896512,995.924147,-518.144159,9696.697840
2626.896841,612.876398,-444.123565,9992.780217
2626.897170,153.219100,-296.082377,9770.718434
2626.897500,-229.828649,1184.329507,8882.471304
2626.897829,0.000000,296.082377,9622.677246
2626.898158,0.000000,-592.164754,10140.821405
2626.898487,229.828649,-1184.329507,10066.800811
2626.898816,-459.657299,-370.102971,10066.800811
2626.899146,-306.438199,814.226536,8660.409521
2626.899475,0.000000,1110.308913,8882.471304
2626.899804,0.000000,-0.000000,9104.533087
2626.900133,0.000000,-740.205942,9474.636058
2626.900462,76.609550,-444.123565,9548.656652
2626.900791,76.609550,74.020594,9030.512492
2626.901121,536.266849,370.102971,7994.224174
2626.901450,0.000000,-148.041188,8956.491898
2626.901779,-306.438199,-1184.329507,9474.636058
2626.902108,0.000000,-444.123565,8882.471304
2626.902437,0.000000,518.144159,8734.430116
2626.902767,-459.657299,296.082377,8364.327145
2626.903096,-306.438199,-296.082377,8956.491898
2626.903425,0.000000,-1480.411884,9548.656652
2626.903754,0.000000,-1258.350101,9252.574275
2626.904083,229.828649,-0.000000,8438.347739
2626.904412,153.219100,-0.000000,7550.100608
2626.904742,0.000000,-592.164754,8364.327145
2626.905071,459.657299,-1776.494261,8808.450710
2626.905400,536.266849,-1258.350101,8808.450710
2626.905729,229.828649,-148.041188,8734.430116
2626.906058,-153.219100,740.205942,8512.368333
2626.906388,-306.438199,444.123565,8586.388927
2626.906717,-229.828649,-962.267725,9548.656652
2626.907046,0.000000,-1184.329507,9400.615463
2626.907375,0.000000,-1036.288319,9178.553681
2626.907704,0.000000,-444.123565,8512.368333
2626.908033,0.000000,-518.144159,9178.553681
2626.908363,306.438199,-1258.350101,9178.553681
2626.908692,766.095498,-1258.350101,9548.656652
2626.909021,919.314598,-0.000000,9104.533087
2626.909350,995.924147,1184.329507,8734.430116
2626.909679,1915.238745,1258.350101,8586.388927
2626.910009,1685.410096,518.144159,9400.615463
2626.910338,2451.505594,-592.164754,8808.450710
2626.910667,1991.848295,740.205942,8438.347739
2626.910996,1378.971896,1332.370696,8438.347739
2626.911325,1225.752797,592.164754,7994.224174
2626.911654,689.485948,-666.185348,9104.533087
2626.911984,842.705048,-1702.473667,9918.759623
2626.912313,-1149.143247,-1480.411884,10066.800811
2626.912642,-229.828649,-0.000000,9844.739029
2626.912971,-459.657299,-444.123565,9252.574275
2626.913300,-459.657299,444.123565,9474.636058
2626.913630,0.000000,-222.061783,9992.780217
2626.913959,0.000000,-222.061783,9696.697840
2626.914288,612.876398,962.267725,8364.327145
2626.914617,689.485948,888.247130,8364.327145
2626.914946,1225.752797,592.164754,8290.306550
2626.915275,1302.362347,-666.185348,9622.677246
2626.915605,842.705048,-222.061783,9030.512492
2626.915934,536.266849,888.247130,8808.450710
2626.916263,383.047749,1036.288319,8734.430116
2626.916592,0.000000,444.123565,8956.491898
2626.916921,76.609550,-296.082377,10214.842000
2626.917251,-842.705048,-962.267725,10658.965565
2626.917580,-1149.143247,-0.000000,9474.636058
2626.917909,-1608.800546,-296.082377,9400.615463
2626.918238,-1608.800546,-518.144159,9400.615463
2626.918567,-1532.190996,-1406.391290,9918.759623
2626.918897,-1149.143247,-1850.514855,10066.800811
2626.919226,-919.314598,-296.082377,8882.471304
2626.919555,229.828649,962.267725,8142.265362
2626.919884,153.219100,1258.350101,7846.182985
2626.920213,-229.828649,148.041188,8956.491898
2626.920542,153.219100,-1036.288319,9252.574275
2626.920872,76.609550,148.041188,8512.368333
2626.921201,-153.219100,-148.041188,8068.244768
2626.921530,1072.533697,-370.102971,8142.265362
2626.921859,153.219100,-1036.288319,9252.574275
2626.922188,-459.657299,-1628.453072,9474.636058
2626.922518,229.828649,-518.144159,9104.533087
2626.922847,306.438199,222.061783,8142.265362
2626.923176,536.266849,962.267725,8290.306550
2626.923505,1302.362347,222.061783,8734.430116
2626.923834,1149.143247,-740.205942,9474.636058
2626.924163,1149.143247,-666.185348,8734.430116
2626.924493,1532.190996,666.185348,7920.203579
2626.924822,1149.143247,740.205942,7994.224174
2626.925151,842.705048,-296.082377,8660.409521
2626.925480,919.314598,-1258.350101,9326.594869
2626.925809,612.876398,-1258.350101,8956.491898
2626.926139,-459.657299,592.164754,8512.368333
2626.926468,-383.047749,444.123565,8586.388927
2626.926797,-1378.971896,962.267725,8734.430116
2626.927126,-1838.629195,-592.164754,9696.697840
2626.927455,-1991.848295,-740.205942,9622.677246
2626.927784,-2374.896044,-814.226536,9474.636058
2626.928114,-2374.896044,296.082377,9178.553681
2626.928443,-2374.896044,-666.185348,9030.512492
2626.928772,-2834.553343,-1332.370696,10214.842000
2626.929101,-2528.115143,-1850.514855,10214.842000
2626.929430,-2528.115143,-740.205942,10288.862594
2626.929760,-3064.381992,-0.000000,9548.656652
2626.930089,-2221.676944,962.267725,8882.471304
2626.930418,-1762.019645,444.123565,9104.533087
2626.930747,-1378.971896,-740.205942,9918.759623
2626.931076,-1685.410096,-0.000000,9474.636058
2626.931405,-1838.629195,962.267725,8586.388927
2626.931735,-1378.971896,1702.473667,7698.141797
2626.932064,-1225.752797,1258.350101,7624.121203
2626.932393,-1532.190996,-296.082377,9104.533087
2626.932722,-2604.724693,-1998.556043,9474.636058
2626.933051,-3064.381992,-1036.288319,9178.553681
2626.933381,-3140.991542,-444.123565,8882.471304
2626.933710,-3140.991542,666.185348,8956.491898
2626.934039,-3447.429741,222.061783,9178.553681
2626.934368,-3447.429741,-444.123565,9992.780217
2626.934697,-3294.210641,-518.144159,9474.636058
2626.935026,-2987.772442,-0.000000,8808.450710
2626.935356,-2987.772442,592.164754,8512.368333
2626.935685,-3370.820191,-296.082377,8956.491898
2626.936014,-3217.601092,-518.144159,8586.388927
2626.936343,-3064.381992,-1332.370696,9104.533087
2626.936672,-3217.601092,-1184.329507,8660.409521
2626.937002,-3294.210641,-518.144159,8216.285956
2626.937331,-3370.820191,-0.000000,8216.285956
2626.937660,-3753.867940,-296.082377,8956.491898
2626.937989,-3983.696590,-370.102971,9474.636058
2626.938318,-4596.572988,-666.185348,8956.491898
2626.938647,-5592.497135,-666.185348,9474.636058
2626.938977,-4903.011187,-1110.308913,10140.821405
2626.939306,-4749.792088,-1406.391290,10066.800811
2626.939635,-4290.134789,-2294.638420,10066.800811
2626.939964,-3677.258390,-1036.288319,10066.800811
2626.940293,-2834.553343,-518.144159,9474.636058
2626.940623,-1455.581446,888.247130,8512.368333
2626.940952,-1225.752797,1036.288319,7698.141797
2626.941281,-612.876398,740.205942,8142.265362
2626.941610,-1762.019645,222.061783,8956.491898
2626.941939,-1149.143247,-148.041188,9030.512492
2626.942268,-1915.238745,296.082377,7402.059420
2626.942598,-1915.238745,592.164754,8660.409521
2626.942927,-2068.457845,-0.000000,9104.533087
2626.943256,-2221.676944,1184.329507,8808.450710
2626.943585,-2604.724693,1110.308913,9474.636058
2626.943914,-2451.505594,1406.391290,8586.388927
2626.944244,-1915.238745,-0.000000,8808.450710
2626.944573,-2604.724693,-592.164754,9474.636058
2626.944902,-2451.505594,-1850.514855,10362.883188
2626.945231,-2451.505594,-1998.556043,10510.924376
2626.945560,-919.314598,-1406.391290,9918.759623
2626.945889,-689.485948,-0.000000,9178.553681
2626.946219,-1302.362347,592.164754,9104.533087
2626.946548,-1225.752797,-0.000000,9474.636058
2626.946877,-383.047749,-222.061783,9844.739029
2626.947206,536.266849,1480.411884,7920.203579
2626.947535,536.266849,888.247130,7772.162391
2626.947865,-153.219100,1332.370696,7550.100608
2626.948194,-1378.971896,222.061783,8512.368333
2626.948523,-2834.553343,-1036.288319,9622.677246
2626.948852,-3140.991542,-1628.453072,9474.636058
2626.949181,-2604.724693,-1480.411884,9770.718434
2626.949510,-3370.820191,-0.000000,8734.430116
2626.949840,-3983.696590,-518.144159,8586.388927
2626.950169,-4136.915689,-74.020594,9770.718434
2626.950498,-2528.115143,-518.144159,9992.780217
2626.950827,-2757.943793,-296.082377,9696.697840
2626.951156,-1838.629195,-222.061783,9104.533087
2626.951486,-1302.362347,-222.061783,8660.409521
2626.951815,-1225.752797,-222.061783,7846.182985
2626.952144,-1685.410096,-444.123565,9770.718434
2626.952473,-1302.362347,-444.123565,10066.800811
2626.952802,-1608.800546,-740.205942,9474.636058
2626.953132,-2145.067394,296.082377,8808.450710
2626.953461,-2298.286494,592.164754,8364.327145
2626.953790,-2451.505594,-0.000000,8438.347739
2626.954119,-2528.115143,-0.000000,8438.347739
2626.954448,-2681.334243,666.185348,8068.244768
2626.954777,-2757.943793,1332.370696,8290.306550
2626.955107,-3294.210641,592.164754,7772.162391
2626.955436,-4749.792088,-222.061783,7994.224174
2626.955765,-5209.449386,-1184.329507,9104.533087
2626.956094,-5439.278036,-2368.659014,9178.553681
2626.956423,-5515.887586,-3404.947333,10214.842000
2626.956753,-5056.230287,-3330.926739,10288.862594
2626.957082,-4903.011187,-2220.617826,10362.883188
2626.957411,-4749.792088,-1776.494261,10140.821405
2626.957740,-3753.867940,-222.061783,9474.636058
2626.958069,-2451.505594,518.144159,9326.594869
2626.958398,-1685.410096,1776.494261,8364.327145
2626.958728,-1149.143247,2368.659014,8216.285956
2626.959057,-1685.410096,2590.720797,7698.141797
2626.959386,-2068.457845,1702.473667,8512.368333
2626.959715,-1991.848295,1702.473667,7846.182985
2626.960044,-2298.286494,888.247130,7772.162391
2626.960374,-1915.238745,444.123565,7994.224174
2626.960703,-1915.238745,-74.020594,7772.162391
2626.961032,-2604.724693,-74.020594,8512.368333
2626.961361,-2451.505594,-0.000000,8808.450710
2626.961690,-2221.676944,-74.020594,8512.368333
2626.962019,-3140.991542,518.144159,9326.594869
2626.962349,-3447.429741,1332.370696,9696.697840
2626.962678,-3830.477490,1480.411884,9622.677246
2626.963007,-3753.867940,888.247130,10881.027347
2626.963336,-3294.210641,1776.494261,10584.944971
2626.963665,-2987.772442,370.102971,10584.944971
2626.963995,-2834.553343,518.144159,11621.233289
2626.964324,-1915.238745,-0.000000,11103.089130
2626.964653,-1685.410096,888.247130,9548.656652
2626.964982,-766.095498,1258.350101,9178.553681
2626.965311,-612.876398,1998.556043,8882.471304
2626.965640,-536.266849,370.102971,11177.109724
2626.965970,1838.629195,2220.617826,9400.615463
2626.966299,3907.087040,3256.906145,6143.709319
2626.966628,4366.744339,3182.885551,7624.121203
2626.966957,3447.429741,4959.379811,6217.729913
2626.967286,4443.353888,5107.421000,8364.327145
2626.967616,2604.724693,5403.503377,6439.791695
2626.967945,2681.334243,4811.338623,8068.244768
2626.968274,842.705048,2516.700203,9326.594869
2626.968603,-919.314598,3552.988522,9992.780217
2626.968932,-1378.971896,518.144159,11177.109724
2626.969261,-1838.629195,1332.370696,10362.883188
2626.969591,-689.485948,148.041188,11103.089130
2626.969920,-1149.143247,962.267725,9696.697840
2626.970249,0.000000,2442.679609,9770.718434
2626.970578,0.000000,2294.638420,8068.244768
2626.970908,1762.019645,3034.844362,9030.512492
2626.971237,2604.724693,4885.359217,5995.668130
2626.971566,2298.286494,4959.379811,6069.688724
2626.971895,1378.971896,4737.318029,7698.141797
2626.972225,0.000000,4737.318029,7105.977043
2626.972554,-689.485948,2664.741391,9326.594869
2626.972883,-2528.115143,2368.659014,9474.636058
2626.973212,-3983.696590,740.205942,11251.130318
2626.973542,-2757.943793,-0.000000,11251.130318
2626.973871,-3064.381992,2516.700203,9104.533087
2626.974200,-2987.772442,2146.597232,10584.944971
2626.974529,-3524.039291,2146.597232,10140.821405
2626.974859,-2451.505594,2442.679609,10955.047942
2626.975188,-1991.848295,2072.576638,10658.965565
2626.975517,-1532.190996,2516.700203,9030.512492
2626.975846,-995.924147,3034.844362,8216.285956
2626.976176,-919.314598,2960.823768,9770.718434
2626.976505,-1685.410096,2294.638420,10658.965565
2626.976834,2374.896044,3182.885551,9474.636058
2626.977163,3370.820191,5255.462188,4959.379811
2626.977493,3753.867940,5181.441594,7105.977043
2626.977822,2221.676944,5921.647536,6809.894666
2626.978151,3140.991542,6957.935855,8586.388927
2626.978480,1915.238745,5773.606348,7254.018232
2626.978810,1378.971896,5995.668130,6957.935855
2626.979139,383.047749,4515.256246,9326.594869
2626.979468,-306.438199,3923.091493,8734.430116
2626.979797,-1838.629195,370.102971,12287.418637
2626.980127,-2145.067394,-740.205942,10584.944971
2626.980456,-766.095498,814.226536,11547.212695
2626.980785,-919.314598,-1554.432478,12361.439231
2626.981114,-1532.190996,2812.782580,8808.450710
2626.981444,306.438199,2664.741391,10436.903782
2626.981773,842.705048,3849.070898,8142.265362
2626.982102,2451.505594,5255.462188,7994.224174
2626.982431,3830.477490,4663.297435,7179.997637
2626.982761,4290.134789,4589.276840,7624.121203
2626.983090,2145.067394,5551.544565,7994.224174
2626.983419,1685.410096,3108.864956,7328.038826
2626.983748,-1072.533697,1702.473667,9992.780217
2626.984078,-1685.410096,-148.041188,12287.418637
2626.984407,-2757.943793,814.226536,11547.212695
2626.984736,-2068.457845,444.123565,12139.377449
2626.985065,-3064.381992,1406.391290,8882.471304
2626.985395,-1149.143247,2368.659014,10658.965565
2626.985724,-1302.362347,2516.700203,9326.594869
2626.986053,-612.876398,2220.617826,9770.718434
2626.986382,2834.553343,2072.576638,9548.656652
2626.986712,3830.477490,3182.885551,5847.626942
2626.987041,4366.744339,2960.823768,8734.430116
2626.987370,2987.772442,3997.112087,6217.729913
2626.987700,3677.258390,4071.132681,7179.997637
2626.988029,2834.553343,3849.070898,7254.018232
2626.988358,2757.943793,5181.441594,5255.462188
2626.988687,1378.971896,3997.112087,8734.430116
2626.989017,76.609550,1110.308913,9400.615463
2626.989346,-3370.820191,-1332.370696,13989.892304
2626.989675,-4060.306139,-4441.235652,12139.377449
2626.990004,-2451.505594,-0.000000,11843.295072
2626.990334,-3140.991542,-2368.659014,12065.356855
2626.990663,-3677.258390,2294.638420,8586.388927
2626.990992,-1072.533697,2516.700203,9474.636058
2626.991321,-459.657299,3182.885551,7772.162391
2626.991651,1149.143247,2886.803174,9918.759623
2626.991980,4213.525239,1702.473667,9030.512492
2626.992309,4519.963438,3108.864956,6587.832884
2626.992638,3294.210641,5699.585753,4515.256246
2626.992968,2834.553343,4441.235652,4811.338623
2626.993297,3907.087040,3923.091493,9030.512492
2626.993626,2374.896044,5255.462188,6143.709319
2626.993955,4290.134789,3034.844362,6809.894666
2626.994285,612.876398,5477.523971,7254.018232
2626.994614,-612.876398,2590.720797,9474.636058
2626.994943,-4749.792088,-1776.494261,16210.510130
2626.995272,-5286.058936,-518.144159,12879.583391
2626.995602,-3677.258390,740.205942,11991.336260
2626.995931,-2451.505594,-4145.153275,13027.624579
2626.996260,-3294.210641,1702.473667,10288.862594
2626.996589,-1532.190996,1110.308913,11843.295072
2626.996919,-2451.505594,3627.009116,8142.265362
2626.997248,-2145.067394,4737.318029,9326.594869
2626.997577,1302.362347,1258.350101,12287.418637
2626.997906,2911.162892,4515.256246,7402.059420
2626.998236,3447.429741,4959.379811,6513.812290
2626.998565,3753.867940,2368.659014,5107.421000
2626.998894,3064.381992,4145.153275,6735.874072
2626.999223,2451.505594,5033.400406,10288.862594
2626.999553,153.219100,5403.503377,7550.100608
2626.999882,-383.047749,3701.029710,9992.780217
2627.000211,-2374.896044,-1406.391290,13101.645173
2627.000540,-2528.115143,370.102971,10436.903782
2627.000870,-3064.381992,888.247130,12065.356855
2627.001199,-1991.848295,-2368.659014,12065.356855
2627.001528,-2068.457845,-962.267725,9696.697840
2627.001857,-995.924147,-814.226536,10362.883188
2627.002187,-536.266849,-222.061783,12287.418637
2627.002516,-153.219100,1554.432478,7328.038826
2627.002845,4060.306139,1480.411884,8142.265362
2627.003174,3370.820191,5995.668130,5625.565159
2627.003504,3600.648841,5625.565159,7179.997637
2627.003833,1608.800546,2812.782580,8216.285956
2627.004162,1762.019645,4293.194464,8142.265362
2627.004491,1532.190996,2812.782580,7550.100608
2627.004821,689.485948,2220.617826,6513.812290
2627.005150,-612.876398,-962.267725,9918.759623
2627.005479,-1378.971896,-5033.400406,13397.727550
2627.005808,-1455.581446,-148.041188,9770.718434
2627.006138,-1455.581446,-4145.153275,11251.130318
2627.006467,-1915.238745,-592.164754,8512.368333
2627.006796,995.924147,2294.638420,10288.862594
2627.007125,2145.067394,1332.370696,7179.997637
2627.007455,2911.162892,2516.700203,6809.894666
2627.007784,3370.820191,1924.535449,7328.038826
2627.008113,3830.477490,2072.576638,7994.224174
2627.008442,3294.210641,2886.803174,6809.894666
2627.008772,2911.162892,-0.000000,6661.853478
2627.009101,459.657299,-2072.576638,9770.718434
2627.009430,-1225.752797,-1776.494261,10955.047942
2627.009759,-2221.676944,-2442.679609,10807.006753
2627.010089,-1532.190996,-1554.432478,10288.862594
2627.010418,-1838.629195,-518.144159,10140.821405
2627.010747,-1455.581446,-222.061783,10881.027347
2627.011076,-2451.505594,-518.144159,9474.636058
2627.011406,-1378.971896,-1850.514855,10955.047942
2627.011735,76.609550,-296.082377,7846.182985
2627.012064,2757.943793,-296.082377,8290.306550
2627.012393,3294.210641,-444.123565,7105.977043
2627.012723,2834.553343,-222.061783,7328.038826
2627.013052,1532.190996,-1036.288319,8956.491898
2627.013381,1072.533697,-370.102971,7698.141797
2627.013710,1302.362347,-518.144159,9030.512492
2627.014040,459.657299,-0.000000,9474.636058
2627.014369,-459.657299,-518.144159,9770.718434
2627.014698,-1455.581446,-2294.638420,11103.089130
2627.015027,-2298.286494,-2960.823768,10214.842000
2627.015357,-1685.410096,-2442.679609,10807.006753
2627.015686,-766.095498,-1924.535449,10658.965565
2627.016015,-689.485948,-1702.473667,10140.821405
2627.016344,-229.828649,-1850.514855,9474.636058
2627.016674,842.705048,-888.247130,7772.162391
2627.017003,2374.896044,1258.350101,6439.791695
2627.017332,2757.943793,1850.514855,5921.647536
2627.017661,1455.581446,2146.597232,6735.874072
2627.017991,842.705048,1554.432478,7105.977043
2627.018320,229.828649,-0.000000,8216.285956
2627.018649,0.000000,-1776.494261,9326.594869
2627.018978,-536.266849,-2886.803174,9770.718434
2627.019308,-1378.971896,-2960.823768,10881.027347
2627.019637,-2451.505594,-2146.597232,11547.212695
2627.019966,-2068.457845,-1332.370696,11103.089130
2627.020295,-1608.800546,592.164754,9770.718434
2627.020625,-536.266849,1702.473667,9326.594869
2627.020954,536.266849,2146.597232,8586.388927
2627.021283,1378.971896,2072.576638,8068.244768
2627.021612,2604.724693,962.267725,8142.265362
2627.021942,2528.115143,888.247130,6513.812290
2627.022271,2757.943793,592.164754,7328.038826
2627.022600,2374.896044,-0.000000,7624.121203
2627.022929,1072.533697,-74.020594,8142.265362
2627.023259,76.609550,-666.185348,8734.430116
2627.023588,229.828649,-518.144159,8882.471304
2627.023917,-153.219100,-74.020594,9474.636058
2627.024246,-229.828649,222.061783,10066.800811
2627.024576,-1072.533697,-222.061783,9770.718434
2627.024905,-1608.800546,-444.123565,11029.068536
2627.025234,-919.314598,-518.144159,10140.821405
2627.025563,0.000000,-222.061783,9696.697840
2627.025893,536.266849,-0.000000,9474.636058
2627.026222,1225.752797,-0.000000,9770.718434
2627.026551,1302.362347,-370.102971,9104.533087
2627.026880,919.314598,518.144159,8808.450710
2627.027210,1532.190996,1406.391290,7846.182985
2627.027539,1685.410096,1554.432478,7920.203579
2627.027868,1455.581446,1258.350101,8660.409521
2627.028197,1225.752797,-0.000000,8808.450710
2627.028527,919.314598,-888.247130,9252.574275
2627.028856,0.000000,-1480.411884,9918.759623
2627.029185,306.438199,-1628.453072,10066.800811
2627.029515,0.000000,-814.226536,10658.965565
2627.029844,-612.876398,-444.123565,10584.944971
2627.030173,-153.219100,-74.020594,10214.842000
2627.030502,229.828649,962.267725,9696.697840
2627.030832,1072.533697,1554.432478,9252.574275
2627.031161,919.314598,1776.494261,9178.553681
2627.031490,383.047749,1480.411884,8586.388927
2627.031819,229.828649,592.164754,8290.306550
2627.032149,919.314598,518.144159,7772.162391
2627.032478,919.314598,-1036.288319,8290.306550
2627.032807,612.876398,-1924.535449,8734.430116
2627.033136,76.609550,-1776.494261,8364.327145
2627.033466,0.000000,-1332.370696,9104.533087
2627.033795,0.000000,-666.185348,8956.491898
2627.034124,0.000000,148.041188,8734.430116
2627.034453,76.609550,296.082377,8660.409521
2627.034783,0.000000,296.082377,8734.430116
2627.035112,-229.828649,-666.185348,8808.450710
2627.035441,383.047749,-222.061783,8216.285956
2627.035770,306.438199,-592.164754,8956.491898
2627.036100,0.000000,-1332.370696,9252.574275
2627.036429,-383.047749,-1702.473667,8882.471304
2627.036758,-536.266849,-1776.494261,9178.553681
2627.037087,-689.485948,-666.185348,7994.224174
2627.037417,0.000000,-296.082377,7846.182985
2627.037746,536.266849,-222.061783,8290.306550
2627.038075,0.000000,-518.144159,8068.244768
2627.038404,-459.657299,-518.144159,8660.409521
2627.038734,0.000000,-962.267725,8808.450710
2627.039063,306.438199,-1184.329507,9178.553681
2627.039392,689.485948,-1184.329507,9770.718434
2627.039721,689.485948,-1258.350101,10066.800811
2627.040051,153.219100,-2072.576638,10362.883188
2627.040380,76.609550,-74.020594,9696.697840
2627.040709,766.095498,444.123565,9252.574275
2627.041038,306.438199,1258.350101,9400.615463
2627.041368,766.095498,1184.329507,9474.636058
2627.041697,612.876398,370.102971,9104.533087
2627.042026,536.266849,-888.247130,9400.615463
2627.042355,919.314598,-1332.370696,9474.636058
2627.042685,995.924147,-2220.617826,9252.574275
2627.043014,612.876398,-1702.473667,9400.615463
2627.043343,766.095498,-888.247130,9030.512492
2627.043672,306.438199,-296.082377,9104.533087
2627.044002,689.485948,962.267725,9030.512492
2627.044331,1072.533697,2146.597232,8882.471304
2627.044660,1225.752797,1332.370696,8882.471304
2627.044989,842.705048,1258.350101,9104.533087
2627.045319,842.705048,222.061783,9178.553681
2627.045648,306.438199,296.082377,8956.491898
2627.045977,612.876398,-148.041188,8956.491898
2627.046306,842.705048,-962.267725,9326.594869
2627.046636,612.876398,-1406.391290,9696.697840
2627.046965,-153.219100,-1406.391290,9474.636058
2627.047294,459.657299,-666.185348,8142.265362
2627.047623,612.876398,962.267725,7550.100608
2627.047953,689.485948,1036.288319,7994.224174
2627.048282,842.705048,814.226536,8142.265362
2627.048611,229.828649,370.102971,8438.347739
2627.048940,689.485948,-370.102971,8142.265362
2627.049270,919.314598,-518.144159,8364.327145
2627.049599,766.095498,-888.247130,8956.491898
2627.049928,153.219100,-1776.494261,9696.697840
2627.050257,-766.095498,-1332.370696,10066.800811
2627.050587,-612.876398,-1110.308913,9474.636058
2627.050916,-383.047749,-0.000000,9178.553681
2627.051245,153.219100,592.164754,9252.574275
2627.051574,0.000000,592.164754,9326.594869
2627.051904,-459.657299,518.144159,9178.553681
2627.052233,0.000000,-222.061783,9030.512492
2627.052562,383.047749,-740.205942,9178.553681
2627.052891,536.266849,-1184.329507,8956.491898
2627.053221,0.000000,-1258.350101,9326.594869
2627.053550,306.438199,-888.247130,9474.636058
2627.053879,229.828649,-0.000000,9104.533087
2627.054208,-76.609550,814.226536,8956.491898
2627.054538,689.485948,1628.453072,9400.615463
2627.054867,536.266849,1998.556043,8956.491898
2627.055196,0.000000,1554.432478,8956.491898
2627.055525,0.000000,740.205942,9104.533087
2627.055855,0.000000,-0.000000,9326.594869
2627.056184,-229.828649,-814.226536,9992.780217
2627.056513,-459.657299,-1628.453072,9918.759623
2627.056842,-689.485948,-1850.514855,9474.636058
2627.057172,-612.876398,-666.185348,9918.759623
2627.057501,0.000000,-592.164754,8586.388927
2627.057830,153.219100,222.061783,8586.388927
2627.058159,919.314598,740.205942,8808.450710
2627.058489,459.657299,592.164754,8956.491898
2627.058818,842.705048,148.041188,8808.450710
2627.059147,1225.752797,-0.000000,8808.450710
2627.059476,2145.067394,-0.000000,8290.306550
2627.059806,1991.848295,-222.061783,8586.388927
2627.060135,1378.971896,-962.267725,9474.636058
2627.060464,995.924147,-888.247130,9326.594869
2627.060793,153.219100,-74.020594,8882.471304
2627.061123,459.657299,296.082377,9030.512492
2627.061452,0.000000,-0.000000,9178.553681
2627.061781,-459.657299,-222.061783,9474.636058
2627.062110,-689.485948,-222.061783,9326.594869
2627.062440,-383.047749,-888.247130,9474.636058
2627.062769,0.000000,-1628.453072,9548.656652
2627.063098,229.828649,-1480.411884,9252.574275
2627.063427,306.438199,-1998.556043,9622.677246
2627.063757,-153.219100,-1628.453072,9992.780217
2627.064086,536.266849,-962.267725,9252.574275
2627.064415,689.485948,296.082377,8808.450710
2627.064744,1685.410096,1332.370696,8290.306550
2627.065074,1838.629195,1554.432478,8438.347739
2627.065403,995.924147,962.267725,8586.388927
2627.065732,383.047749,444.123565,9104.533087
2627.066061,842.705048,148.041188,8438.347739
2627.066391,842.705048,-2146.597232,8882.471304
2627.066720,306.438199,-1332.370696,9474.636058
2627.067049,-306.438199,-1110.308913,10362.883188
2627.067378,-689.485948,-1480.411884,9030.512492
2627.067708,-766.095498,-592.164754,8586.388927
2627.068037,0.000000,296.082377,8882.471304
2627.068366,0.000000,-0.000000,8660.409521
2627.068695,0.000000,222.061783,8734.430116
2627.069025,76.609550,370.102971,8956.491898
2627.069354,383.047749,-296.082377,8586.388927
2627.069683,306.438199,-74.020594,8586.388927
2627.070012,766.095498,-1628.453072,9326.594869
2627.070342,0.000000,-1036.288319,9770.718434
2627.070671,-459.657299,-518.144159,9326.594869
2627.071000,76.609550,-74.020594,9178.553681
2627.071329,0.000000,814.226536,8068.244768
2627.071659,76.609550,962.267725,9030.512492
2627.071988,0.000000,740.205942,9030.512492
2627.072317,-383.047749,962.267725,8734.430116
2627.072646,0.000000,-0.000000,8956.491898
2627.072976,459.657299,-444.123565,9326.594869
2627.073305,612.876398,-1332.370696,9400.615463
2627.073634,919.314598,-1036.288319,9622.677246
2627.073963,383.047749,-296.082377,9104.533087
2627.074293,459.657299,222.061783,9104.533087
2627.074622,1072.533697,1628.453072,8660.409521
2627.074951,1378.971896,2368.659014,8438.347739
2627.075280,1455.581446,1702.473667,8512.368333
2627.075610,383.047749,1702.473667,8660.409521
2627.075939,766.095498,962.267725,9548.656652
2627.076268,229.828649,-222.061783,9474.636058
2627.076597,0.000000,-1332.370696,9844.739029
2627.076927,153.219100,-1776.494261,9770.718434
2627.077256,-919.314598,-1776.494261,10140.821405
2627.077585,-612.876398,-1406.391290,9622.677246
2627.077914,-306.438199,-370.102971,9104.533087
2627.078244,0.000000,1258.350101,8808.450710
2627.078573,689.485948,1184.329507,8882.471304
2627.078902,995.924147,962.267725,8512.368333
2627.079231,766.095498,444.123565,8808.450710
2627.079561,1455.581446,962.267725,8586.388927
2627.079890,1608.800546,-370.102971,8882.471304
2627.080219,2604.724693,-888.247130,9548.656652
2627.080548,1762.019645,-666.185348,9326.594869
2627.080878,383.047749,-592.164754,9326.594869
2627.081207,0.000000,370.102971,9178.553681
2627.081536,229.828649,666.185348,9178.553681
2627.081865,536.266849,888.247130,9252.574275
2627.082195,306.438199,222.061783,9400.615463
2627.082524,-306.438199,-74.020594,9548.656652
2627.082853,-612.876398,-1110.308913,9622.677246
2627.083182,-229.828649,-1924.535449,9178.553681
2627.083512,229.828649,-2368.659014,9696.697840
2627.083841,153.219100,-2368.659014,9622.677246
2627.084170,-229.828649,-1480.411884,9474.636058
2627.084499,-306.438199,-592.164754,9104.533087
2627.084829,689.485948,592.164754,8290.306550
2627.085158,1302.362347,1554.432478,8512.368333
2627.085487,612.876398,1628.453072,8364.327145
2627.085816,306.438199,962.267725,8512.368333
2627.086146,383.047749,-0.000000,8956.491898
2627.086475,842.705048,-666.185348,8660.409521
2627.086804,766.095498,-1480.411884,8586.388927
2627.087133,0.000000,-2072.576638,9474.636058
2627.087463,-229.828649,-1628.453072,9326.594869
2627.087792,-229.828649,-592.164754,8808.450710
2627.088121,0.000000,666.185348,8142.265362
2627.088450,229.828649,1184.329507,8290.306550
2627.088780,306.438199,1258.350101,8808.450710
2627.089109,-153.219100,666.185348,8438.347739
2627.089438,-459.657299,-148.041188,8956.491898
2627.089767,306.438199,-518.144159,8808.450710
2627.090096,536.266849,-1406.391290,8882.471304
2627.090426,306.438199,-1702.473667,9918.759623
2627.090755,0.000000,-1554.432478,9400.615463
2627.091084,0.000000,-1258.350101,9474.636058
2627.091413,306.438199,-296.082377,8290.306550
2627.091743,689.485948,888.247130,8438.347739
2627.092072,612.876398,1702.473667,8438.347739
2627.092401,306.438199,814.226536,9178.553681
2627.092730,383.047749,370.102971,8808.450710
2627.093060,536.266849,-592.164754,9104.533087
2627.093389,1225.752797,-1258.350101,9178.553681
2627.093718,1225.752797,-1702.473667,9474.636058
2627.094047,766.095498,-222.061783,10214.842000
2627.094377,0.000000,-1036.288319,9770.718434
2627.094706,766.095498,666.185348,8956.491898
2627.095035,995.924147,1480.411884,8956.491898
2627.095364,1762.019645,2072.576638,8586.388927
2627.095694,1072.533697,2146.597232,8808.450710
2627.096023,306.438199,1332.370696,9178.553681
2627.096352,153.219100,-0.000000,9770.718434
2627.096681,689.485948,-962.267725,9696.697840
2627.097011,306.438199,-1480.411884,9992.780217
2627.097340,0.000000,-1628.453072,10362.883188
2627.097669,-612.876398,-1406.391290,9696.697840
2627.097998,-459.657299,-370.102971,9326.594869
2627.098328,-153.219100,444.123565,9178.553681
2627.098657,153.219100,740.205942,8882.471304
2627.098986,689.485948,962.267725,8808.450710
2627.099315,536.266849,1184.329507,8808.450710
2627.099645,229.828649,222.061783,9400.615463
2627.099974,536.266849,-444.123565,8586.388927
2627.100303,1225.752797,-1036.288319,8882.471304
2627.100632,1149.143247,-1480.411884,9400.615463
2627.100962,842.705048,-1110.308913,8956.491898
2627.101291,229.828649,-888.247130,9104.533087
2627.101620,306.438199,370.102971,7920.203579
2627.101949,919.314598,1628.453072,7920.203579
2627.102279,536.266849,1332.370696,8290.306550
2627.102608,0.000000,666.185348,8290.306550
2627.102937,0.000000,-0.000000,9178.553681
2627.103266,-1302.362347,-814.226536,8808.450710
2627.103596,-612.876398,-1628.453072,8734.430116
2627.103925,-76.609550,-2072.576638,9696.697840
2627.104254,-1072.533697,-2220.617826,9696.697840
2627.104583,-1072.533697,-1480.411884,9992.780217
2627.104913,-1225.752797,-518.144159,9252.574275
2627.105242,-459.657299,592.164754,8512.368333
2627.105571,76.609550,962.267725,9178.553681
2627.105900,536.266849,592.164754,7920.203579
2627.106230,306.438199,-444.123565,9326.594869
2627.106559,842.705048,-148.041188,9326.594869
2627.106888,1838.629195,-666.185348,8808.450710
2627.107217,1685.410096,-740.205942,9400.615463
2627.107547,1532.190996,-370.102971,9400.615463
2627.107876,919.314598,-0.000000,9178.553681
2627.108205,76.609550,296.082377,9030.512492
2627.108534,689.485948,148.041188,8438.347739
2627.108864,689.485948,1258.350101,8882.471304
2627.109193,842.705048,888.247130,9326.594869
2627.109522,0.000000,-0.000000,9326.594869
2627.109851,0.000000,-740.205942,9474.636058
2627.110181,0.000000,-1184.329507,9030.512492
2627.110510,306.438199,-1702.473667,9104.533087
2627.110839,0.000000,-1258.350101,9770.718434
2627.111168,0.000000,-1480.411884,9548.656652
2627.111498,0.000000,-222.061783,9474.636058
2627.111827,229.828649,666.185348,8734.430116
2627.112156,1072.533697,1258.350101,8290.306550
2627.112485,1149.143247,1554.432478,8882.471304
2627.112815,689.485948,1036.288319,9474.636058
2627.113144,919.314598,222.061783,8956.491898
2627.113473,1149.143247,-740.205942,9400.615463
2627.113802,1302.362347,-962.267725,8734.430116
2627.114131,1455.581446,-1406.391290,9474.636058
2627.114461,536.266849,-1036.288319,9622.677246
2627.114790,536.266849,-888.247130,9104.533087
2627.115119,536.266849,-0.000000,8216.285956
2627.115448,1149.143247,666.185348,8364.327145
2627.115778,1072.533697,962.267725,8808.450710
2627.116107,536.266849,370.102971,8512.368333
2627.116436,0.000000,296.082377,8882.471304
2627.116765,76.609550,-296.082377,9104.533087
2627.117095,229.828649,-1184.329507,9252.574275
2627.117424,0.000000,-1850.514855,9474.636058
2627.117753,-383.047749,-1554.432478,9992.780217
2627.118082,-536.266849,-1702.473667,9770.718434
2627.118412,-689.485948,-962.267725,9252.574275
2627.118741,-229.828649,296.082377,9030.512492
2627.119070,-153.219100,592.164754,9104.533087
2627.119399,229.828649,740.205942,8438.347739
2627.119729,-306.438199,-222.061783,9030.512492
2627.120058,0.000000,-296.082377,8882.471304
2627.120387,1149.143247,-1258.350101,8734.430116
2627.120716,766.095498,-1406.391290,8956.491898
2627.121046,536.266849,-1110.308913,8882.471304
2627.121375,76.609550,-148.041188,8734.430116
2627.121704,229.828649,-444.123565,8734.430116
2627.122033,383.047749,814.226536,7994.224174
2627.122363,383.047749,592.164754,9030.512492
2627.122692,766.095498,1332.370696,8068.244768
2627.123021,153.219100,370.102971,8808.450710
2627.123350,0.000000,-222.061783,8734.430116
2627.123680,0.000000,-888.247130,8438.347739
2627.124009,0.000000,-1258.350101,9400.615463
2627.124338,229.828649,-1406.391290,9252.574275
2627.124667,0.000000,-1776.494261,9400.615463
2627.124997,-536.266849,-740.205942,9178.553681
2627.125326,-153.219100,-0.000000,8660.409521
2627.125655,229.828649,1554.432478,8660.409521
2627.125984,306.438199,1480.411884,8808.450710
2627.126314,229.828649,1258.350101,9326.594869
2627.126643,306.438199,296.082377,9474.636058
2627.126972,612.876398,-222.061783,9474.636058
2627.127301,995.924147,-1406.391290,9622.677246
2627.127631,2221.676944,-592.164754,9622.677246
2627.127960,995.924147,-518.144159,9844.739029
2627.128289,689.485948,-444.123565,9474.636058
2627.128618,919.314598,666.185348,8734.430116
2627.128948,1302.362347,1036.288319,8882.471304
2627.129277,1762.019645,1036.288319,8734.430116
2627.129606,1072.533697,1554.432478,9104.533087
2627.129935,76.609550,518.144159,8956.491898
2627.130265,612.876398,-222.061783,9030.512492
2627.130594,459.657299,-444.123565,9104.533087
2627.130923,306.438199,-1850.514855,9844.739029
2627.131252,229.828649,-1406.391290,9474.636058
2627.131582,-229.828649,-1998.556043,9770.718434
2627.131911,0.000000,-888.247130,7920.203579
2627.132240,0.000000,666.185348,9252.574275
2627.132569,229.828649,1406.391290,8586.388927
2627.132899,76.609550,888.247130,8512.368333
2627.133228,229.828649,962.267725,9326.594869
2627.133557,76.609550,-222.061783,8734.430116
2627.133886,76.609550,-444.123565,8882.471304
2627.134216,1149.143247,-888.247130,9400.615463
2627.134545,842.705048,-1998.556043,9178.553681
2627.134874,306.438199,-1332.370696,9474.636058
2627.135203,229.828649,-814.226536,9178.553681
2627.135533,459.657299,-0.000000,8438.347739
2627.135862,536.266849,1258.350101,8216.285956
2627.136191,842.705048,1258.350101,8660.409521
2627.136520,153.219100,1850.514855,9104.533087
2627.136849,0.000000,296.082377,9474.636058
2627.137179,-229.828649,-666.185348,8882.471304
2627.137508,0.000000,-1850.514855,9326.594869
2627.137837,153.219100,-2220.617826,9844.739029
2627.138166,0.000000,-2664.741391,10140.821405
2627.138496,-306.438199,-1480.411884,9770.718434
2627.138825,-306.438199,-222.061783,9178.553681
2627.139154,-383.047749,1110.308913,8586.388927
2627.139483,153.219100,1628.453072,8882.471304
2627.139813,153.219100,1406.391290,8586.388927
2627.140142,0.000000,740.205942,8882.471304
2627.140471,0.000000,-222.061783,8808.450710
2627.140800,536.266849,-888.247130,9178.553681
2627.141130,1302.362347,-1924.535449,9474.636058
2627.141459,995.924147,-1406.391290,9622.677246
2627.141788,306.438199,-1036.288319,9474.636058
2627.142117,536.266849,-0.000000,8586.388927
2627.142447,995.924147,1184.329507,8364.327145
2627.142776,1455.581446,1702.473667,8586.388927
2627.143105,1608.800546,1998.556043,8956.491898
2627.143434,459.657299,1480.411884,8956.491898
2627.143764,842.705048,444.123565,9104.533087
2627.144093,919.314598,-518.144159,9030.512492
2627.144422,995.924147,-1554.432478,9474.636058
2627.144751,459.657299,-1702.473667,9548.656652
2627.145081,0.000000,-1776.494261,9918.759623
2627.145410,-306.438199,-1184.329507,9622.677246
2627.145739,0.000000,518.144159,8808.450710
2627.146068,-383.047749,1332.370696,8660.409521
2627.146398,306.438199,1554.432478,8734.430116
2627.146727,76.609550,740.205942,8882.471304
2627.147056,0.000000,-0.000000,8956.491898
2627.147385,536.266849,-740.205942,9178.553681
2627.147715,1378.971896,-1332.370696,8808.450710
2627.148044,1072.533697,-1036.288319,9622.677246
2627.148373,995.924147,-1924.535449,9770.718434
2627.148702,689.485948,-1110.308913,9474.636058
2627.149032,459.657299,222.061783,8512.368333
2627.149361,1378.971896,1332.370696,8438.347739
2627.149690,1378.971896,1702.473667,8364.327145
2627.150019,919.314598,888.247130,8734.430116
2627.150349,153.219100,370.102971,9104.533087
2627.150678,229.828649,-444.123565,9104.533087
2627.151007,229.828649,-1628.453072,9474.636058
2627.151336,306.438199,-2146.597232,9844.739029
2627.151666,0.000000,-1998.556043,9918.759623
2627.151995,-612.876398,-1702.473667,9918.759623
2627.152324,-842.705048,-518.144159,8956.491898
2627.152653,-459.657299,666.185348,8512.368333
2627.152983,383.047749,1184.329507,8734.430116
2627.153312,153.219100,1406.391290,8808.450710
2627.153641,0.000000,962.267725,9178.553681
2627.153970,-306.438199,-74.020594,8808.450710
2627.154300,536.266849,-1036.288319,9474.636058
2627.154629,842.705048,-814.226536,8882.471304
2627.154958,842.705048,-1480.411884,9178.553681
2627.155287,153.219100,-888.247130,9844.739029
2627.155617,0.000000,296.082377,9030.512492
2627.155946,536.266849,814.226536,8512.368333
2627.156275,1072.533697,1628.453072,8216.285956
2627.156604,995.924147,2146.597232,8216.285956
2627.156934,306.438199,1332.370696,8808.450710
2627.157263,0.000000,666.185348,8660.409521
2627.157592,536.266849,-370.102971,9474.636058
2627.157921,306.438199,-1184.329507,8808.450710
2627.158251,612.876398,-1628.453072,9696.697840
2627.158580,-766.095498,-1554.432478,9918.759623
2627.158909,-459.657299,-1406.391290,9474.636058
2627.159238,-459.657299,-0.000000,8734.430116
2627.159567,0.000000,1184.329507,8882.471304
2627.159897,229.828649,1332.370696,9104.533087
2627.160226,76.609550,888.247130,9030.512492
2627.160555,383.047749,592.164754,9178.553681
2627.160884,459.657299,-370.102971,9104.533087
2627.161214,1072.533697,-1110.308913,8956.491898
2627.161543,919.314598,-1554.432478,9474.636058
2627.161872,919.314598,-1110.308913,9992.780217
2627.162201,306.438199,-1110.308913,9622.677246
2627.162531,842.705048,-296.082377,8734.430116
2627.162860,919.314598,592.164754,8512.368333
2627.163189,1762.019645,2072.576638,8290.306550
2627.163518,1378.971896,1258.350101,8882.471304
2627.163848,306.438199,1036.288319,8734.430116
2627.164177,842.705048,-0.000000,9400.615463
2627.164506,919.314598,-518.144159,8882.471304
2627.164835,766.095498,-1776.494261,9400.615463
2627.165165,459.657299,-1776.494261,10066.800811
2627.165494,-536.266849,-1406.391290,9622.677246
2627.165823,-612.876398,-370.102971,9178.553681
2627.166152,-229.828649,814.226536,8956.491898
2627.166482,306.438199,962.267725,8734.430116
2627.166811,383.047749,740.205942,9400.615463
2627.167140,0.000000,370.102971,9104.533087
2627.167469,0.000000,-222.061783,9326.594869
2627.167799,536.266849,-444.123565,8660.409521
2627.168128,919.314598,-592.164754,9104.533087
2627.168457,995.924147,-1258.350101,9770.718434
2627.168786,612.876398,-1184.329507,9474.636058
2627.169116,995.924147,-592.164754,8882.471304
2627.169445,536.266849,518.144159,7772.162391
2627.169774,995.924147,1480.411884,8512.368333
2627.170103,689.485948,1332.370696,8290.306550
2627.170433,0.000000,1110.308913,8586.388927
2627.170762,-536.266849,-0.000000,8956.491898
2627.171091,0.000000,-1036.288319,9178.553681
2627.171420,0.000000,-1776.494261,8956.491898
2627.171749,-383.047749,-2072.576638,9622.677246
2627.172078,-306.438199,-2146.597232,10288.862594
2627.172407,-842.705048,-1628.453072,9770.718434
2627.172736,-536.266849,-148.041188,9104.533087
2627.173065,-229.828649,888.247130,8438.347739
2627.173395,536.266849,1480.411884,8512.368333
2627.173724,536.266849,1184.329507,8438.347739
2627.174053,612.876398,592.164754,9400.615463
2627.174382,76.609550,-0.000000,8660.409521
2627.174711,459.657299,-296.082377,9474.636058
2627.175040,919.314598,-1332.370696,9622.677246
2627.175369,536.266849,-1406.391290,9770.718434
2627.175698,153.219100,-1480.411884,9548.656652
2627.176027,612.876398,-888.247130,9104.533087
2627.176356,0.000000,148.041188,8734.430116
2627.176686,995.924147,962.267725,8808.450710
2627.177015,1072.533697,1036.288319,8142.265362
2627.177344,459.657299,592.164754,8882.471304
2627.177673,612.876398,296.082377,8512.368333
2627.178002,1072.533697,-592.164754,8734.430116
2627.178331,842.705048,-1110.308913,9252.574275
2627.178660,1225.752797,-1702.473667,9548.656652
2627.178989,153.219100,-888.247130,9326.594869
2627.179318,229.828649,-814.226536,9474.636058
2627.179647,229.828649,666.185348,8660.409521
2627.179977,689.485948,962.267725,8438.347739
2627.180306,612.876398,1776.494261,8586.388927
2627.180635,689.485948,1332.370696,9104.533087
2627.180964,229.828649,-444.123565,8882.471304
2627.181293,0.000000,-814.226536,9030.512492
2627.181622,536.266849,-1036.288319,9252.574275
2627.181951,536.266849,-1554.432478,9548.656652
2627.182280,306.438199,-1628.453072,9696.697840
2627.182609,459.657299,-888.247130,9400.615463
2627.182939,536.266849,148.041188,9104.533087
2627.183268,1455.581446,1110.308913,8882.471304
2627.183597,1225.752797,1480.411884,8512.368333
2627.183926,689.485948,2072.576638,8438.347739
2627.184255,459.657299,592.164754,9030.512492
2627.184584,612.876398,-0.000000,8808.450710
2627.184913,612.876398,-1110.308913,9178.553681
2627.185242,1302.362347,-1850.514855,9474.636058
2627.185571,0.000000,-1776.494261,9474.636058
2627.185900,-459.657299,-1332.370696,10140.821405
2627.186230,-1302.362347,-518.144159,9178.553681
2627.186559,-459.657299,-0.000000,8956.491898
2627.186888,-153.219100,444.123565,8882.471304
2627.187217,0.000000,740.205942,8882.471304
2627.187546,-153.219100,-0.000000,9252.574275
2627.187875,-459.657299,-518.144159,8882.471304
2627.188204,229.828649,-1184.329507,8660.409521
2627.188533,689.485948,-1332.370696,9252.574275
2627.188862,306.438199,-1332.370696,9400.615463
2627.189191,0.000000,-666.185348,9474.636058
2627.189521,-306.438199,-74.020594,8512.368333
2627.189850,229.828649,370.102971,8142.265362
2627.190179,383.047749,518.144159,8734.430116
2627.190508,689.485948,444.123565,8290.306550
2627.190837,-306.438199,740.205942,8290.306550
2627.191166,0.000000,-0.000000,8734.430116
2627.191495,153.219100,-518.144159,8956.491898
2627.191824,383.047749,-1184.329507,9474.636058
2627.192153,689.485948,-2294.638420,9622.677246
2627.192482,766.095498,-1480.411884,9252.574275
2627.192812,-229.828649,-888.247130,9030.512492
2627.193141,-306.438199,-0.000000,8586.388927
2627.193470,306.438199,1258.350101,8438.347739
2627.193799,919.314598,1332.370696,8660.409521
2627.194128,536.266849,962.267725,8734.430116
2627.194457,76.609550,666.185348,8882.471304
2627.194786,459.657299,-814.226536,9030.512492
2627.195115,1302.362347,-666.185348,9030.512492
2627.195444,1302.362347,-1332.370696,9400.615463
2627.195773,536.266849,-1258.350101,9770.718434
2627.196103,0.000000,-666.185348,9696.697840
2627.196432,383.047749,-74.020594,8512.368333
2627.196761,689.485948,1036.288319,8512.368333
2627.197090,1072.533697,1554.432478,9178.553681
2627.197419,842.705048,370.102971,8216.285956
2627.197748,76.609550,-0.000000,9400.615463
2627.198077,306.438199,-296.082377,9400.615463
2627.198406,766.095498,-814.226536,8586.388927
2627.198735,919.314598,-1628.453072,9474.636058
2627.199065,153.219100,-1628.453072,9770.718434
2627.199394,76.609550,-1702.473667,9918.759623
2627.199723,153.219100,-444.123565,8734.430116
2627.200052,153.219100,962.267725,8438.347739
2627.200381,536.266849,1258.350101,8734.430116
2627.200710,306.438199,1554.432478,8808.450710
2627.201039,0.000000,666.185348,8734.430116
2627.201368,-306.438199,-370.102971,9400.615463
2627.201697,383.047749,-518.144159,8956.491898
2627.202026,1149.143247,-1702.473667,9474.636058
2627.202356,766.095498,-1554.432478,9770.718434
2627.202685,-229.828649,-1110.308913,9474.636058
2627.203014,0.000000,-666.185348,9400.615463
2627.203343,229.828649,814.226536,8290.306550
2627.203672,306.438199,592.164754,8586.388927
2627.204001,842.705048,1036.288319,8956.491898
2627.204330,76.609550,-0.000000,8660.409521
2627.204659,-612.876398,-444.123565,9178.553681
2627.204988,306.438199,-814.226536,8290.306550
2627.205317,229.828649,-1258.350101,8808.450710
2627.205647,229.828649,-1776.494261,9400.615463
2627.205976,0.000000,-1184.329507,8882.471304
2627.206305,-689.485948,-962.267725,9252.574275
2627.206634,0.000000,-222.061783,8290.306550
2627.206963,229.828649,962.267725,8438.347739
2627.207292,0.000000,1332.370696,8438.347739
2627.207621,0.000000,888.247130,8808.450710
2627.207950,-306.438199,666.185348,9104.533087
2627.208279,76.609550,-74.020594,8586.388927
2627.208608,306.438199,-888.247130,8882.471304
2627.208938,1072.533697,-1480.411884,9548.656652
2627.209267,1225.752797,-1702.473667,9474.636058
2627.209596,306.438199,-1184.329507,9474.636058
2627.209925,383.047749,-74.020594,9030.512492
2627.210254,689.485948,814.226536,8438.347739
2627.210583,1149.143247,1480.411884,8512.368333
2627.210912,919.314598,1406.391290,8438.347739
2627.211241,612.876398,740.205942,8882.471304
2627.211570,76.609550,148.041188,9252.574275
2627.211899,536.266849,-518.144159,8882.471304
2627.212229,842.705048,-1332.370696,9474.636058
2627.212558,383.047749,-1332.370696,9548.656652
2627.212887,0.000000,-1184.329507,9844.739029
2627.213216,-689.485948,-74.020594,9548.656652
2627.213545,306.438199,-888.247130,8956.491898
2627.213874,842.705048,518.144159,8956.491898
2627.214203,919.314598,666.185348,9252.574275
2627.214532,459.657299,592.164754,9252.574275
2627.214861,459.657299,-0.000000,9474.636058
2627.215191,919.314598,-0.000000,8734.430116
2627.215520,1455.581446,-888.247130,8956.491898
2627.215849,1685.410096,-1110.308913,9844.739029
2627.216178,1225.752797,-1406.391290,9548.656652
2627.216507,536.266849,-1036.288319,9548.656652
2627.216836,459.657299,-0.000000,8882.471304
2627.217165,842.705048,592.164754,8956.491898
2627.217494,842.705048,814.226536,8734.430116
2627.217823,76.609550,888.247130,8290.306550
2627.218152,0.000000,222.061783,10214.842000
2627.218482,536.266849,-444.123565,8438.347739
2627.218811,383.047749,-1110.308913,9104.533087
2627.219140,76.609550,-962.267725,9474.636058
2627.219469,0.000000,-1554.432478,9844.739029
2627.219798,-689.485948,-888.247130,9992.780217
2627.220127,-1072.533697,-962.267725,9696.697840
2627.220456,229.828649,444.123565,8586.388927
2627.220785,306.438199,962.267725,8290.306550
2627.221114,306.438199,1406.391290,8586.388927
2627.221443,229.828649,518.144159,8882.471304
2627.221773,229.828649,-74.020594,8660.409521
2627.222102,612.876398,-296.082377,8364.327145
2627.222431,1149.143247,-814.226536,8808.450710
2627.222760,459.657299,-0.000000,8956.491898
2627.223089,229.828649,-1184.329507,9622.677246
2627.223418,-612.876398,-888.247130,9400.615463
2627.223747,0.000000,-0.000000,8216.285956
2627.224076,76.609550,666.185348,8290.306550
2627.224405,229.828649,592.164754,8808.450710
2627.224734,0.000000,1184.329507,8512.368333
2627.225064,-459.657299,-518.144159,9178.553681
2627.225393,-306.438199,-1332.370696,8364.327145
2627.225722,229.828649,-962.267725,9030.512492
