#time,accel_x,accel_y,accel_z
2513.306163,306.438199,-74.020594,9030.512492
2513.306492,153.219100,-0.000000,8808.450710
2513.306821,459.657299,-148.041188,8882.471304
2513.307150,689.485948,-148.041188,8956.491898
2513.307479,536.266849,-0.000000,8882.471304
2513.307808,229.828649,-0.000000,8808.450710
2513.308137,306.438199,-0.000000,9104.533087
2513.308466,306.438199,-296.082377,9030.512492
2513.308795,-459.657299,-222.061783,9622.677246
2513.309124,306.438199,-444.123565,9474.636058
2513.309453,536.266849,-740.205942,9178.553681
2513.309782,383.047749,-444.123565,9326.594869
2513.310111,383.047749,-222.061783,9178.553681
2513.310440,383.047749,-222.061783,9178.553681
2513.310769,383.047749,-148.041188,9326.594869
2513.311098,612.876398,-74.020594,9178.553681
2513.311427,536.266849,222.061783,9030.512492
2513.311756,459.657299,-0.000000,9178.553681
2513.312085,383.047749,-0.000000,9252.574275
2513.312414,383.047749,-74.020594,9252.574275
2513.312743,153.219100,-222.061783,9326.594869
2513.313072,229.828649,-148.041188,9326.594869
2513.313401,76.609550,-148.041188,9400.615463
2513.313730,536.266849,-222.061783,9104.533087
2513.314059,459.657299,-222.061783,9252.574275
2513.314388,536.266849,-0.000000,9104.533087
2513.314717,536.266849,-0.000000,8882.471304
2513.315046,459.657299,296.082377,9030.512492
2513.315375,536.266849,-0.000000,8882.471304
2513.315704,0.000000,-0.000000,9178.553681
2513.316033,612.876398,-222.061783,9030.512492
2513.316362,536.266849,-0.000000,8808.450710
2513.316691,383.047749,-148.041188,8808.450710
2513.317020,76.609550,-74.020594,9030.512492
2513.317349,76.609550,-370.102971,8956.491898
2513.317678,229.828649,-296.082377,8956.491898
2513.318006,306.438199,-148.041188,9178.553681
2513.318335,229.828649,-0.000000,9030.512492
2513.318664,689.485948,-370.102971,8956.491898
2513.318993,383.047749,-222.061783,9104.533087
2513.319322,383.047749,-0.000000,9030.512492
2513.319651,383.047749,-74.020594,8956.491898
2513.319980,0.000000,-148.041188,9178.553681
2513.320309,306.438199,-0.000000,9104.533087
2513.320638,383.047749,-518.144159,9326.594869
2513.320967,612.876398,-370.102971,9400.615463
2513.321296,153.219100,-222.061783,9400.615463
2513.321625,153.219100,-222.061783,9178.553681
2513.321954,153.219100,-222.061783,9178.553681
2513.322283,306.438199,-0.000000,9252.574275
2513.322612,536.266849,-74.020594,9178.553681
2513.322941,536.266849,-370.102971,9326.594869
2513.323270,229.828649,370.102971,9178.553681
2513.323599,459.657299,-0.000000,9326.594869
2513.323928,383.047749,-0.000000,9252.574275
2513.324257,306.438199,-0.000000,9178.553681
2513.324586,229.828649,-0.000000,9178.553681
2513.324915,76.609550,-222.061783,9030.512492
2513.325244,612.876398,-666.185348,8808.450710
2513.325573,306.438199,-222.061783,9104.533087
2513.325902,459.657299,-0.000000,9178.553681
2513.326231,383.047749,-0.000000,9104.533087
2513.326560,536.266849,222.061783,8882.471304
2513.326889,306.438199,-74.020594,8734.430116
2513.327218,383.047749,-0.000000,8956.491898
2513.327547,0.000000,370.102971,9104.533087
2513.327876,229.828649,-296.082377,9030.512492
2513.328205,76.609550,-222.061783,9178.553681
2513.328534,153.219100,-148.041188,8956.491898
2513.328863,229.828649,-296.082377,8882.471304
2513.329192,229.828649,-0.000000,9030.512492
2513.329521,153.219100,148.041188,9104.533087
2513.329850,612.876398,-296.082377,8956.491898
2513.330179,536.266849,-0.000000,9030.512492
2513.330507,459.657299,-222.061783,8734.430116
2513.330836,383.047749,-74.020594,9030.512492
2513.331165,306.438199,-222.061783,9178.553681
2513.331494,306.438199,-222.061783,9104.533087
2513.331823,383.047749,-740.205942,9178.553681
2513.332152,229.828649,-370.102971,9252.574275
2513.332481,383.047749,-370.102971,9104.533087
2513.332810,383.047749,-370.102971,9104.533087
2513.333139,229.828649,-148.041188,9178.553681
2513.333468,229.828649,-74.020594,9326.594869
2513.333797,383.047749,-222.061783,9178.553681
2513.334126,459.657299,-0.000000,9252.574275
2513.334455,-383.047749,-148.041188,9178.553681
2513.334784,383.047749,-222.061783,9400.615463
2513.335113,383.047749,-0.000000,9178.553681
2513.335442,229.828649,-148.041188,9104.533087
2513.335771,153.219100,-222.061783,8956.491898
2513.336100,76.609550,-74.020594,9178.553681
2513.336429,-153.219100,-148.041188,8956.491898
2513.336758,612.876398,-74.020594,9104.533087
2513.337087,0.000000,222.061783,9104.533087
2513.337416,306.438199,-296.082377,8808.450710
2513.337745,383.047749,-0.000000,8808.450710
2513.338074,383.047749,-0.000000,8808.450710
2513.338403,306.438199,-74.020594,9030.512492
2513.338732,995.924147,-814.226536,9622.677246
2513.339061,1685.410096,-1110.308913,9474.636058
2513.339390,1455.581446,-592.164754,8956.491898
2513.339719,1762.019645,-888.247130,9104.533087
2513.340048,2298.286494,-148.041188,8734.430116
2513.340377,3217.601092,-0.000000,8586.388927
2513.340706,3677.258390,-0.000000,8808.450710
2513.341035,4213.525239,-0.000000,8512.368333
2513.341364,2681.334243,296.082377,8956.491898
2513.341693,3140.991542,518.144159,8734.430116
2513.342022,2911.162892,-74.020594,9030.512492
2513.342351,3140.991542,-444.123565,9474.636058
2513.342680,1762.019645,-592.164754,9104.533087
2513.343008,1378.971896,-1258.350101,10066.800811
2513.343337,1838.629195,-2146.597232,9992.780217
2513.343666,2834.553343,-444.123565,9400.615463
2513.343995,2068.457845,-814.226536,9770.718434
2513.344324,3064.381992,-962.267725,9770.718434
2513.344653,3370.820191,222.061783,9252.574275
2513.344982,5056.230287,1184.329507,8808.450710
2513.345311,4979.620737,1036.288319,7254.018232
2513.345640,4519.963438,1258.350101,9474.636058
2513.345969,5439.278036,962.267725,8882.471304
2513.346298,4826.401637,814.226536,7328.038826
2513.346627,4136.915689,444.123565,9030.512492
2513.346956,2834.553343,-0.000000,8438.347739
2513.347285,2145.067394,370.102971,9548.656652
2513.347614,1072.533697,-1184.329507,9474.636058
2513.347943,1455.581446,-888.247130,10140.821405
2513.348272,842.705048,-1628.453072,9918.759623
2513.348601,995.924147,-1332.370696,9622.677246
2513.348930,1149.143247,-740.205942,9844.739029
2513.349259,2604.724693,518.144159,9918.759623
2513.349588,2604.724693,-0.000000,7920.203579
2513.349917,4136.915689,740.205942,9696.697840
2513.350246,3983.696590,888.247130,8068.244768
2513.350575,3907.087040,962.267725,7994.224174
2513.350904,4749.792088,888.247130,8882.471304
2513.351233,4060.306139,148.041188,8512.368333
2513.351562,3677.258390,-296.082377,8808.450710
2513.351891,2757.943793,-1480.411884,9474.636058
2513.352220,2451.505594,-1184.329507,9992.780217
2513.352549,1378.971896,-2368.659014,10066.800811
2513.352878,2528.115143,-1776.494261,9992.780217
2513.353207,2604.724693,-1628.453072,9918.759623
2513.353536,3217.601092,-74.020594,9770.718434
2513.353865,3447.429741,222.061783,8808.450710
2513.354194,3830.477490,1258.350101,8512.368333
2513.354523,4519.963438,2072.576638,8142.265362
2513.354852,4596.572988,2516.700203,7624.121203
2513.355181,4366.744339,2590.720797,7772.162391
2513.355510,4213.525239,1924.535449,8438.347739
2513.355838,3294.210641,1332.370696,8438.347739
2513.356167,2681.334243,-74.020594,8808.450710
2513.356496,2528.115143,-1110.308913,9770.718434
2513.356825,1991.848295,-2442.679609,10214.842000
2513.357154,1915.238745,-2738.761985,11103.089130
2513.357483,2221.676944,-2886.803174,10807.006753
2513.357812,3064.381992,-2146.597232,10807.006753
2513.358141,3600.648841,-740.205942,9844.739029
2513.358470,4519.963438,814.226536,9178.553681
2513.358799,5286.058936,2072.576638,8290.306550
2513.359128,5209.449386,3478.967927,7402.059420
2513.359457,4596.572988,3923.091493,6661.853478
2513.359786,3524.039291,3701.029710,6957.935855
2513.360115,1915.238745,2516.700203,7179.997637
2513.360444,0.000000,444.123565,8586.388927
2513.360773,-1915.238745,-1628.453072,9918.759623
2513.361102,-2374.896044,-3627.009116,10955.047942
2513.361431,-2604.724693,-3997.112087,9400.615463
2513.361760,-2528.115143,-3849.070898,10214.842000
2513.362089,-2834.553343,-3701.029710,11177.109724
2513.362418,-2911.162892,-2442.679609,10807.006753
2513.362747,-2145.067394,-1702.473667,11399.171507
2513.363076,-612.876398,-222.061783,9622.677246
2513.363405,766.095498,1184.329507,8512.368333
2513.363734,0.000000,2442.679609,8142.265362
2513.364063,153.219100,1110.308913,11103.089130
2513.364392,2298.286494,444.123565,9474.636058
2513.364721,4749.792088,2220.617826,6513.812290
2513.365050,5362.668486,1184.329507,6143.709319
2513.365379,4366.744339,1702.473667,5403.503377
2513.365708,3677.258390,1628.453072,7328.038826
2513.366037,2451.505594,-222.061783,7254.018232
2513.366366,1685.410096,-1184.329507,8364.327145
2513.366695,306.438199,-1406.391290,9474.636058
2513.367024,-919.314598,-2442.679609,9622.677246
2513.367353,-2068.457845,-3256.906145,11029.068536
2513.367682,-1685.410096,-2738.761985,10436.903782
2513.368011,-842.705048,-2294.638420,10807.006753
2513.368339,-1302.362347,-1258.350101,10658.965565
2513.368668,-1532.190996,666.185348,10362.883188
2513.368997,-1532.190996,666.185348,10214.842000
2513.369326,-995.924147,666.185348,9696.697840
2513.369655,-612.876398,1924.535449,9252.574275
2513.369984,-153.219100,888.247130,9030.512492
2513.370313,-383.047749,296.082377,8734.430116
2513.370642,536.266849,148.041188,8808.450710
2513.370971,2145.067394,-296.082377,7994.224174
2513.371300,2451.505594,-888.247130,7698.141797
2513.371629,3140.991542,-518.144159,7698.141797
2513.371958,3294.210641,-0.000000,8216.285956
2513.372287,3447.429741,370.102971,8438.347739
2513.372616,2681.334243,962.267725,8290.306550
2513.372945,2451.505594,888.247130,8438.347739
2513.373274,1762.019645,962.267725,8734.430116
2513.373603,612.876398,1480.411884,8512.368333
2513.373932,-153.219100,592.164754,9548.656652
2513.374261,-1378.971896,-1332.370696,10214.842000
2513.374590,-1455.581446,-1480.411884,11325.150913
2513.374919,-2298.286494,-1406.391290,10362.883188
2513.375248,-1915.238745,-1480.411884,10066.800811
2513.375577,-1762.019645,-1258.350101,9326.594869
2513.375906,-1225.752797,-518.144159,9474.636058
2513.376235,-1302.362347,-370.102971,9770.718434
2513.376564,-383.047749,-0.000000,9474.636058
2513.376893,0.000000,-148.041188,9030.512492
2513.377222,76.609550,370.102971,8882.471304
2513.377551,76.609550,-148.041188,9474.636058
2513.377880,229.828649,-1036.288319,9992.780217
2513.378209,1762.019645,-1258.350101,11769.274478
2513.378538,2757.943793,296.082377,8068.244768
2513.378867,4366.744339,1110.308913,7994.224174
2513.379196,4136.915689,1850.514855,6291.750507
2513.379525,3907.087040,2664.741391,6513.812290
2513.379854,2604.724693,1702.473667,7698.141797
2513.380183,1072.533697,1184.329507,7328.038826
2513.380512,0.000000,-666.185348,8808.450710
2513.380841,-1762.019645,-1776.494261,9992.780217
2513.381169,-1838.629195,-2664.741391,10658.965565
2513.381498,-2528.115143,-3627.009116,9400.615463
2513.381827,-1302.362347,-3182.885551,9844.739029
2513.382156,-2068.457845,-1184.329507,10881.027347
2513.382485,-1838.629195,-370.102971,10288.862594
2513.382814,-2221.676944,444.123565,9918.759623
2513.383143,-1225.752797,962.267725,9400.615463
2513.383472,0.000000,1184.329507,9696.697840
2513.383801,229.828649,2516.700203,7920.203579
2513.384130,229.828649,592.164754,8660.409521
2513.384459,76.609550,-0.000000,9770.718434
2513.384788,459.657299,-1110.308913,8660.409521
2513.385117,229.828649,-2072.576638,9622.677246
2513.385446,1838.629195,-2442.679609,7994.224174
2513.385775,2068.457845,-0.000000,6143.709319
2513.386104,2757.943793,-148.041188,7920.203579
2513.386433,2221.676944,2368.659014,6069.688724
2513.386762,2451.505594,1480.411884,8586.388927
2513.387091,1838.629195,1110.308913,7550.100608
2513.387420,536.266849,592.164754,7624.121203
2513.387749,-1072.533697,-1406.391290,10584.944971
2513.388078,-1455.581446,-1776.494261,10510.924376
2513.388407,-1532.190996,-2368.659014,11843.295072
2513.388736,-1532.190996,-296.082377,9622.677246
2513.389065,-919.314598,296.082377,9770.718434
2513.389394,-1532.190996,592.164754,9252.574275
2513.389723,-1378.971896,740.205942,10066.800811
2513.390052,-1532.190996,1036.288319,9400.615463
2513.390381,0.000000,-518.144159,9178.553681
2513.390710,0.000000,-370.102971,9326.594869
2513.391039,842.705048,-1036.288319,9844.739029
2513.391368,76.609550,-1554.432478,9622.677246
2513.391697,0.000000,-1924.535449,10214.842000
2513.392026,153.219100,-1776.494261,10066.800811
2513.392355,229.828649,-1554.432478,10214.842000
2513.392684,2068.457845,-222.061783,10436.903782
2513.393013,2834.553343,1924.535449,5995.668130
2513.393342,4290.134789,2294.638420,8068.244768
2513.393672,3524.039291,3330.926739,5255.462188
2513.394001,3907.087040,2812.782580,6957.935855
2513.394330,1608.800546,1702.473667,7846.182985
2513.394659,766.095498,-0.000000,7550.100608
2513.394988,-995.924147,-2146.597232,9622.677246
2513.395317,-1608.800546,-2664.741391,10955.047942
2513.395646,-1838.629195,-2664.741391,9400.615463
2513.395975,-1225.752797,-814.226536,9622.677246
2513.396304,-1455.581446,444.123565,8660.409521
2513.396633,-1762.019645,-0.000000,10288.862594
2513.396962,-1455.581446,-0.000000,10881.027347
2513.397291,-766.095498,-0.000000,9918.759623
2513.397620,1225.752797,-2368.659014,9844.739029
2513.397949,842.705048,-222.061783,8734.430116
2513.398278,0.000000,-666.185348,9918.759623
2513.398607,0.000000,-1702.473667,10955.047942
2513.398936,1838.629195,-1480.411884,11103.089130
2513.399265,3294.210641,148.041188,6883.915261
2513.399594,4749.792088,1332.370696,6661.853478
2513.399923,4213.525239,2294.638420,5255.462188
2513.400252,4060.306139,1998.556043,6291.750507
2513.400581,2451.505594,1554.432478,7994.224174
2513.400910,842.705048,1184.329507,7624.121203
2513.401239,-459.657299,-1258.350101,8956.491898
2513.401568,-2528.115143,-2664.741391,10881.027347
2513.401897,-2374.896044,-2590.720797,10658.965565
2513.402226,-1378.971896,-1776.494261,9770.718434
2513.402555,-995.924147,-1258.350101,9696.697840
2513.402884,-1762.019645,518.144159,11029.068536
2513.403213,-2298.286494,1776.494261,10584.944971
2513.403542,-1991.848295,1924.535449,9992.780217
2513.403871,-1915.238745,-296.082377,9326.594869
2513.404200,0.000000,-370.102971,9992.780217
2513.404529,0.000000,-0.000000,8882.471304
2513.404858,536.266849,-888.247130,8660.409521
2513.405187,76.609550,-888.247130,9918.759623
2513.405516,766.095498,-1480.411884,9474.636058
2513.405846,2068.457845,-666.185348,8882.471304
2513.406175,2374.896044,666.185348,6513.812290
2513.406504,3294.210641,1406.391290,6661.853478
2513.406833,2987.772442,2220.617826,6735.874072
2513.407162,2681.334243,2442.679609,7254.018232
2513.407491,1302.362347,962.267725,8290.306550
2513.407820,536.266849,-222.061783,8586.388927
2513.408149,-995.924147,-1258.350101,9400.615463
2513.408478,-1838.629195,-2442.679609,10436.903782
2513.408807,-1915.238745,-2516.700203,10584.944971
2513.409136,-1915.238745,-1702.473667,10732.986159
2513.409465,-383.047749,-0.000000,9918.759623
2513.409794,-1608.800546,1110.308913,9474.636058
2513.410123,-1225.752797,518.144159,9918.759623
2513.410452,-689.485948,-0.000000,9474.636058
2513.410781,0.000000,-666.185348,10140.821405
2513.411110,229.828649,-740.205942,9622.677246
2513.411439,229.828649,-1036.288319,9030.512492
2513.411768,0.000000,-2072.576638,10362.883188
2513.412097,383.047749,-1776.494261,10510.924376
2513.412426,2681.334243,-1036.288319,8734.430116
2513.412755,3753.867940,740.205942,6069.688724
2513.413084,4749.792088,2146.597232,6661.853478
2513.413413,3830.477490,2590.720797,6365.771101
2513.413742,3217.601092,2368.659014,6957.935855
2513.414071,1915.238745,1406.391290,8216.285956
2513.414400,383.047749,-0.000000,8142.265362
2513.414729,-1378.971896,-1406.391290,9844.739029
2513.415058,-2604.724693,-2368.659014,10881.027347
2513.415387,-2374.896044,-2516.700203,9844.739029
2513.415716,-1685.410096,-1480.411884,9474.636058
2513.416045,-1762.019645,-1406.391290,10140.821405
2513.416374,-1991.848295,666.185348,10881.027347
2513.416703,-2145.067394,814.226536,10288.862594
2513.417032,-995.924147,370.102971,9178.553681
2513.417361,229.828649,-0.000000,9400.615463
2513.417691,459.657299,592.164754,8216.285956
2513.418020,76.609550,-222.061783,8142.265362
2513.418349,306.438199,-1628.453072,11917.315666
2513.418678,3217.601092,-1702.473667,10288.862594
2513.419007,3600.648841,1406.391290,5181.441594
2513.419336,4443.353888,-0.000000,6957.935855
2513.419665,2987.772442,1850.514855,5699.585753
2513.419994,3217.601092,2368.659014,8808.450710
2513.420323,1378.971896,444.123565,7179.997637
2513.420652,689.485948,444.123565,8734.430116
2513.420981,-766.095498,-3182.885551,10807.006753
2513.421310,-2068.457845,-1554.432478,10140.821405
2513.421639,-2528.115143,-2664.741391,10732.986159
2513.421968,-2374.896044,-2072.576638,9844.739029
2513.422297,-1149.143247,-1924.535449,9548.656652
2513.422626,-229.828649,-148.041188,10881.027347
2513.422955,-1378.971896,1036.288319,9992.780217
2513.423284,-842.705048,888.247130,9252.574275
2513.423613,0.000000,-296.082377,9178.553681
2513.423942,0.000000,1406.391290,9030.512492
2513.424271,0.000000,-0.000000,8956.491898
2513.424600,0.000000,-1332.370696,10140.821405
2513.424929,1072.533697,-1998.556043,10214.842000
2513.425258,2911.162892,-1036.288319,9178.553681
2513.425587,3370.820191,-518.144159,6809.894666
2513.425916,4060.306139,518.144159,7254.018232
2513.426245,3677.258390,1850.514855,7105.977043
2513.426574,3217.601092,3182.885551,7476.080014
2513.426903,1838.629195,2072.576638,7550.100608
2513.427232,612.876398,962.267725,8068.244768
2513.427561,-229.828649,-888.247130,9622.677246
2513.427890,-2145.067394,-1628.453072,9918.759623
2513.428219,-2451.505594,-2590.720797,10658.965565
2513.428548,-2374.896044,-2072.576638,9400.615463
2513.428877,-1762.019645,-1184.329507,10436.903782
2513.429206,-2221.676944,-370.102971,10140.821405
2513.429536,-2298.286494,-0.000000,10584.944971
2513.429865,-2451.505594,-296.082377,9696.697840
2513.430194,-229.828649,370.102971,9104.533087
2513.430523,76.609550,1036.288319,9030.512492
2513.430852,76.609550,962.267725,7994.224174
2513.431181,229.828649,-0.000000,9622.677246
2513.431510,459.657299,-1480.411884,10881.027347
2513.431839,3064.381992,-1036.288319,9030.512492
2513.432168,4749.792088,-0.000000,6217.729913
2513.432497,4519.963438,444.123565,6809.894666
2513.432826,3677.258390,2590.720797,6809.894666
2513.433155,3217.601092,1850.514855,7994.224174
2513.433484,1685.410096,1480.411884,7994.224174
2513.433813,689.485948,-0.000000,8438.347739
2513.434142,-306.438199,-1628.453072,9252.574275
2513.434471,-1838.629195,-2146.597232,10214.842000
2513.434800,-2221.676944,-2886.803174,10658.965565
2513.435129,-2145.067394,-2442.679609,10066.800811
2513.435458,-1149.143247,-2220.617826,10807.006753
2513.435787,-1302.362347,-296.082377,10288.862594
2513.436116,-536.266849,666.185348,9622.677246
2513.436445,-612.876398,888.247130,8586.388927
2513.436774,612.876398,1110.308913,9178.553681
2513.437103,689.485948,1184.329507,9178.553681
2513.437432,306.438199,592.164754,9030.512492
2513.437761,459.657299,-740.205942,9844.739029
2513.438090,2374.896044,-666.185348,9474.636058
2513.438419,3064.381992,-666.185348,6957.935855
2513.438748,3907.087040,-222.061783,7328.038826
2513.439077,4290.134789,888.247130,7105.977043
2513.439406,3600.648841,1554.432478,7105.977043
2513.439735,2451.505594,1554.432478,7698.141797
2513.440064,1149.143247,1184.329507,7698.141797
2513.440393,-383.047749,-592.164754,8808.450710
2513.440722,-1915.238745,-888.247130,9326.594869
2513.441051,-2528.115143,-2220.617826,11103.089130
2513.441381,-2681.334243,-1924.535449,10288.862594
2513.441710,-1685.410096,-2294.638420,10510.924376
2513.442039,-2145.067394,-1406.391290,11029.068536
2513.442368,-1838.629195,-148.041188,9918.759623
2513.442697,-1532.190996,-0.000000,10066.800811
2513.443026,-995.924147,296.082377,9474.636058
2513.443355,0.000000,1184.329507,9474.636058
2513.443684,-153.219100,1332.370696,9400.615463
2513.444013,0.000000,740.205942,8734.430116
2513.444342,229.828649,-518.144159,9992.780217
2513.444671,536.266849,-814.226536,9622.677246
2513.445000,1762.019645,-1554.432478,9844.739029
2513.445329,2451.505594,-666.185348,7994.224174
2513.445658,3064.381992,444.123565,7846.182985
2513.445987,2451.505594,1406.391290,7772.162391
2513.446316,3064.381992,2368.659014,7105.977043
2513.446645,1915.238745,1480.411884,8290.306550
2513.446974,919.314598,518.144159,7920.203579
2513.447303,0.000000,-222.061783,8734.430116
2513.447632,-2068.457845,-1184.329507,9770.718434
2513.447961,-1532.190996,-2294.638420,10362.883188
2513.448290,-1762.019645,-2294.638420,10214.842000
2513.448619,-459.657299,-1406.391290,9918.759623
2513.448948,-1072.533697,-888.247130,9844.739029
2513.449277,-1149.143247,-0.000000,9548.656652
2513.449606,-689.485948,518.144159,9696.697840
2513.449935,-536.266849,888.247130,9252.574275
2513.450264,153.219100,1036.288319,8438.347739
2513.450593,459.657299,-0.000000,8660.409521
2513.450922,153.219100,-444.123565,9326.594869
2513.451251,306.438199,-1702.473667,9844.739029
2513.451580,1685.410096,-1554.432478,9622.677246
2513.451909,2834.553343,-592.164754,7402.059420
2513.452238,3600.648841,-0.000000,7402.059420
2513.452567,3524.039291,1332.370696,6661.853478
2513.452896,3830.477490,1776.494261,7328.038826
2513.453225,2757.943793,1628.453072,7550.100608
2513.453555,1149.143247,1110.308913,7920.203579
2513.453884,0.000000,-222.061783,8512.368333
2513.454213,-1532.190996,-888.247130,9474.636058
2513.454542,-2374.896044,-2072.576638,10658.965565
2513.454871,-2757.943793,-2886.803174,10881.027347
2513.455200,-1915.238745,-2146.597232,10066.800811
2513.455529,-1915.238745,-1110.308913,10510.924376
2513.455858,-1915.238745,-296.082377,10214.842000
2513.456187,-1915.238745,222.061783,9918.759623
2513.456516,-1149.143247,-0.000000,10066.800811
2513.456845,-766.095498,666.185348,9104.533087
2513.457174,-459.657299,814.226536,9252.574275
2513.457503,0.000000,518.144159,8882.471304
2513.457832,0.000000,-222.061783,9918.759623
2513.458161,229.828649,-1776.494261,10066.800811
2513.458490,1838.629195,-1776.494261,9770.718434
2513.458819,2757.943793,-444.123565,7550.100608
2513.459148,3524.039291,740.205942,7105.977043
2513.459477,3140.991542,1850.514855,6883.915261
2513.459806,3294.210641,2368.659014,7105.977043
2513.460135,2681.334243,1998.556043,7624.121203
2513.460464,1838.629195,740.205942,7328.038826
2513.460793,536.266849,-370.102971,8438.347739
2513.461122,-1608.800546,-962.267725,9696.697840
2513.461451,-2451.505594,-2664.741391,10436.903782
2513.461780,-1915.238745,-2886.803174,10658.965565
2513.462109,-1532.190996,-1554.432478,9844.739029
2513.462438,-1532.190996,-222.061783,10288.862594
2513.462767,-1685.410096,222.061783,9696.697840
2513.463096,-766.095498,740.205942,9918.759623
2513.463425,-229.828649,-0.000000,9844.739029
2513.463754,0.000000,888.247130,8882.471304
2513.464083,0.000000,370.102971,8882.471304
2513.464412,153.219100,-740.205942,9992.780217
2513.464741,919.314598,-1776.494261,10288.862594
2513.465070,2451.505594,-1332.370696,9104.533087
2513.465400,3830.477490,-444.123565,7698.141797
2513.465729,4213.525239,-0.000000,6587.832884
2513.466058,3983.696590,2294.638420,7105.977043
2513.466387,3677.258390,2886.803174,7624.121203
2513.466716,2451.505594,1702.473667,7624.121203
2513.467045,1378.971896,888.247130,7920.203579
2513.467374,0.000000,-296.082377,9178.553681
2513.467703,-2451.505594,-1258.350101,9918.759623
2513.468032,-2451.505594,-3182.885551,11695.253884
2513.468361,-1608.800546,-2664.741391,9918.759623
2513.468690,-1378.971896,-2072.576638,10214.842000
2513.469019,-1838.629195,-962.267725,10362.883188
2513.469348,-1455.581446,296.082377,9474.636058
2513.469677,-2068.457845,666.185348,10362.883188
2513.470006,-1302.362347,814.226536,9326.594869
2513.470335,-306.438199,1110.308913,9178.553681
2513.470664,-229.828649,296.082377,8734.430116
2513.470993,76.609550,-0.000000,8586.388927
2513.471322,153.219100,-1406.391290,10510.924376
2513.471651,306.438199,-1702.473667,9252.574275
2513.471980,2681.334243,-1110.308913,8882.471304
2513.472309,3217.601092,-0.000000,6735.874072
2513.472638,3907.087040,2146.597232,7179.997637
2513.472967,3294.210641,2368.659014,6809.894666
2513.473296,3140.991542,2368.659014,6809.894666
2513.473625,2451.505594,1628.453072,7550.100608
2513.473954,1302.362347,-74.020594,7402.059420
2513.474283,-536.266849,-1184.329507,9178.553681
2513.474612,-1838.629195,-2072.576638,10362.883188
2513.474941,-995.924147,-3330.926739,10362.883188
2513.475270,-1991.848295,-2516.700203,9844.739029
2513.475599,-995.924147,-1480.411884,10214.842000
2513.475928,-1608.800546,-222.061783,9992.780217
2513.476257,-1608.800546,222.061783,10066.800811
2513.476586,-2298.286494,-0.000000,10066.800811
2513.476915,0.000000,296.082377,9622.677246
2513.477245,76.609550,444.123565,9474.636058
2513.477574,0.000000,148.041188,8512.368333
2513.477903,0.000000,-740.205942,10214.842000
2513.478232,229.828649,-1480.411884,10066.800811
2513.478561,2221.676944,-1554.432478,9770.718434
2513.478890,2834.553343,-1184.329507,7994.224174
2513.479219,3907.087040,370.102971,7328.038826
2513.479548,3677.258390,1628.453072,6957.935855
2513.479877,2987.772442,2442.679609,6735.874072
2513.480206,2451.505594,2072.576638,7698.141797
2513.480535,1072.533697,888.247130,7846.182985
2513.480864,229.828649,-518.144159,8734.430116
2513.481193,-1532.190996,-1924.535449,9474.636058
2513.481522,-2451.505594,-2516.700203,9918.759623
2513.481851,-1685.410096,-2294.638420,10214.842000
2513.482180,-1225.752797,-1036.288319,10214.842000
2513.482509,-1532.190996,-0.000000,9696.697840
2513.482838,-2298.286494,740.205942,10214.842000
2513.483167,-2145.067394,148.041188,10658.965565
2513.483496,-1762.019645,-0.000000,9844.739029
2513.483825,0.000000,-74.020594,9252.574275
2513.484154,76.609550,222.061783,8956.491898
2513.484483,229.828649,-0.000000,8290.306550
2513.484812,536.266849,-1258.350101,10955.047942
2513.485141,1225.752797,-1850.514855,9918.759623
2513.485470,2987.772442,-592.164754,8290.306550
2513.485799,3447.429741,222.061783,6809.894666
2513.486128,4290.134789,1554.432478,6661.853478
2513.486457,3600.648841,2516.700203,7031.956449
2513.486787,2987.772442,2368.659014,7624.121203
2513.487116,1762.019645,1702.473667,7920.203579
2513.487445,1072.533697,-0.000000,8660.409521
2513.487774,-612.876398,-1554.432478,9400.615463
2513.488104,-2681.334243,-1924.535449,10807.006753
2513.488433,-1762.019645,-2960.823768,11399.171507
2513.488762,-1915.238745,-2220.617826,10140.821405
2513.489091,-1378.971896,-1628.453072,11103.089130
2513.489421,-2068.457845,444.123565,9622.677246
2513.489750,-1608.800546,740.205942,9844.739029
2513.490079,-1685.410096,-74.020594,9770.718434
2513.490408,-229.828649,-0.000000,9326.594869
2513.490738,-229.828649,666.185348,9474.636058
2513.491067,229.828649,-148.041188,8216.285956
2513.491396,229.828649,-1110.308913,10214.842000
2513.491725,459.657299,-1776.494261,10584.944971
2513.492055,2757.943793,-962.267725,8808.450710
2513.492384,3677.258390,-0.000000,6809.894666
2513.492713,3983.696590,888.247130,6883.915261
2513.493042,2451.505594,2812.782580,6957.935855
2513.493371,3370.820191,2516.700203,7402.059420
2513.493701,1915.238745,1776.494261,7328.038826
2513.494030,842.705048,-0.000000,8142.265362
2513.494359,-1225.752797,-1110.308913,9326.594869
2513.494688,-2911.162892,-1924.535449,9770.718434
2513.495018,-2604.724693,-3256.906145,10807.006753
2513.495347,-2374.896044,-2738.761985,9918.759623
2513.495676,-1149.143247,-1998.556043,10955.047942
2513.496005,-2221.676944,-0.000000,9770.718434
2513.496335,-1608.800546,444.123565,10140.821405
2513.496664,-1532.190996,370.102971,9844.739029
2513.496993,0.000000,814.226536,9178.553681
2513.497322,0.000000,1184.329507,8660.409521
2513.497652,0.000000,-0.000000,8808.450710
2513.497981,153.219100,-1184.329507,10807.006753
2513.498310,2068.457845,-2220.617826,10881.027347
2513.498639,3677.258390,-1036.288319,7179.997637
2513.498969,4519.963438,-74.020594,7105.977043
2513.499298,4060.306139,1110.308913,6291.750507
2513.499627,3524.039291,2664.741391,7550.100608
2513.499956,2451.505594,1702.473667,8068.244768
2513.500285,1991.848295,962.267725,7846.182985
2513.500615,536.266849,-740.205942,9178.553681
2513.500944,-1838.629195,-1184.329507,10140.821405
2513.501273,-3217.601092,-2664.741391,11103.089130
2513.501602,-2451.505594,-2738.761985,10658.965565
2513.501932,-1455.581446,-1924.535449,10066.800811
2513.502261,-1149.143247,-962.267725,10881.027347
2513.502590,-689.485948,444.123565,9474.636058
2513.502919,-766.095498,1110.308913,9770.718434
2513.503249,-842.705048,1110.308913,9474.636058
2513.503578,383.047749,1480.411884,8512.368333
2513.503907,0.000000,1110.308913,9104.533087
2513.504236,229.828649,-518.144159,9770.718434
2513.504566,1762.019645,-814.226536,10214.842000
2513.504895,3677.258390,-74.020594,7550.100608
2513.505224,4903.011187,-592.164754,7476.080014
2513.505553,3907.087040,-0.000000,7105.977043
2513.505882,4213.525239,1776.494261,7624.121203
2513.506212,2911.162892,1998.556043,8142.265362
2513.506541,1838.629195,1406.391290,7994.224174
2513.506870,383.047749,444.123565,8808.450710
2513.507199,-1149.143247,-666.185348,9622.677246
2513.507529,-2987.772442,-2072.576638,10807.006753
2513.507858,-2221.676944,-2590.720797,10955.047942
2513.508187,-1838.629195,-2368.659014,9992.780217
2513.508516,-1838.629195,-1850.514855,10214.842000
2513.508846,-2068.457845,-962.267725,10288.862594
2513.509175,-1991.848295,-444.123565,9770.718434
2513.509504,-1991.848295,-296.082377,9474.636058
2513.509833,-1149.143247,962.267725,9104.533087
2513.510163,-689.485948,666.185348,9104.533087
2513.510492,-459.657299,814.226536,8438.347739
2513.510821,-306.438199,296.082377,8956.491898
2513.511150,229.828649,-1036.288319,9696.697840
2513.511480,1532.190996,-1332.370696,9548.656652
2513.511809,3217.601092,-814.226536,7179.997637
2513.512138,2834.553343,592.164754,7254.018232
2513.512467,2604.724693,962.267725,7402.059420
2513.512796,2374.896044,1776.494261,8142.265362
2513.513126,1762.019645,1110.308913,8142.265362
2513.513455,919.314598,666.185348,7698.141797
2513.513784,-229.828649,-0.000000,8364.327145
2513.514113,-1838.629195,-1258.350101,9400.615463
2513.514443,-2068.457845,-1850.514855,10881.027347
2513.514772,-1838.629195,-1480.411884,9770.718434
2513.515101,-1225.752797,-1776.494261,9696.697840
2513.515430,-1378.971896,-962.267725,9918.759623
2513.515760,-1532.190996,148.041188,9326.594869
2513.516089,-1302.362347,148.041188,9696.697840
2513.516418,-689.485948,296.082377,9400.615463
2513.516747,0.000000,666.185348,9104.533087
2513.517077,-229.828649,666.185348,8586.388927
2513.517406,0.000000,-74.020594,9474.636058
2513.517735,229.828649,-1258.350101,9844.739029
2513.518064,2374.896044,-1480.411884,9474.636058
2513.518394,3370.820191,-296.082377,7402.059420
2513.518723,4136.915689,222.061783,7772.162391
2513.519052,3370.820191,1332.370696,6957.935855
2513.519381,3600.648841,1850.514855,7994.224174
2513.519710,2374.896044,1480.411884,7698.141797
2513.520040,1072.533697,962.267725,8142.265362
2513.520369,0.000000,-518.144159,9474.636058
2513.520698,-2145.067394,-1184.329507,9696.697840
2513.521027,-2298.286494,-2368.659014,11695.253884
2513.521357,-2451.505594,-2516.700203,10362.883188
2513.521686,-1455.581446,-2146.597232,10584.944971
2513.522015,-1608.800546,-1628.453072,10140.821405
2513.522344,-1455.581446,-0.000000,9918.759623
2513.522674,-1378.971896,-74.020594,10362.883188
2513.523003,-1149.143247,-0.000000,9622.677246
2513.523332,-459.657299,592.164754,9474.636058
2513.523661,-612.876398,962.267725,8808.450710
2513.523991,0.000000,1036.288319,9252.574275
2513.524320,0.000000,-148.041188,10214.842000
2513.524649,919.314598,-962.267725,9400.615463
2513.524978,1991.848295,-1036.288319,9104.533087
2513.525307,2298.286494,-296.082377,7624.121203
2513.525637,3677.258390,296.082377,7698.141797
2513.525966,3370.820191,1480.411884,6883.915261
2513.526295,2987.772442,1554.432478,7550.100608
2513.526624,2528.115143,1184.329507,7698.141797
2513.526954,1302.362347,962.267725,8068.244768
2513.527283,-153.219100,-222.061783,8586.388927
2513.527612,-1072.533697,-592.164754,9400.615463
2513.527941,-1608.800546,-2368.659014,10436.903782
2513.528271,-1455.581446,-1850.514855,10288.862594
2513.528600,-995.924147,-1332.370696,10510.924376
2513.528929,-1532.190996,-666.185348,9770.718434
2513.529258,-1685.410096,-0.000000,9548.656652
2513.529588,-766.095498,518.144159,10140.821405
2513.529917,-536.266849,222.061783,9252.574275
2513.530246,-536.266849,444.123565,8882.471304
2513.530575,689.485948,444.123565,8956.491898
2513.530905,536.266849,-666.185348,10214.842000
2513.531234,1991.848295,-1036.288319,9474.636058
2513.531563,3370.820191,-74.020594,7550.100608
2513.531892,4673.182538,-74.020594,8142.265362
2513.532221,4213.525239,888.247130,6735.874072
2513.532551,4290.134789,1850.514855,7920.203579
2513.532880,2834.553343,1850.514855,7920.203579
2513.533209,2451.505594,1036.288319,7105.977043
2513.533538,536.266849,296.082377,8882.471304
2513.533868,-1225.752797,-222.061783,9326.594869
2513.534197,-2374.896044,-1998.556043,11029.068536
2513.534526,-2451.505594,-2368.659014,10584.944971
2513.534855,-1685.410096,-2220.617826,9696.697840
2513.535185,-1455.581446,-2516.700203,10584.944971
2513.535514,-1455.581446,-1110.308913,9844.739029
2513.535843,-1762.019645,-444.123565,10066.800811
2513.536172,-1302.362347,-0.000000,9844.739029
2513.536502,-842.705048,1258.350101,9326.594869
2513.536831,-306.438199,962.267725,9178.553681
2513.537160,-153.219100,1406.391290,8290.306550
2513.537489,0.000000,222.061783,9252.574275
2513.537819,1532.190996,-888.247130,9696.697840
2513.538148,2451.505594,-1554.432478,9326.594869
2513.538477,3064.381992,-0.000000,7179.997637
2513.538806,3600.648841,370.102971,7550.100608
2513.539135,3217.601092,1258.350101,6513.812290
2513.539465,3447.429741,1406.391290,7698.141797
2513.539794,2145.067394,1332.370696,7846.182985
2513.540123,1838.629195,740.205942,7105.977043
2513.540452,0.000000,444.123565,8660.409521
2513.540782,-1685.410096,-666.185348,9326.594869
2513.541111,-2145.067394,-1924.535449,10584.944971
2513.541440,-2451.505594,-2812.782580,10732.986159
2513.541769,-2145.067394,-2368.659014,9992.780217
2513.542099,-2221.676944,-1850.514855,10658.965565
2513.542428,-2145.067394,-814.226536,9844.739029
2513.542757,-1915.238745,-148.041188,9992.780217
2513.543086,-995.924147,-0.000000,9844.739029
2513.543416,-383.047749,740.205942,9252.574275
2513.543745,0.000000,740.205942,8586.388927
2513.544074,0.000000,370.102971,8808.450710
2513.544403,229.828649,-1184.329507,10658.965565
2513.544732,1991.848295,-740.205942,9474.636058
2513.545062,3524.039291,-296.082377,7328.038826
2513.545391,3600.648841,-0.000000,7920.203579
2513.545720,3370.820191,1258.350101,6957.935855
2513.546049,3447.429741,2072.576638,8142.265362
2513.546379,2298.286494,1702.473667,7624.121203
2513.546708,1762.019645,1480.411884,7476.080014
2513.547037,229.828649,-74.020594,8956.491898
2513.547366,-1149.143247,-518.144159,9178.553681
2513.547696,-2145.067394,-2146.597232,10955.047942
2513.548025,-2145.067394,-2516.700203,9992.780217
2513.548354,-1378.971896,-2368.659014,9622.677246
2513.548683,-1838.629195,-1850.514855,10362.883188
2513.549013,-1532.190996,-592.164754,9548.656652
2513.549342,-1838.629195,-148.041188,10140.821405
2513.549671,-1455.581446,296.082377,9696.697840
2513.550000,-842.705048,1776.494261,9104.533087
2513.550330,0.000000,1258.350101,9104.533087
2513.550659,0.000000,1332.370696,7994.224174
2513.550988,153.219100,-148.041188,9474.636058
2513.551317,536.266849,-1110.308913,10066.800811
2513.551646,1991.848295,-1554.432478,9548.656652
2513.551976,2298.286494,-222.061783,7772.162391
2513.552305,3677.258390,518.144159,7179.997637
2513.552634,3294.210641,1702.473667,6809.894666
2513.552963,3524.039291,1702.473667,7624.121203
2513.553293,2757.943793,1554.432478,7624.121203
2513.553622,1762.019645,1036.288319,7772.162391
2513.553951,536.266849,-296.082377,8586.388927
2513.554280,-1149.143247,-888.247130,9104.533087
2513.554610,-2451.505594,-2220.617826,10584.944971
2513.554939,-1838.629195,-2368.659014,11177.109724
2513.555268,-1532.190996,-1702.473667,9770.718434
2513.555597,-1608.800546,-1036.288319,10807.006753
2513.555927,-1378.971896,-370.102971,10066.800811
2513.556256,-1302.362347,222.061783,10214.842000
2513.556585,-1149.143247,148.041188,9918.759623
2513.556914,-612.876398,962.267725,9178.553681
2513.557244,229.828649,444.123565,8882.471304
2513.557573,0.000000,-148.041188,9104.533087
2513.557902,0.000000,-1184.329507,10214.842000
2513.558231,1685.410096,-2072.576638,10436.903782
2513.558560,3447.429741,-888.247130,7254.018232
2513.558890,3447.429741,222.061783,7846.182985
2513.559219,3294.210641,962.267725,7105.977043
2513.559548,3524.039291,2516.700203,7105.977043
2513.559877,2834.553343,1924.535449,7105.977043
2513.560207,1838.629195,1554.432478,7254.018232
2513.560536,612.876398,222.061783,7994.224174
2513.560865,-1149.143247,-814.226536,8586.388927
2513.561194,-2451.505594,-1998.556043,10140.821405
2513.561524,-1685.410096,-2368.659014,10584.944971
2513.561853,-1838.629195,-1998.556043,8956.491898
2513.562182,-1915.238745,-1406.391290,10881.027347
2513.562511,-1915.238745,-592.164754,9622.677246
2513.562841,-2374.896044,-296.082377,9992.780217
2513.563170,-1608.800546,-0.000000,10288.862594
2513.563499,-766.095498,592.164754,9622.677246
2513.563828,-229.828649,592.164754,9326.594869
2513.564157,0.000000,814.226536,8216.285956
2513.564487,153.219100,-0.000000,9474.636058
2513.564816,229.828649,-1258.350101,10288.862594
2513.565145,2298.286494,-2146.597232,9770.718434
2513.565474,3140.991542,-74.020594,7920.203579
2513.565804,3907.087040,740.205942,7772.162391
2513.566133,3370.820191,1554.432478,6957.935855
2513.566462,3677.258390,2368.659014,7698.141797
2513.566791,2528.115143,1924.535449,7550.100608
2513.567121,1915.238745,1036.288319,7846.182985
2513.567450,459.657299,-0.000000,9400.615463
2513.567779,-1302.362347,-888.247130,9474.636058
2513.568108,-2298.286494,-2886.803174,11695.253884
2513.568438,-2374.896044,-3404.947333,10955.047942
2513.568767,-1915.238745,-1924.535449,10066.800811
2513.569096,-1455.581446,-740.205942,10658.965565
2513.569425,-1915.238745,592.164754,9400.615463
2513.569755,-995.924147,740.205942,9992.780217
2513.570084,-306.438199,-0.000000,9474.636058
2513.570413,383.047749,1406.391290,8512.368333
2513.570742,0.000000,962.267725,9030.512492
2513.571071,153.219100,-814.226536,10288.862594
2513.571401,1915.238745,-1480.411884,10658.965565
2513.571730,3140.991542,-74.020594,7105.977043
2513.572059,4979.620737,-592.164754,7476.080014
2513.572388,4136.915689,444.123565,6217.729913
2513.572718,4979.620737,2738.761985,7179.997637
2513.573047,3294.210641,2664.741391,6883.915261
2513.573376,2374.896044,1776.494261,7476.080014
2513.573705,689.485948,740.205942,9178.553681
2513.574035,-1072.533697,-444.123565,8660.409521
2513.574364,-2834.553343,-2146.597232,10881.027347
2513.574693,-2528.115143,-3034.844362,11991.336260
2513.575022,-2145.067394,-2812.782580,9696.697840
2513.575352,-2145.067394,-2590.720797,11547.212695
2513.575681,-2374.896044,-1110.308913,9622.677246
2513.576010,-1838.629195,-222.061783,9992.780217
2513.576339,-1532.190996,-0.000000,9992.780217
2513.576669,-995.924147,1628.453072,8290.306550
2513.576998,153.219100,1110.308913,8808.450710
2513.577327,-536.266849,1110.308913,8364.327145
2513.577656,76.609550,-222.061783,9326.594869
2513.577985,842.705048,-1480.411884,10584.944971
2513.578315,2451.505594,-1406.391290,7772.162391
2513.578644,3524.039291,-370.102971,7994.224174
2513.578973,3677.258390,370.102971,6809.894666
2513.579302,3064.381992,1924.535449,7624.121203
2513.579632,2681.334243,2146.597232,8290.306550
2513.579961,2451.505594,1406.391290,7328.038826
2513.580290,1225.752797,444.123565,8438.347739
2513.580619,-766.095498,-222.061783,9326.594869
2513.580949,-2145.067394,-1110.308913,9474.636058
2513.581278,-2451.505594,-2812.782580,11103.089130
2513.581607,-1991.848295,-2368.659014,9770.718434
2513.581936,-1225.752797,-1850.514855,10140.821405
2513.582266,-1685.410096,-740.205942,10140.821405
2513.582595,-1838.629195,-148.041188,9030.512492
2513.582924,-842.705048,-0.000000,9252.574275
2513.583253,-536.266849,888.247130,9326.594869
2513.583582,0.000000,1480.411884,8956.491898
2513.583912,0.000000,740.205942,8956.491898
2513.584241,-306.438199,370.102971,9252.574275
2513.584570,2298.286494,-1924.535449,11103.089130
2513.584899,2451.505594,-592.164754,7624.121203
2513.585229,3753.867940,296.082377,8438.347739
2513.585558,4136.915689,-0.000000,7476.080014
2513.585887,3600.648841,2220.617826,7105.977043
2513.586216,2451.505594,1776.494261,8216.285956
2513.586546,1455.581446,1258.350101,7920.203579
2513.586875,383.047749,-0.000000,8512.368333
2513.587204,-842.705048,-518.144159,8808.450710
2513.587533,-2145.067394,-1628.453072,10066.800811
2513.587863,-2604.724693,-2664.741391,11769.274478
2513.588192,-2145.067394,-2590.720797,9918.759623
2513.588521,-1915.238745,-1924.535449,10362.883188
2513.588850,-2145.067394,-1332.370696,10510.924376
2513.589179,-1455.581446,-0.000000,10288.862594
2513.589508,-1455.581446,-370.102971,9918.759623
2513.589837,-919.314598,740.205942,9622.677246
2513.590166,-383.047749,1332.370696,9178.553681
2513.590496,-153.219100,1110.308913,8364.327145
2513.590825,76.609550,370.102971,9178.553681
2513.591154,1149.143247,-814.226536,10288.862594
2513.591483,2298.286494,-666.185348,7698.141797
2513.591812,3907.087040,-814.226536,7920.203579
2513.592141,3447.429741,-74.020594,7179.997637
2513.592470,3370.820191,1110.308913,7476.080014
2513.592799,2528.115143,814.226536,7920.203579
2513.593128,2221.676944,1184.329507,7772.162391
2513.593458,1455.581446,444.123565,8216.285956
2513.593787,-306.438199,-0.000000,8586.388927
2513.594116,-1225.752797,-888.247130,9770.718434
2513.594445,-1762.019645,-1258.350101,10066.800811
2513.594774,-1378.971896,-2368.659014,9696.697840
2513.595103,-1532.190996,-1480.411884,9844.739029
2513.595432,-1532.190996,-666.185348,9622.677246
2513.595761,-1532.190996,-148.041188,9252.574275
2513.596091,-766.095498,-296.082377,9474.636058
2513.596420,-766.095498,444.123565,9918.759623
2513.596749,-306.438199,370.102971,9030.512492
2513.597078,153.219100,222.061783,8734.430116
2513.597407,76.609550,-0.000000,9400.615463
2513.597736,1455.581446,-1036.288319,10214.842000
2513.598065,2528.115143,-888.247130,8216.285956
2513.598394,4136.915689,-148.041188,8216.285956
2513.598723,4443.353888,592.164754,7476.080014
2513.599053,4136.915689,1258.350101,7698.141797
2513.599382,3370.820191,1776.494261,7994.224174
2513.599711,2451.505594,1332.370696,7846.182985
2513.600040,1608.800546,666.185348,8586.388927
2513.600369,0.000000,-0.000000,9104.533087
2513.600698,-1455.581446,-1554.432478,9992.780217
2513.601027,-1991.848295,-2368.659014,10955.047942
2513.601356,-1915.238745,-2368.659014,10584.944971
2513.601685,-1838.629195,-1998.556043,9918.759623
2513.602015,-1762.019645,-1702.473667,10732.986159
2513.602344,-1762.019645,-592.164754,9770.718434
2513.602673,-1685.410096,-148.041188,9992.780217
2513.603002,-919.314598,740.205942,9474.636058
2513.603331,612.876398,1258.350101,9252.574275
2513.603660,229.828649,1036.288319,9178.553681
2513.603989,-306.438199,1110.308913,8290.306550
2513.604318,76.609550,-0.000000,9474.636058
2513.604647,383.047749,-1184.329507,9474.636058
2513.604977,1915.238745,-1258.350101,9474.636058
2513.605306,2681.334243,-888.247130,7920.203579
2513.605635,3600.648841,814.226536,7105.977043
2513.605964,3064.381992,1036.288319,6735.874072
2513.606293,2987.772442,1776.494261,7550.100608
2513.606622,2374.896044,1924.535449,7772.162391
2513.606951,1072.533697,962.267725,7624.121203
2513.607280,0.000000,-0.000000,8660.409521
2513.607609,-1378.971896,-666.185348,9696.697840
2513.607939,-1838.629195,-2442.679609,9770.718434
2513.608268,-2221.676944,-2368.659014,10066.800811
2513.608597,-1302.362347,-1480.411884,10510.924376
2513.608926,-1378.971896,-1258.350101,9918.759623
2513.609255,-1532.190996,-0.000000,9696.697840
2513.609584,-919.314598,-0.000000,10362.883188
2513.609913,-1302.362347,-0.000000,9178.553681
2513.610242,0.000000,370.102971,9104.533087
2513.610571,306.438199,814.226536,8956.491898
2513.610901,0.000000,-0.000000,9178.553681
2513.611230,229.828649,-1406.391290,11103.089130
2513.611559,1991.848295,-1480.411884,10140.821405
2513.611888,3294.210641,-74.020594,7476.080014
2513.612217,3907.087040,-148.041188,7772.162391
2513.612546,4213.525239,1776.494261,6883.915261
2513.612875,3677.258390,2146.597232,7772.162391
2513.613204,2834.553343,2072.576638,7772.162391
2513.613533,1838.629195,1776.494261,7476.080014
2513.613863,536.266849,-0.000000,9252.574275
2513.614192,-1378.971896,-962.267725,9178.553681
2513.614521,-2451.505594,-2072.576638,10436.903782
2513.614850,-2221.676944,-3849.070898,10807.006753
2513.615179,-1838.629195,-2516.700203,9474.636058
2513.615508,-1532.190996,-1332.370696,11177.109724
2513.615837,-2145.067394,-0.000000,9696.697840
2513.616166,-1608.800546,740.205942,9548.656652
2513.616496,-1302.362347,444.123565,9844.739029
2513.616825,0.000000,1480.411884,8216.285956
2513.617154,0.000000,1184.329507,9326.594869
2513.617483,-383.047749,-0.000000,8364.327145
2513.617812,-306.438199,-222.061783,9400.615463
2513.618141,153.219100,-1998.556043,10214.842000
2513.618470,1915.238745,-1998.556043,9178.553681
2513.618799,2374.896044,-518.144159,7772.162391
2513.619128,3294.210641,222.061783,7328.038826
2513.619458,3064.381992,1850.514855,6883.915261
2513.619787,3370.820191,1628.453072,7550.100608
2513.620116,2374.896044,1850.514855,7402.059420
2513.620445,1302.362347,1184.329507,7772.162391
2513.620774,-229.828649,-444.123565,8956.491898
2513.621103,-2221.676944,-1036.288319,9030.512492
2513.621432,-2757.943793,-2738.761985,11547.212695
2513.621761,-1608.800546,-2664.741391,10436.903782
2513.622090,-1378.971896,-2072.576638,10510.924376
2513.622420,-1762.019645,-1110.308913,9918.759623
2513.622749,-1762.019645,-0.000000,9474.636058
2513.623078,-1378.971896,222.061783,10214.842000
2513.623407,-919.314598,-0.000000,9622.677246
2513.623736,0.000000,592.164754,8956.491898
2513.624065,153.219100,370.102971,8956.491898
2513.624394,76.609550,-148.041188,9252.574275
2513.624723,76.609550,-1406.391290,11473.192101
2513.625052,2221.676944,-888.247130,9326.594869
2513.625382,3524.039291,296.082377,7254.018232
2513.625711,3677.258390,592.164754,7179.997637
2513.626040,3217.601092,2368.659014,6439.791695
2513.626369,2911.162892,2220.617826,7624.121203
2513.626698,1838.629195,2072.576638,7698.141797
2513.627027,1072.533697,1258.350101,8068.244768
2513.627356,0.000000,-1036.288319,9252.574275
2513.627685,-2298.286494,-1776.494261,9474.636058
2513.628014,-2298.286494,-2590.720797,10955.047942
2513.628344,-2451.505594,-2664.741391,9548.656652
2513.628673,-1762.019645,-2368.659014,10436.903782
2513.629002,-2068.457845,-1184.329507,10436.903782
2513.629331,-1225.752797,370.102971,9548.656652
2513.629660,-1302.362347,148.041188,9844.739029
2513.629989,-536.266849,962.267725,9400.615463
2513.630318,0.000000,1258.350101,9030.512492
2513.630647,0.000000,962.267725,8364.327145
2513.630976,0.000000,-0.000000,8956.491898
2513.631306,689.485948,-1554.432478,10658.965565
2513.631635,1991.848295,-1924.535449,9400.615463
2513.631964,3370.820191,-518.144159,7550.100608
2513.632293,4213.525239,-0.000000,7476.080014
2513.632622,3907.087040,1110.308913,7031.956449
2513.632951,3677.258390,1924.535449,7846.182985
2513.633280,2757.943793,1776.494261,7402.059420
2513.633609,1991.848295,962.267725,8142.265362
2513.633938,612.876398,-0.000000,9252.574275
2513.634268,-1225.752797,-74.020594,9252.574275
2513.634597,-2145.067394,-1406.391290,10658.965565
2513.634926,-1915.238745,-2590.720797,11547.212695
2513.635255,-1532.190996,-1776.494261,9918.759623
2513.635584,-1455.581446,-962.267725,11029.068536
2513.635913,-1302.362347,-74.020594,9474.636058
2513.636242,-459.657299,148.041188,9400.615463
2513.636571,-612.876398,370.102971,9992.780217
2513.636900,229.828649,1554.432478,8808.450710
2513.637230,459.657299,740.205942,8734.430116
2513.637559,229.828649,-222.061783,9400.615463
2513.637888,1685.410096,-1258.350101,10288.862594
2513.638217,2911.162892,-444.123565,7846.182985
2513.638546,4366.744339,-0.000000,7624.121203
2513.638875,4136.915689,1184.329507,6809.894666
2513.639204,4749.792088,2294.638420,7772.162391
2513.639533,3370.820191,2368.659014,7624.121203
2513.639863,2298.286494,1776.494261,7402.059420
2513.640192,919.314598,666.185348,8512.368333
2513.640521,-842.705048,-74.020594,9104.533087
2513.640850,-2374.896044,-2220.617826,10066.800811
2513.641179,-2451.505594,-2738.761985,11029.068536
2513.641508,-2068.457845,-2664.741391,9696.697840
2513.641837,-1991.848295,-2590.720797,10436.903782
2513.642166,-2298.286494,-1480.411884,10214.842000
2513.642495,-2374.896044,-370.102971,10066.800811
2513.642825,-1915.238745,-592.164754,10214.842000
2513.643154,-995.924147,296.082377,8956.491898
2513.643483,-842.705048,740.205942,9622.677246
2513.643812,-919.314598,962.267725,9030.512492
2513.644141,-306.438199,962.267725,8142.265362
2513.644470,0.000000,-740.205942,9918.759623
2513.644799,612.876398,-1480.411884,10066.800811
2513.645128,2451.505594,-1110.308913,9474.636058
2513.645457,2757.943793,-222.061783,7328.038826
2513.645787,3677.258390,962.267725,7254.018232
2513.646116,2451.505594,962.267725,7402.059420
2513.646445,2834.553343,2294.638420,7476.080014
2513.646774,1991.848295,1480.411884,7698.141797
2513.647103,842.705048,814.226536,7772.162391
2513.647432,0.000000,-296.082377,9326.594869
2513.647761,-1225.752797,-1258.350101,9622.677246
2513.648090,-1915.238745,-2960.823768,10807.006753
2513.648419,-2298.286494,-2072.576638,10362.883188
2513.648749,-1532.190996,-1850.514855,10214.842000
2513.649078,-1762.019645,-518.144159,9474.636058
2513.649407,-1455.581446,370.102971,9474.636058
2513.649736,-1455.581446,518.144159,9622.677246
2513.650065,-383.047749,888.247130,9178.553681
2513.650394,459.657299,1184.329507,8586.388927
2513.650723,76.609550,222.061783,8512.368333
2513.651052,536.266849,-1184.329507,10807.006753
2513.651381,2298.286494,-1036.288319,9474.636058
2513.651711,3677.258390,148.041188,7179.997637
2513.652040,4213.525239,-148.041188,6957.935855
2513.652369,4213.525239,1110.308913,6587.832884
2513.652698,3753.867940,2442.679609,8068.244768
2513.653027,2068.457845,1850.514855,7624.121203
2513.653356,1762.019645,962.267725,7920.203579
2513.653685,0.000000,-0.000000,9622.677246
2513.654014,-1685.410096,-1110.308913,9474.636058
2513.654343,-2374.896044,-2368.659014,11399.171507
2513.654673,-2451.505594,-2886.803174,11177.109724
2513.655002,-2451.505594,-2442.679609,10140.821405
2513.655331,-2221.676944,-1628.453072,10955.047942
2513.655660,-1915.238745,-148.041188,10066.800811
2513.655989,-1608.800546,-0.000000,10066.800811
2513.656318,-1149.143247,222.061783,9844.739029
2513.656647,-383.047749,1850.514855,9030.512492
2513.656976,-383.047749,1332.370696,9252.574275
2513.657305,-612.876398,592.164754,8882.471304
2513.657635,76.609550,-0.000000,9770.718434
2513.657964,1149.143247,-1184.329507,9844.739029
2513.658293,2451.505594,-1184.329507,8068.244768
2513.658622,3600.648841,-296.082377,7920.203579
2513.658951,3524.039291,740.205942,7031.956449
2513.659280,3294.210641,1184.329507,7624.121203
2513.659609,2451.505594,1406.391290,8142.265362
2513.659938,2298.286494,962.267725,7994.224174
2513.660268,842.705048,222.061783,8290.306550
2513.660597,-689.485948,-518.144159,9030.512492
2513.660926,-2298.286494,-1480.411884,9474.636058
2513.661255,-2451.505594,-2886.803174,10436.903782
2513.661584,-1762.019645,-2368.659014,9696.697840
2513.661913,-1915.238745,-1998.556043,9622.677246
2513.662242,-1685.410096,-1110.308913,9548.656652
2513.662571,-1455.581446,-0.000000,8956.491898
2513.662900,-1072.533697,-0.000000,9474.636058
2513.663230,-306.438199,370.102971,8956.491898
2513.663559,0.000000,962.267725,8956.491898
2513.663888,153.219100,-0.000000,9474.636058
2513.664217,766.095498,-1110.308913,10510.924376
2513.664546,2374.896044,-814.226536,8808.450710
2513.664875,4213.525239,148.041188,7772.162391
2513.665204,4519.963438,444.123565,6957.935855
2513.665533,4519.963438,1258.350101,7105.977043
2513.665862,4136.915689,1850.514855,7994.224174
2513.666192,2681.334243,1554.432478,8068.244768
2513.666521,1455.581446,296.082377,8216.285956
2513.666850,0.000000,-0.000000,9326.594869
2513.667179,-1532.190996,-666.185348,9844.739029
2513.667508,-2374.896044,-2146.597232,11177.109724
2513.667837,-2221.676944,-2442.679609,10807.006753
2513.668166,-1991.848295,-2294.638420,10288.862594
2513.668495,-2068.457845,-1776.494261,11473.192101
2513.668824,-1685.410096,-222.061783,10140.821405
2513.669154,-995.924147,-296.082377,10140.821405
2513.669483,-995.924147,814.226536,9770.718434
2513.669812,-689.485948,1850.514855,9178.553681
2513.670141,0.000000,1406.391290,9252.574275
2513.670470,-229.828649,962.267725,9030.512492
2513.670799,383.047749,-370.102971,9178.553681
2513.671128,1608.800546,-888.247130,9474.636058
2513.671457,3140.991542,-666.185348,7846.182985
2513.671786,3753.867940,-0.000000,7846.182985
2513.672116,3370.820191,592.164754,7328.038826
2513.672445,3524.039291,1480.411884,7624.121203
2513.672774,2757.943793,962.267725,7698.141797
2513.673103,2528.115143,666.185348,7772.162391
2513.673432,919.314598,296.082377,8512.368333
2513.673761,-1072.533697,-222.061783,8956.491898
2513.674090,-1838.629195,-1110.308913,9918.759623
2513.674419,-2221.676944,-1998.556043,10214.842000
2513.674748,-1762.019645,-2368.659014,9696.697840
2513.675078,-1455.581446,-1554.432478,9918.759623
2513.675407,-1915.238745,-1480.411884,9844.739029
2513.675736,-2068.457845,-888.247130,9844.739029
2513.676065,-1532.190996,-148.041188,10510.924376
2513.676394,-766.095498,148.041188,9622.677246
2513.676723,-306.438199,740.205942,9104.533087
2513.677052,-229.828649,518.144159,8512.368333
2513.677381,383.047749,-296.082377,9326.594869
2513.677710,1838.629195,-1258.350101,10510.924376
2513.678040,2681.334243,-0.000000,7550.100608
2513.678369,4673.182538,296.082377,7846.182985
2513.678698,3677.258390,888.247130,6513.812290
2513.679027,3830.477490,2072.576638,7550.100608
2513.679356,2911.162892,1480.411884,7994.224174
2513.679685,2145.067394,888.247130,7624.121203
2513.680014,306.438199,-0.000000,8586.388927
2513.680343,-689.485948,-814.226536,8956.491898
2513.680672,-1915.238745,-1702.473667,10288.862594
2513.681002,-2145.067394,-2368.659014,11029.068536
2513.681331,-1532.190996,-1702.473667,9030.512492
2513.681660,-1455.581446,-1850.514855,10362.883188
2513.681989,-1608.800546,-888.247130,9696.697840
2513.682318,-1302.362347,222.061783,9178.553681
2513.682647,-1685.410096,-370.102971,10436.903782
2513.682976,-1302.362347,1110.308913,9326.594869
2513.683305,-459.657299,1184.329507,9326.594869
2513.683635,-459.657299,1184.329507,8586.388927
2513.683964,-306.438199,666.185348,8808.450710
2513.684293,0.000000,-666.185348,9622.677246
2513.684622,842.705048,-1850.514855,9770.718434
2513.684951,2221.676944,-1258.350101,8956.491898
2513.685280,2298.286494,-222.061783,7772.162391
2513.685609,3140.991542,962.267725,6661.853478
2513.685938,2834.553343,592.164754,8364.327145
2513.686267,2987.772442,962.267725,8364.327145
2513.686597,2451.505594,1702.473667,7402.059420
2513.686926,1762.019645,-666.185348,8216.285956
2513.687255,-1149.143247,-222.061783,8438.347739
2513.687584,-995.924147,-1258.350101,10584.944971
2513.687913,-2451.505594,-2590.720797,11473.192101
2513.688242,-1915.238745,-1628.453072,9844.739029
2513.688571,-1762.019645,-1702.473667,10510.924376
2513.688900,-1915.238745,-888.247130,9326.594869
2513.689229,-1072.533697,-888.247130,10066.800811
2513.689559,-1838.629195,-370.102971,10658.965565
2513.689888,-1302.362347,-74.020594,9400.615463
2513.690217,-306.438199,222.061783,9326.594869
2513.690546,-306.438199,296.082377,8364.327145
2513.690875,0.000000,-74.020594,9622.677246
2513.691204,842.705048,-1184.329507,10881.027347
2513.691533,2528.115143,-592.164754,8956.491898
2513.691862,4213.525239,148.041188,7254.018232
2513.692191,4826.401637,666.185348,6957.935855
2513.692521,3677.258390,2442.679609,7254.018232
2513.692850,3677.258390,2368.659014,7328.038826
2513.693179,2604.724693,1924.535449,7179.997637
2513.693508,1685.410096,1332.370696,7550.100608
2513.693837,-536.266849,-222.061783,9252.574275
2513.694166,-1225.752797,-1480.411884,9622.677246
2513.694495,-1762.019645,-2590.720797,11695.253884
2513.694824,-1991.848295,-2442.679609,9548.656652
2513.695153,-1608.800546,-2072.576638,10288.862594
2513.695483,-2221.676944,-1258.350101,10510.924376
2513.695812,-2145.067394,-0.000000,9548.656652
2513.696141,-1991.848295,-74.020594,10732.986159
2513.696470,-1225.752797,370.102971,9622.677246
2513.696799,229.828649,814.226536,9030.512492
2513.697128,-306.438199,1184.329507,8142.265362
2513.697457,-383.047749,222.061783,8956.491898
2513.697786,0.000000,-1480.411884,10510.924376
2513.698115,2068.457845,-1406.391290,9030.512492
2513.698445,3294.210641,148.041188,6957.935855
2513.698774,3677.258390,-370.102971,7698.141797
2513.699103,3600.648841,1258.350101,6735.874072
2513.699432,3983.696590,1480.411884,8216.285956
2513.699761,2451.505594,1554.432478,7624.121203
2513.700090,1685.410096,1480.411884,7772.162391
2513.700419,919.314598,-222.061783,9178.553681
2513.700748,-995.924147,-444.123565,8586.388927
2513.701077,-2604.724693,-2072.576638,11251.130318
2513.701407,-1915.238745,-2960.823768,11251.130318
2513.701736,-2145.067394,-2146.597232,9918.759623
2513.702065,-1532.190996,-888.247130,10881.027347
2513.702394,-1225.752797,-0.000000,9474.636058
2513.702723,-1378.971896,-74.020594,9400.615463
2513.703052,-995.924147,-0.000000,9918.759623
2513.703381,0.000000,814.226536,8956.491898
2513.703710,-536.266849,444.123565,8734.430116
2513.704039,0.000000,-0.000000,9178.553681
2513.704369,612.876398,-962.267725,10362.883188
2513.704698,2145.067394,-740.205942,8512.368333
2513.705027,3907.087040,-222.061783,7698.141797
2513.705356,3830.477490,-0.000000,7402.059420
2513.705685,4060.306139,1554.432478,7254.018232
2513.706014,3830.477490,1850.514855,7476.080014
2513.706343,2987.772442,1554.432478,7328.038826
2513.706672,1838.629195,1184.329507,7994.224174
2513.707001,229.828649,296.082377,8586.388927
2513.707331,-1149.143247,-592.164754,9252.574275
2513.707660,-1838.629195,-2368.659014,10584.944971
2513.707989,-1685.410096,-2516.700203,10584.944971
2513.708318,-1532.190996,-2294.638420,9992.780217
2513.708647,-1838.629195,-1776.494261,10510.924376
2513.708976,-2145.067394,-740.205942,9622.677246
2513.709305,-1685.410096,-0.000000,9844.739029
2513.709634,-1378.971896,222.061783,9770.718434
2513.709963,-689.485948,962.267725,9696.697840
2513.710293,-995.924147,370.102971,9104.533087
2513.710622,229.828649,370.102971,8882.471304
2513.710951,-76.609550,-666.185348,9548.656652
2513.711280,0.000000,-1184.329507,9918.759623
2513.711609,1838.629195,-2072.576638,10066.800811
2513.711938,2221.676944,-222.061783,7624.121203
2513.712267,3370.820191,518.144159,7550.100608
2513.712596,3140.991542,1332.370696,6587.832884
2513.712925,3370.820191,1480.411884,7328.038826
2513.713255,3370.820191,1924.535449,7698.141797
2513.713584,1685.410096,2146.597232,7920.203579
2513.713913,-229.828649,-0.000000,8364.327145
2513.714242,-1302.362347,-740.205942,9548.656652
2513.714571,-1915.238745,-1702.473667,10288.862594
2513.714900,-2451.505594,-2368.659014,10140.821405
2513.715229,-1762.019645,-2294.638420,9696.697840
2513.715558,-1608.800546,-1776.494261,10436.903782
2513.715887,-2145.067394,-518.144159,9548.656652
2513.716217,-1608.800546,-0.000000,10066.800811
2513.716546,-1072.533697,-296.082377,9622.677246
2513.716875,0.000000,740.205942,9178.553681
2513.717204,76.609550,962.267725,8364.327145
2513.717533,-306.438199,-148.041188,8734.430116
2513.717862,842.705048,-1776.494261,10658.965565
2513.718191,2528.115143,-0.000000,9178.553681
2513.718520,3370.820191,296.082377,6587.832884
2513.718849,4136.915689,222.061783,6957.935855
2513.719179,3983.696590,1924.535449,6513.812290
2513.719508,3907.087040,2442.679609,7476.080014
2513.719837,2451.505594,1480.411884,7254.018232
2513.720166,1915.238745,814.226536,7254.018232
2513.720495,153.219100,-740.205942,9474.636058
2513.720824,-1838.629195,-1258.350101,9696.697840
2513.721153,-2528.115143,-2664.741391,11547.212695
2513.721482,-2298.286494,-2442.679609,9770.718434
2513.721811,-1532.190996,-2146.597232,10658.965565
2513.722141,-1608.800546,-1036.288319,10658.965565
2513.722470,-2221.676944,222.061783,10214.842000
2513.722799,-2834.553343,-592.164754,10732.986159
2513.723128,-1532.190996,-0.000000,9992.780217
2513.723457,-612.876398,1332.370696,9178.553681
2513.723786,-459.657299,962.267725,8660.409521
2513.724115,-383.047749,296.082377,8586.388927
2513.724444,0.000000,-666.185348,10288.862594
2513.724773,306.438199,-1628.453072,9474.636058
2513.725103,2145.067394,-1406.391290,8734.430116
2513.725432,2451.505594,-592.164754,7772.162391
2513.725761,3370.820191,814.226536,7402.059420
2513.726090,2757.943793,1406.391290,7105.977043
2513.726419,2987.772442,2146.597232,7698.141797
2513.726748,2145.067394,1036.288319,8216.285956
2513.727077,1455.581446,666.185348,7994.224174
2513.727406,0.000000,-222.061783,8734.430116
2513.727735,-1532.190996,-962.267725,9622.677246
2513.728065,-2221.676944,-1924.535449,10436.903782
2513.728394,-2298.286494,-2220.617826,10288.862594
2513.728723,-1762.019645,-1184.329507,9770.718434
2513.729052,-1762.019645,-740.205942,10066.800811
2513.729381,-1608.800546,-814.226536,9252.574275
2513.729710,-536.266849,-74.020594,9992.780217
2513.730039,-919.314598,-0.000000,9474.636058
2513.730368,0.000000,962.267725,8734.430116
2513.730697,0.000000,-148.041188,9844.739029
2513.731027,1532.190996,-814.226536,10510.924376
2513.731356,2528.115143,-74.020594,7698.141797
2513.731685,4749.792088,-0.000000,8142.265362
2513.732014,4519.963438,592.164754,6735.874072
2513.732343,4979.620737,1184.329507,7328.038826
2513.732672,3983.696590,1998.556043,7772.162391
2513.733001,2987.772442,2146.597232,7105.977043
2513.733330,1838.629195,296.082377,8660.409521
2513.733659,76.609550,-0.000000,9104.533087
2513.733989,-1302.362347,-1554.432478,9992.780217
2513.734318,-2221.676944,-2368.659014,10584.944971
2513.734647,-1915.238745,-3330.926739,10658.965565
2513.734976,-2145.067394,-2368.659014,10066.800811
2513.735305,-1915.238745,-1332.370696,10362.883188
2513.735634,-1991.848295,-444.123565,9696.697840
2513.735963,-1378.971896,-148.041188,10362.883188
2513.736292,-1072.533697,1480.411884,9770.718434
2513.736621,0.000000,1702.473667,8808.450710
2513.736951,-229.828649,814.226536,9104.533087
2513.737280,306.438199,-0.000000,9992.780217
2513.737609,2221.676944,222.061783,7994.224174
2513.737938,3447.429741,296.082377,7179.997637
2513.738267,4290.134789,-0.000000,7254.018232
2513.738596,3907.087040,814.226536,7624.121203
2513.738925,3983.696590,962.267725,7994.224174
2513.739254,2298.286494,888.247130,7328.038826
2513.739583,1608.800546,222.061783,8364.327145
2513.739913,-153.219100,-222.061783,8956.491898
2513.740242,-1455.581446,-592.164754,9104.533087
2513.740571,-2604.724693,-1998.556043,10362.883188
2513.740900,-2374.896044,-1776.494261,10584.944971
2513.741229,-2221.676944,-1480.411884,9918.759623
2513.741558,-1838.629195,-1480.411884,10584.944971
2513.741887,-2068.457845,-888.247130,9696.697840
2513.742216,-1455.581446,-1036.288319,10066.800811
2513.742545,-995.924147,-296.082377,9844.739029
2513.742875,-766.095498,370.102971,9474.636058
2513.743204,-766.095498,296.082377,9770.718434
2513.743533,-842.705048,370.102971,9622.677246
2513.743862,766.095498,-296.082377,9918.759623
2513.744191,1838.629195,-0.000000,7846.182985
2513.744520,3600.648841,296.082377,7476.080014
2513.744849,3907.087040,814.226536,7179.997637
2513.745178,3753.867940,1184.329507,7254.018232
2513.745507,2911.162892,666.185348,7920.203579
2513.745837,2451.505594,-0.000000,8142.265362
2513.746166,1532.190996,-0.000000,8734.430116
2513.746495,0.000000,-0.000000,8734.430116
2513.746824,-1225.752797,-1036.288319,9696.697840
2513.747153,-2145.067394,-1480.411884,10584.944971
2513.747482,-1838.629195,-1480.411884,10658.965565
2513.747811,-1455.581446,-1850.514855,10066.800811
2513.748140,-1915.238745,-740.205942,9622.677246
2513.748469,-1838.629195,-814.226536,9770.718434
2513.748799,-1685.410096,-370.102971,9844.739029
2513.749128,-995.924147,444.123565,9474.636058
2513.749457,-995.924147,518.144159,9474.636058
2513.749786,-612.876398,592.164754,8660.409521
2513.750115,-536.266849,-0.000000,9178.553681
2513.750444,306.438199,222.061783,8882.471304
2513.750773,1838.629195,-74.020594,8364.327145
2513.751102,3294.210641,370.102971,7550.100608
2513.751431,3524.039291,888.247130,7105.977043
2513.751761,3677.258390,1184.329507,7550.100608
2513.752090,3140.991542,444.123565,7920.203579
2513.752419,2834.553343,370.102971,7920.203579
2513.752748,1762.019645,518.144159,8660.409521
2513.753077,689.485948,-0.000000,9104.533087
2513.753406,-842.705048,-592.164754,9622.677246
2513.753735,-1532.190996,-1036.288319,10362.883188
2513.754064,-1838.629195,-1406.391290,10362.883188
2513.754393,-1685.410096,-1628.453072,10510.924376
2513.754723,-1915.238745,-1332.370696,9844.739029
2513.755052,-1455.581446,-1036.288319,10066.800811
2513.755381,-2145.067394,-1110.308913,10066.800811
2513.755710,-919.314598,-222.061783,9696.697840
2513.756039,-919.314598,-592.164754,9918.759623
2513.756368,-919.314598,-0.000000,9474.636058
2513.756697,76.609550,222.061783,9474.636058
2513.757026,1149.143247,814.226536,8216.285956
2513.757355,2451.505594,962.267725,7624.121203
2513.757685,3370.820191,-0.000000,7772.162391
2513.758014,3677.258390,592.164754,7698.141797
2513.758343,2681.334243,518.144159,7772.162391
2513.758672,2374.896044,296.082377,8216.285956
2513.759001,1532.190996,-0.000000,8660.409521
2513.759330,459.657299,-740.205942,9104.533087
2513.759659,-306.438199,-592.164754,9326.594869
2513.759988,-842.705048,-666.185348,9918.759623
2513.760317,-612.876398,-1258.350101,9474.636058
2513.760647,-1072.533697,-1258.350101,9548.656652
2513.760976,-1225.752797,-1036.288319,9474.636058
2513.761305,-1838.629195,-1184.329507,9178.553681
2513.761634,-1455.581446,-1110.308913,9474.636058
2513.761963,-1378.971896,-666.185348,9252.574275
2513.762292,-842.705048,-592.164754,9400.615463
2513.762621,-1455.581446,-370.102971,9326.594869
2513.762950,-612.876398,222.061783,9400.615463
2513.763279,0.000000,296.082377,9178.553681
2513.763609,689.485948,888.247130,8290.306550
2513.763938,1762.019645,962.267725,7994.224174
2513.764267,2451.505594,740.205942,8068.244768
2513.764596,3064.381992,666.185348,8216.285956
2513.764925,3524.039291,296.082377,7550.100608
2513.765254,2911.162892,592.164754,8660.409521
2513.765583,2145.067394,-0.000000,8586.388927
2513.765912,1608.800546,-0.000000,8956.491898
2513.766241,612.876398,-222.061783,9104.533087
2513.766571,459.657299,-296.082377,9474.636058
2513.766900,0.000000,-666.185348,9622.677246
2513.767229,-766.095498,-1184.329507,8882.471304
2513.767558,-919.314598,-962.267725,9992.780217
2513.767887,-1532.190996,-1184.329507,9992.780217
2513.768216,-1302.362347,-1036.288319,10066.800811
2513.768545,-1532.190996,-740.205942,9918.759623
2513.768874,-1378.971896,-370.102971,10066.800811
2513.769203,-612.876398,-148.041188,9770.718434
2513.769533,0.000000,296.082377,9770.718434
2513.769862,689.485948,592.164754,9474.636058
2513.770191,1608.800546,1258.350101,8586.388927
2513.770520,2374.896044,1406.391290,8216.285956
2513.770849,3064.381992,1110.308913,8142.265362
2513.771178,3370.820191,592.164754,8068.244768
2513.771507,2757.943793,370.102971,7846.182985
2513.771836,2987.772442,-296.082377,8290.306550
2513.772165,2374.896044,-222.061783,8512.368333
2513.772495,1378.971896,-296.082377,8660.409521
2513.772824,689.485948,-370.102971,9326.594869
2513.773153,229.828649,-74.020594,9400.615463
2513.773482,-689.485948,-222.061783,9400.615463
2513.773811,-766.095498,-888.247130,9474.636058
2513.774140,-1072.533697,-518.144159,10362.883188
2513.774469,-1991.848295,-1110.308913,9992.780217
2513.774798,-1685.410096,-1406.391290,9918.759623
2513.775127,-1838.629195,-1036.288319,9844.739029
2513.775457,-1685.410096,-814.226536,9770.718434
2513.775786,-1149.143247,-592.164754,9400.615463
2513.776115,-1072.533697,-296.082377,9548.656652
2513.776444,0.000000,444.123565,9548.656652
2513.776773,306.438199,148.041188,8438.347739
2513.777102,1302.362347,814.226536,8142.265362
2513.777431,1838.629195,888.247130,7698.141797
2513.777760,1838.629195,444.123565,7772.162391
2513.778089,2374.896044,-0.000000,8290.306550
2513.778419,2681.334243,-518.144159,8142.265362
2513.778748,1991.848295,-296.082377,8216.285956
2513.779077,1225.752797,-0.000000,9104.533087
2513.779406,689.485948,-296.082377,9104.533087
2513.779735,153.219100,-148.041188,9326.594869
2513.780064,-229.828649,-370.102971,9400.615463
2513.780393,-383.047749,-370.102971,9326.594869
2513.780722,-1302.362347,-666.185348,9474.636058
2513.781051,-1378.971896,-1036.288319,9844.739029
2513.781381,-1608.800546,-1332.370696,9696.697840
2513.781710,-2068.457845,-888.247130,9918.759623
2513.782039,-1762.019645,-1110.308913,9474.636058
2513.782368,-1149.143247,-592.164754,9400.615463
2513.782697,-689.485948,-222.061783,9474.636058
2513.783026,0.000000,-0.000000,8882.471304
2513.783355,919.314598,740.205942,9252.574275
2513.783684,1378.971896,1184.329507,8734.430116
2513.784013,2145.067394,962.267725,8142.265362
2513.784343,2681.334243,888.247130,8216.285956
2513.784672,3140.991542,518.144159,7920.203579
2513.785001,2987.772442,518.144159,8142.265362
2513.785330,2834.553343,296.082377,8364.327145
2513.785659,2374.896044,-0.000000,8586.388927
2513.785988,1608.800546,-74.020594,8882.471304
2513.786317,842.705048,-148.041188,8956.491898
2513.786646,-689.485948,-148.041188,9178.553681
2513.786975,-306.438199,-1036.288319,9400.615463
2513.787305,-1149.143247,-666.185348,9770.718434
2513.787634,-2298.286494,-1110.308913,10658.965565
2513.787963,-1685.410096,-2294.638420,10288.862594
2513.788292,-1991.848295,-1258.350101,10066.800811
2513.788621,-2298.286494,-1406.391290,9992.780217
2513.788950,-1072.533697,-296.082377,10066.800811
2513.789279,-995.924147,-592.164754,9770.718434
2513.789609,-459.657299,1184.329507,9400.615463
2513.789938,766.095498,592.164754,9696.697840
2513.790267,536.266849,1258.350101,8586.388927
2513.790596,2221.676944,666.185348,8290.306550
2513.790925,2528.115143,1184.329507,7920.203579
2513.791255,2757.943793,370.102971,7550.100608
2513.791584,2987.772442,444.123565,8216.285956
2513.791913,2298.286494,-0.000000,7994.224174
2513.792242,1608.800546,-74.020594,8438.347739
2513.792571,995.924147,-444.123565,8512.368333
2513.792901,919.314598,-518.144159,9178.553681
2513.793230,-306.438199,-518.144159,9400.615463
2513.793559,-842.705048,-666.185348,9326.594869
2513.793888,-919.314598,-814.226536,9104.533087
2513.794218,-1302.362347,-740.205942,9696.697840
2513.794547,-1378.971896,-814.226536,9400.615463
2513.794876,-1685.410096,-888.247130,9474.636058
2513.795205,-1608.800546,-1036.288319,9696.697840
2513.795534,-842.705048,-888.247130,9548.656652
2513.795864,-459.657299,-222.061783,8808.450710
2513.796193,0.000000,-0.000000,9104.533087
2513.796522,459.657299,-0.000000,8660.409521
2513.796851,689.485948,888.247130,8216.285956
2513.797180,1838.629195,888.247130,8068.244768
2513.797510,2374.896044,222.061783,8142.265362
2513.797839,2145.067394,518.144159,8290.306550
2513.798168,2451.505594,-74.020594,8216.285956
2513.798497,2681.334243,-296.082377,8512.368333
2513.798826,2145.067394,-444.123565,8512.368333
2513.799156,1608.800546,-222.061783,8734.430116
2513.799485,766.095498,-148.041188,9030.512492
2513.799814,459.657299,-74.020594,9400.615463
2513.800143,-383.047749,-740.205942,9474.636058
2513.800473,-383.047749,-888.247130,9696.697840
2513.800802,-1149.143247,-1406.391290,9622.677246
2513.801131,-1608.800546,-1184.329507,9696.697840
2513.801460,-1762.019645,-1480.411884,10066.800811
2513.801789,-1762.019645,-962.267725,10140.821405
2513.802119,-1225.752797,-1036.288319,10066.800811
2513.802448,-842.705048,-592.164754,9696.697840
2513.802777,0.000000,-0.000000,9400.615463
2513.803106,229.828649,740.205942,9104.533087
2513.803435,1149.143247,1406.391290,8364.327145
2513.803765,1455.581446,1258.350101,7994.224174
2513.804094,2068.457845,1258.350101,7920.203579
2513.804423,2911.162892,518.144159,7550.100608
2513.804752,2374.896044,370.102971,8142.265362
2513.805082,2298.286494,444.123565,8512.368333
2513.805411,1838.629195,-0.000000,8808.450710
2513.805740,1302.362347,-666.185348,8882.471304
2513.806069,766.095498,-518.144159,8734.430116
2513.806398,383.047749,-74.020594,9696.697840
2513.806728,76.609550,-888.247130,9104.533087
2513.807057,-689.485948,-0.000000,9696.697840
2513.807386,-995.924147,-1258.350101,10066.800811
2513.807715,-1378.971896,-666.185348,9474.636058
2513.808044,-1762.019645,-1110.308913,10140.821405
2513.808374,-1608.800546,-962.267725,9770.718434
2513.808703,-1762.019645,-888.247130,9918.759623
2513.809032,-995.924147,-888.247130,9844.739029
2513.809361,-612.876398,-666.185348,9474.636058
2513.809691,0.000000,-0.000000,9548.656652
2513.810020,612.876398,592.164754,8882.471304
2513.810349,1532.190996,1184.329507,8216.285956
2513.810678,2068.457845,1184.329507,7698.141797
2513.811007,2528.115143,740.205942,8290.306550
2513.811337,2374.896044,-0.000000,8586.388927
2513.811666,2374.896044,222.061783,8216.285956
2513.811995,1915.238745,-74.020594,9178.553681
2513.812324,995.924147,-518.144159,8956.491898
2513.812653,766.095498,-222.061783,9178.553681
2513.812983,0.000000,-518.144159,9326.594869
2513.813312,0.000000,-518.144159,9400.615463
2513.813641,-995.924147,-814.226536,9474.636058
2513.813970,-766.095498,-444.123565,9696.697840
2513.814299,-766.095498,-1332.370696,9844.739029
2513.814629,-1762.019645,-1184.329507,10066.800811
2513.814958,-1838.629195,-1110.308913,9474.636058
2513.815287,-1532.190996,-1036.288319,9918.759623
2513.815616,-1149.143247,-518.144159,9400.615463
2513.815946,-536.266849,-148.041188,9252.574275
2513.816275,1149.143247,666.185348,9178.553681
2513.816604,995.924147,1406.391290,8586.388927
2513.816933,2068.457845,1702.473667,7772.162391
2513.817262,2298.286494,1850.514855,7698.141797
2513.817592,2681.334243,1406.391290,8142.265362
2513.817921,2911.162892,740.205942,7624.121203
2513.818250,2911.162892,-0.000000,8438.347739
2513.818579,1915.238745,-0.000000,8142.265362
2513.818908,1608.800546,-888.247130,8512.368333
2513.819238,919.314598,-1258.350101,9326.594869
2513.819567,76.609550,-518.144159,9252.574275
2513.819896,-229.828649,-592.164754,9548.656652
2513.820225,-1072.533697,-296.082377,9696.697840
2513.820555,-1378.971896,-444.123565,9474.636058
2513.820884,-1608.800546,-1184.329507,10066.800811
2513.821213,-1532.190996,-888.247130,9992.780217
2513.821542,-1378.971896,-1554.432478,10362.883188
2513.821871,-1455.581446,-1036.288319,10066.800811
2513.822201,-995.924147,-740.205942,9992.780217
2513.822530,-383.047749,-296.082377,9474.636058
2513.822859,-153.219100,518.144159,9252.574275
2513.823188,536.266849,1184.329507,9104.533087
2513.823517,1455.581446,1480.411884,8882.471304
2513.823847,1915.238745,1258.350101,8142.265362
2513.824176,1991.848295,814.226536,8142.265362
2513.824505,2145.067394,222.061783,8438.347739
2513.824834,1991.848295,-148.041188,8586.388927
2513.825164,1532.190996,-740.205942,8660.409521
2513.825493,612.876398,-888.247130,8882.471304
2513.825822,1149.143247,-814.226536,9178.553681
2513.826151,766.095498,-592.164754,9474.636058
2513.826480,0.000000,-296.082377,8808.450710
2513.826810,-229.828649,-370.102971,9474.636058
2513.827139,-766.095498,-444.123565,9326.594869
2513.827468,-1149.143247,-444.123565,9400.615463
2513.827797,-1455.581446,-814.226536,9622.677246
2513.828126,-1149.143247,-1110.308913,9696.697840
2513.828456,-1378.971896,-1036.288319,9474.636058
2513.828785,-1455.581446,-888.247130,9400.615463
2513.829114,-766.095498,-518.144159,8956.491898
2513.829443,-153.219100,-0.000000,8882.471304
2513.829773,229.828649,-0.000000,8290.306550
2513.830102,766.095498,666.185348,8586.388927
2513.830431,1225.752797,592.164754,7920.203579
2513.830760,1608.800546,444.123565,7994.224174
2513.831089,2298.286494,222.061783,7920.203579
2513.831419,2221.676944,148.041188,8216.285956
2513.831748,2145.067394,-222.061783,8364.327145
2513.832077,1838.629195,-296.082377,8882.471304
2513.832406,459.657299,-148.041188,9178.553681
2513.832735,1532.190996,-222.061783,9178.553681
2513.833065,612.876398,-74.020594,9474.636058
2513.833394,0.000000,-518.144159,9474.636058
2513.833723,-612.876398,-666.185348,9474.636058
2513.834052,-995.924147,-888.247130,9844.739029
2513.834381,-1302.362347,-1110.308913,9770.718434
2513.834711,-1685.410096,-1332.370696,10140.821405
2513.835040,-1149.143247,-1036.288319,10066.800811
2513.835369,-995.924147,-1332.370696,10066.800811
2513.835698,-766.095498,-518.144159,9770.718434
2513.836028,0.000000,-0.000000,8956.491898
2513.836357,766.095498,666.185348,9252.574275
2513.836686,1149.143247,1036.288319,8586.388927
2513.837015,1991.848295,1258.350101,8142.265362
2513.837344,2757.943793,1480.411884,8364.327145
2513.837674,2681.334243,1110.308913,8142.265362
2513.838003,2911.162892,518.144159,7994.224174
2513.838332,2451.505594,148.041188,8216.285956
2513.838661,2068.457845,-518.144159,8660.409521
2513.838990,1378.971896,-444.123565,8956.491898
2513.839320,842.705048,-666.185348,9400.615463
2513.839649,153.219100,-888.247130,9326.594869
2513.839978,-153.219100,-592.164754,9474.636058
2513.840307,-689.485948,-74.020594,10066.800811
2513.840637,-1762.019645,-888.247130,9844.739029
2513.840966,-1302.362347,-740.205942,9918.759623
2513.841295,-1685.410096,-1036.288319,9696.697840
2513.841624,-1762.019645,-1036.288319,9918.759623
2513.841953,-1608.800546,-1110.308913,9474.636058
2513.842283,-1302.362347,-444.123565,9696.697840
2513.842612,-383.047749,-740.205942,9326.594869
2513.842941,76.609550,222.061783,9178.553681
2513.843270,536.266849,888.247130,8734.430116
2513.843599,1072.533697,1036.288319,8290.306550
2513.843929,1302.362347,888.247130,7994.224174
2513.844258,1991.848295,370.102971,8364.327145
2513.844587,2451.505594,-0.000000,8290.306550
2513.844916,2145.067394,-592.164754,8438.347739
2513.845246,1532.190996,-444.123565,8808.450710
2513.845575,1149.143247,-592.164754,8956.491898
2513.845904,689.485948,-444.123565,9252.574275
2513.846233,383.047749,-518.144159,9548.656652
2513.846562,229.828649,-222.061783,9178.553681
2513.846892,-153.219100,-0.000000,9400.615463
2513.847221,-766.095498,-74.020594,9400.615463
2513.847550,-1149.143247,-0.000000,9918.759623
2513.847879,-1302.362347,-666.185348,9548.656652
2513.848208,-1225.752797,-814.226536,9474.636058
2513.848538,-1302.362347,-814.226536,9696.697840
2513.848867,-1225.752797,-814.226536,9474.636058
2513.849196,0.000000,-370.102971,9252.574275
2513.849525,459.657299,-74.020594,9104.533087
2513.849854,-306.438199,962.267725,8512.368333
2513.850184,1149.143247,1258.350101,8290.306550
2513.850513,2145.067394,1480.411884,8290.306550
2513.850842,2604.724693,1110.308913,7698.141797
2513.851171,2528.115143,518.144159,8068.244768
2513.851501,3370.820191,-74.020594,8290.306550
2513.851830,2528.115143,-74.020594,8364.327145
2513.852159,1991.848295,-0.000000,8734.430116
2513.852488,1608.800546,-444.123565,8808.450710
2513.852817,612.876398,-222.061783,9178.553681
2513.853147,153.219100,-444.123565,9178.553681
2513.853476,-536.266849,-518.144159,9548.656652
2513.853805,-919.314598,-888.247130,9918.759623
2513.854134,-1838.629195,-1184.329507,9844.739029
2513.854463,-1455.581446,-1702.473667,9992.780217
2513.854793,-2068.457845,-1184.329507,9770.718434
2513.855122,-1838.629195,-1110.308913,10066.800811
2513.855451,-1608.800546,-1110.308913,9844.739029
2513.855780,-1149.143247,-518.144159,9696.697840
2513.856110,-1149.143247,-444.123565,9548.656652
2513.856439,-612.876398,296.082377,8956.491898
2513.856768,1149.143247,1036.288319,8882.471304
2513.857097,1072.533697,1036.288319,8290.306550
2513.857426,1685.410096,1110.308913,7994.224174
2513.857756,2451.505594,518.144159,8142.265362
2513.858085,2374.896044,222.061783,8216.285956
2513.858414,2604.724693,-370.102971,8364.327145
2513.858743,2068.457845,-444.123565,7698.141797
2513.859072,1532.190996,-592.164754,8660.409521
2513.859402,1149.143247,-296.082377,8956.491898
2513.859731,689.485948,-370.102971,8956.491898
2513.860060,0.000000,-0.000000,8882.471304
2513.860389,-459.657299,-222.061783,9252.574275
2513.860719,-1378.971896,-814.226536,9326.594869
2513.861048,-1225.752797,-1036.288319,9696.697840
2513.861377,-1532.190996,-1110.308913,9548.656652
2513.861706,-1685.410096,-1184.329507,9474.636058
2513.862035,-1532.190996,-1110.308913,9548.656652
2513.862365,-1149.143247,-888.247130,9400.615463
2513.862694,-766.095498,-740.205942,9474.636058
2513.863023,-229.828649,-0.000000,9104.533087
2513.863352,1532.190996,222.061783,8808.450710
2513.863681,1685.410096,962.267725,8290.306550
2513.864011,2451.505594,1110.308913,8142.265362
2513.864340,2911.162892,1036.288319,8216.285956
2513.864669,3217.601092,666.185348,7920.203579
2513.864998,3370.820191,518.144159,8216.285956
2513.865327,3140.991542,-0.000000,7920.203579
2513.865657,2528.115143,592.164754,8734.430116
2513.865986,1608.800546,-370.102971,9104.533087
2513.866315,1072.533697,-222.061783,9474.636058
2513.866644,-229.828649,-962.267725,9548.656652
2513.866974,-919.314598,-962.267725,9622.677246
2513.867303,-1378.971896,-1258.350101,9918.759623
2513.867632,-1608.800546,-1628.453072,10140.821405
2513.867961,-1838.629195,-1258.350101,10362.883188
2513.868290,-1915.238745,-1628.453072,10436.903782
2513.868620,-1378.971896,-1480.411884,9622.677246
2513.868949,-1149.143247,-444.123565,9696.697840
2513.869278,-612.876398,-0.000000,9474.636058
2513.869607,0.000000,666.185348,9030.512492
2513.869936,766.095498,1258.350101,8882.471304
2513.870266,1991.848295,1554.432478,7328.038826
2513.870595,1685.410096,1110.308913,7920.203579
2513.870924,3217.601092,370.102971,8290.306550
2513.871253,2451.505594,1258.350101,7328.038826
2513.871583,2145.067394,-444.123565,8660.409521
2513.871912,2068.457845,-222.061783,8364.327145
2513.872241,1608.800546,222.061783,9770.718434
2513.872570,995.924147,-962.267725,9326.594869
2513.872899,1225.752797,-222.061783,9400.615463
2513.873229,0.000000,-296.082377,9622.677246
2513.873558,0.000000,444.123565,9474.636058
2513.873887,-306.438199,-370.102971,9622.677246
2513.874216,-1225.752797,-0.000000,9252.574275
2513.874545,-612.876398,-666.185348,9622.677246
2513.874875,-995.924147,-1258.350101,9844.739029
2513.875204,-1685.410096,-666.185348,9548.656652
2513.875533,-1072.533697,-962.267725,9696.697840
2513.875862,-842.705048,-888.247130,9474.636058
2513.876192,-536.266849,-370.102971,9252.574275
2513.876521,0.000000,-0.000000,9104.533087
2513.876850,766.095498,518.144159,9030.512492
2513.877179,1225.752797,740.205942,8734.430116
2513.877508,2528.115143,370.102971,7920.203579
2513.877838,2681.334243,-0.000000,8290.306550
2513.878167,2451.505594,-0.000000,8290.306550
2513.878496,2757.943793,-0.000000,8068.244768
2513.878825,1915.238745,-222.061783,8290.306550
2513.879154,1608.800546,148.041188,8734.430116
2513.879484,1225.752797,-0.000000,9030.512492
2513.879813,306.438199,-74.020594,8734.430116
2513.880142,-383.047749,-814.226536,9178.553681
2513.880471,-1149.143247,-888.247130,9474.636058
2513.880801,-1991.848295,-1110.308913,9622.677246
2513.881130,-2068.457845,-1332.370696,9844.739029
2513.881459,-2068.457845,-1332.370696,9474.636058
2513.881788,-1838.629195,-1406.391290,9844.739029
2513.882117,-1685.410096,-1184.329507,9548.656652
2513.882447,-1072.533697,-370.102971,9326.594869
2513.882776,-1149.143247,-0.000000,8956.491898
2513.883105,-459.657299,962.267725,8734.430116
2513.883434,-306.438199,888.247130,8956.491898
2513.883763,0.000000,1110.308913,8956.491898
2513.884093,1378.971896,518.144159,8290.306550
2513.884422,2068.457845,518.144159,8142.265362
2513.884751,2757.943793,-0.000000,7402.059420
2513.885080,2987.772442,-0.000000,7920.203579
2513.885409,2757.943793,-0.000000,8290.306550
2513.885739,2528.115143,222.061783,8068.244768
2513.886068,1838.629195,-74.020594,9178.553681
2513.886397,1072.533697,-222.061783,9104.533087
2513.886726,229.828649,-296.082377,9474.636058
2513.887056,-536.266849,-148.041188,9844.739029
2513.887385,-1532.190996,-740.205942,10066.800811
2513.887714,-2068.457845,-1184.329507,10436.903782
2513.888043,-2221.676944,-1332.370696,10510.924376
2513.888372,-2298.286494,-1480.411884,10288.862594
2513.888702,-2068.457845,-1406.391290,9992.780217
2513.889031,-1149.143247,-518.144159,9844.739029
2513.889360,-229.828649,-148.041188,9474.636058
2513.889690,306.438199,888.247130,8882.471304
2513.890019,1072.533697,740.205942,8364.327145
2513.890348,1991.848295,1332.370696,7920.203579
2513.890677,2757.943793,1184.329507,7994.224174
2513.891007,2834.553343,814.226536,8068.244768
2513.891336,2757.943793,296.082377,8512.368333
2513.891665,2298.286494,-222.061783,8956.491898
2513.891994,1685.410096,-0.000000,8734.430116
2513.892324,1225.752797,-518.144159,9252.574275
2513.892653,1149.143247,-0.000000,9770.718434
2513.892982,383.047749,-740.205942,9400.615463
2513.893311,-383.047749,-296.082377,9474.636058
2513.893641,-689.485948,-518.144159,9252.574275
2513.893970,-1685.410096,-444.123565,9474.636058
2513.894299,-1608.800546,-666.185348,9326.594869
2513.894628,-2068.457845,-962.267725,9326.594869
2513.894958,-2145.067394,-1258.350101,9474.636058
2513.895287,-1608.800546,-1480.411884,9474.636058
2513.895616,-1455.581446,-740.205942,9696.697840
2513.895945,-995.924147,-444.123565,8956.491898
2513.896275,-383.047749,-0.000000,9696.697840
2513.896604,229.828649,518.144159,8882.471304
2513.896933,842.705048,1406.391290,8586.388927
2513.897263,1685.410096,888.247130,8882.471304
2513.897592,2451.505594,296.082377,7920.203579
2513.897921,3217.601092,444.123565,8068.244768
2513.898250,2681.334243,296.082377,7994.224174
2513.898580,3140.991542,-370.102971,8142.265362
2513.898909,2528.115143,-222.061783,8290.306550
2513.899238,2145.067394,-74.020594,8364.327145
2513.899567,1225.752797,-222.061783,8882.471304
2513.899897,995.924147,-444.123565,9474.636058
2513.900226,0.000000,-666.185348,9548.656652
2513.900555,-689.485948,-888.247130,10362.883188
2513.900884,-1455.581446,-888.247130,10066.800811
2513.901214,-1915.238745,-1702.473667,9992.780217
2513.901543,-1685.410096,-1480.411884,10362.883188
2513.901872,-1685.410096,-962.267725,9992.780217
2513.902201,-1072.533697,-962.267725,10288.862594
2513.902531,-306.438199,-518.144159,10140.821405
2513.902860,995.924147,222.061783,9178.553681
2513.903189,1608.800546,1258.350101,8364.327145
2513.903518,2068.457845,1776.494261,7994.224174
2513.903848,2451.505594,1702.473667,7698.141797
2513.904177,2987.772442,1406.391290,7772.162391
2513.904506,3830.477490,444.123565,7698.141797
2513.904835,2911.162892,-0.000000,8364.327145
2513.905165,2681.334243,-592.164754,8216.285956
2513.905494,1302.362347,-444.123565,8882.471304
2513.905823,536.266849,-814.226536,9400.615463
2513.906153,229.828649,-666.185348,9770.718434
2513.906482,-383.047749,-444.123565,9622.677246
2513.906811,-766.095498,-518.144159,9770.718434
2513.907140,-689.485948,-740.205942,9474.636058
2513.907470,-1608.800546,-370.102971,9104.533087
2513.907799,-1225.752797,-888.247130,9548.656652
2513.908128,-1608.800546,-1036.288319,9474.636058
2513.908457,-1532.190996,-1406.391290,9548.656652
2513.908787,-1378.971896,-1184.329507,9474.636058
2513.909116,-995.924147,-888.247130,9400.615463
2513.909445,-842.705048,-518.144159,8956.491898
2513.909774,0.000000,-0.000000,8956.491898
2513.910104,842.705048,888.247130,8512.368333
2513.910433,919.314598,1184.329507,8216.285956
2513.910762,1302.362347,1110.308913,8290.306550
2513.911091,1685.410096,518.144159,8142.265362
2513.911421,1838.629195,-0.000000,9030.512492
2513.911750,1838.629195,-888.247130,9178.553681
2513.912079,1455.581446,-666.185348,9474.636058
2513.912408,1072.533697,-592.164754,9474.636058
2513.912738,919.314598,-370.102971,9104.533087
2513.913067,536.266849,-74.020594,9252.574275
2513.913396,153.219100,-148.041188,8956.491898
2513.913725,-153.219100,-296.082377,9030.512492
2513.914055,-689.485948,-518.144159,9474.636058
2513.914384,-1149.143247,-370.102971,9770.718434
2513.914713,-1838.629195,-814.226536,9622.677246
2513.915043,-1608.800546,-1110.308913,9844.739029
2513.915372,-1302.362347,-1110.308913,9844.739029
2513.915701,-1072.533697,-592.164754,9474.636058
2513.916030,-229.828649,-296.082377,9548.656652
2513.916360,612.876398,814.226536,8808.450710
2513.916689,842.705048,1036.288319,8512.368333
2513.917018,1608.800546,1628.453072,8438.347739
2513.917347,2451.505594,1406.391290,7920.203579
2513.917677,2528.115143,1036.288319,8142.265362
2513.918006,2987.772442,962.267725,8290.306550
2513.918335,3064.381992,-0.000000,8216.285956
2513.918664,2145.067394,-592.164754,8364.327145
2513.918994,1838.629195,-444.123565,8882.471304
2513.919323,1378.971896,-444.123565,9400.615463
2513.919652,306.438199,-814.226536,9030.512492
2513.919981,-306.438199,-370.102971,9548.656652
2513.920311,-919.314598,-666.185348,9844.739029
2513.920640,-1378.971896,-814.226536,10140.821405
2513.920969,-1455.581446,-1184.329507,9992.780217
2513.921298,-1608.800546,-1332.370696,10214.842000
2513.921628,-1685.410096,-1554.432478,9178.553681
2513.921957,-1455.581446,-740.205942,9696.697840
2513.922286,-1072.533697,-370.102971,9770.718434
2513.922616,-383.047749,-0.000000,9400.615463
2513.922945,0.000000,740.205942,9104.533087
2513.923274,459.657299,1258.350101,8882.471304
2513.923603,306.438199,1406.391290,8512.368333
2513.923933,1149.143247,1184.329507,7994.224174
2513.924262,1532.190996,518.144159,8512.368333
2513.924591,1991.848295,-0.000000,8734.430116
2513.924920,1455.581446,-814.226536,8586.388927
2513.925250,842.705048,-1184.329507,8660.409521
2513.925579,1149.143247,-962.267725,8956.491898
2513.925908,919.314598,-1036.288319,8956.491898
2513.926237,842.705048,148.041188,9030.512492
2513.926567,919.314598,-0.000000,8956.491898
2513.926896,0.000000,-0.000000,9104.533087
2513.927225,76.609550,518.144159,9326.594869
2513.927554,-536.266849,-222.061783,9252.574275
2513.927884,-1378.971896,-222.061783,9178.553681
2513.928213,-1072.533697,-1036.288319,9548.656652
2513.928542,-1072.533697,-0.000000,9844.739029
2513.928871,-919.314598,-1036.288319,9622.677246
2513.929201,-842.705048,-1036.288319,9104.533087
2513.929530,-612.876398,-222.061783,9326.594869
2513.929859,-229.828649,-0.000000,8956.491898
2513.930188,459.657299,444.123565,8660.409521
2513.930518,1838.629195,666.185348,8660.409521
2513.930847,2374.896044,222.061783,8660.409521
2513.931176,3064.381992,222.061783,7920.203579
2513.931506,3370.820191,222.061783,8290.306550
2513.931835,3140.991542,148.041188,7846.182985
2513.932164,2528.115143,518.144159,8364.327145
2513.932493,2068.457845,370.102971,8734.430116
2513.932823,1302.362347,-0.000000,9474.636058
2513.933152,1149.143247,-148.041188,9474.636058
2513.933481,0.000000,-222.061783,9622.677246
2513.933810,-689.485948,-518.144159,9992.780217
2513.934140,-1838.629195,-1036.288319,10140.821405
2513.934469,-2298.286494,-1480.411884,10436.903782
2513.934798,-2145.067394,-1702.473667,10362.883188
2513.935127,-1838.629195,-1850.514855,10140.821405
2513.935457,-2068.457845,-1332.370696,9992.780217
2513.935786,-766.095498,-888.247130,9770.718434
2513.936115,-1149.143247,-0.000000,9474.636058
2513.936444,-76.609550,666.185348,9326.594869
2513.936774,153.219100,1332.370696,8956.491898
2513.937103,1685.410096,1406.391290,8290.306550
2513.937432,2374.896044,1258.350101,7920.203579
2513.937761,2528.115143,444.123565,7846.182985
2513.938091,2757.943793,-0.000000,8438.347739
2513.938420,2681.334243,-0.000000,7846.182985
2513.938749,2298.286494,-74.020594,7994.224174
2513.939078,1991.848295,-0.000000,8438.347739
2513.939408,1302.362347,-296.082377,8438.347739
2513.939737,766.095498,-296.082377,9178.553681
2513.940066,229.828649,-740.205942,9326.594869
2513.940396,0.000000,-814.226536,8512.368333
2513.940725,-1149.143247,-962.267725,9400.615463
2513.941054,-2068.457845,-888.247130,9622.677246
2513.941383,-2221.676944,-1258.350101,10140.821405
2513.941713,-1991.848295,-1480.411884,9918.759623
2513.942042,-1608.800546,-962.267725,9844.739029
2513.942371,-1455.581446,-962.267725,9844.739029
2513.942700,-536.266849,-370.102971,9696.697840
2513.943030,76.609550,-0.000000,9400.615463
2513.943359,842.705048,814.226536,8734.430116
2513.943688,1838.629195,1036.288319,8068.244768
2513.944017,2528.115143,1184.329507,7994.224174
2513.944347,3140.991542,962.267725,8216.285956
2513.944676,2451.505594,518.144159,7994.224174
2513.945005,3370.820191,296.082377,7994.224174
2513.945334,2451.505594,-0.000000,8512.368333
2513.945664,1378.971896,-0.000000,8808.450710
2513.945993,842.705048,-74.020594,9252.574275
2513.946322,0.000000,-518.144159,9400.615463
2513.946651,0.000000,-962.267725,9474.636058
2513.946981,-919.314598,-666.185348,9918.759623
2513.947310,-1532.190996,-814.226536,9770.718434
2513.947639,-2068.457845,-1110.308913,9918.759623
2513.947969,-1915.238745,-1332.370696,9770.718434
2513.948298,-1685.410096,-1258.350101,9400.615463
2513.948627,-1532.190996,-1554.432478,9770.718434
2513.948956,-995.924147,-740.205942,9474.636058
2513.949286,612.876398,-148.041188,9548.656652
2513.949615,229.828649,592.164754,9104.533087
2513.949944,766.095498,1406.391290,8216.285956
2513.950273,1378.971896,1702.473667,8364.327145
2513.950603,1838.629195,1554.432478,7772.162391
2513.950932,1915.238745,1480.411884,8142.265362
2513.951261,1915.238745,-0.000000,8216.285956
2513.951590,2374.896044,-370.102971,8216.285956
2513.951920,1608.800546,148.041188,9104.533087
2513.952249,919.314598,-888.247130,9030.512492
2513.952578,1072.533697,-592.164754,9030.512492
2513.952907,766.095498,-740.205942,9400.615463
2513.953237,306.438199,-296.082377,9030.512492
2513.953566,-153.219100,-370.102971,9326.594869
2513.953895,-689.485948,-814.226536,9326.594869
2513.954224,-1991.848295,-518.144159,9326.594869
2513.954554,-1455.581446,-814.226536,9918.759623
2513.954883,-1991.848295,-1258.350101,9548.656652
2513.955212,-1302.362347,-1258.350101,9992.780217
2513.955541,-1149.143247,-1184.329507,10214.842000
2513.955871,-1072.533697,-962.267725,9622.677246
2513.956200,0.000000,-0.000000,9474.636058
2513.956529,612.876398,222.061783,8882.471304
2513.956859,919.314598,1184.329507,8660.409521
2513.957188,2068.457845,1480.411884,8364.327145
2513.957517,2451.505594,1110.308913,8068.244768
2513.957846,2834.553343,666.185348,8290.306550
2513.958176,2987.772442,370.102971,8364.327145
2513.958505,2451.505594,-296.082377,8068.244768
2513.958834,1838.629195,-148.041188,8956.491898
2513.959163,1455.581446,-74.020594,8586.388927
2513.959493,689.485948,-74.020594,8586.388927
2513.959822,0.000000,-74.020594,9326.594869
2513.960151,-153.219100,-370.102971,9104.533087
2513.960480,-1072.533697,-814.226536,9178.553681
2513.960810,-1149.143247,-1332.370696,9474.636058
2513.961139,-1915.238745,-1258.350101,9252.574275
2513.961468,-2374.896044,-1628.453072,9696.697840
2513.961797,-1915.238745,-1184.329507,9770.718434
2513.962127,-1532.190996,-814.226536,9696.697840
2513.962456,-1455.581446,-592.164754,9474.636058
2513.962785,-459.657299,-296.082377,9252.574275
2513.963114,0.000000,222.061783,9252.574275
2513.963444,229.828649,1110.308913,8734.430116
2513.963773,919.314598,1110.308913,8438.347739
2513.964102,1762.019645,1184.329507,8142.265362
2513.964431,2298.286494,444.123565,7994.224174
2513.964761,2374.896044,222.061783,8142.265362
2513.965090,2451.505594,-444.123565,8216.285956
2513.965419,2528.115143,-444.123565,8290.306550
2513.965749,1915.238745,-296.082377,8734.430116
2513.966078,1532.190996,-666.185348,8808.450710
2513.966407,842.705048,-0.000000,9474.636058
2513.966736,0.000000,-444.123565,10066.800811
2513.967066,-689.485948,-666.185348,9622.677246
2513.967395,-1225.752797,-518.144159,9844.739029
2513.967724,-1685.410096,-1036.288319,10066.800811
2513.968053,-1762.019645,-1110.308913,10066.800811
2513.968383,-1378.971896,-1184.329507,10436.903782
2513.968712,-1302.362347,-1332.370696,9696.697840
2513.969041,-229.828649,-592.164754,9696.697840
2513.969370,0.000000,-74.020594,8882.471304
2513.969700,842.705048,592.164754,8882.471304
2513.970029,1685.410096,962.267725,8364.327145
2513.970358,2298.286494,1258.350101,7994.224174
2513.970687,3064.381992,1184.329507,7994.224174
2513.971017,3447.429741,1184.329507,7994.224174
2513.971346,2987.772442,740.205942,8290.306550
2513.971675,2911.162892,-0.000000,8438.347739
2513.972004,2145.067394,-74.020594,8808.450710
2513.972334,1532.190996,-148.041188,9104.533087
2513.972663,1149.143247,-370.102971,9400.615463
2513.972992,306.438199,-0.000000,9400.615463
2513.973321,-153.219100,-0.000000,9548.656652
2513.973651,-536.266849,-518.144159,9622.677246
2513.973980,-1225.752797,-888.247130,9474.636058
2513.974309,-1685.410096,-740.205942,9474.636058
2513.974639,-1762.019645,-1406.391290,9474.636058
2513.974968,-2145.067394,-1258.350101,10066.800811
2513.975297,-2068.457845,-1702.473667,9844.739029
2513.975626,-995.924147,-1554.432478,9770.718434
2513.975956,-919.314598,-740.205942,9696.697840
2513.976285,-689.485948,222.061783,9252.574275
2513.976614,229.828649,814.226536,9178.553681
2513.976943,689.485948,1110.308913,8512.368333
2513.977273,1072.533697,1554.432478,8290.306550
2513.977602,1991.848295,592.164754,8512.368333
2513.977931,1915.238745,370.102971,7994.224174
2513.978260,1608.800546,-0.000000,8290.306550
2513.978590,1762.019645,-296.082377,8438.347739
2513.978919,1455.581446,-814.226536,8734.430116
2513.979248,1149.143247,-444.123565,8808.450710
2513.979577,612.876398,-666.185348,9252.574275
2513.979907,-306.438199,-740.205942,9326.594869
2513.980236,-306.438199,-888.247130,9474.636058
2513.980565,-1378.971896,-666.185348,9622.677246
2513.980894,-1532.190996,-666.185348,10066.800811
2513.981224,-1455.581446,-666.185348,9770.718434
2513.981553,-1378.971896,-592.164754,9770.718434
2513.981882,-919.314598,-592.164754,9696.697840
2513.982212,-306.438199,-592.164754,9178.553681
2513.982541,612.876398,-0.000000,9326.594869
2513.982870,536.266849,814.226536,9104.533087
2513.983199,1378.971896,1036.288319,8290.306550
2513.983529,1762.019645,1628.453072,7994.224174
2513.983858,2145.067394,1258.350101,7624.121203
2513.984187,2298.286494,740.205942,7846.182985
2513.984516,2451.505594,296.082377,8216.285956
2513.984846,2451.505594,-222.061783,8290.306550
2513.985175,2145.067394,-370.102971,9474.636058
2513.985504,1225.752797,-666.185348,9400.615463
2513.985833,1149.143247,-518.144159,9400.615463
2513.986163,689.485948,-296.082377,9696.697840
2513.986492,306.438199,296.082377,9474.636058
2513.986821,229.828649,-74.020594,9474.636058
2513.987150,0.000000,296.082377,9474.636058
2513.987480,-766.095498,-222.061783,9474.636058
2513.987809,-1149.143247,-592.164754,9918.759623
2513.988138,-1149.143247,-888.247130,9696.697840
2513.988467,-1838.629195,-1258.350101,9696.697840
2513.988797,-1685.410096,-1406.391290,9622.677246
2513.989126,-1149.143247,-888.247130,9992.780217
2513.989455,-689.485948,-222.061783,9474.636058
2513.989784,-842.705048,-0.000000,9548.656652
2513.990114,-153.219100,814.226536,9030.512492
2513.990443,919.314598,1406.391290,8512.368333
2513.990772,1149.143247,1258.350101,8142.265362
2513.991101,1838.629195,666.185348,8216.285956
2513.991431,2298.286494,-0.000000,8438.347739
2513.991760,2374.896044,222.061783,8512.368333
2513.992089,2221.676944,-148.041188,8438.347739
2513.992418,1838.629195,-370.102971,7994.224174
2513.992747,1225.752797,-148.041188,8364.327145
2513.993077,612.876398,-222.061783,9030.512492
2513.993406,76.609550,-444.123565,8882.471304
2513.993735,-842.705048,-592.164754,9326.594869
2513.994064,-1455.581446,-1554.432478,9548.656652
2513.994394,-1685.410096,-1332.370696,9474.636058
2513.994723,-1838.629195,-1554.432478,9992.780217
2513.995052,-1915.238745,-1480.411884,9696.697840
2513.995381,-1838.629195,-1110.308913,9770.718434
2513.995710,-1225.752797,-740.205942,9474.636058
2513.996040,-612.876398,148.041188,9474.636058
2513.996369,536.266849,-0.000000,9104.533087
2513.996698,1608.800546,888.247130,8512.368333
2513.997027,1991.848295,1480.411884,7994.224174
2513.997357,2834.553343,1406.391290,7624.121203
2513.997686,3064.381992,1110.308913,7772.162391
2513.998015,2987.772442,666.185348,7920.203579
2513.998344,2604.724693,-444.123565,8290.306550
2513.998673,2681.334243,-814.226536,8364.327145
2513.999003,1302.362347,-740.205942,9326.594869
2513.999332,919.314598,-740.205942,8956.491898
2513.999661,153.219100,-888.247130,9622.677246
2513.999990,-459.657299,-814.226536,9622.677246
2514.000320,-919.314598,-740.205942,9622.677246
2514.000649,-919.314598,-1258.350101,9474.636058
2514.000978,-1455.581446,-962.267725,9770.718434
2514.001307,-1302.362347,-666.185348,9326.594869
2514.001636,-1685.410096,-814.226536,9844.739029
2514.001966,-1378.971896,-592.164754,9548.656652
2514.002295,-1302.362347,-518.144159,9474.636058
2514.002624,-842.705048,-0.000000,9400.615463
2514.002953,-536.266849,518.144159,9252.574275
2514.003283,229.828649,962.267725,9030.512492
2514.003612,689.485948,962.267725,8808.450710
2514.003941,1532.190996,1110.308913,8142.265362
2514.004270,1915.238745,814.226536,8142.265362
2514.004599,2298.286494,296.082377,8364.327145
2514.004929,2451.505594,-0.000000,7994.224174
2514.005258,2374.896044,-296.082377,7994.224174
2514.005587,2451.505594,-222.061783,8142.265362
2514.005916,2374.896044,-222.061783,8290.306550
2514.006246,1685.410096,-148.041188,9178.553681
2514.006575,689.485948,-0.000000,8882.471304
2514.006904,0.000000,-148.041188,9104.533087
2514.007233,-995.924147,-444.123565,9474.636058
2514.007562,-766.095498,-1258.350101,10140.821405
2514.007892,-1455.581446,-1332.370696,10288.862594
2514.008221,-1455.581446,-1998.556043,10214.842000
2514.008550,-1685.410096,-1850.514855,9844.739029
2514.008879,-1225.752797,-1258.350101,9622.677246
2514.009209,-995.924147,-962.267725,9696.697840
2514.009538,0.000000,-296.082377,9474.636058
2514.009867,842.705048,444.123565,8734.430116
2514.010196,2068.457845,888.247130,8512.368333
2514.010525,2298.286494,1110.308913,8068.244768
2514.010855,2451.505594,1258.350101,7698.141797
2514.011184,2757.943793,666.185348,8438.347739
2514.011513,2604.724693,-0.000000,8142.265362
2514.011842,2221.676944,-74.020594,8364.327145
2514.012172,1685.410096,-666.185348,8808.450710
2514.012501,919.314598,-814.226536,9326.594869
2514.012830,306.438199,-518.144159,9474.636058
2514.013159,-153.219100,-740.205942,9548.656652
2514.013488,-612.876398,-740.205942,9696.697840
2514.013818,-919.314598,-592.164754,9400.615463
2514.014147,-1685.410096,-814.226536,9474.636058
2514.014476,-1608.800546,-1036.288319,9696.697840
2514.014805,-1762.019645,-814.226536,9474.636058
2514.015135,-1838.629195,-740.205942,9548.656652
2514.015464,-1532.190996,-592.164754,9474.636058
2514.015793,-1149.143247,-74.020594,9474.636058
2514.016122,-842.705048,222.061783,9326.594869
2514.016451,0.000000,592.164754,8882.471304
2514.016781,306.438199,962.267725,8586.388927
2514.017110,1149.143247,1184.329507,8586.388927
2514.017439,1455.581446,740.205942,8142.265362
2514.017768,2374.896044,740.205942,7994.224174
2514.018098,2451.505594,296.082377,8216.285956
2514.018427,2451.505594,-0.000000,8142.265362
2514.018756,2298.286494,-0.000000,8512.368333
2514.019085,1915.238745,-0.000000,8142.265362
2514.019414,1455.581446,-0.000000,8956.491898
2514.019744,1149.143247,-0.000000,9474.636058
2514.020073,-153.219100,-740.205942,9104.533087
2514.020402,-995.924147,-666.185348,9622.677246
2514.020731,-1532.190996,-1184.329507,9696.697840
2514.021061,-1915.238745,-1332.370696,10362.883188
2514.021390,-1915.238745,-1628.453072,10436.903782
2514.021719,-2374.896044,-1776.494261,10658.965565
2514.022048,-2221.676944,-1628.453072,10066.800811
2514.022377,-689.485948,-518.144159,10140.821405
2514.022707,-689.485948,-370.102971,9844.739029
2514.023036,0.000000,-0.000000,9474.636058
2514.023365,919.314598,888.247130,8586.388927
2514.023694,1915.238745,1406.391290,8068.244768
2514.024024,2604.724693,1406.391290,7624.121203
2514.024353,3064.381992,1554.432478,7846.182985
2514.024682,3064.381992,814.226536,7772.162391
2514.025011,2987.772442,444.123565,7920.203579
2514.025340,2451.505594,-0.000000,8364.327145
2514.025670,1378.971896,-370.102971,8734.430116
2514.025999,612.876398,-444.123565,9252.574275
2514.026328,-306.438199,-666.185348,9400.615463
2514.026657,76.609550,-1110.308913,9474.636058
2514.026987,-689.485948,-1258.350101,9474.636058
2514.027316,-1532.190996,-1110.308913,9548.656652
2514.027645,-1685.410096,-592.164754,9474.636058
2514.027974,-1608.800546,-1036.288319,9474.636058
2514.028303,-1532.190996,-740.205942,9326.594869
2514.028633,-1149.143247,-888.247130,9622.677246
2514.028962,-766.095498,-296.082377,9622.677246
2514.029291,-612.876398,-740.205942,9326.594869
2514.029620,0.000000,296.082377,8956.491898
2514.029950,689.485948,888.247130,8290.306550
2514.030279,1225.752797,1258.350101,8290.306550
2514.030608,1762.019645,1480.411884,8142.265362
2514.030937,2298.286494,1480.411884,8068.244768
2514.031266,2451.505594,370.102971,7920.203579
2514.031596,2374.896044,-74.020594,8216.285956
2514.031925,2374.896044,-222.061783,8808.450710
2514.032254,1685.410096,-666.185348,8660.409521
2514.032583,1225.752797,-888.247130,8734.430116
2514.032913,689.485948,-592.164754,9252.574275
2514.033242,842.705048,-296.082377,9548.656652
2514.033571,-536.266849,-888.247130,9696.697840
2514.033900,-995.924147,-888.247130,9844.739029
2514.034229,-1455.581446,-1554.432478,9918.759623
2514.034559,-1608.800546,-1110.308913,9622.677246
2514.034888,-1685.410096,-1110.308913,10510.924376
2514.035217,-1378.971896,-1332.370696,9992.780217
2514.035546,-995.924147,-962.267725,10288.862594
2514.035876,-689.485948,-296.082377,9844.739029
2514.036205,0.000000,296.082377,9252.574275
2514.036534,919.314598,1332.370696,9030.512492
2514.036863,1455.581446,1628.453072,8290.306550
2514.037192,2221.676944,1776.494261,8438.347739
2514.037522,2298.286494,1184.329507,8216.285956
2514.037851,2681.334243,1110.308913,8512.368333
2514.038180,2834.553343,222.061783,8586.388927
2514.038509,2528.115143,-296.082377,8068.244768
2514.038839,2298.286494,-370.102971,8290.306550
2514.039168,1762.019645,-222.061783,8808.450710
2514.039497,1302.362347,-370.102971,9030.512492
2514.039826,536.266849,-74.020594,9252.574275
2514.040155,0.000000,-0.000000,9326.594869
2514.040485,-536.266849,-444.123565,9548.656652
2514.040814,-1532.190996,-592.164754,9474.636058
2514.041143,-1378.971896,-814.226536,9622.677246
2514.041472,-1838.629195,-666.185348,9918.759623
2514.041802,-1838.629195,-1036.288319,9844.739029
2514.042131,-1762.019645,-888.247130,10214.842000
2514.042460,-1762.019645,-740.205942,9918.759623
2514.042789,0.000000,-592.164754,9622.677246
2514.043118,-689.485948,-518.144159,9326.594869
2514.043448,-229.828649,962.267725,9178.553681
2514.043777,1072.533697,444.123565,9030.512492
2514.044106,919.314598,962.267725,7328.038826
2514.044435,2298.286494,592.164754,7994.224174
2514.044765,2681.334243,-0.000000,8364.327145
2514.045094,1915.238745,-0.000000,8068.244768
2514.045423,1915.238745,-370.102971,8512.368333
2514.045752,1532.190996,-296.082377,8142.265362
2514.046081,842.705048,-74.020594,9030.512492
2514.046411,306.438199,-370.102971,9400.615463
2514.046740,-459.657299,-222.061783,9252.574275
2514.047069,-1149.143247,-1036.288319,9474.636058
2514.047398,-1915.238745,-1110.308913,9622.677246
2514.047728,-2068.457845,-1406.391290,9918.759623
2514.048057,-2145.067394,-1332.370696,10140.821405
2514.048386,-1915.238745,-1110.308913,9400.615463
2514.048715,-1455.581446,-888.247130,9474.636058
2514.049044,-689.485948,-444.123565,9326.594869
2514.049374,459.657299,-0.000000,8956.491898
2514.049703,1072.533697,666.185348,8216.285956
2514.050032,1838.629195,1480.411884,8068.244768
2514.050361,2145.067394,1628.453072,7846.182985
2514.050691,2221.676944,1258.350101,7920.203579
2514.051020,2528.115143,814.226536,7920.203579
2514.051349,2757.943793,370.102971,8068.244768
2514.051678,2221.676944,-370.102971,8734.430116
2514.052007,1915.238745,-666.185348,8734.430116
2514.052337,2145.067394,-444.123565,8956.491898
2514.052666,1378.971896,-222.061783,9326.594869
2514.052995,919.314598,-296.082377,9400.615463
2514.053324,383.047749,-74.020594,9400.615463
2514.053654,0.000000,-444.123565,9326.594869
2514.053983,-306.438199,-666.185348,9548.656652
2514.054312,-766.095498,-888.247130,9622.677246
2514.054641,-1608.800546,-888.247130,9992.780217
2514.054970,-1915.238745,-1110.308913,10214.842000
2514.055300,-1685.410096,-1110.308913,9992.780217
2514.055629,-1455.581446,-740.205942,9918.759623
2514.055958,-919.314598,-296.082377,9992.780217
2514.056287,-919.314598,-0.000000,9770.718434
2514.056617,76.609550,592.164754,8956.491898
2514.056946,383.047749,1480.411884,9030.512492
2514.057275,1455.581446,1184.329507,8364.327145
2514.057604,1915.238745,962.267725,8364.327145
2514.057933,2221.676944,518.144159,8290.306550
2514.058263,2221.676944,222.061783,8216.285956
2514.058592,2451.505594,-148.041188,8216.285956
2514.058921,1991.848295,-444.123565,8438.347739
2514.059250,1685.410096,-518.144159,8586.388927
2514.059580,689.485948,-370.102971,9030.512492
2514.059909,0.000000,-444.123565,9104.533087
2514.060238,-306.438199,-888.247130,9178.553681
2514.060567,-1532.190996,-740.205942,9104.533087
2514.060896,-1915.238745,-1480.411884,9548.656652
2514.061226,-1991.848295,-1554.432478,9770.718434
2514.061555,-2221.676944,-1554.432478,9992.780217
2514.061884,-2374.896044,-1850.514855,9474.636058
2514.062213,-1455.581446,-740.205942,9400.615463
2514.062543,-919.314598,-814.226536,9178.553681
2514.062872,76.609550,148.041188,8660.409521
2514.063201,1072.533697,296.082377,8586.388927
2514.063530,1302.362347,1184.329507,8142.265362
2514.063859,2145.067394,1258.350101,7920.203579
2514.064189,2374.896044,1258.350101,8068.244768
2514.064518,2451.505594,962.267725,7920.203579
2514.064847,2681.334243,370.102971,8364.327145
2514.065176,2374.896044,-296.082377,8734.430116
2514.065506,1378.971896,-962.267725,9400.615463
2514.065835,995.924147,-888.247130,9474.636058
2514.066164,612.876398,-888.247130,9918.759623
2514.066493,0.000000,-666.185348,9622.677246
2514.066822,-459.657299,-296.082377,9474.636058
2514.067152,-766.095498,-0.000000,9548.656652
2514.067481,-995.924147,-592.164754,9918.759623
2514.067810,-1225.752797,-1184.329507,9474.636058
2514.068139,-1532.190996,-888.247130,10066.800811
2514.068469,-919.314598,-1628.453072,9918.759623
2514.068798,-1149.143247,-888.247130,9696.697840
2514.069127,-536.266849,-0.000000,9474.636058
2514.069456,0.000000,-0.000000,9326.594869
2514.069785,306.438199,1036.288319,9178.553681
2514.070115,995.924147,1258.350101,9104.533087
2514.070444,1225.752797,1184.329507,8364.327145
2514.070773,1762.019645,1110.308913,8290.306550
2514.071102,2451.505594,296.082377,7994.224174
2514.071432,2298.286494,444.123565,8142.265362
2514.071761,2221.676944,-0.000000,8512.368333
2514.072090,2068.457845,-148.041188,8290.306550
2514.072419,1991.848295,-444.123565,8586.388927
2514.072748,1762.019645,-74.020594,8956.491898
2514.073078,1149.143247,-222.061783,8956.491898
2514.073407,229.828649,-74.020594,9178.553681
2514.073736,-536.266849,-444.123565,9474.636058
2514.074065,-995.924147,-444.123565,9696.697840
2514.074395,-1608.800546,-1184.329507,9474.636058
2514.074724,-1762.019645,-1036.288319,10362.883188
2514.075053,-1991.848295,-1480.411884,9844.739029
2514.075382,-1455.581446,-1406.391290,10140.821405
2514.075711,-1302.362347,-962.267725,9622.677246
2514.076041,-689.485948,-518.144159,9326.594869
2514.076370,153.219100,592.164754,9104.533087
2514.076699,612.876398,1036.288319,8364.327145
2514.077028,1378.971896,1110.308913,7994.224174
2514.077358,1991.848295,888.247130,7846.182985
2514.077687,2757.943793,-0.000000,8142.265362
2514.078016,2298.286494,740.205942,8512.368333
2514.078345,2068.457845,-148.041188,8586.388927
2514.078674,1685.410096,-740.205942,8808.450710
2514.079004,1149.143247,-666.185348,9030.512492
2514.079333,766.095498,-740.205942,9178.553681
2514.079662,919.314598,-518.144159,9400.615463
2514.079991,76.609550,-0.000000,9252.574275
2514.080320,-153.219100,-444.123565,9474.636058
2514.080650,-766.095498,-296.082377,9326.594869
2514.080979,-919.314598,-444.123565,9252.574275
2514.081308,-1685.410096,-814.226536,9474.636058
2514.081637,-1838.629195,-962.267725,9622.677246
2514.081967,-1762.019645,-1184.329507,9548.656652
2514.082296,-2068.457845,-592.164754,9992.780217
2514.082625,-1302.362347,-518.144159,9918.759623
2514.082954,-995.924147,148.041188,9474.636058
2514.083283,-536.266849,740.205942,9178.553681
2514.083613,229.828649,1332.370696,9030.512492
2514.083942,842.705048,1258.350101,8586.388927
2514.084271,1991.848295,962.267725,7920.203579
2514.084600,2451.505594,518.144159,8438.347739
2514.084930,1838.629195,370.102971,8290.306550
2514.085259,2298.286494,-0.000000,7920.203579
2514.085588,2374.896044,222.061783,8216.285956
2514.085917,2068.457845,370.102971,8438.347739
2514.086246,1838.629195,148.041188,8512.368333
2514.086576,766.095498,-0.000000,9252.574275
2514.086905,459.657299,-1110.308913,9474.636058
2514.087234,-995.924147,-518.144159,9622.677246
2514.087563,-1838.629195,-1110.308913,10510.924376
2514.087893,-2298.286494,-1480.411884,10436.903782
2514.088222,-2145.067394,-1702.473667,10584.944971
2514.088551,-1915.238745,-1702.473667,10584.944971
2514.088880,-1532.190996,-1554.432478,10510.924376
2514.089209,-1149.143247,-666.185348,10510.924376
2514.089539,-536.266849,-0.000000,9474.636058
2514.089868,229.828649,740.205942,8882.471304
2514.090197,1225.752797,888.247130,8438.347739
2514.090526,1915.238745,1628.453072,7920.203579
2514.090856,2757.943793,1110.308913,7920.203579
2514.091185,3447.429741,814.226536,7994.224174
2514.091514,3217.601092,370.102971,7920.203579
2514.091843,3140.991542,-0.000000,8512.368333
2514.092175,2451.505594,-296.082377,8438.347739
2514.092504,1915.238745,-370.102971,8660.409521
2514.092833,1149.143247,-444.123565,8882.471304
2514.093162,689.485948,-444.123565,9104.533087
2514.093492,0.000000,-740.205942,9178.553681
2514.093821,-1072.533697,-888.247130,9474.636058
2514.094150,-1225.752797,-888.247130,9400.615463
2514.094479,-1838.629195,-962.267725,9474.636058
2514.094808,-2298.286494,-1184.329507,9622.677246
2514.095137,-1915.238745,-1184.329507,9622.677246
2514.095467,-1608.800546,-1332.370696,9696.697840
2514.095796,-1532.190996,-1110.308913,9548.656652
2514.096125,-766.095498,-592.164754,9400.615463
2514.096454,-689.485948,-74.020594,9104.533087
2514.096783,383.047749,666.185348,8586.388927
2514.097113,1149.143247,1184.329507,8438.347739
2514.097442,2068.457845,1554.432478,8142.265362
2514.097771,2834.553343,1110.308913,8216.285956
2514.098100,3294.210641,-0.000000,7994.224174
2514.098429,2451.505594,370.102971,8142.265362
2514.098758,2451.505594,-740.205942,8142.265362
2514.099088,2068.457845,-222.061783,8586.388927
2514.099417,1685.410096,-148.041188,8512.368333
2514.099746,842.705048,-370.102971,8956.491898
2514.100075,459.657299,-518.144159,9474.636058
2514.100404,-612.876398,-518.144159,9696.697840
2514.100733,-1455.581446,-1480.411884,9622.677246
2514.101063,-1915.238745,-1776.494261,10288.862594
2514.101392,-2221.676944,-1850.514855,10140.821405
2514.101721,-2145.067394,-1406.391290,10362.883188
2514.102050,-1838.629195,-1184.329507,10140.821405
2514.102379,-1378.971896,-592.164754,9474.636058
2514.102708,-612.876398,-0.000000,9622.677246
2514.103038,0.000000,592.164754,9326.594869
2514.103367,1378.971896,1480.411884,8956.491898
2514.103696,1378.971896,1406.391290,8216.285956
2514.104025,2451.505594,1776.494261,8142.265362
2514.104354,2757.943793,1110.308913,7920.203579
2514.104684,2757.943793,814.226536,7920.203579
2514.105013,2451.505594,-0.000000,8512.368333
2514.105342,1991.848295,-222.061783,8808.450710
2514.105671,1532.190996,-148.041188,8808.450710
2514.106000,1532.190996,-296.082377,9178.553681
2514.106329,995.924147,-148.041188,9104.533087
2514.106659,383.047749,-0.000000,9104.533087
2514.106988,-229.828649,-148.041188,9252.574275
2514.107317,-995.924147,-888.247130,9474.636058
2514.107646,-1149.143247,-1406.391290,9696.697840
2514.107975,-1455.581446,-1110.308913,10066.800811
2514.108304,-1991.848295,-1258.350101,9918.759623
2514.108634,-1991.848295,-1406.391290,9992.780217
2514.108963,-1685.410096,-962.267725,9918.759623
2514.109292,-1225.752797,-888.247130,9696.697840
2514.109621,-306.438199,-444.123565,9770.718434
2514.109950,306.438199,296.082377,8882.471304
2514.110279,995.924147,814.226536,8882.471304
2514.110609,1762.019645,1406.391290,8142.265362
2514.110938,2374.896044,1036.288319,8068.244768
2514.111267,2451.505594,888.247130,7994.224174
2514.111596,2987.772442,592.164754,8068.244768
2514.111925,2374.896044,-222.061783,8216.285956
2514.112255,1991.848295,-296.082377,8512.368333
2514.112584,1532.190996,-296.082377,8586.388927
2514.112913,536.266849,-444.123565,9104.533087
2514.113242,0.000000,-814.226536,9400.615463
2514.113571,-689.485948,-814.226536,9548.656652
2514.113900,-1455.581446,-518.144159,9992.780217
2514.114230,-1991.848295,-1110.308913,10214.842000
2514.114559,-1915.238745,-1406.391290,10140.821405
2514.114888,-1762.019645,-962.267725,10140.821405
2514.115217,-1762.019645,-814.226536,9622.677246
2514.115546,-1302.362347,-444.123565,9844.739029
2514.115875,-995.924147,-370.102971,9474.636058
2514.116205,0.000000,-0.000000,8808.450710
2514.116534,612.876398,666.185348,8438.347739
2514.116863,1302.362347,1332.370696,8660.409521
2514.117192,1532.190996,1258.350101,8142.265362
2514.117521,2145.067394,740.205942,7994.224174
2514.117850,2451.505594,222.061783,8142.265362
2514.118180,2834.553343,-74.020594,8142.265362
2514.118509,2757.943793,-148.041188,7994.224174
2514.118838,2528.115143,-444.123565,8142.265362
2514.119167,1762.019645,-0.000000,8512.368333
2514.119496,1532.190996,-0.000000,9030.512492
2514.119825,919.314598,-0.000000,9030.512492
2514.120155,229.828649,-0.000000,9326.594869
2514.120484,-689.485948,-370.102971,9622.677246
2514.120813,-1455.581446,-1480.411884,9844.739029
2514.121142,-1838.629195,-1406.391290,9992.780217
2514.121471,-2068.457845,-1406.391290,10436.903782
2514.121801,-2145.067394,-1776.494261,10288.862594
2514.122130,-2068.457845,-1332.370696,10140.821405
2514.122459,-1455.581446,-666.185348,10066.800811
2514.122788,-919.314598,-296.082377,9548.656652
2514.123117,-229.828649,296.082377,9548.656652
2514.123446,919.314598,666.185348,8808.450710
2514.123776,1608.800546,1406.391290,8512.368333
2514.124105,1991.848295,1480.411884,8660.409521
2514.124434,2604.724693,1332.370696,8142.265362
2514.124763,2604.724693,962.267725,8142.265362
2514.125092,2451.505594,814.226536,8216.285956
2514.125421,1991.848295,-0.000000,8364.327145
2514.125751,1455.581446,-0.000000,8216.285956
2514.126080,842.705048,-444.123565,9474.636058
2514.126409,306.438199,-814.226536,9326.594869
2514.126738,-536.266849,-740.205942,9474.636058
2514.127067,-1302.362347,-740.205942,9474.636058
2514.127396,-1762.019645,-1036.288319,9770.718434
2514.127726,-2221.676944,-1406.391290,9992.780217
2514.128055,-2221.676944,-1406.391290,9474.636058
2514.128384,-1838.629195,-1406.391290,9918.759623
2514.128713,-1838.629195,-740.205942,9918.759623
2514.129042,-1455.581446,-222.061783,9178.553681
2514.129372,229.828649,-222.061783,8956.491898
2514.129701,229.828649,962.267725,8142.265362
2514.130030,1149.143247,1332.370696,8734.430116
2514.130359,2068.457845,518.144159,8660.409521
