#time,accel_x,accel_y,accel_z
2653.520858,459.657299,-74.020594,9326.594869
2653.521187,536.266849,-148.041188,8660.409521
2653.521516,306.438199,-0.000000,9252.574275
2653.521845,306.438199,-0.000000,9030.512492
2653.522174,229.828649,-0.000000,9252.574275
2653.522503,306.438199,-0.000000,9030.512492
2653.522831,689.485948,-0.000000,9104.533087
2653.523160,76.609550,-222.061783,8734.430116
2653.523489,459.657299,-222.061783,9104.533087
2653.523818,842.705048,-444.123565,9030.512492
2653.524147,306.438199,-222.061783,8956.491898
2653.524476,306.438199,-222.061783,8956.491898
2653.524805,383.047749,-0.000000,9030.512492
2653.525134,306.438199,-0.000000,8808.450710
2653.525462,0.000000,-370.102971,8956.491898
2653.525791,153.219100,-148.041188,9178.553681
2653.526120,76.609550,-0.000000,9326.594869
2653.526449,76.609550,-222.061783,9030.512492
2653.526778,153.219100,-74.020594,8808.450710
2653.527107,76.609550,-296.082377,9104.533087
2653.527436,383.047749,-0.000000,8956.491898
2653.527765,612.876398,-592.164754,8734.430116
2653.528093,306.438199,-444.123565,9104.533087
2653.528422,306.438199,-370.102971,9326.594869
2653.528751,459.657299,-370.102971,8882.471304
2653.529080,229.828649,-296.082377,8882.471304
2653.529409,536.266849,-222.061783,9104.533087
2653.529738,76.609550,-148.041188,9400.615463
2653.530067,842.705048,-370.102971,9400.615463
2653.530396,459.657299,-740.205942,8956.491898
2653.530724,383.047749,-296.082377,8956.491898
2653.531053,536.266849,-370.102971,9178.553681
2653.531382,459.657299,-222.061783,9178.553681
2653.531711,229.828649,-0.000000,9030.512492
2653.532040,229.828649,-0.000000,9030.512492
2653.532369,459.657299,-0.000000,9030.512492
2653.532698,612.876398,-148.041188,9178.553681
2653.533026,229.828649,-222.061783,9030.512492
2653.533355,459.657299,-222.061783,8882.471304
2653.533684,0.000000,-0.000000,9104.533087
2653.534013,76.609550,-0.000000,9178.553681
2653.534342,459.657299,-0.000000,9104.533087
2653.534671,-612.876398,-74.020594,9030.512492
2653.535000,383.047749,-222.061783,9252.574275
2653.535329,459.657299,-296.082377,8808.450710
2653.535657,459.657299,-222.061783,8808.450710
2653.535986,536.266849,-148.041188,9030.512492
2653.536315,229.828649,-222.061783,8956.491898
2653.536644,76.609550,-0.000000,8882.471304
2653.536973,459.657299,-222.061783,9178.553681
2653.537302,612.876398,-148.041188,8956.491898
2653.537631,459.657299,-444.123565,8290.306550
2653.537960,459.657299,-222.061783,8956.491898
2653.538288,306.438199,-148.041188,8956.491898
2653.538617,153.219100,-296.082377,9030.512492
2653.538946,76.609550,-222.061783,9104.533087
2653.539275,536.266849,-370.102971,9178.553681
2653.539604,-689.485948,-0.000000,9326.594869
2653.539933,306.438199,-444.123565,9104.533087
2653.540262,306.438199,-518.144159,9104.533087
2653.540591,229.828649,-148.041188,9252.574275
2653.540919,229.828649,-222.061783,9178.553681
2653.541248,153.219100,-74.020594,9178.553681
2653.541577,459.657299,-0.000000,9474.636058
2653.541906,306.438199,-222.061783,9548.656652
2653.542235,536.266849,-0.000000,9400.615463
2653.542564,306.438199,-0.000000,9400.615463
2653.542893,229.828649,-0.000000,9252.574275
2653.543221,229.828649,-148.041188,9178.553681
2653.543550,229.828649,-222.061783,9104.533087
2653.543879,842.705048,-444.123565,9252.574275
2653.544208,383.047749,-148.041188,9104.533087
2653.544537,229.828649,296.082377,9104.533087
2653.544866,153.219100,-0.000000,9104.533087
2653.545195,536.266849,-74.020594,9178.553681
2653.545524,383.047749,-0.000000,9104.533087
2653.545852,306.438199,-0.000000,9030.512492
2653.546181,383.047749,-74.020594,8956.491898
2653.546510,689.485948,-444.123565,9474.636058
2653.546839,0.000000,-148.041188,9326.594869
2653.547168,1225.752797,-888.247130,9474.636058
2653.547497,1225.752797,-740.205942,9252.574275
2653.547826,1378.971896,-370.102971,9474.636058
2653.548155,1838.629195,-592.164754,9178.553681
2653.548483,2298.286494,-370.102971,8882.471304
2653.548812,4136.915689,-0.000000,9178.553681
2653.549141,3830.477490,-296.082377,8734.430116
2653.549470,3983.696590,296.082377,8438.347739
2653.549799,3140.991542,370.102971,8734.430116
2653.550128,3064.381992,592.164754,8142.265362
2653.550457,2757.943793,-222.061783,9030.512492
2653.550786,3447.429741,-666.185348,9326.594869
2653.551114,1455.581446,-666.185348,9178.553681
2653.551443,1838.629195,-1776.494261,10140.821405
2653.551772,2374.896044,-2072.576638,9696.697840
2653.552101,2528.115143,-148.041188,9474.636058
2653.552430,2374.896044,-1110.308913,9992.780217
2653.552759,3294.210641,-888.247130,9474.636058
2653.553088,3370.820191,222.061783,9622.677246
2653.553417,5439.278036,962.267725,8290.306550
2653.553745,5362.668486,1776.494261,7920.203579
2653.554074,4290.134789,1332.370696,9474.636058
2653.554403,4903.011187,1184.329507,7920.203579
2653.554732,4290.134789,814.226536,7772.162391
2653.555061,3753.867940,222.061783,9030.512492
2653.555390,2528.115143,-0.000000,8660.409521
2653.555719,2221.676944,148.041188,9992.780217
2653.556047,1225.752797,-1554.432478,9622.677246
2653.556376,1532.190996,-592.164754,9992.780217
2653.556705,689.485948,-1258.350101,9696.697840
2653.557034,1302.362347,-814.226536,9770.718434
2653.557363,1225.752797,-814.226536,9844.739029
2653.557692,3064.381992,592.164754,9104.533087
2653.558021,3524.039291,-0.000000,8364.327145
2653.558350,4596.572988,1332.370696,9474.636058
2653.558678,4749.792088,962.267725,7772.162391
2653.559007,4826.401637,1406.391290,7624.121203
2653.559336,4596.572988,1110.308913,8734.430116
2653.559665,4136.915689,-0.000000,8660.409521
2653.559994,3370.820191,-814.226536,9030.512492
2653.560323,2987.772442,-1702.473667,9770.718434
2653.560652,1915.238745,-1554.432478,10881.027347
2653.560981,1302.362347,-2294.638420,9992.780217
2653.561309,1762.019645,-1924.535449,10436.903782
2653.561638,2068.457845,-1406.391290,9844.739029
2653.561967,3064.381992,-518.144159,9696.697840
2653.562296,3600.648841,148.041188,8216.285956
2653.562625,5056.230287,1332.370696,8438.347739
2653.562954,5209.449386,2220.617826,7772.162391
2653.563283,4903.011187,2664.741391,7476.080014
2653.563612,4596.572988,2812.782580,7179.997637
2653.563940,4443.353888,2442.679609,7550.100608
2653.564269,3753.867940,1480.411884,7698.141797
2653.564598,2451.505594,-148.041188,8808.450710
2653.564927,3370.820191,-1628.453072,10140.821405
2653.565256,1762.019645,-2812.782580,10510.924376
2653.565585,1302.362347,-3627.009116,11029.068536
2653.565914,1685.410096,-3256.906145,11177.109724
2653.566242,2604.724693,-2516.700203,11103.089130
2653.566571,3447.429741,-888.247130,10288.862594
2653.566900,5132.839837,222.061783,9622.677246
2653.567229,6052.154434,1480.411884,8512.368333
2653.567558,6588.421283,2664.741391,7846.182985
2653.567887,5132.839837,2960.823768,7698.141797
2653.568216,4749.792088,4071.132681,6587.832884
2653.568545,4366.744339,3775.050304,6661.853478
2653.568873,3983.696590,2368.659014,6809.894666
2653.569202,2451.505594,518.144159,8068.244768
2653.569531,612.876398,-3849.070898,10362.883188
2653.569860,-612.876398,-4293.194464,10584.944971
2653.570189,-1149.143247,-4737.318029,12361.439231
2653.570518,-1225.752797,-4959.379811,11399.171507
2653.570847,-766.095498,-1628.453072,10732.986159
2653.571176,766.095498,-1258.350101,10955.047942
2653.571504,1149.143247,592.164754,9474.636058
2653.571833,4903.011187,666.185348,10658.965565
2653.572162,7201.297681,1924.535449,7624.121203
2653.572491,7124.688131,1554.432478,8068.244768
2653.572820,5975.544884,666.185348,7254.018232
2653.573149,5975.544884,2664.741391,6143.709319
2653.573478,5669.106685,2886.803174,7031.956449
2653.573807,4903.011187,2146.597232,6217.729913
2653.574135,5362.668486,3034.844362,7105.977043
2653.574464,4826.401637,2368.659014,5699.585753
2653.574793,3753.867940,-1628.453072,7994.224174
2653.575122,0.000000,-5995.668130,11695.253884
2653.575451,-766.095498,-6957.935855,13249.686362
2653.575780,-2451.505594,-3552.988522,12731.542202
2653.576109,-995.924147,-7105.977043,14211.954086
2653.576438,-1915.238745,-1110.308913,9474.636058
2653.576766,1991.848295,-0.000000,12287.418637
2653.577095,3370.820191,962.267725,10732.986159
2653.577424,5745.716235,2368.659014,8438.347739
2653.577753,7890.783629,1036.288319,9252.574275
2653.578082,7737.564530,3182.885551,7772.162391
2653.578411,7890.783629,4589.276840,4811.338623
2653.578740,7584.345430,2368.659014,4737.318029
2653.579068,7584.345430,1554.432478,5403.503377
2653.579397,7354.516781,2664.741391,5921.647536
2653.579726,6205.373534,592.164754,6883.915261
2653.580055,3830.477490,2664.741391,5329.482782
2653.580384,3677.258390,-1776.494261,10066.800811
2653.580713,-612.876398,-5181.441594,14508.036463
2653.581042,-2757.943793,-4885.359217,11843.295072
2653.581371,-2145.067394,-518.144159,12509.480420
2653.581699,-2145.067394,-7105.977043,13249.686362
2653.582028,-1532.190996,1036.288319,10658.965565
2653.582357,2145.067394,-666.185348,12065.356855
2653.582686,76.609550,2368.659014,8586.388927
2653.583015,2987.772442,-592.164754,14434.015869
2653.583344,6971.469032,-0.000000,6735.874072
2653.583673,10572.117872,2146.597232,8512.368333
2653.584002,6818.249932,1406.391290,5181.441594
2653.584330,7737.564530,2368.659014,4293.194464
2653.584659,6588.421283,592.164754,9104.533087
2653.584988,5822.325785,1258.350101,6365.771101
2653.585317,5669.106685,2886.803174,6661.853478
2653.585646,3370.820191,1628.453072,7550.100608
2653.585975,2681.334243,-888.247130,9474.636058
2653.586304,459.657299,-740.205942,12435.459826
2653.586633,536.266849,-3627.009116,11029.068536
2653.586961,-689.485948,-444.123565,10881.027347
2653.587290,76.609550,-5995.668130,13989.892304
2653.587619,-1302.362347,-666.185348,9326.594869
2653.587948,766.095498,-1036.288319,11769.274478
2653.588277,2298.286494,962.267725,8882.471304
2653.588606,3140.991542,2812.782580,8068.244768
2653.588935,5056.230287,1184.329507,7179.997637
2653.589264,4673.182538,2072.576638,7476.080014
2653.589592,4519.963438,1776.494261,7550.100608
2653.589921,3983.696590,444.123565,6735.874072
2653.590250,3830.477490,-1258.350101,7920.203579
2653.590579,2911.162892,-2368.659014,9178.553681
2653.590908,2145.067394,-2220.617826,10510.924376
2653.591237,689.485948,-1924.535449,11177.109724
2653.591566,383.047749,-1702.473667,10732.986159
2653.591894,2374.896044,1184.329507,9992.780217
2653.592223,2604.724693,592.164754,8808.450710
2653.592552,2911.162892,962.267725,9252.574275
2653.592881,3294.210641,2294.638420,8290.306550
2653.593210,4443.353888,1776.494261,7772.162391
2653.593539,3907.087040,2368.659014,7402.059420
2653.593868,2987.772442,962.267725,8068.244768
2653.594197,1225.752797,-1332.370696,8512.368333
2653.594525,229.828649,-1110.308913,8734.430116
2653.594854,-689.485948,-1036.288319,9400.615463
2653.595183,-1991.848295,-2072.576638,10510.924376
2653.595512,-1685.410096,-2072.576638,10732.986159
2653.595841,-1915.238745,-2442.679609,10436.903782
2653.596170,-1225.752797,-1850.514855,10436.903782
2653.596499,-459.657299,-518.144159,9474.636058
2653.596828,-306.438199,-444.123565,10658.965565
2653.597157,-919.314598,-444.123565,11991.336260
2653.597486,1149.143247,888.247130,9918.759623
2653.597815,2834.553343,2146.597232,7772.162391
2653.598144,4443.353888,2442.679609,7624.121203
2653.598473,3524.039291,1702.473667,7105.977043
2653.598802,2528.115143,1554.432478,8216.285956
2653.599131,2298.286494,740.205942,7476.080014
2653.599460,2834.553343,518.144159,7920.203579
2653.599789,1378.971896,-1110.308913,9030.512492
2653.600118,-612.876398,-1998.556043,8808.450710
2653.600448,-2298.286494,-3552.988522,10807.006753
2653.600777,-1915.238745,-2072.576638,10214.842000
2653.601106,0.000000,-888.247130,9770.718434
2653.601435,-229.828649,-222.061783,9918.759623
2653.601764,-536.266849,666.185348,10584.944971
2653.602093,0.000000,518.144159,10362.883188
2653.602422,2374.896044,1036.288319,8586.388927
2653.602751,3447.429741,1628.453072,7550.100608
2653.603080,2451.505594,1850.514855,7105.977043
2653.603409,1991.848295,1850.514855,7624.121203
2653.603739,1991.848295,962.267725,7994.224174
2653.604068,1762.019645,-222.061783,8512.368333
2653.604397,842.705048,-814.226536,9326.594869
2653.604726,-919.314598,-814.226536,7550.100608
2653.605055,-2681.334243,-1110.308913,8586.388927
2653.605384,-1532.190996,-888.247130,9918.759623
2653.605713,-1225.752797,-888.247130,9474.636058
2653.606042,-2221.676944,-2294.638420,10510.924376
2653.606371,-2145.067394,-1628.453072,9548.656652
2653.606700,-1838.629195,-0.000000,9548.656652
2653.607029,-1455.581446,-222.061783,10510.924376
2653.607359,-612.876398,-518.144159,9622.677246
2653.607688,-1225.752797,666.185348,9474.636058
2653.608017,-1685.410096,666.185348,9474.636058
2653.608346,0.000000,-148.041188,9178.553681
2653.608675,1608.800546,-1184.329507,8956.491898
2653.609004,842.705048,-1110.308913,8586.388927
2653.609333,1532.190996,-1036.288319,8660.409521
2653.609662,1455.581446,-222.061783,8364.327145
2653.609991,2451.505594,-0.000000,7846.182985
2653.610320,1838.629195,370.102971,8290.306550
2653.610649,612.876398,148.041188,9252.574275
2653.610979,383.047749,1184.329507,7994.224174
2653.611308,1149.143247,-0.000000,9104.533087
2653.611637,-459.657299,-888.247130,9474.636058
2653.611966,-536.266849,-1332.370696,9696.697840
2653.612295,-1302.362347,-666.185348,9622.677246
2653.612624,-612.876398,296.082377,9178.553681
2653.612953,612.876398,-222.061783,9400.615463
2653.613282,0.000000,-0.000000,9992.780217
2653.613611,-612.876398,296.082377,9030.512492
2653.613940,0.000000,962.267725,7772.162391
2653.614270,919.314598,222.061783,7624.121203
2653.614599,2298.286494,-814.226536,8734.430116
2653.614928,1532.190996,-518.144159,8438.347739
2653.615257,995.924147,-1036.288319,8734.430116
2653.615586,1378.971896,-296.082377,8956.491898
2653.615915,2451.505594,-444.123565,9326.594869
2653.616244,459.657299,-444.123565,9474.636058
2653.616573,306.438199,592.164754,9844.739029
2653.616902,0.000000,666.185348,9104.533087
2653.617231,689.485948,1110.308913,8364.327145
2653.617560,1225.752797,-444.123565,10362.883188
2653.617890,-229.828649,-740.205942,9992.780217
2653.618219,-842.705048,-518.144159,9696.697840
2653.618548,0.000000,-148.041188,9104.533087
2653.618877,0.000000,-444.123565,8734.430116
2653.619206,0.000000,-592.164754,9844.739029
2653.619535,-766.095498,-148.041188,9400.615463
2653.619864,-689.485948,-296.082377,8142.265362
2653.620193,919.314598,-1184.329507,9030.512492
2653.620522,919.314598,-1406.391290,9696.697840
2653.620851,76.609550,-1480.411884,10436.903782
2653.621181,-306.438199,-444.123565,9326.594869
2653.621510,689.485948,518.144159,9030.512492
2653.621839,1302.362347,-0.000000,9474.636058
2653.622168,842.705048,296.082377,9696.697840
2653.622497,383.047749,962.267725,9474.636058
2653.622826,459.657299,1480.411884,8290.306550
2653.623155,689.485948,740.205942,8438.347739
2653.623484,612.876398,-592.164754,9252.574275
2653.623813,-229.828649,-1036.288319,9400.615463
2653.624142,-612.876398,-814.226536,8734.430116
2653.624471,76.609550,-814.226536,7920.203579
2653.624801,76.609550,-1480.411884,8956.491898
2653.625130,0.000000,-814.226536,9474.636058
2653.625459,-766.095498,-0.000000,9326.594869
2653.625788,0.000000,-74.020594,8438.347739
2653.626117,1225.752797,296.082377,8586.388927
2653.626446,1378.971896,-962.267725,8734.430116
2653.626775,1302.362347,-0.000000,9104.533087
2653.627104,1225.752797,-0.000000,9030.512492
2653.627433,2145.067394,444.123565,7624.121203
2653.627762,2145.067394,296.082377,8808.450710
2653.628091,995.924147,-814.226536,9474.636058
2653.628421,0.000000,148.041188,7920.203579
2653.628750,0.000000,666.185348,8068.244768
2653.629079,1149.143247,-888.247130,8808.450710
2653.629408,0.000000,-1998.556043,8882.471304
2653.629737,-1378.971896,-2368.659014,10214.842000
2653.630066,-536.266849,-1110.308913,9400.615463
2653.630395,-459.657299,-370.102971,9400.615463
2653.630724,-306.438199,-1036.288319,9400.615463
2653.631053,-76.609550,-296.082377,9918.759623
2653.631382,-153.219100,296.082377,9030.512492
2653.631712,306.438199,1184.329507,8142.265362
2653.632041,1302.362347,666.185348,9918.759623
2653.632370,1302.362347,-592.164754,9178.553681
2653.632699,306.438199,-0.000000,9548.656652
2653.633028,306.438199,296.082377,9178.553681
2653.633357,919.314598,296.082377,8808.450710
2653.633686,1072.533697,-0.000000,9474.636058
2653.634015,995.924147,-296.082377,9400.615463
2653.634344,-383.047749,1258.350101,8956.491898
2653.634673,536.266849,148.041188,8956.491898
2653.635002,919.314598,-0.000000,8882.471304
2653.635332,612.876398,-592.164754,9104.533087
2653.635661,-842.705048,-962.267725,9918.759623
2653.635990,-1225.752797,296.082377,9326.594869
2653.636319,0.000000,-0.000000,8882.471304
2653.636648,229.828649,370.102971,9474.636058
2653.636977,-229.828649,-592.164754,10066.800811
2653.637306,-1225.752797,-148.041188,9992.780217
2653.637635,-306.438199,592.164754,8512.368333
2653.637964,766.095498,-296.082377,8808.450710
2653.638293,766.095498,-1480.411884,9696.697840
2653.638623,0.000000,-666.185348,9474.636058
2653.638952,612.876398,296.082377,9252.574275
2653.639281,1378.971896,-222.061783,8660.409521
2653.639610,1915.238745,222.061783,9104.533087
2653.639939,1915.238745,666.185348,8808.450710
2653.640268,1149.143247,2294.638420,8290.306550
2653.640597,1532.190996,1628.453072,8142.265362
2653.640926,1991.848295,-74.020594,9030.512492
2653.641255,1072.533697,-370.102971,9992.780217
2653.641584,306.438199,-666.185348,10066.800811
2653.641913,-1072.533697,-444.123565,9104.533087
2653.642243,-612.876398,-0.000000,10140.821405
2653.642572,-306.438199,-1998.556043,9992.780217
2653.642901,-1532.190996,-74.020594,9548.656652
2653.643230,-1072.533697,-148.041188,10140.821405
2653.643559,-459.657299,444.123565,8216.285956
2653.643888,1608.800546,-222.061783,8142.265362
2653.644217,536.266849,-1258.350101,9548.656652
2653.644546,76.609550,-888.247130,9178.553681
2653.644875,1225.752797,222.061783,8364.327145
2653.645204,2451.505594,888.247130,7402.059420
2653.645533,2145.067394,888.247130,7994.224174
2653.645863,689.485948,-0.000000,9030.512492
2653.646192,536.266849,1554.432478,8512.368333
2653.646521,1378.971896,1332.370696,7624.121203
2653.646850,919.314598,-740.205942,8956.491898
2653.647179,-689.485948,-1184.329507,9400.615463
2653.647508,-1915.238745,-1628.453072,9844.739029
2653.647837,-2068.457845,-1258.350101,9252.574275
2653.648166,-766.095498,-1702.473667,8660.409521
2653.648495,-536.266849,-1406.391290,9252.574275
2653.648824,-1302.362347,-370.102971,9770.718434
2653.649154,-1378.971896,148.041188,8660.409521
2653.649483,-383.047749,-296.082377,8586.388927
2653.649812,766.095498,-444.123565,8956.491898
2653.650141,0.000000,-1036.288319,9844.739029
2653.650470,-766.095498,-1258.350101,9918.759623
2653.650799,536.266849,-0.000000,9104.533087
2653.651128,1225.752797,-148.041188,8660.409521
2653.651457,2911.162892,-518.144159,9178.553681
2653.651786,1762.019645,370.102971,8142.265362
2653.652115,1608.800546,1332.370696,8808.450710
2653.652444,1685.410096,666.185348,7328.038826
2653.652774,2834.553343,-370.102971,8364.327145
2653.653103,1072.533697,-1850.514855,9474.636058
2653.653432,-459.657299,-148.041188,9326.594869
2653.653761,-1072.533697,-1184.329507,9918.759623
2653.654090,-459.657299,-888.247130,9474.636058
2653.654419,0.000000,-1702.473667,10510.924376
2653.654748,-1225.752797,-592.164754,10214.842000
2653.655077,-459.657299,1480.411884,9104.533087
2653.655406,689.485948,814.226536,9252.574275
2653.655735,995.924147,-296.082377,9474.636058
2653.656064,1072.533697,-592.164754,10214.842000
2653.656394,1608.800546,148.041188,9326.594869
2653.656723,2068.457845,962.267725,8142.265362
2653.657052,3600.648841,518.144159,8068.244768
2653.657381,3524.039291,1776.494261,8512.368333
2653.657710,2681.334243,962.267725,8290.306550
2653.658039,1762.019645,1406.391290,7328.038826
2653.658368,1225.752797,1332.370696,7772.162391
2653.658697,1149.143247,-666.185348,9622.677246
2653.659026,-1378.971896,-1480.411884,10140.821405
2653.659355,-2681.334243,-2516.700203,11399.171507
2653.659685,-2298.286494,-666.185348,9400.615463
2653.660014,-612.876398,-2072.576638,9474.636058
2653.660343,-1378.971896,-814.226536,9622.677246
2653.660672,-1532.190996,-0.000000,9696.697840
2653.661001,-1225.752797,888.247130,8882.471304
2653.661330,842.705048,962.267725,8586.388927
2653.661659,1608.800546,-222.061783,8512.368333
2653.661988,1762.019645,222.061783,9252.574275
2653.662317,1378.971896,370.102971,8512.368333
2653.662646,2068.457845,962.267725,7105.977043
2653.662975,2528.115143,666.185348,8216.285956
2653.663305,1762.019645,518.144159,8882.471304
2653.663634,1072.533697,370.102971,9104.533087
2653.663963,-536.266849,888.247130,8142.265362
2653.664292,-153.219100,-370.102971,8290.306550
2653.664621,-1149.143247,-1850.514855,10140.821405
2653.664950,-2298.286494,-2294.638420,9474.636058
2653.665279,-2528.115143,-1332.370696,9992.780217
2653.665608,-1685.410096,-1406.391290,9178.553681
2653.665937,-689.485948,-1258.350101,8956.491898
2653.666266,-995.924147,-1332.370696,9770.718434
2653.666596,-1225.752797,-296.082377,9548.656652
2653.666925,-612.876398,-0.000000,9030.512492
2653.667254,1149.143247,592.164754,7994.224174
2653.667583,2145.067394,-0.000000,8364.327145
2653.667912,1378.971896,-0.000000,8882.471304
2653.668241,1455.581446,296.082377,8364.327145
2653.668570,2374.896044,370.102971,7772.162391
2653.668899,2911.162892,222.061783,7772.162391
2653.669228,2221.676944,-0.000000,8438.347739
2653.669557,919.314598,-74.020594,8734.430116
2653.669886,383.047749,1184.329507,7772.162391
2653.670216,995.924147,148.041188,8290.306550
2653.670545,229.828649,-1628.453072,9030.512492
2653.670874,-689.485948,-1628.453072,9696.697840
2653.671203,-1455.581446,-222.061783,9474.636058
2653.671532,-919.314598,-814.226536,9400.615463
2653.671861,-306.438199,-1998.556043,9770.718434
2653.672190,-995.924147,-1332.370696,10140.821405
2653.672519,-995.924147,296.082377,9622.677246
2653.672848,-842.705048,888.247130,8142.265362
2653.673177,1149.143247,740.205942,9178.553681
2653.673506,2145.067394,-148.041188,9474.636058
2653.673836,919.314598,-666.185348,8734.430116
2653.674165,1072.533697,-296.082377,8956.491898
2653.674494,2298.286494,518.144159,7920.203579
2653.674823,2757.943793,888.247130,8882.471304
2653.675152,1838.629195,1184.329507,8882.471304
2653.675481,689.485948,1258.350101,8734.430116
2653.675810,1149.143247,1554.432478,8438.347739
2653.676139,229.828649,592.164754,8734.430116
2653.676468,-306.438199,-1184.329507,10214.842000
2653.676797,-1915.238745,-1258.350101,11251.130318
2653.677127,-2834.553343,-1554.432478,10807.006753
2653.677456,-1838.629195,-1184.329507,9992.780217
2653.677785,-766.095498,-888.247130,9992.780217
2653.678114,-1685.410096,-74.020594,10732.986159
2653.678443,-1762.019645,-74.020594,10362.883188
2653.678772,0.000000,1184.329507,8586.388927
2653.679101,536.266849,-0.000000,9400.615463
2653.679430,536.266849,-296.082377,9696.697840
2653.679759,229.828649,-1184.329507,10140.821405
2653.680088,459.657299,-0.000000,8438.347739
2653.680417,2068.457845,-74.020594,7846.182985
2653.680747,2911.162892,370.102971,8142.265362
2653.681076,2451.505594,814.226536,8068.244768
2653.681405,1608.800546,1998.556043,7994.224174
2653.681734,1455.581446,1850.514855,6883.915261
2653.682063,1915.238745,-222.061783,7328.038826
2653.682392,995.924147,-444.123565,8956.491898
2653.682721,-612.876398,-1924.535449,9696.697840
2653.683050,-1378.971896,-888.247130,8882.471304
2653.683379,-383.047749,-2072.576638,8956.491898
2653.683708,-689.485948,-2368.659014,9696.697840
2653.684037,-1225.752797,-1332.370696,9844.739029
2653.684367,-1762.019645,-666.185348,9252.574275
2653.684696,-766.095498,-296.082377,8142.265362
2653.685025,536.266849,-74.020594,8660.409521
2653.685354,766.095498,-814.226536,9252.574275
2653.685683,0.000000,-1480.411884,10881.027347
2653.686012,766.095498,-222.061783,9030.512492
2653.686341,2451.505594,888.247130,7698.141797
2653.686670,3217.601092,1110.308913,8216.285956
2653.686999,2604.724693,1850.514855,7254.018232
2653.687328,1685.410096,1998.556043,9104.533087
2653.687658,2068.457845,518.144159,7698.141797
2653.687987,1608.800546,296.082377,8068.244768
2653.688316,0.000000,-1554.432478,9474.636058
2653.688645,-1378.971896,-1702.473667,9326.594869
2653.688974,-1762.019645,-1258.350101,10288.862594
2653.689303,-1302.362347,-1258.350101,9622.677246
2653.689632,-383.047749,-1998.556043,10510.924376
2653.689961,-1685.410096,-1850.514855,10658.965565
2653.690290,-1915.238745,1554.432478,9548.656652
2653.690619,-919.314598,814.226536,9030.512492
2653.690948,383.047749,148.041188,9178.553681
2653.691278,153.219100,148.041188,9400.615463
2653.691607,0.000000,222.061783,10140.821405
2653.691936,229.828649,-222.061783,9104.533087
2653.692265,1762.019645,814.226536,8586.388927
2653.692594,2374.896044,444.123565,8216.285956
2653.692923,1225.752797,444.123565,8142.265362
2653.693252,689.485948,1332.370696,8290.306550
2653.693581,842.705048,1480.411884,7105.977043
2653.693910,1072.533697,-518.144159,9030.512492
2653.694239,-229.828649,-1332.370696,9696.697840
2653.694569,-1225.752797,-1628.453072,9844.739029
2653.694898,-2145.067394,-1110.308913,9918.759623
2653.695227,-1685.410096,-1184.329507,9474.636058
2653.695556,-612.876398,-1332.370696,10436.903782
2653.695885,-1762.019645,-592.164754,10584.944971
2653.696214,-1532.190996,1036.288319,9696.697840
2653.696543,0.000000,592.164754,8660.409521
2653.696873,1455.581446,-0.000000,8586.388927
2653.697202,536.266849,-1258.350101,10362.883188
2653.697531,536.266849,-370.102971,9844.739029
2653.697860,1838.629195,518.144159,8216.285956
2653.698190,2681.334243,222.061783,8364.327145
2653.698519,3370.820191,814.226536,7994.224174
2653.698848,2834.553343,1184.329507,8586.388927
2653.699177,2068.457845,1036.288319,7624.121203
2653.699507,1455.581446,1258.350101,7772.162391
2653.699836,2221.676944,-740.205942,8808.450710
2653.700165,306.438199,-740.205942,8956.491898
2653.700494,-919.314598,-666.185348,10066.800811
2653.700823,-1225.752797,-962.267725,10140.821405
2653.701153,-612.876398,-2146.597232,9474.636058
2653.701482,-995.924147,-1776.494261,10658.965565
2653.701811,-919.314598,-888.247130,9696.697840
2653.702140,-1455.581446,-74.020594,9178.553681
2653.702470,76.609550,666.185348,8808.450710
2653.702799,1302.362347,-148.041188,8512.368333
2653.703128,1378.971896,-296.082377,8734.430116
2653.703457,2068.457845,-148.041188,8290.306550
2653.703787,2604.724693,666.185348,7254.018232
2653.704116,2911.162892,370.102971,7402.059420
2653.704445,2987.772442,-148.041188,7772.162391
2653.704774,1915.238745,888.247130,8438.347739
2653.705104,1378.971896,1406.391290,8068.244768
2653.705433,1302.362347,888.247130,7402.059420
2653.705762,1072.533697,-814.226536,9326.594869
2653.706091,-995.924147,-1332.370696,9400.615463
2653.706420,-1991.848295,-1332.370696,9844.739029
2653.706750,-2374.896044,-1110.308913,10214.842000
2653.707079,-1072.533697,-1702.473667,9474.636058
2653.707408,-1302.362347,-1184.329507,10436.903782
2653.707737,-1915.238745,-370.102971,9844.739029
2653.708067,-766.095498,592.164754,8586.388927
2653.708396,689.485948,222.061783,9474.636058
2653.708725,-383.047749,-666.185348,9104.533087
2653.709054,-459.657299,-1406.391290,10140.821405
2653.709384,76.609550,-1110.308913,9400.615463
2653.709713,919.314598,148.041188,8364.327145
2653.710042,2374.896044,-296.082377,8216.285956
2653.710371,2145.067394,666.185348,8660.409521
2653.710700,1149.143247,148.041188,8512.368333
2653.711030,1378.971896,1406.391290,7920.203579
2653.711359,1915.238745,222.061783,7994.224174
2653.711688,689.485948,-518.144159,8364.327145
2653.712017,-612.876398,-814.226536,9696.697840
2653.712347,-1455.581446,-740.205942,9696.697840
2653.712676,-995.924147,-0.000000,9622.677246
2653.713005,0.000000,-1702.473667,9992.780217
2653.713334,-919.314598,-1036.288319,10140.821405
2653.713664,-995.924147,-74.020594,10807.006753
2653.713993,-612.876398,444.123565,9104.533087
2653.714322,229.828649,-0.000000,8512.368333
2653.714651,229.828649,-666.185348,9178.553681
2653.714980,0.000000,-1332.370696,10584.944971
2653.715310,-536.266849,-814.226536,10658.965565
2653.715639,2068.457845,148.041188,8142.265362
2653.715968,2834.553343,-0.000000,7846.182985
2653.716297,1838.629195,962.267725,8808.450710
2653.716627,2068.457845,1702.473667,8882.471304
2653.716956,1991.848295,2220.617826,7772.162391
2653.717285,1915.238745,1554.432478,7846.182985
2653.717614,1608.800546,-148.041188,8512.368333
2653.717944,689.485948,-888.247130,9400.615463
2653.718273,-919.314598,-814.226536,9770.718434
2653.718602,-766.095498,-666.185348,8882.471304
2653.718931,-612.876398,-1998.556043,9622.677246
2653.719260,-1378.971896,-2072.576638,10510.924376
2653.719590,-1378.971896,-444.123565,9770.718434
2653.719919,-919.314598,-296.082377,9770.718434
2653.720248,536.266849,-888.247130,9178.553681
2653.720577,0.000000,-814.226536,9104.533087
2653.720907,0.000000,-370.102971,10214.842000
2653.721236,995.924147,148.041188,8512.368333
2653.721565,2068.457845,1554.432478,8142.265362
2653.721894,2374.896044,1184.329507,7994.224174
2653.722224,2068.457845,962.267725,8808.450710
2653.722553,919.314598,1406.391290,9622.677246
2653.722882,842.705048,1702.473667,8068.244768
2653.723211,1302.362347,666.185348,7994.224174
2653.723540,612.876398,-370.102971,8734.430116
2653.723870,-919.314598,-1110.308913,9474.636058
2653.724199,-1608.800546,-592.164754,9474.636058
2653.724528,-306.438199,-1480.411884,9400.615463
2653.724857,153.219100,-1924.535449,9030.512492
2653.725187,-766.095498,-1554.432478,9474.636058
2653.725516,-1455.581446,-148.041188,10140.821405
2653.725845,-842.705048,-0.000000,9104.533087
2653.726174,459.657299,-444.123565,8808.450710
2653.726504,153.219100,-666.185348,9326.594869
2653.726833,-153.219100,-888.247130,10362.883188
2653.727162,153.219100,-296.082377,9474.636058
2653.727491,459.657299,148.041188,8734.430116
2653.727820,1685.410096,296.082377,8882.471304
2653.728150,1225.752797,370.102971,8586.388927
2653.728479,536.266849,1628.453072,8512.368333
2653.728808,919.314598,296.082377,8142.265362
2653.729137,1838.629195,-518.144159,7846.182985
2653.729467,1149.143247,-1998.556043,8438.347739
2653.729796,-612.876398,-1924.535449,9770.718434
2653.730125,-1378.971896,-518.144159,9326.594869
2653.730454,-153.219100,-962.267725,8734.430116
2653.730784,-153.219100,-1924.535449,9474.636058
2653.731113,-995.924147,-444.123565,10732.986159
2653.731442,-766.095498,-0.000000,10362.883188
2653.731771,-229.828649,1110.308913,8660.409521
2653.732100,919.314598,-666.185348,8808.450710
2653.732430,842.705048,-74.020594,9548.656652
2653.732759,766.095498,-0.000000,9474.636058
2653.733088,766.095498,666.185348,8512.368333
2653.733417,1838.629195,1332.370696,7254.018232
2653.733747,1378.971896,-148.041188,9030.512492
2653.734076,306.438199,-962.267725,11103.089130
2653.734405,536.266849,666.185348,9474.636058
2653.734734,153.219100,222.061783,8216.285956
2653.735064,842.705048,-518.144159,7698.141797
2653.735393,0.000000,-74.020594,9474.636058
2653.735722,-153.219100,-814.226536,11177.109724
2653.736051,-459.657299,-666.185348,8364.327145
2653.736380,229.828649,-444.123565,9252.574275
2653.736710,76.609550,-1110.308913,8956.491898
2653.737039,-459.657299,-0.000000,9918.759623
2653.737368,-842.705048,666.185348,9252.574275
2653.737697,306.438199,1258.350101,7920.203579
2653.738027,766.095498,518.144159,8290.306550
2653.738356,766.095498,-1036.288319,9474.636058
2653.738685,383.047749,-0.000000,9474.636058
2653.739014,919.314598,-444.123565,8660.409521
2653.739344,1455.581446,-0.000000,8216.285956
2653.739673,1455.581446,-222.061783,9104.533087
2653.740002,459.657299,-148.041188,9252.574275
2653.740331,536.266849,888.247130,8882.471304
2653.740661,1685.410096,-0.000000,7920.203579
2653.740990,1762.019645,-888.247130,7698.141797
2653.741319,766.095498,-888.247130,9622.677246
2653.741648,-536.266849,-592.164754,9918.759623
2653.741977,-229.828649,-0.000000,8660.409521
2653.742307,306.438199,444.123565,8290.306550
2653.742636,-306.438199,-666.185348,9622.677246
2653.742965,-612.876398,-962.267725,10510.924376
2653.743294,-536.266849,592.164754,8734.430116
2653.743624,229.828649,-592.164754,8216.285956
2653.743953,76.609550,-814.226536,8734.430116
2653.744282,-306.438199,-1776.494261,10732.986159
2653.744611,-383.047749,-1554.432478,9622.677246
2653.744941,842.705048,1036.288319,7994.224174
2653.745270,995.924147,-296.082377,9104.533087
2653.745599,2068.457845,-0.000000,9030.512492
2653.745928,1915.238745,-0.000000,9252.574275
2653.746257,153.219100,1258.350101,8512.368333
2653.746587,2068.457845,1258.350101,7402.059420
2653.746916,1455.581446,-222.061783,9030.512492
2653.747245,229.828649,-148.041188,9252.574275
2653.747574,-76.609550,296.082377,9696.697840
2653.747904,-153.219100,-814.226536,9326.594869
2653.748233,-459.657299,-888.247130,9104.533087
2653.748562,-536.266849,-1036.288319,9992.780217
2653.748891,-1149.143247,-518.144159,9326.594869
2653.749221,-1378.971896,222.061783,8438.347739
2653.749550,-766.095498,-222.061783,8512.368333
2653.749879,0.000000,-962.267725,9104.533087
2653.750208,-383.047749,-1110.308913,10214.842000
2653.750537,-306.438199,-962.267725,9400.615463
2653.750867,306.438199,-0.000000,9400.615463
2653.751196,1225.752797,222.061783,8586.388927
2653.751525,1378.971896,-0.000000,9326.594869
2653.751854,153.219100,1184.329507,9696.697840
2653.752184,229.828649,888.247130,8734.430116
2653.752513,1685.410096,888.247130,8068.244768
2653.752842,1378.971896,-0.000000,8882.471304
2653.753171,229.828649,-1406.391290,9622.677246
2653.753501,-995.924147,-370.102971,9474.636058
2653.753830,-766.095498,296.082377,8660.409521
2653.754159,-229.828649,-1184.329507,8882.471304
2653.754488,-995.924147,-1332.370696,10140.821405
2653.754817,-1685.410096,-1184.329507,10288.862594
2653.755147,-383.047749,-592.164754,9252.574275
2653.755476,229.828649,-1406.391290,9104.533087
2653.755805,766.095498,-1628.453072,9622.677246
2653.756134,995.924147,-1258.350101,9770.718434
2653.756464,919.314598,-0.000000,9548.656652
2653.756793,1991.848295,1110.308913,7846.182985
2653.757122,2757.943793,1332.370696,8364.327145
2653.757451,2298.286494,962.267725,9030.512492
2653.757781,1838.629195,1554.432478,8808.450710
2653.758110,1685.410096,1184.329507,7698.141797
2653.758439,1838.629195,592.164754,7402.059420
2653.758768,1302.362347,-0.000000,8586.388927
2653.759097,-536.266849,-1554.432478,9696.697840
2653.759427,-1302.362347,-1406.391290,9622.677246
2653.759756,-766.095498,-1480.411884,8808.450710
2653.760085,0.000000,-1998.556043,9326.594869
2653.760414,-842.705048,-1480.411884,9622.677246
2653.760744,-1455.581446,-888.247130,9770.718434
2653.761073,-919.314598,-0.000000,9326.594869
2653.761402,153.219100,-148.041188,8882.471304
2653.761731,995.924147,-1036.288319,9696.697840
2653.762061,1149.143247,-370.102971,9622.677246
2653.762390,1915.238745,1480.411884,9030.512492
2653.762719,2834.553343,740.205942,7994.224174
2653.763048,2757.943793,740.205942,7179.997637
2653.763377,1685.410096,1332.370696,9474.636058
2653.763707,459.657299,1036.288319,9178.553681
2653.764036,-459.657299,1184.329507,7846.182985
2653.764365,-306.438199,-962.267725,9326.594869
2653.764694,-1302.362347,-1776.494261,9400.615463
2653.765024,-2145.067394,-2072.576638,9918.759623
2653.765353,-2374.896044,-1406.391290,9474.636058
2653.765682,-1225.752797,-962.267725,8882.471304
2653.766011,-995.924147,-962.267725,9548.656652
2653.766341,-1225.752797,-296.082377,9770.718434
2653.766670,-995.924147,-0.000000,9770.718434
2653.766999,0.000000,1184.329507,9030.512492
2653.767328,1378.971896,370.102971,8290.306550
2653.767657,2374.896044,-0.000000,9178.553681
2653.767987,1762.019645,222.061783,9400.615463
2653.768316,1532.190996,962.267725,8586.388927
2653.768645,2374.896044,1628.453072,7772.162391
2653.768974,1915.238745,444.123565,7920.203579
2653.769304,229.828649,-296.082377,9400.615463
2653.769633,-536.266849,592.164754,9474.636058
2653.769962,-689.485948,-0.000000,9104.533087
2653.770291,0.000000,-740.205942,8438.347739
2653.770621,-842.705048,-2072.576638,9622.677246
2653.770950,-1532.190996,-1850.514855,10362.883188
2653.771279,-1532.190996,-296.082377,9992.780217
2653.771608,0.000000,-666.185348,8660.409521
2653.771937,76.609550,-1184.329507,9178.553681
2653.772267,76.609550,-148.041188,10510.924376
2653.772596,229.828649,148.041188,9326.594869
2653.772925,919.314598,962.267725,8364.327145
2653.773254,2451.505594,592.164754,8586.388927
2653.773584,2604.724693,-962.267725,8142.265362
2653.773913,919.314598,370.102971,9548.656652
2653.774242,1838.629195,-0.000000,9400.615463
2653.774571,2221.676944,-148.041188,7328.038826
2653.774901,1685.410096,222.061783,8216.285956
2653.775230,459.657299,-0.000000,9178.553681
2653.775559,306.438199,-74.020594,9548.656652
2653.775888,-459.657299,-814.226536,8068.244768
2653.776217,766.095498,-74.020594,8216.285956
2653.776547,0.000000,-1850.514855,10362.883188
2653.776876,-1685.410096,-1480.411884,10066.800811
2653.777205,-383.047749,-962.267725,9030.512492
2653.777534,229.828649,-222.061783,9104.533087
2653.777864,153.219100,-666.185348,9104.533087
2653.778193,-383.047749,-444.123565,9474.636058
2653.778522,229.828649,592.164754,9252.574275
2653.778851,459.657299,1184.329507,7179.997637
2653.779181,1762.019645,-518.144159,8364.327145
2653.779510,1072.533697,-814.226536,8290.306550
2653.779839,1149.143247,592.164754,9104.533087
2653.780168,1225.752797,888.247130,7920.203579
2653.780498,1608.800546,444.123565,7698.141797
2653.780827,919.314598,222.061783,8512.368333
2653.781156,-153.219100,222.061783,10140.821405
2653.781485,-612.876398,444.123565,9474.636058
2653.781814,-689.485948,518.144159,7920.203579
2653.782144,-229.828649,-0.000000,9326.594869
2653.782473,-1532.190996,-1036.288319,9252.574275
2653.782802,-1762.019645,-1406.391290,10807.006753
2653.783131,-1685.410096,-1628.453072,9178.553681
2653.783461,-383.047749,-222.061783,9178.553681
2653.783790,-383.047749,-1406.391290,10436.903782
2653.784119,-689.485948,-444.123565,9474.636058
2653.784448,0.000000,666.185348,8882.471304
2653.784778,1302.362347,1258.350101,7920.203579
2653.785107,2068.457845,-222.061783,8734.430116
2653.785436,1532.190996,-888.247130,9178.553681
2653.785765,1225.752797,444.123565,8956.491898
2653.786094,536.266849,962.267725,8142.265362
2653.786424,1225.752797,296.082377,8142.265362
2653.786753,383.047749,-0.000000,8882.471304
2653.787082,-536.266849,-370.102971,10066.800811
2653.787411,-842.705048,592.164754,9696.697840
2653.787741,-612.876398,-740.205942,9252.574275
2653.788070,-229.828649,-2072.576638,9696.697840
2653.788399,-995.924147,-2146.597232,10436.903782
2653.788728,-1302.362347,-1184.329507,9992.780217
2653.789058,-1302.362347,-148.041188,9030.512492
2653.789387,229.828649,-148.041188,8216.285956
2653.789716,-153.219100,-518.144159,9696.697840
2653.790045,0.000000,222.061783,9252.574275
2653.790374,536.266849,962.267725,8216.285956
2653.790704,1532.190996,1184.329507,7994.224174
2653.791033,1838.629195,222.061783,8142.265362
2653.791362,1455.581446,-222.061783,9252.574275
2653.791691,689.485948,370.102971,8882.471304
2653.792021,1685.410096,1036.288319,7994.224174
2653.792350,1838.629195,-0.000000,7624.121203
2653.792679,1149.143247,592.164754,9178.553681
2653.793008,536.266849,-74.020594,9992.780217
2653.793338,-153.219100,666.185348,8734.430116
2653.793667,306.438199,-148.041188,8364.327145
2653.793996,306.438199,-1184.329507,8660.409521
2653.794325,-689.485948,-888.247130,9474.636058
2653.794654,-1455.581446,-1110.308913,10362.883188
2653.794984,0.000000,-814.226536,9178.553681
2653.795313,-229.828649,-592.164754,9178.553681
2653.795642,-459.657299,-518.144159,10140.821405
2653.795971,-842.705048,-0.000000,9992.780217
2653.796301,-76.609550,370.102971,9178.553681
2653.796630,1072.533697,518.144159,8216.285956
2653.796959,2068.457845,-1110.308913,9326.594869
2653.797288,536.266849,-1110.308913,9474.636058
2653.797618,459.657299,296.082377,8956.491898
2653.797947,1532.190996,444.123565,7846.182985
2653.798276,2145.067394,518.144159,7920.203579
2653.798605,1225.752797,296.082377,9326.594869
2653.798934,229.828649,-370.102971,9474.636058
2653.799263,0.000000,-0.000000,9104.533087
2653.799592,306.438199,-814.226536,8068.244768
2653.799921,0.000000,-2072.576638,9548.656652
2653.800250,-1455.581446,-1850.514855,10066.800811
2653.800579,-1302.362347,-1406.391290,10288.862594
2653.800908,-842.705048,-666.185348,9474.636058
2653.801237,0.000000,-444.123565,8882.471304
2653.801566,0.000000,-222.061783,9548.656652
2653.801895,-459.657299,740.205942,9474.636058
2653.802224,995.924147,740.205942,8438.347739
2653.802553,2451.505594,-0.000000,7994.224174
2653.802882,3064.381992,-296.082377,8142.265362
2653.803211,2145.067394,-370.102971,9474.636058
2653.803540,2068.457845,592.164754,8438.347739
2653.803869,2451.505594,1258.350101,7476.080014
2653.804198,2604.724693,296.082377,7846.182985
2653.804527,1685.410096,-0.000000,8956.491898
2653.804856,0.000000,-518.144159,10288.862594
2653.805185,0.000000,148.041188,8734.430116
2653.805514,153.219100,-0.000000,8364.327145
2653.805843,-459.657299,-1554.432478,9474.636058
2653.806172,-1608.800546,-2220.617826,10732.986159
2653.806501,-1762.019645,-740.205942,10066.800811
2653.806830,-612.876398,-518.144159,8734.430116
2653.807159,-459.657299,-1258.350101,9252.574275
2653.807488,-459.657299,-370.102971,10881.027347
2653.807818,0.000000,888.247130,9770.718434
2653.808147,229.828649,1628.453072,8734.430116
2653.808476,1532.190996,592.164754,8512.368333
2653.808805,1915.238745,-0.000000,9252.574275
2653.809134,1838.629195,-0.000000,9474.636058
2653.809463,1991.848295,592.164754,8364.327145
2653.809792,2451.505594,1036.288319,7920.203579
2653.810121,2298.286494,666.185348,7994.224174
2653.810450,842.705048,444.123565,9104.533087
2653.810779,229.828649,740.205942,9104.533087
2653.811108,-383.047749,962.267725,7254.018232
2653.811437,-306.438199,-148.041188,8808.450710
2653.811766,-1225.752797,-2220.617826,10510.924376
2653.812095,-2451.505594,-2146.597232,10288.862594
2653.812424,-3064.381992,-1776.494261,10288.862594
2653.812753,-1991.848295,-962.267725,8882.471304
2653.813082,-1225.752797,-296.082377,9696.697840
2653.813411,-1302.362347,-666.185348,10510.924376
2653.813740,-842.705048,-222.061783,10066.800811
2653.814069,0.000000,370.102971,8512.368333
2653.814398,2374.896044,-222.061783,8068.244768
2653.814727,2834.553343,-666.185348,7994.224174
2653.815056,2757.943793,-0.000000,8734.430116
2653.815385,2374.896044,1702.473667,7550.100608
2653.815714,2911.162892,1628.453072,7254.018232
2653.816043,2987.772442,-0.000000,7846.182985
2653.816372,1608.800546,592.164754,8808.450710
2653.816701,919.314598,296.082377,9104.533087
2653.817030,0.000000,-0.000000,7328.038826
2653.817359,-612.876398,-1406.391290,8734.430116
2653.817688,-1608.800546,-2516.700203,10066.800811
2653.818018,-2451.505594,-2442.679609,11325.150913
2653.818347,-2681.334243,-1554.432478,10510.924376
2653.818676,-1225.752797,-1702.473667,9474.636058
2653.819005,-383.047749,-1702.473667,9918.759623
2653.819334,-1072.533697,-518.144159,9844.739029
2653.819663,0.000000,-222.061783,9844.739029
2653.819992,612.876398,666.185348,8808.450710
2653.820321,2834.553343,666.185348,8216.285956
2653.820650,3064.381992,148.041188,8512.368333
2653.820979,2451.505594,1184.329507,7698.141797
2653.821308,2681.334243,962.267725,7624.121203
2653.821637,2757.943793,740.205942,7772.162391
2653.821966,1762.019645,740.205942,8734.430116
2653.822295,689.485948,-888.247130,9474.636058
2653.822624,-1072.533697,-0.000000,9030.512492
2653.822953,-1072.533697,296.082377,8660.409521
2653.823282,-766.095498,-2072.576638,9178.553681
2653.823611,-2451.505594,-1998.556043,10214.842000
2653.823940,-1685.410096,-1628.453072,10658.965565
2653.824269,-1302.362347,-148.041188,9030.512492
2653.824598,-1225.752797,-370.102971,8882.471304
2653.824927,-306.438199,-1406.391290,9918.759623
2653.825256,-306.438199,-0.000000,9326.594869
2653.825585,-229.828649,962.267725,8808.450710
2653.825914,842.705048,1036.288319,7920.203579
2653.826243,2528.115143,518.144159,8142.265362
2653.826572,2528.115143,-0.000000,8882.471304
2653.826901,1838.629195,518.144159,8364.327145
2653.827230,1838.629195,1110.308913,7550.100608
2653.827559,1838.629195,962.267725,7994.224174
2653.827888,1532.190996,296.082377,9030.512492
2653.828217,76.609550,-0.000000,9474.636058
2653.828547,-306.438199,222.061783,9400.615463
2653.828876,-153.219100,-0.000000,8882.471304
2653.829205,0.000000,-1110.308913,9104.533087
2653.829534,-919.314598,-1702.473667,9918.759623
2653.829863,-1455.581446,-1628.453072,10510.924376
2653.830192,-1685.410096,-592.164754,9622.677246
2653.830521,-229.828649,-296.082377,9178.553681
2653.830850,-229.828649,-814.226536,9696.697840
2653.831179,0.000000,-518.144159,9918.759623
2653.831508,0.000000,666.185348,9622.677246
2653.831837,612.876398,962.267725,8216.285956
2653.832166,1225.752797,-370.102971,9104.533087
2653.832495,1072.533697,-740.205942,9844.739029
2653.832824,995.924147,-0.000000,9696.697840
2653.833153,306.438199,444.123565,8956.491898
2653.833482,1685.410096,518.144159,8364.327145
2653.833811,1455.581446,370.102971,9104.533087
2653.834140,229.828649,-0.000000,9770.718434
2653.834469,-229.828649,666.185348,9252.574275
2653.834798,459.657299,-0.000000,7698.141797
2653.835127,1532.190996,-1554.432478,8068.244768
2653.835456,-306.438199,-814.226536,9474.636058
2653.835785,-536.266849,-592.164754,9548.656652
2653.836114,0.000000,-0.000000,8512.368333
2653.836443,459.657299,-0.000000,8068.244768
2653.836772,306.438199,-0.000000,8956.491898
2653.837101,0.000000,-0.000000,9918.759623
2653.837430,-229.828649,-0.000000,9252.574275
2653.837759,-306.438199,814.226536,8882.471304
2653.838088,612.876398,-740.205942,9030.512492
2653.838417,-76.609550,-518.144159,9474.636058
2653.838746,229.828649,-962.267725,9770.718434
2653.839076,459.657299,1258.350101,8068.244768
2653.839405,1608.800546,222.061783,8882.471304
2653.839734,1532.190996,-74.020594,9030.512492
2653.840063,1302.362347,592.164754,9400.615463
2653.840392,995.924147,666.185348,8290.306550
2653.840721,1149.143247,296.082377,7920.203579
2653.841050,1072.533697,-1184.329507,8808.450710
2653.841379,0.000000,-1776.494261,9178.553681
2653.841708,-995.924147,-888.247130,9696.697840
2653.842037,-1072.533697,-222.061783,9622.677246
2653.842366,-842.705048,-1036.288319,9548.656652
2653.842695,-919.314598,-814.226536,10214.842000
2653.843024,-1378.971896,-888.247130,10214.842000
2653.843353,-1225.752797,-74.020594,9474.636058
2653.843682,0.000000,-518.144159,9178.553681
2653.844011,1149.143247,-740.205942,9696.697840
2653.844340,76.609550,-0.000000,9104.533087
2653.844669,1455.581446,518.144159,9030.512492
2653.844998,2221.676944,962.267725,8068.244768
2653.845327,2528.115143,1406.391290,7624.121203
2653.845656,3294.210641,-148.041188,8734.430116
2653.845985,1455.581446,814.226536,8438.347739
2653.846314,1762.019645,962.267725,7550.100608
2653.846643,1225.752797,-148.041188,8808.450710
2653.846972,1225.752797,-1258.350101,9030.512492
2653.847301,-153.219100,-1776.494261,9918.759623
2653.847630,-1149.143247,-370.102971,9918.759623
2653.847959,-1072.533697,-0.000000,9400.615463
2653.848288,-689.485948,-222.061783,9918.759623
2653.848617,-995.924147,-666.185348,10584.944971
2653.848946,-1149.143247,-0.000000,10140.821405
2653.849276,-1608.800546,740.205942,8882.471304
2653.849605,919.314598,-370.102971,9178.553681
2653.849934,1302.362347,-888.247130,8734.430116
2653.850263,536.266849,-444.123565,9178.553681
2653.850592,1532.190996,-148.041188,8512.368333
2653.850921,2068.457845,518.144159,7698.141797
2653.851250,2604.724693,666.185348,7772.162391
2653.851579,2451.505594,444.123565,8586.388927
2653.851908,919.314598,-0.000000,9474.636058
2653.852237,459.657299,1258.350101,8512.368333
2653.852566,919.314598,-148.041188,8734.430116
2653.852895,0.000000,-962.267725,9326.594869
2653.853224,-842.705048,-1776.494261,10658.965565
2653.853553,-1915.238745,-296.082377,9918.759623
2653.853882,-1455.581446,-370.102971,9030.512492
2653.854211,-842.705048,-222.061783,9030.512492
2653.854540,-1532.190996,-592.164754,9696.697840
2653.854869,-1838.629195,-222.061783,9992.780217
2653.855198,-1302.362347,-0.000000,9178.553681
2653.855527,459.657299,-666.185348,8882.471304
2653.855856,919.314598,-1850.514855,9178.553681
2653.856185,76.609550,-370.102971,9178.553681
2653.856514,229.828649,444.123565,8438.347739
2653.856843,2298.286494,666.185348,8660.409521
2653.857172,2374.896044,740.205942,7846.182985
2653.857501,1225.752797,444.123565,9326.594869
2653.857830,1302.362347,222.061783,9548.656652
2653.858159,1225.752797,1554.432478,8364.327145
2653.858488,1225.752797,-518.144159,7994.224174
2653.858817,306.438199,-1110.308913,9622.677246
2653.859146,-919.314598,-1332.370696,9696.697840
2653.859475,-919.314598,-0.000000,8586.388927
2653.859805,0.000000,-370.102971,8734.430116
2653.860134,-536.266849,-1184.329507,9326.594869
2653.860463,-1072.533697,-1628.453072,10288.862594
2653.860792,-1608.800546,-1036.288319,9696.697840
2653.861121,-842.705048,-222.061783,9474.636058
2653.861450,459.657299,-1406.391290,9178.553681
2653.861779,459.657299,-1628.453072,9548.656652
2653.862108,612.876398,-1184.329507,9992.780217
2653.862437,1762.019645,-0.000000,8216.285956
2653.862766,2681.334243,1332.370696,7994.224174
2653.863095,3064.381992,592.164754,8882.471304
2653.863424,2374.896044,962.267725,8586.388927
2653.863753,1302.362347,1110.308913,8956.491898
2653.864082,1532.190996,1110.308913,7994.224174
2653.864411,1685.410096,-0.000000,7994.224174
2653.864740,536.266849,-1628.453072,9474.636058
2653.865069,-689.485948,-1776.494261,10066.800811
2653.865398,-1991.848295,-888.247130,9474.636058
2653.865727,-842.705048,-0.000000,8660.409521
2653.866056,-536.266849,-1184.329507,9474.636058
2653.866385,-1685.410096,-1036.288319,10288.862594
2653.866714,-1915.238745,222.061783,9622.677246
2653.867043,-842.705048,-444.123565,9548.656652
2653.867372,383.047749,-1406.391290,8660.409521
2653.867701,842.705048,-814.226536,9474.636058
2653.868030,383.047749,-370.102971,10066.800811
2653.868359,919.314598,1628.453072,8364.327145
2653.868688,1762.019645,1480.411884,8142.265362
2653.869017,1991.848295,1406.391290,7920.203579
2653.869346,1455.581446,1036.288319,9474.636058
2653.869675,459.657299,1258.350101,9030.512492
2653.870004,229.828649,592.164754,8068.244768
2653.870334,536.266849,-222.061783,8438.347739
2653.870663,-229.828649,-1110.308913,8956.491898
2653.870992,-1302.362347,-1184.329507,9918.759623
2653.871321,-1455.581446,-74.020594,9326.594869
2653.871650,0.000000,-0.000000,8290.306550
2653.871979,229.828649,-740.205942,8882.471304
2653.872308,-766.095498,-1332.370696,9770.718434
2653.872637,-1685.410096,-0.000000,10140.821405
2653.872966,536.266849,-296.082377,9326.594869
2653.873295,1149.143247,-518.144159,8882.471304
2653.873624,919.314598,-814.226536,9918.759623
2653.873953,1149.143247,-222.061783,10066.800811
2653.874282,1072.533697,740.205942,9178.553681
2653.874611,1072.533697,888.247130,9104.533087
2653.874940,1991.848295,-74.020594,9400.615463
2653.875269,995.924147,-0.000000,9030.512492
2653.875598,612.876398,1258.350101,9104.533087
2653.875927,1378.971896,-148.041188,8438.347739
2653.876256,1378.971896,-666.185348,8734.430116
2653.876585,689.485948,-1776.494261,9918.759623
2653.876914,76.609550,-1258.350101,9178.553681
2653.877243,0.000000,-0.000000,8882.471304
2653.877572,459.657299,-0.000000,8512.368333
2653.877901,383.047749,-740.205942,9326.594869
2653.878230,-689.485948,-888.247130,9844.739029
2653.878559,-229.828649,-592.164754,9178.553681
2653.878888,842.705048,-222.061783,8734.430116
2653.879217,1225.752797,-740.205942,8586.388927
2653.879546,689.485948,-888.247130,9178.553681
2653.879875,459.657299,296.082377,9178.553681
2653.880204,689.485948,1184.329507,7920.203579
2653.880534,1532.190996,1628.453072,7994.224174
2653.880863,1838.629195,-0.000000,8956.491898
2653.881192,612.876398,148.041188,8660.409521
2653.881521,306.438199,962.267725,8290.306550
2653.881850,689.485948,-74.020594,7698.141797
2653.882179,766.095498,-962.267725,8734.430116
2653.882508,536.266849,-1036.288319,9474.636058
2653.882837,-689.485948,-444.123565,9326.594869
2653.883166,-536.266849,370.102971,8808.450710
2653.883495,0.000000,-222.061783,8734.430116
2653.883824,0.000000,-222.061783,10214.842000
2653.884153,-1302.362347,-0.000000,10362.883188
2653.884482,-1302.362347,-222.061783,9992.780217
2653.884811,-383.047749,-74.020594,9770.718434
2653.885140,766.095498,-222.061783,8734.430116
2653.885469,0.000000,-1184.329507,9622.677246
2653.885798,-689.485948,-74.020594,10436.903782
2653.886127,0.000000,370.102971,9400.615463
2653.886456,842.705048,-962.267725,8586.388927
2653.886785,459.657299,-0.000000,7994.224174
2653.887114,153.219100,-0.000000,9696.697840
2653.887443,153.219100,444.123565,9178.553681
2653.887772,919.314598,-296.082377,7994.224174
2653.888101,1072.533697,-814.226536,8956.491898
2653.888430,612.876398,-1036.288319,9844.739029
2653.888759,-459.657299,-592.164754,9474.636058
2653.889088,612.876398,-0.000000,8660.409521
2653.889417,612.876398,-0.000000,8808.450710
2653.889746,153.219100,-666.185348,9770.718434
2653.890075,-1302.362347,-666.185348,10584.944971
2653.890404,-1072.533697,-0.000000,9326.594869
2653.890733,0.000000,-518.144159,8882.471304
2653.891063,459.657299,-1406.391290,8734.430116
2653.891392,-153.219100,-1480.411884,9770.718434
2653.891721,0.000000,-296.082377,9178.553681
2653.892050,612.876398,962.267725,7994.224174
2653.892379,1762.019645,-74.020594,8364.327145
2653.892708,1532.190996,-518.144159,9252.574275
2653.893037,1378.971896,666.185348,9326.594869
2653.893366,766.095498,666.185348,8290.306550
2653.893695,1685.410096,370.102971,7920.203579
2653.894024,1915.238745,-0.000000,7698.141797
2653.894353,766.095498,-0.000000,9400.615463
2653.894682,306.438199,-666.185348,9104.533087
2653.895011,-229.828649,666.185348,8290.306550
2653.895340,536.266849,-518.144159,8586.388927
2653.895669,-153.219100,-1258.350101,9696.697840
2653.895998,-1149.143247,-148.041188,10807.006753
2653.896327,-1532.190996,-0.000000,9326.594869
2653.896656,-153.219100,-148.041188,9030.512492
2653.896985,153.219100,-1184.329507,9474.636058
2653.897314,229.828649,-518.144159,9474.636058
2653.897643,459.657299,-370.102971,9548.656652
2653.897972,536.266849,1258.350101,8586.388927
2653.898301,2068.457845,666.185348,8586.388927
2653.898630,1991.848295,296.082377,9548.656652
2653.898959,689.485948,666.185348,9770.718434
2653.899288,1532.190996,1554.432478,8142.265362
2653.899617,1455.581446,444.123565,8290.306550
2653.899946,1302.362347,-962.267725,9696.697840
2653.900275,-306.438199,-814.226536,9696.697840
2653.900604,-1149.143247,-74.020594,9696.697840
2653.900933,-612.876398,-0.000000,8882.471304
2653.901262,-153.219100,-444.123565,8882.471304
2653.901591,-1072.533697,-1184.329507,9918.759623
2653.901920,-1455.581446,-888.247130,10066.800811
2653.902249,-995.924147,-1110.308913,9918.759623
2653.902578,153.219100,-1480.411884,8956.491898
2653.902907,306.438199,-1332.370696,9252.574275
2653.903236,0.000000,-666.185348,9474.636058
2653.903565,383.047749,222.061783,9104.533087
2653.903894,1608.800546,1110.308913,7994.224174
2653.904223,2221.676944,592.164754,8068.244768
2653.904552,2145.067394,296.082377,8586.388927
2653.904881,1378.971896,-222.061783,9474.636058
2653.905210,919.314598,1110.308913,7920.203579
2653.905539,1532.190996,-74.020594,7994.224174
2653.905868,1225.752797,-666.185348,8660.409521
2653.906197,-306.438199,-740.205942,9474.636058
2653.906526,0.000000,296.082377,9104.533087
2653.906855,-612.876398,740.205942,8290.306550
2653.907184,0.000000,-518.144159,8808.450710
2653.907512,-995.924147,-1184.329507,10214.842000
2653.907841,-1302.362347,-666.185348,9548.656652
2653.908170,-919.314598,-148.041188,9548.656652
2653.908499,306.438199,-888.247130,9696.697840
2653.908828,383.047749,-1406.391290,9400.615463
2653.909157,1072.533697,-1406.391290,9770.718434
2653.909486,1455.581446,296.082377,8808.450710
2653.909815,1915.238745,1406.391290,7772.162391
2653.910144,2451.505594,-0.000000,8512.368333
2653.910473,1685.410096,1036.288319,9400.615463
2653.910802,1149.143247,962.267725,9400.615463
2653.911131,1685.410096,1332.370696,8290.306550
2653.911460,1685.410096,518.144159,7920.203579
2653.911789,1149.143247,-444.123565,9104.533087
2653.912118,-306.438199,-444.123565,9622.677246
2653.912447,-1072.533697,-0.000000,9474.636058
2653.912776,-383.047749,-0.000000,8882.471304
2653.913105,-536.266849,-666.185348,9252.574275
2653.913434,-1302.362347,-296.082377,10288.862594
2653.913763,-1915.238745,-518.144159,9770.718434
2653.914092,-1149.143247,-74.020594,9474.636058
2653.914421,689.485948,-962.267725,8290.306550
2653.914750,842.705048,-666.185348,8808.450710
2653.915079,306.438199,-296.082377,9696.697840
2653.915408,612.876398,740.205942,9326.594869
2653.915737,2068.457845,888.247130,8216.285956
2653.916066,2145.067394,-0.000000,8364.327145
2653.916395,1302.362347,-370.102971,9030.512492
2653.916724,76.609550,518.144159,8808.450710
2653.917053,306.438199,296.082377,8142.265362
2653.917382,536.266849,-1258.350101,8142.265362
2653.917711,-459.657299,-1036.288319,9326.594869
2653.918040,-1149.143247,-1702.473667,10214.842000
2653.918369,-1762.019645,-666.185348,9474.636058
2653.918698,-766.095498,-962.267725,8808.450710
2653.919027,-536.266849,-1110.308913,9104.533087
2653.919356,-1225.752797,-1702.473667,10288.862594
2653.919685,-1685.410096,-74.020594,9622.677246
2653.920014,153.219100,-444.123565,8734.430116
2653.920343,1225.752797,-1184.329507,7846.182985
2653.920672,919.314598,-962.267725,9252.574275
2653.921001,919.314598,-222.061783,10140.821405
2653.921330,995.924147,962.267725,8068.244768
2653.921659,1915.238745,1184.329507,7994.224174
2653.921988,1915.238745,518.144159,8956.491898
2653.922317,536.266849,370.102971,9474.636058
2653.922646,-153.219100,592.164754,9474.636058
2653.922975,306.438199,888.247130,8660.409521
2653.923304,76.609550,-518.144159,8364.327145
2653.923633,0.000000,-1850.514855,9326.594869
2653.923962,-1302.362347,-814.226536,9400.615463
2653.924291,-919.314598,222.061783,9400.615463
2653.924620,229.828649,-740.205942,8290.306550
2653.924949,-612.876398,-444.123565,8586.388927
2653.925278,612.876398,-444.123565,9400.615463
2653.925607,0.000000,888.247130,8438.347739
2653.925936,995.924147,-0.000000,8142.265362
2653.926265,1532.190996,-0.000000,8142.265362
2653.926594,1072.533697,-0.000000,8734.430116
2653.926923,612.876398,296.082377,9622.677246
2653.927252,995.924147,148.041188,8142.265362
2653.927581,1225.752797,1036.288319,8808.450710
2653.927910,766.095498,-0.000000,9474.636058
2653.928239,0.000000,-74.020594,9474.636058
2653.928568,-306.438199,296.082377,9474.636058
2653.928896,459.657299,222.061783,8882.471304
2653.929225,153.219100,-888.247130,8660.409521
2653.929554,-76.609550,-1776.494261,9622.677246
2653.929883,-1225.752797,296.082377,9474.636058
2653.930212,229.828649,-444.123565,9474.636058
2653.930541,383.047749,-0.000000,7772.162391
2653.930870,-383.047749,-1036.288319,9400.615463
2653.931199,-612.876398,-888.247130,11177.109724
2653.931528,-459.657299,370.102971,9474.636058
2653.931857,306.438199,-148.041188,8660.409521
2653.932186,1915.238745,-962.267725,9326.594869
2653.932515,1225.752797,-740.205942,9548.656652
2653.932844,459.657299,444.123565,9474.636058
2653.933173,1915.238745,-0.000000,8882.471304
2653.933502,1685.410096,296.082377,8438.347739
2653.933831,1762.019645,-0.000000,9400.615463
2653.934160,1532.190996,518.144159,9696.697840
2653.934489,306.438199,370.102971,8734.430116
2653.934818,1915.238745,296.082377,8142.265362
2653.935147,995.924147,-1184.329507,8808.450710
2653.935476,0.000000,-1702.473667,9548.656652
2653.935805,-536.266849,-592.164754,9400.615463
2653.936134,0.000000,-148.041188,8586.388927
2653.936463,0.000000,-1110.308913,8512.368333
2653.936792,-459.657299,-444.123565,10066.800811
2653.937121,-689.485948,-370.102971,9844.739029
2653.937450,-536.266849,-0.000000,8882.471304
2653.937779,1302.362347,592.164754,8438.347739
2653.938108,919.314598,-592.164754,9104.533087
2653.938437,536.266849,-518.144159,9770.718434
2653.938766,919.314598,296.082377,9474.636058
2653.939095,459.657299,1332.370696,7476.080014
2653.939424,2298.286494,370.102971,7846.182985
2653.939753,1225.752797,-444.123565,9104.533087
2653.940082,-229.828649,-0.000000,9770.718434
2653.940411,-536.266849,-0.000000,8586.388927
2653.940740,-229.828649,-666.185348,8734.430116
2653.941069,-536.266849,-1184.329507,9474.636058
2653.941398,-689.485948,-1184.329507,10214.842000
2653.941727,-842.705048,222.061783,8882.471304
2653.942056,-536.266849,1110.308913,8142.265362
2653.942385,0.000000,370.102971,9030.512492
2653.942714,-689.485948,-0.000000,9548.656652
2653.943043,-995.924147,-74.020594,10066.800811
2653.943372,-919.314598,-222.061783,8586.388927
2653.943701,-153.219100,-444.123565,9104.533087
2653.944030,536.266849,-1628.453072,9548.656652
2653.944359,-612.876398,-1332.370696,9918.759623
2653.944688,229.828649,-0.000000,9696.697840
2653.945017,995.924147,518.144159,8364.327145
2653.945346,1991.848295,666.185348,8216.285956
2653.945675,1225.752797,-370.102971,9030.512492
2653.946004,459.657299,-0.000000,9770.718434
2653.946333,612.876398,222.061783,8586.388927
2653.946662,1532.190996,-222.061783,7550.100608
2653.946991,459.657299,-740.205942,8734.430116
2653.947320,-919.314598,-888.247130,9992.780217
2653.947649,-919.314598,-592.164754,9548.656652
2653.947978,0.000000,-814.226536,8660.409521
2653.948307,689.485948,-1036.288319,9400.615463
2653.948636,-766.095498,-1258.350101,10066.800811
2653.948965,-1149.143247,-518.144159,10140.821405
2653.949294,229.828649,-0.000000,9178.553681
2653.949623,1455.581446,-666.185348,8364.327145
2653.949951,1838.629195,-592.164754,8734.430116
2653.950280,1762.019645,-0.000000,9252.574275
2653.950609,2374.896044,1184.329507,8882.471304
2653.950938,3370.820191,1332.370696,7402.059420
2653.951267,3447.429741,814.226536,8216.285956
2653.951596,1532.190996,296.082377,8956.491898
2653.951925,766.095498,444.123565,9696.697840
2653.952254,536.266849,222.061783,7920.203579
2653.952583,842.705048,-518.144159,7920.203579
2653.952912,-612.876398,-1998.556043,9992.780217
2653.953241,-1378.971896,-1924.535449,10732.986159
2653.953570,-1915.238745,-1258.350101,9474.636058
2653.953899,-919.314598,-222.061783,9104.533087
2653.954228,-229.828649,-444.123565,9030.512492
2653.954557,-1225.752797,-592.164754,10140.821405
2653.954886,-612.876398,1258.350101,9178.553681
2653.955215,689.485948,1406.391290,7476.080014
2653.955544,2145.067394,296.082377,7698.141797
2653.955873,2298.286494,592.164754,9178.553681
2653.956202,1455.581446,592.164754,9326.594869
2653.956531,1838.629195,1184.329507,8290.306550
2653.956860,2145.067394,1850.514855,7846.182985
2653.957189,2068.457845,444.123565,8586.388927
2653.957518,1072.533697,-0.000000,9992.780217
2653.957847,0.000000,-0.000000,9622.677246
2653.958176,-842.705048,-0.000000,8512.368333
2653.958505,-383.047749,-518.144159,9696.697840
2653.958834,-995.924147,-1628.453072,9178.553681
2653.959163,-1455.581446,-1184.329507,9918.759623
2653.959492,-1915.238745,-148.041188,10436.903782
2653.959821,-919.314598,-370.102971,9400.615463
2653.960150,-612.876398,-1480.411884,9548.656652
2653.960479,-1762.019645,-518.144159,9326.594869
2653.960808,-536.266849,-370.102971,9474.636058
2653.961137,229.828649,-444.123565,8734.430116
2653.961466,1608.800546,-888.247130,8290.306550
2653.961795,1915.238745,-962.267725,9474.636058
2653.962124,1225.752797,-888.247130,9252.574275
2653.962453,1225.752797,-0.000000,8290.306550
2653.962782,1685.410096,592.164754,8512.368333
2653.963111,1455.581446,-0.000000,8808.450710
2653.963440,383.047749,-592.164754,9548.656652
2653.963769,-612.876398,222.061783,9400.615463
2653.964098,-229.828649,-592.164754,8142.265362
2653.964427,536.266849,-1554.432478,8660.409521
2653.964756,-766.095498,-2294.638420,9030.512492
2653.965085,-2068.457845,-1480.411884,9400.615463
2653.965414,-919.314598,-592.164754,8660.409521
2653.965743,-383.047749,-74.020594,7846.182985
2653.966072,-383.047749,-814.226536,9104.533087
2653.966401,-995.924147,-444.123565,10214.842000
2653.966730,-919.314598,-518.144159,9844.739029
2653.967059,1378.971896,370.102971,7402.059420
2653.967388,1532.190996,592.164754,8734.430116
2653.967717,842.705048,-148.041188,9030.512492
2653.968046,1302.362347,444.123565,9992.780217
2653.968375,2068.457845,1332.370696,8734.430116
2653.968704,2451.505594,1628.453072,7402.059420
2653.969033,2221.676944,1332.370696,8142.265362
2653.969362,995.924147,518.144159,10436.903782
2653.969691,229.828649,1998.556043,8660.409521
2653.970020,1225.752797,444.123565,7476.080014
2653.970349,1149.143247,-592.164754,8586.388927
2653.970678,-229.828649,-1332.370696,9548.656652
2653.971007,-612.876398,-296.082377,9770.718434
2653.971335,-612.876398,-888.247130,8734.430116
2653.971664,-459.657299,-592.164754,8512.368333
2653.971993,-766.095498,-1184.329507,10510.924376
2653.972322,-1608.800546,-518.144159,10584.944971
2653.972651,-1302.362347,-222.061783,9992.780217
2653.972980,306.438199,518.144159,9474.636058
2653.973309,1532.190996,-296.082377,9326.594869
2653.973638,536.266849,-740.205942,10288.862594
2653.973967,919.314598,-74.020594,9622.677246
2653.974296,1532.190996,888.247130,8438.347739
2653.974625,2145.067394,814.226536,8808.450710
2653.974954,1915.238745,-0.000000,8512.368333
2653.975283,919.314598,-0.000000,9252.574275
2653.975612,459.657299,444.123565,8734.430116
2653.975941,766.095498,-444.123565,7698.141797
2653.976270,536.266849,-2294.638420,9400.615463
2653.976599,-1149.143247,-2368.659014,9918.759623
2653.976928,-919.314598,-1110.308913,10066.800811
2653.977257,-1225.752797,-222.061783,9030.512492
2653.977586,-612.876398,-518.144159,8882.471304
2653.977915,-459.657299,-888.247130,9770.718434
2653.978244,-766.095498,-0.000000,9918.759623
2653.978573,-306.438199,148.041188,9474.636058
2653.978902,842.705048,-296.082377,8586.388927
2653.979231,1532.190996,-222.061783,7846.182985
2653.979560,1225.752797,-518.144159,9178.553681
2653.979889,1378.971896,370.102971,8438.347739
2653.980218,1915.238745,592.164754,7105.977043
2653.980547,2451.505594,444.123565,7698.141797
2653.980876,2221.676944,148.041188,8808.450710
2653.981205,612.876398,-0.000000,9104.533087
2653.981534,459.657299,370.102971,7846.182985
2653.981863,689.485948,222.061783,8068.244768
2653.982192,306.438199,-1332.370696,8512.368333
2653.982521,-766.095498,-1258.350101,9770.718434
2653.982850,-766.095498,-888.247130,9474.636058
2653.983179,153.219100,-0.000000,9030.512492
2653.983508,-842.705048,-74.020594,9178.553681
2653.983837,-1302.362347,-666.185348,10214.842000
2653.984166,-842.705048,-518.144159,10510.924376
2653.984495,-536.266849,370.102971,8956.491898
2653.984824,0.000000,814.226536,8438.347739
2653.985153,766.095498,-518.144159,8882.471304
2653.985482,766.095498,-740.205942,9696.697840
2653.985811,1072.533697,-0.000000,9474.636058
2653.986140,1225.752797,888.247130,8512.368333
2653.986469,1762.019645,740.205942,8290.306550
2653.986798,1302.362347,814.226536,9178.553681
2653.987127,306.438199,1036.288319,9696.697840
2653.987456,459.657299,814.226536,8734.430116
2653.987785,153.219100,296.082377,8512.368333
2653.988114,-306.438199,-814.226536,8882.471304
2653.988443,-2145.067394,-1258.350101,10584.944971
2653.988772,-2834.553343,-444.123565,9844.739029
2653.989101,-2068.457845,148.041188,9178.553681
2653.989430,-2221.676944,-148.041188,9326.594869
2653.989759,-2374.896044,-740.205942,8882.471304
2653.990088,-2911.162892,-370.102971,9622.677246
2653.990417,-2987.772442,-0.000000,8956.491898
2653.990746,-2451.505594,-444.123565,8512.368333
2653.991075,-2068.457845,-1628.453072,9178.553681
2653.991404,-3064.381992,-1480.411884,9696.697840
2653.991733,-3294.210641,-1406.391290,9030.512492
2653.992062,-3217.601092,-592.164754,9548.656652
2653.992391,-1762.019645,-888.247130,8956.491898
2653.992719,-2451.505594,-1332.370696,9696.697840
2653.993048,-3217.601092,-592.164754,9992.780217
2653.993377,-2374.896044,-222.061783,10066.800811
2653.993706,-2374.896044,296.082377,7624.121203
2653.994035,-2068.457845,-518.144159,7624.121203
2653.994364,-1838.629195,-666.185348,8290.306550
2653.994693,-2145.067394,296.082377,9548.656652
2653.995022,-2451.505594,-148.041188,7772.162391
2653.995351,-1149.143247,222.061783,6735.874072
2653.995680,-1302.362347,296.082377,7920.203579
2653.996009,-2068.457845,666.185348,9030.512492
2653.996338,-2298.286494,-814.226536,9104.533087
2653.996667,-2987.772442,-74.020594,9030.512492
2653.996996,-1608.800546,-740.205942,9400.615463
2653.997325,-1149.143247,592.164754,9104.533087
2653.997654,-1991.848295,-296.082377,9400.615463
2653.997983,-1915.238745,-1480.411884,10288.862594
2653.998312,-1532.190996,-592.164754,9622.677246
2653.998641,-919.314598,444.123565,8586.388927
2653.998970,-995.924147,1776.494261,8512.368333
2653.999299,-1762.019645,1924.535449,8068.244768
2653.999629,-2221.676944,-222.061783,9178.553681
2653.999958,-2221.676944,-0.000000,8956.491898
2654.000287,-2298.286494,888.247130,8882.471304
2654.000616,-2834.553343,740.205942,8512.368333
2654.000945,-3140.991542,518.144159,7994.224174
2654.001274,-3294.210641,-1184.329507,9548.656652
2654.001603,-3600.648841,-2664.741391,10288.862594
2654.001932,-3753.867940,-1776.494261,10584.944971
2654.002261,-4213.525239,-1110.308913,10066.800811
2654.002590,-3983.696590,370.102971,9178.553681
2654.002919,-3830.477490,-0.000000,9474.636058
2654.003249,-3217.601092,-518.144159,10362.883188
2654.003578,-2834.553343,-148.041188,10140.821405
2654.003907,-2374.896044,296.082377,9474.636058
2654.004236,-2145.067394,222.061783,8660.409521
2654.004565,-1915.238745,-0.000000,8512.368333
2654.004894,-2145.067394,-0.000000,9104.533087
2654.005223,-2374.896044,-148.041188,8660.409521
2654.005552,-2757.943793,-1184.329507,8808.450710
2654.005881,-2528.115143,-1036.288319,8586.388927
2654.006210,-2604.724693,-0.000000,8364.327145
2654.006539,-2681.334243,-148.041188,8586.388927
2654.006868,-2604.724693,-0.000000,9030.512492
2654.007198,-2757.943793,444.123565,8512.368333
2654.007527,-2604.724693,222.061783,8808.450710
2654.007856,-2451.505594,296.082377,8734.430116
2654.008185,-2221.676944,-0.000000,9178.553681
2654.008514,-2068.457845,-740.205942,9030.512492
2654.008843,-2757.943793,-222.061783,9474.636058
2654.009172,-2834.553343,-814.226536,9918.759623
2654.009501,-2757.943793,-444.123565,9030.512492
2654.009830,-2451.505594,-0.000000,8364.327145
2654.010159,-2298.286494,-666.185348,8882.471304
2654.010488,-2451.505594,-962.267725,8956.491898
2654.010817,-2681.334243,-1480.411884,9400.615463
2654.011147,-3217.601092,-1184.329507,9030.512492
2654.011476,-3370.820191,-0.000000,9178.553681
2654.011805,-3600.648841,-296.082377,9326.594869
2654.012134,-3600.648841,888.247130,9474.636058
2654.012463,-3600.648841,666.185348,9178.553681
2654.012792,-3217.601092,-0.000000,9104.533087
2654.013121,-2451.505594,-518.144159,9252.574275
2654.013450,-1762.019645,-888.247130,9400.615463
2654.013779,-1762.019645,-666.185348,9252.574275
2654.014108,-1685.410096,-0.000000,8290.306550
2654.014437,-1838.629195,592.164754,8660.409521
2654.014766,-1532.190996,666.185348,8882.471304
2654.015096,0.000000,1184.329507,8808.450710
2654.015425,-306.438199,1628.453072,7476.080014
2654.015754,0.000000,962.267725,8068.244768
2654.016083,-1685.410096,370.102971,8142.265362
2654.016412,-2145.067394,222.061783,9178.553681
2654.016741,-3140.991542,-1036.288319,9474.636058
2654.017070,-2987.772442,-1332.370696,9622.677246
2654.017399,-3677.258390,-1332.370696,9400.615463
2654.017728,-4290.134789,-1554.432478,10066.800811
2654.018057,-4443.353888,-1406.391290,11029.068536
2654.018386,-4213.525239,-1184.329507,11177.109724
2654.018716,-3370.820191,-592.164754,10140.821405
2654.019045,-2298.286494,-0.000000,9326.594869
2654.019374,-1302.362347,740.205942,9104.533087
2654.019703,-1838.629195,1554.432478,7105.977043
2654.020032,-1608.800546,296.082377,8512.368333
2654.020361,-766.095498,-0.000000,9548.656652
2654.020690,459.657299,-0.000000,7402.059420
2654.021019,689.485948,444.123565,8142.265362
2654.021348,-689.485948,-0.000000,7254.018232
2654.021677,-1455.581446,-148.041188,8586.388927
2654.022006,-2068.457845,-740.205942,9474.636058
2654.022335,-2451.505594,-370.102971,9474.636058
2654.022665,-1532.190996,-1110.308913,10658.965565
2654.022994,-2374.896044,444.123565,9030.512492
2654.023323,-3753.867940,-0.000000,9252.574275
2654.023652,-3830.477490,370.102971,9178.553681
2654.023981,-3370.820191,962.267725,8512.368333
2654.024310,-3140.991542,-0.000000,8734.430116
2654.024639,-3140.991542,-0.000000,8290.306550
2654.024968,-3907.087040,-814.226536,9104.533087
2654.025297,-4443.353888,-2368.659014,9474.636058
2654.025626,-4903.011187,-2368.659014,9474.636058
2654.025955,-4903.011187,-1924.535449,9696.697840
2654.026284,-4366.744339,-1850.514855,9992.780217
2654.026614,-4596.572988,-1036.288319,10066.800811
2654.026943,-3677.258390,-814.226536,9770.718434
2654.027272,-3370.820191,444.123565,9252.574275
2654.027601,-2451.505594,-0.000000,9178.553681
2654.027930,-1915.238745,1258.350101,8660.409521
2654.028259,-1225.752797,2072.576638,8290.306550
2654.028588,-1149.143247,2516.700203,7402.059420
2654.028917,-2221.676944,1924.535449,7772.162391
2654.029246,-1991.848295,1776.494261,7846.182985
2654.029575,-1838.629195,1036.288319,7698.141797
2654.029904,-1915.238745,666.185348,7624.121203
2654.030234,-2451.505594,-0.000000,7846.182985
2654.030563,-2834.553343,-0.000000,8660.409521
2654.030892,-3140.991542,814.226536,8512.368333
2654.031221,-2757.943793,1332.370696,8956.491898
2654.031550,-3217.601092,1258.350101,8882.471304
2654.031879,-2374.896044,962.267725,10362.883188
2654.032208,-3064.381992,1332.370696,9696.697840
2654.032537,-4060.306139,-0.000000,11177.109724
2654.032866,-4596.572988,-222.061783,11843.295072
2654.033195,-2911.162892,-222.061783,11695.253884
2654.033524,-2221.676944,666.185348,10584.944971
2654.033853,-842.705048,444.123565,9992.780217
2654.034183,-689.485948,2294.638420,8290.306550
2654.034512,-383.047749,148.041188,11695.253884
2654.034841,1608.800546,2220.617826,9178.553681
2654.035170,3447.429741,3330.926739,5995.668130
2654.035499,4366.744339,3775.050304,7105.977043
2654.035828,2604.724693,4441.235652,5329.482782
2654.036157,3830.477490,4367.215058,8808.450710
2654.036486,1608.800546,4663.297435,6587.832884
2654.036815,3370.820191,4071.132681,8438.347739
2654.037144,1685.410096,2516.700203,9400.615463
2654.037473,0.000000,2368.659014,9992.780217
2654.037802,-1685.410096,1110.308913,11251.130318
2654.038132,-2145.067394,1110.308913,10584.944971
2654.038461,-1455.581446,1184.329507,11325.150913
2654.038790,-995.924147,1258.350101,10955.047942
2654.039119,76.609550,2960.823768,9474.636058
2654.039448,76.609550,2960.823768,8290.306550
2654.039777,1685.410096,2590.720797,7994.224174
2654.040106,2451.505594,5181.441594,6217.729913
2654.040435,2451.505594,4885.359217,6957.935855
2654.040764,2068.457845,4515.256246,7254.018232
2654.041093,0.000000,4441.235652,7698.141797
2654.041422,-1225.752797,2664.741391,9770.718434
2654.041752,-2911.162892,2220.617826,9474.636058
2654.042081,-2757.943793,740.205942,11251.130318
2654.042410,-3294.210641,888.247130,10436.903782
2654.042739,-2681.334243,2812.782580,9696.697840
2654.043068,-2834.553343,2812.782580,10510.924376
2654.043397,-3677.258390,2442.679609,10140.821405
2654.043726,-2604.724693,2220.617826,11177.109724
2654.044055,-1762.019645,2664.741391,9918.759623
2654.044384,-536.266849,3182.885551,8512.368333
2654.044713,-842.705048,2960.823768,8734.430116
2654.045042,-1149.143247,2590.720797,9548.656652
2654.045371,383.047749,2368.659014,12065.356855
2654.045701,2374.896044,3997.112087,7031.956449
2654.046030,3677.258390,3997.112087,7846.182985
2654.046359,2757.943793,5329.482782,5699.585753
2654.046688,3447.429741,7031.956449,5995.668130
2654.047017,2221.676944,6883.915261,7846.182985
2654.047346,1762.019645,5403.503377,7550.100608
2654.047675,1762.019645,6365.771101,8290.306550
2654.048004,0.000000,5329.482782,8290.306550
2654.048333,-383.047749,3404.947333,9400.615463
2654.048662,-2068.457845,740.205942,12953.603985
2654.048991,-1608.800546,-1110.308913,11399.171507
2654.049320,-1838.629195,1258.350101,10732.986159
2654.049650,-995.924147,-1406.391290,12213.398043
2654.049979,-2221.676944,3552.988522,8290.306550
2654.050308,459.657299,2442.679609,11769.274478
2654.050637,2221.676944,4737.318029,8068.244768
2654.050966,2528.115143,5033.400406,8216.285956
2654.051295,3677.258390,4663.297435,7031.956449
2654.051624,3753.867940,5033.400406,7550.100608
2654.051953,2145.067394,5403.503377,8216.285956
2654.052282,689.485948,2590.720797,7476.080014
2654.052611,-766.095498,1184.329507,10807.006753
2654.052940,-2298.286494,296.082377,11991.336260
2654.053269,-2451.505594,888.247130,11251.130318
2654.053599,-2221.676944,518.144159,11177.109724
2654.053928,-2757.943793,1258.350101,8956.491898
2654.054257,-1149.143247,1850.514855,10881.027347
2654.054586,-1532.190996,1998.556043,9400.615463
2654.054915,-536.266849,1850.514855,9992.780217
2654.055244,2068.457845,518.144159,12657.521608
2654.055573,2757.943793,2220.617826,6883.915261
2654.055902,5132.839837,2812.782580,9030.512492
2654.056231,2604.724693,3404.947333,5329.482782
2654.056560,4136.915689,3923.091493,6439.791695
2654.056889,3140.991542,4959.379811,7698.141797
2654.057219,2528.115143,4737.318029,6587.832884
2654.057548,1915.238745,4885.359217,7402.059420
2654.057877,842.705048,2442.679609,8734.430116
2654.058206,-3447.429741,-814.226536,11695.253884
2654.058535,-4136.915689,-4811.338623,13619.789333
2654.058864,-3140.991542,814.226536,10436.903782
2654.059193,-3064.381992,-3701.029710,12139.377449
2654.059522,-2834.553343,1406.391290,8364.327145
2654.059851,-766.095498,2664.741391,10732.986159
2654.060180,153.219100,2368.659014,8438.347739
2654.060509,153.219100,4293.194464,7254.018232
2654.060838,4443.353888,2516.700203,9696.697840
2654.061168,2681.334243,3849.070898,4219.173869
2654.061497,4290.134789,4441.235652,9474.636058
2654.061826,3447.429741,5329.482782,4737.318029
2654.062155,4596.572988,2442.679609,7031.956449
2654.062484,1838.629195,5107.421000,6513.812290
2654.062813,3294.210641,4441.235652,6661.853478
2654.063142,766.095498,4589.276840,7476.080014
2654.063471,-842.705048,4219.173869,7698.141797
2654.063800,-4673.182538,-1924.535449,15248.242405
2654.064129,-5745.716235,-1998.556043,13397.727550
2654.064458,-3140.991542,962.267725,10658.965565
2654.064787,-2911.162892,-5033.400406,12657.521608
2654.065117,-4443.353888,962.267725,10658.965565
2654.065446,-1532.190996,1850.514855,12805.562797
2654.065775,-1608.800546,3108.864956,8068.244768
2654.066104,-1991.848295,5181.441594,9918.759623
2654.066433,2681.334243,1110.308913,13323.706956
2654.066762,3524.039291,5403.503377,5773.606348
2654.067091,3677.258390,5699.585753,8660.409521
2654.067420,3294.210641,3627.009116,4293.194464
2654.067749,2757.943793,7550.100608,6661.853478
2654.068078,229.828649,5255.462188,9474.636058
2654.068407,-689.485948,6957.935855,7105.977043
2654.068737,153.219100,6439.791695,10436.903782
2654.069066,-306.438199,3478.967927,7624.121203
2654.069395,-766.095498,2516.700203,10732.986159
2654.069724,-3830.477490,-1110.308913,14804.118840
2654.070053,-1915.238745,-1628.453072,10807.006753
2654.070382,-995.924147,-148.041188,12361.439231
2654.070711,-919.314598,-2368.659014,11251.130318
2654.071040,-1532.190996,3997.112087,8512.368333
2654.071369,1225.752797,1998.556043,9548.656652
2654.071698,1991.848295,5255.462188,6957.935855
2654.072027,3064.381992,7254.018232,9104.533087
2654.072356,3600.648841,4367.215058,8216.285956
2654.072686,1838.629195,4663.297435,9030.512492
2654.073015,689.485948,5181.441594,9326.594869
2654.073344,995.924147,3923.091493,6439.791695
2654.073673,2145.067394,2886.803174,8660.409521
2654.074002,2528.115143,-0.000000,10955.047942
2654.074331,536.266849,-296.082377,12139.377449
2654.074660,-766.095498,222.061783,9326.594869
2654.074989,-383.047749,-0.000000,9474.636058
2654.075318,0.000000,518.144159,10066.800811
2654.075647,153.219100,3701.029710,7920.203579
2654.075976,383.047749,3034.844362,7772.162391
2654.076305,1149.143247,2442.679609,7846.182985
2654.076635,2528.115143,1480.411884,8734.430116
2654.076964,3217.601092,1776.494261,8808.450710
2654.077293,1685.410096,666.185348,8364.327145
2654.077622,153.219100,-370.102971,9474.636058
2654.077951,-1608.800546,-518.144159,9326.594869
2654.078280,-2145.067394,444.123565,9770.718434
2654.078609,-1378.971896,1110.308913,10732.986159
2654.078938,-612.876398,1776.494261,9622.677246
2654.079267,-1915.238745,740.205942,8512.368333
2654.079596,-1838.629195,-444.123565,10510.924376
2654.079925,-612.876398,-1628.453072,10288.862594
2654.080254,536.266849,-962.267725,8882.471304
2654.080584,689.485948,-0.000000,8438.347739
2654.080913,1532.190996,222.061783,8660.409521
2654.081242,3217.601092,-0.000000,7624.121203
2654.081571,4136.915689,666.185348,7105.977043
2654.081900,3140.991542,1702.473667,7105.977043
2654.082229,1225.752797,1332.370696,7772.162391
2654.082558,383.047749,814.226536,8734.430116
2654.082887,919.314598,-0.000000,9622.677246
2654.083216,153.219100,-1184.329507,9252.574275
2654.083545,-1991.848295,-2738.761985,10807.006753
2654.083874,-3370.820191,-3034.844362,11325.150913
2654.084204,-3677.258390,-2516.700203,11843.295072
2654.084533,-2221.676944,-2220.617826,10362.883188
2654.084862,-1378.971896,-1036.288319,8882.471304
2654.085191,-1608.800546,-370.102971,9844.739029
2654.085520,-1532.190996,-0.000000,8734.430116
2654.085849,995.924147,-0.000000,7476.080014
2654.086178,2834.553343,-0.000000,6883.915261
2654.086507,2451.505594,740.205942,6735.874072
2654.086836,1225.752797,444.123565,8216.285956
2654.087165,536.266849,-1776.494261,9622.677246
2654.087494,1608.800546,-2072.576638,9770.718434
2654.087823,919.314598,-1702.473667,9548.656652
2654.088153,-1072.533697,-666.185348,9622.677246
2654.088482,-1991.848295,-592.164754,10436.903782
2654.088811,-842.705048,444.123565,10732.986159
2654.089140,0.000000,-0.000000,8808.450710
2654.089469,-842.705048,-518.144159,8956.491898
2654.089798,-995.924147,-888.247130,9992.780217
2654.090127,0.000000,-1110.308913,10066.800811
2654.090456,1072.533697,-1036.288319,8512.368333
2654.090785,1991.848295,-222.061783,6809.894666
2654.091114,383.047749,148.041188,7994.224174
2654.091443,536.266849,962.267725,8512.368333
2654.091772,1838.629195,592.164754,7402.059420
2654.092102,3140.991542,1702.473667,7105.977043
2654.092431,1915.238745,666.185348,7402.059420
2654.092760,919.314598,296.082377,10584.944971
2654.093089,76.609550,-1184.329507,10955.047942
2654.093418,995.924147,-740.205942,9770.718434
2654.093747,919.314598,-0.000000,8956.491898
2654.094076,-459.657299,740.205942,10362.883188
2654.094405,0.000000,518.144159,10881.027347
2654.094734,1302.362347,296.082377,9474.636058
2654.095063,1762.019645,518.144159,7994.224174
2654.095392,1149.143247,444.123565,7624.121203
2654.095722,0.000000,962.267725,9178.553681
2654.096051,0.000000,-0.000000,9326.594869
2654.096380,1225.752797,-518.144159,8438.347739
2654.096709,383.047749,-592.164754,7476.080014
2654.097038,-995.924147,-222.061783,9326.594869
2654.097367,-1302.362347,-1258.350101,11177.109724
2654.097696,-153.219100,-222.061783,9474.636058
2654.098025,1149.143247,740.205942,8512.368333
2654.098354,536.266849,444.123565,9474.636058
2654.098683,-612.876398,740.205942,10584.944971
2654.099012,76.609550,518.144159,10510.924376
2654.099341,1685.410096,740.205942,8734.430116
2654.099671,1302.362347,1850.514855,7920.203579
2654.100000,-383.047749,740.205942,9400.615463
2654.100329,-842.705048,-444.123565,9622.677246
2654.100658,229.828649,-444.123565,9474.636058
2654.100987,842.705048,-962.267725,7624.121203
2654.101316,-689.485948,-444.123565,7698.141797
2654.101645,-1532.190996,-1702.473667,9918.759623
2654.101975,-919.314598,-2146.597232,10214.842000
2654.102304,536.266849,-1110.308913,8734.430116
2654.102633,306.438199,-370.102971,7476.080014
2654.102962,-842.705048,444.123565,8586.388927
2654.103291,-229.828649,888.247130,10288.862594
2654.103620,1455.581446,-0.000000,8808.450710
2654.103950,2145.067394,666.185348,7624.121203
2654.104279,1149.143247,962.267725,8438.347739
2654.104608,612.876398,-0.000000,10066.800811
2654.104937,919.314598,-0.000000,10140.821405
2654.105266,1225.752797,-518.144159,8586.388927
2654.105595,1149.143247,-148.041188,7328.038826
2654.105925,-995.924147,-592.164754,9474.636058
2654.106254,-229.828649,-1332.370696,10658.965565
2654.106583,1149.143247,-1998.556043,9030.512492
2654.106912,383.047749,-1702.473667,7772.162391
2654.107241,-612.876398,-1480.411884,8512.368333
2654.107570,-1302.362347,-1480.411884,10140.821405
2654.107900,-153.219100,-1628.453072,10288.862594
2654.108229,1532.190996,-296.082377,8660.409521
2654.108558,1225.752797,222.061783,8586.388927
2654.108887,0.000000,296.082377,9696.697840
2654.109216,612.876398,444.123565,9622.677246
2654.109545,1532.190996,-0.000000,9178.553681
2654.109875,1838.629195,-0.000000,7550.100608
2654.110204,229.828649,-666.185348,8364.327145
2654.110533,-612.876398,-1110.308913,10658.965565
2654.110862,612.876398,-1036.288319,9474.636058
2654.111191,1225.752797,-962.267725,8512.368333
2654.111520,-306.438199,-888.247130,7994.224174
2654.111850,-1149.143247,-666.185348,9178.553681
2654.112179,0.000000,-518.144159,9622.677246
2654.112508,1149.143247,-1110.308913,8364.327145
2654.112837,995.924147,-888.247130,7476.080014
2654.113166,153.219100,-1406.391290,9474.636058
2654.113495,-229.828649,-1184.329507,10436.903782
2654.113825,919.314598,-1184.329507,9622.677246
2654.114154,1378.971896,296.082377,8290.306550
2654.114483,536.266849,1184.329507,7846.182985
2654.114812,-306.438199,1406.391290,9622.677246
2654.115141,1149.143247,370.102971,9770.718434
2654.115470,1838.629195,-370.102971,7994.224174
2654.115800,1915.238745,-814.226536,7772.162391
2654.116129,0.000000,-962.267725,8512.368333
2654.116458,-229.828649,-1554.432478,10955.047942
2654.116787,689.485948,-962.267725,9178.553681
2654.117116,1072.533697,-74.020594,7328.038826
2654.117446,76.609550,740.205942,8586.388927
2654.117775,-995.924147,296.082377,9178.553681
2654.118104,0.000000,444.123565,9844.739029
2654.118433,1532.190996,-148.041188,9030.512492
2654.118762,689.485948,-0.000000,7994.224174
2654.119091,-995.924147,-370.102971,9696.697840
2654.119421,-1072.533697,-518.144159,10658.965565
2654.119750,0.000000,-1110.308913,10362.883188
2654.120079,1072.533697,-370.102971,8216.285956
2654.120408,-383.047749,518.144159,8216.285956
2654.120737,-919.314598,962.267725,9696.697840
2654.121066,153.219100,444.123565,9548.656652
2654.121396,1762.019645,444.123565,7772.162391
2654.121725,1378.971896,-0.000000,7698.141797
2654.122054,0.000000,-0.000000,8882.471304
2654.122383,-612.876398,-814.226536,10214.842000
2654.122712,229.828649,-1406.391290,9918.759623
2654.123041,1149.143247,-518.144159,8512.368333
2654.123371,-229.828649,370.102971,8216.285956
2654.123700,-1302.362347,518.144159,9548.656652
2654.124029,-229.828649,370.102971,9770.718434
2654.124358,1072.533697,-0.000000,8734.430116
2654.124687,383.047749,222.061783,7846.182985
2654.125016,-536.266849,-888.247130,9474.636058
2654.125346,-689.485948,-1036.288319,10658.965565
2654.125675,536.266849,-1480.411884,9400.615463
2654.126004,1302.362347,-666.185348,8438.347739
2654.126333,0.000000,-222.061783,8068.244768
2654.126662,-383.047749,444.123565,9400.615463
2654.126991,1149.143247,666.185348,9622.677246
2654.127321,2145.067394,814.226536,7550.100608
2654.127650,1302.362347,740.205942,7328.038826
2654.127979,229.828649,592.164754,9252.574275
2654.128308,689.485948,296.082377,9992.780217
2654.128637,1225.752797,-444.123565,9474.636058
2654.128966,919.314598,-148.041188,8438.347739
2654.129296,0.000000,-888.247130,9252.574275
2654.129625,0.000000,-222.061783,10066.800811
2654.129954,383.047749,-444.123565,9696.697840
2654.130283,536.266849,-666.185348,8956.491898
2654.130612,-459.657299,-148.041188,8512.368333
2654.130941,-1378.971896,-444.123565,9474.636058
2654.131271,-1225.752797,-1998.556043,10362.883188
2654.131600,766.095498,-1776.494261,9548.656652
2654.131929,612.876398,-1332.370696,8808.450710
2654.132258,-459.657299,-0.000000,8586.388927
2654.132587,0.000000,370.102971,9696.697840
2654.132916,1378.971896,222.061783,9252.574275
2654.133246,2604.724693,814.226536,7994.224174
2654.133575,1838.629195,1628.453072,7550.100608
2654.133904,1149.143247,1184.329507,8290.306550
2654.134233,766.095498,814.226536,9548.656652
2654.134562,1608.800546,740.205942,9326.594869
2654.134891,995.924147,-296.082377,8512.368333
2654.135221,-1072.533697,-444.123565,9844.739029
2654.135550,-1608.800546,-1258.350101,9992.780217
2654.135879,-536.266849,-1998.556043,10362.883188
2654.136208,459.657299,-1702.473667,9474.636058
2654.136537,-306.438199,-1702.473667,8586.388927
2654.136866,-1991.848295,-666.185348,9622.677246
2654.137196,-612.876398,-962.267725,9992.780217
2654.137525,689.485948,-740.205942,9030.512492
2654.137854,1149.143247,148.041188,7698.141797
2654.138183,536.266849,888.247130,8290.306550
2654.138512,689.485948,518.144159,9474.636058
2654.138842,2068.457845,-148.041188,9252.574275
2654.139171,2757.943793,-0.000000,7994.224174
2654.139500,1532.190996,370.102971,7550.100608
2654.139829,383.047749,592.164754,9104.533087
2654.140158,536.266849,-370.102971,9400.615463
2654.140487,1455.581446,-370.102971,8808.450710
2654.140817,766.095498,-222.061783,7550.100608
2654.141146,-1225.752797,-296.082377,9400.615463
2654.141475,-1915.238745,-888.247130,9844.739029
2654.141804,-766.095498,-1184.329507,9992.780217
2654.142133,0.000000,-1628.453072,8956.491898
2654.142462,-689.485948,-1258.350101,8882.471304
2654.142792,-1378.971896,-1110.308913,10658.965565
2654.143121,0.000000,-888.247130,10584.944971
2654.143450,1302.362347,-0.000000,8586.388927
2654.143779,1302.362347,592.164754,8290.306550
2654.144108,459.657299,1998.556043,8734.430116
2654.144437,766.095498,1776.494261,9252.574275
2654.144767,2374.896044,1110.308913,8586.388927
2654.145096,2374.896044,888.247130,7772.162391
2654.145425,1225.752797,740.205942,7994.224174
2654.145754,76.609550,-666.185348,9474.636058
2654.146083,153.219100,-518.144159,10066.800811
2654.146412,995.924147,-962.267725,8956.491898
2654.146742,0.000000,-222.061783,7772.162391
2654.147071,-1762.019645,-0.000000,8882.471304
2654.147400,-1378.971896,-0.000000,10214.842000
2654.147729,-153.219100,-814.226536,9474.636058
2654.148058,459.657299,-1036.288319,8290.306550
2654.148387,-995.924147,-148.041188,8512.368333
2654.148717,-1378.971896,-222.061783,10288.862594
2654.149046,-383.047749,-518.144159,10584.944971
2654.149375,766.095498,-222.061783,9104.533087
2654.149704,306.438199,370.102971,8438.347739
2654.150033,383.047749,888.247130,9252.574275
2654.150362,383.047749,666.185348,9696.697840
2654.150692,1608.800546,740.205942,9178.553681
2654.151021,1838.629195,1184.329507,7698.141797
2654.151350,919.314598,888.247130,8142.265362
2654.151679,459.657299,666.185348,10066.800811
2654.152008,842.705048,148.041188,9770.718434
2654.152337,1762.019645,-814.226536,9326.594869
2654.152667,459.657299,-74.020594,8734.430116
2654.152996,-1225.752797,444.123565,9474.636058
2654.153325,-995.924147,222.061783,10732.986159
2654.153654,0.000000,-0.000000,9696.697840
2654.153983,536.266849,-444.123565,8734.430116
2654.154312,-383.047749,444.123565,8882.471304
2654.154642,-995.924147,-222.061783,9548.656652
2654.154971,-459.657299,-1110.308913,10732.986159
2654.155300,1072.533697,-1036.288319,8956.491898
2654.155629,153.219100,-740.205942,8512.368333
2654.155958,-536.266849,296.082377,9474.636058
2654.156287,459.657299,-0.000000,9252.574275
2654.156617,2068.457845,-0.000000,8438.347739
2654.156946,1915.238745,740.205942,7772.162391
2654.157275,1149.143247,148.041188,8660.409521
2654.157604,383.047749,296.082377,9622.677246
2654.157933,766.095498,74.020594,8882.471304
2654.158262,1225.752797,-0.000000,8216.285956
2654.158592,0.000000,-0.000000,8586.388927
2654.158921,-1072.533697,-148.041188,9326.594869
2654.159250,-459.657299,-1554.432478,9992.780217
2654.159579,689.485948,-2220.617826,8808.450710
2654.159908,383.047749,-1406.391290,7772.162391
2654.160238,-842.705048,-1406.391290,9400.615463
2654.160567,-1915.238745,-1036.288319,9622.677246
2654.160896,-383.047749,-1110.308913,10140.821405
2654.161225,459.657299,-296.082377,8586.388927
2654.161554,-153.219100,296.082377,8364.327145
2654.161883,-689.485948,-222.061783,9992.780217
2654.162213,76.609550,-962.267725,10140.821405
2654.162542,2145.067394,-518.144159,9104.533087
2654.162871,2068.457845,-74.020594,7994.224174
2654.163200,919.314598,370.102971,8734.430116
2654.163529,766.095498,-0.000000,10362.883188
2654.163858,2145.067394,-0.000000,9770.718434
2654.164188,2681.334243,-0.000000,8216.285956
2654.164517,1532.190996,518.144159,7846.182985
2654.164846,-383.047749,592.164754,9178.553681
2654.165175,-229.828649,-0.000000,9548.656652
2654.165504,229.828649,-518.144159,8882.471304
2654.165833,0.000000,-666.185348,8808.450710
2654.166163,-2221.676944,-888.247130,9252.574275
2654.166492,-995.924147,-1554.432478,10881.027347
2654.166821,0.000000,-2220.617826,10362.883188
2654.167150,0.000000,-888.247130,8956.491898
2654.167479,-536.266849,-74.020594,8586.388927
2654.167808,-689.485948,740.205942,9474.636058
2654.168138,689.485948,962.267725,9696.697840
2654.168467,2681.334243,962.267725,8512.368333
2654.168796,1991.848295,1110.308913,7254.018232
2654.169125,1608.800546,888.247130,8882.471304
2654.169454,1378.971896,370.102971,9400.615463
2654.169783,2068.457845,148.041188,9030.512492
2654.170113,2068.457845,296.082377,7846.182985
2654.170442,229.828649,-0.000000,7846.182985
2654.170771,-1762.019645,222.061783,9178.553681
2654.171100,0.000000,-222.061783,9474.636058
2654.171429,383.047749,-0.000000,9104.533087
2654.171758,-612.876398,-296.082377,8364.327145
2654.172088,-2145.067394,-740.205942,9400.615463
2654.172417,-1915.238745,-1184.329507,11399.171507
2654.172746,-766.095498,-1924.535449,10066.800811
2654.173075,306.438199,-1332.370696,8956.491898
2654.173404,0.000000,-666.185348,9104.533087
2654.173733,-459.657299,148.041188,9918.759623
2654.174063,1455.581446,-222.061783,9844.739029
2654.174392,2911.162892,740.205942,7846.182985
2654.174721,2451.505594,1628.453072,7179.997637
2654.175050,1378.971896,1258.350101,8956.491898
2654.175379,1608.800546,888.247130,9474.636058
2654.175708,2374.896044,-74.020594,8956.491898
2654.176038,2221.676944,-0.000000,7920.203579
2654.176367,0.000000,518.144159,8216.285956
2654.176696,-1608.800546,-0.000000,10436.903782
2654.177025,-612.876398,-888.247130,9696.697840
2654.177354,76.609550,-888.247130,8734.430116
2654.177683,-689.485948,-666.185348,8438.347739
2654.178013,-2374.896044,-814.226536,9844.739029
2654.178342,-1608.800546,-222.061783,10807.006753
2654.178671,0.000000,-1184.329507,9622.677246
2654.179000,229.828649,-74.020594,8512.368333
2654.179329,-383.047749,-0.000000,9178.553681
2654.179658,76.609550,444.123565,9548.656652
2654.179988,1838.629195,296.082377,9104.533087
2654.180317,3370.820191,740.205942,7254.018232
2654.180646,2911.162892,1332.370696,7105.977043
2654.180975,995.924147,888.247130,8438.347739
2654.181304,1455.581446,370.102971,9400.615463
2654.181634,1915.238745,518.144159,8364.327145
2654.181963,1072.533697,-0.000000,7328.038826
2654.182292,-1149.143247,-0.000000,8068.244768
2654.182621,-383.047749,-518.144159,10214.842000
2654.182950,-229.828649,-1998.556043,10066.800811
2654.183279,-229.828649,-1258.350101,8808.450710
2654.183609,-842.705048,-1998.556043,9178.553681
2654.183938,-1608.800546,-1110.308913,10066.800811
2654.184267,-1072.533697,-1036.288319,10288.862594
2654.184596,0.000000,-888.247130,9474.636058
2654.184925,689.485948,-0.000000,8438.347739
2654.185254,76.609550,296.082377,8734.430116
2654.185584,229.828649,-0.000000,9844.739029
2654.185913,1455.581446,518.144159,8956.491898
2654.186242,2451.505594,-0.000000,7846.182985
2654.186571,1378.971896,148.041188,7624.121203
2654.186900,0.000000,-370.102971,9918.759623
2654.187229,1762.019645,-1184.329507,10362.883188
2654.187559,1838.629195,-740.205942,9178.553681
2654.187888,612.876398,-518.144159,8216.285956
2654.188217,-229.828649,-0.000000,8882.471304
2654.188546,-766.095498,-518.144159,10288.862594
2654.188875,0.000000,-370.102971,9622.677246
2654.189204,995.924147,-740.205942,8438.347739
2654.189534,0.000000,296.082377,8956.491898
2654.189863,-1455.581446,-666.185348,10510.924376
2654.190192,-306.438199,-1628.453072,10214.842000
2654.190521,229.828649,-1258.350101,9400.615463
2654.190850,306.438199,-666.185348,7994.224174
2654.191179,-689.485948,-296.082377,9252.574275
2654.191509,-153.219100,592.164754,9252.574275
2654.191838,1302.362347,148.041188,8364.327145
2654.192167,2145.067394,370.102971,7476.080014
2654.192496,995.924147,-0.000000,7772.162391
2654.192825,0.000000,-0.000000,9474.636058
2654.193154,153.219100,-74.020594,9474.636058
2654.193484,1685.410096,-370.102971,8216.285956
2654.193813,995.924147,-592.164754,8364.327145
2654.194142,-689.485948,-74.020594,9030.512492
2654.194471,-153.219100,-592.164754,9696.697840
2654.194800,766.095498,-666.185348,8734.430116
2654.195129,1149.143247,-74.020594,7994.224174
2654.195459,-306.438199,222.061783,8512.368333
2654.195788,-766.095498,-0.000000,9918.759623
2654.196117,-153.219100,-444.123565,9918.759623
2654.196446,536.266849,-962.267725,8586.388927
2654.196775,0.000000,-296.082377,7772.162391
2654.197104,-842.705048,-1184.329507,9548.656652
2654.197434,0.000000,-0.000000,10510.924376
2654.197763,919.314598,-666.185348,9252.574275
2654.198092,1455.581446,740.205942,7328.038826
2654.198421,383.047749,962.267725,8290.306550
2654.198750,153.219100,1184.329507,9696.697840
2654.199079,1455.581446,296.082377,9844.739029
2654.199409,2604.724693,222.061783,8734.430116
2654.199738,306.438199,814.226536,8438.347739
2654.200067,0.000000,740.205942,9770.718434
2654.200396,-229.828649,-74.020594,10214.842000
2654.200725,995.924147,-222.061783,9474.636058
2654.201054,1149.143247,-0.000000,7698.141797
2654.201383,0.000000,-0.000000,8438.347739
2654.201712,-1378.971896,-0.000000,10066.800811
2654.202041,0.000000,-1184.329507,10066.800811
2654.202370,229.828649,-370.102971,8586.388927
2654.202700,-689.485948,-296.082377,8586.388927
2654.203029,-1608.800546,-814.226536,9770.718434
2654.203358,-1302.362347,-296.082377,10140.821405
2654.203687,1149.143247,-592.164754,9104.533087
2654.204016,1378.971896,-74.020594,7920.203579
2654.204345,-306.438199,-0.000000,9474.636058
2654.204674,229.828649,-592.164754,10510.924376
2654.205003,766.095498,-222.061783,9474.636058
2654.205332,1685.410096,-222.061783,8512.368333
2654.205661,1072.533697,592.164754,7624.121203
2654.205991,0.000000,666.185348,9252.574275
2654.206320,612.876398,-0.000000,9770.718434
2654.206649,1915.238745,-370.102971,8734.430116
2654.206978,153.219100,148.041188,7994.224174
2654.207307,-383.047749,518.144159,7920.203579
2654.207636,-1072.533697,-296.082377,10362.883188
2654.207965,-536.266849,-1554.432478,10362.883188
2654.208294,306.438199,-1480.411884,8734.430116
2654.208623,-459.657299,-814.226536,8956.491898
2654.208952,-1608.800546,-370.102971,9770.718434
2654.209282,-612.876398,-222.061783,10066.800811
2654.209611,1302.362347,-222.061783,8956.491898
2654.209940,1455.581446,370.102971,7772.162391
2654.210269,689.485948,370.102971,8882.471304
2654.210598,612.876398,-0.000000,9844.739029
2654.210927,1685.410096,-592.164754,9918.759623
2654.211256,2987.772442,370.102971,7994.224174
2654.211585,1991.848295,-0.000000,7476.080014
2654.211914,229.828649,814.226536,8882.471304
2654.212244,1149.143247,592.164754,9400.615463
2654.212573,2068.457845,-0.000000,8660.409521
2654.212902,1072.533697,148.041188,7031.956449
2654.213231,0.000000,-0.000000,8512.368333
2654.213560,-766.095498,-740.205942,10066.800811
2654.213889,-766.095498,-2220.617826,10807.006753
2654.214218,0.000000,-1628.453072,8808.450710
2654.214547,-995.924147,-1332.370696,8734.430116
2654.214876,-1762.019645,-1184.329507,9992.780217
2654.215205,-383.047749,-888.247130,9992.780217
2654.215535,1072.533697,-296.082377,9178.553681
2654.215864,229.828649,-148.041188,8068.244768
2654.216193,0.000000,296.082377,8882.471304
2654.216522,0.000000,-74.020594,10140.821405
2654.216851,1532.190996,-296.082377,9474.636058
2654.217180,2374.896044,-0.000000,7772.162391
2654.217509,919.314598,222.061783,7994.224174
2654.217838,153.219100,222.061783,9474.636058
2654.218167,1225.752797,-1184.329507,9474.636058
2654.218496,1532.190996,-740.205942,8290.306550
2654.218826,229.828649,370.102971,7772.162391
2654.219155,-1225.752797,-0.000000,9326.594869
2654.219484,-1302.362347,-1184.329507,10584.944971
2654.219813,76.609550,-740.205942,10436.903782
2654.220142,153.219100,-1480.411884,9474.636058
2654.220471,-1378.971896,-888.247130,9474.636058
2654.220800,-1532.190996,-444.123565,10807.006753
2654.221129,-153.219100,-0.000000,10066.800811
2654.221458,1072.533697,296.082377,7994.224174
2654.221787,1149.143247,1258.350101,8364.327145
2654.222117,612.876398,1998.556043,9400.615463
2654.222446,995.924147,1036.288319,10066.800811
2654.222775,2374.896044,1036.288319,9400.615463
2654.223104,2604.724693,962.267725,7550.100608
2654.223433,919.314598,1258.350101,8512.368333
2654.223762,229.828649,148.041188,9474.636058
2654.224091,842.705048,-74.020594,9696.697840
2654.224420,1378.971896,296.082377,7846.182985
2654.224749,536.266849,370.102971,7698.141797
2654.225078,-1302.362347,-0.000000,9622.677246
2654.225408,-842.705048,-0.000000,10066.800811
2654.225737,0.000000,-592.164754,9548.656652
2654.226066,306.438199,-592.164754,8660.409521
2654.226395,-919.314598,-0.000000,8882.471304
2654.226724,-459.657299,-666.185348,9992.780217
2654.227053,229.828649,-888.247130,9474.636058
2654.227382,1915.238745,-296.082377,8586.388927
2654.227711,1302.362347,370.102971,7772.162391
2654.228040,536.266849,518.144159,9178.553681
2654.228369,842.705048,740.205942,9844.739029
2654.228699,2298.286494,-296.082377,9104.533087
2654.229028,2145.067394,-222.061783,7994.224174
2654.229357,842.705048,-148.041188,8438.347739
2654.229686,-229.828649,-296.082377,9696.697840
2654.230015,612.876398,-1258.350101,9622.677246
2654.230344,1302.362347,-592.164754,8512.368333
2654.230673,76.609550,-1184.329507,8142.265362
2654.231002,-1455.581446,-666.185348,10140.821405
2654.231331,-766.095498,-1480.411884,10807.006753
2654.231660,536.266849,-1702.473667,9474.636058
2654.231990,0.000000,-666.185348,8512.368333
2654.232319,-766.095498,-0.000000,9178.553681
2654.232648,-919.314598,148.041188,9844.739029
2654.232977,689.485948,-0.000000,9178.553681
2654.233306,1608.800546,-0.000000,7994.224174
2654.233635,1072.533697,962.267725,7772.162391
2654.233964,229.828649,-0.000000,9696.697840
2654.234293,919.314598,-222.061783,10066.800811
2654.234622,1532.190996,-666.185348,8586.388927
2654.234951,995.924147,-0.000000,7920.203579
2654.235281,-459.657299,296.082377,8882.471304
2654.235610,-229.828649,-0.000000,9770.718434
2654.235939,766.095498,-0.000000,9104.533087
2654.236268,1685.410096,-222.061783,8438.347739
2654.236597,0.000000,444.123565,8364.327145
2654.236926,-995.924147,-148.041188,9918.759623
2654.237255,-459.657299,-814.226536,10288.862594
2654.237584,766.095498,-740.205942,9622.677246
2654.237913,536.266849,-444.123565,8882.471304
2654.238242,-612.876398,-74.020594,8586.388927
2654.238572,0.000000,-0.000000,10066.800811
2654.238901,1455.581446,-0.000000,9104.533087
2654.239230,1915.238745,444.123565,8142.265362
2654.239559,919.314598,370.102971,8290.306550
2654.239888,153.219100,370.102971,9622.677246
2654.240217,689.485948,-148.041188,10510.924376
2654.240546,1455.581446,-444.123565,8660.409521
2654.240875,766.095498,-74.020594,8290.306550
2654.241204,-153.219100,-592.164754,9548.656652
2654.241533,-612.876398,-814.226536,10288.862594
2654.241863,536.266849,-592.164754,9918.759623
2654.242192,995.924147,-0.000000,7846.182985
2654.242521,0.000000,-0.000000,8512.368333
2654.242850,-1072.533697,-592.164754,10362.883188
2654.243179,306.438199,-2072.576638,10584.944971
2654.243508,1149.143247,-1110.308913,8586.388927
2654.243837,612.876398,-222.061783,7402.059420
2654.244166,-689.485948,518.144159,8882.471304
2654.244495,-459.657299,-0.000000,9844.739029
2654.244824,995.924147,-148.041188,8660.409521
2654.245154,1532.190996,-0.000000,7550.100608
2654.245483,0.000000,-74.020594,8068.244768
2654.245812,-383.047749,-0.000000,9770.718434
2654.246141,459.657299,-222.061783,9622.677246
2654.246470,1149.143247,-592.164754,8660.409521
2654.246799,383.047749,-0.000000,7698.141797
2654.247128,-766.095498,444.123565,8734.430116
2654.247457,-229.828649,-222.061783,9992.780217
2654.247786,1149.143247,148.041188,8734.430116
2654.248115,842.705048,370.102971,7550.100608
2654.248445,766.095498,518.144159,8216.285956
2654.248774,-689.485948,222.061783,9992.780217
2654.249103,306.438199,-0.000000,9696.697840
2654.249432,919.314598,222.061783,8586.388927
2654.249761,0.000000,592.164754,8142.265362
2654.250090,-842.705048,222.061783,9474.636058
2654.250419,0.000000,-296.082377,10066.800811
2654.250748,1225.752797,-148.041188,8882.471304
2654.251077,995.924147,-74.020594,7920.203579
2654.251406,-229.828649,-0.000000,8586.388927
2654.251736,-612.876398,-74.020594,10510.924376
2654.252065,919.314598,-222.061783,9918.759623
2654.252394,1685.410096,-222.061783,8216.285956
2654.252723,766.095498,370.102971,8808.450710
2654.253052,0.000000,296.082377,9474.636058
2654.253381,459.657299,-296.082377,10881.027347
2654.253710,1225.752797,296.082377,8808.450710
2654.254039,1302.362347,-370.102971,8512.368333
2654.254368,-229.828649,666.185348,8512.368333
2654.254697,-229.828649,-740.205942,9918.759623
2654.255027,229.828649,-814.226536,10362.883188
2654.255356,536.266849,-1036.288319,9104.533087
2654.255685,0.000000,-148.041188,8512.368333
2654.256014,-919.314598,-518.144159,9474.636058
2654.256343,-306.438199,-74.020594,9474.636058
2654.256672,919.314598,-814.226536,9030.512492
2654.257001,536.266849,-296.082377,7994.224174
2654.257330,76.609550,-222.061783,8586.388927
2654.257659,229.828649,-518.144159,10066.800811
2654.257988,689.485948,-296.082377,9474.636058
2654.258318,1532.190996,-518.144159,8364.327145
2654.258647,229.828649,-0.000000,8068.244768
2654.258976,-536.266849,-0.000000,9104.533087
2654.259305,153.219100,-518.144159,9400.615463
2654.259634,1608.800546,-370.102971,7772.162391
2654.259963,1225.752797,-148.041188,7402.059420
2654.260292,-459.657299,-296.082377,8660.409521
2654.260621,-689.485948,-1110.308913,9992.780217
2654.260950,76.609550,-1554.432478,9696.697840
2654.261279,459.657299,-888.247130,8142.265362
2654.261609,-229.828649,-0.000000,8438.347739
2654.261938,-612.876398,222.061783,9252.574275
2654.262267,383.047749,148.041188,10066.800811
2654.262596,1225.752797,296.082377,8142.265362
2654.262925,1302.362347,148.041188,8068.244768
2654.263254,0.000000,74.020594,9104.533087
2654.263583,0.000000,-296.082377,10066.800811
2654.263912,995.924147,-888.247130,9918.759623
2654.264241,1072.533697,-0.000000,8216.285956
2654.264571,76.609550,-74.020594,7105.977043
2654.264900,-689.485948,-0.000000,9770.718434
2654.265229,76.609550,-0.000000,9252.574275
2654.265558,1225.752797,666.185348,8216.285956
2654.265887,306.438199,-0.000000,7772.162391
2654.266216,-1072.533697,-148.041188,9030.512492
2654.266545,-1378.971896,-1554.432478,11177.109724
2654.266874,766.095498,-1998.556043,9548.656652
2654.267203,306.438199,-962.267725,8438.347739
2654.267532,-229.828649,-370.102971,8882.471304
2654.267862,-612.876398,296.082377,10288.862594
2654.268191,1072.533697,-222.061783,9844.739029
2654.268520,2451.505594,444.123565,7624.121203
2654.268849,1915.238745,888.247130,7105.977043
2654.269178,612.876398,296.082377,9474.636058
2654.269507,919.314598,370.102971,9696.697840
2654.269836,1455.581446,-296.082377,9178.553681
2654.270165,1072.533697,-0.000000,7994.224174
2654.270494,-229.828649,-0.000000,8364.327145
2654.270823,-766.095498,-444.123565,9696.697840
2654.271153,-842.705048,-518.144159,9992.780217
2654.271482,766.095498,-814.226536,8882.471304
2654.271811,0.000000,-222.061783,8364.327145
2654.272140,-1302.362347,-222.061783,9696.697840
2654.272469,-612.876398,-370.102971,10436.903782
2654.272798,383.047749,-740.205942,9326.594869
2654.273127,459.657299,222.061783,8660.409521
2654.273456,0.000000,222.061783,8734.430116
2654.273785,76.609550,518.144159,10214.842000
2654.274114,995.924147,592.164754,10066.800811
2654.274444,2528.115143,222.061783,7994.224174
2654.274773,1685.410096,592.164754,7994.224174
2654.275102,689.485948,518.144159,9400.615463
2654.275431,1378.971896,-592.164754,9474.636058
2654.275760,1532.190996,-0.000000,8734.430116
2654.276089,842.705048,666.185348,7476.080014
2654.276418,-689.485948,444.123565,8660.409521
2654.276747,-1378.971896,-148.041188,10288.862594
2654.277076,-229.828649,-888.247130,9326.594869
2654.277405,0.000000,-888.247130,8512.368333
2654.277735,-1149.143247,-740.205942,8808.450710
2654.278064,-1685.410096,-1628.453072,10510.924376
2654.278393,-995.924147,-2072.576638,10584.944971
2654.278722,612.876398,-1184.329507,9474.636058
2654.279051,689.485948,-666.185348,7994.224174
2654.279380,153.219100,148.041188,8586.388927
2654.279709,229.828649,814.226536,9178.553681
2654.280038,1838.629195,296.082377,8956.491898
2654.280367,2068.457845,1406.391290,6883.915261
2654.280696,1225.752797,296.082377,7698.141797
2654.281026,229.828649,-74.020594,9178.553681
2654.281355,689.485948,-1110.308913,9696.697840
2654.281684,1225.752797,-1184.329507,8216.285956
2654.282013,76.609550,-962.267725,7846.182985
2654.282342,-995.924147,-592.164754,9548.656652
2654.282671,-2451.505594,-962.267725,9696.697840
2654.283000,0.000000,-962.267725,9696.697840
2654.283329,306.438199,-814.226536,8068.244768
2654.283658,-306.438199,-444.123565,8068.244768
2654.283987,-919.314598,-444.123565,9992.780217
2654.284317,383.047749,-1776.494261,11103.089130
2654.284646,1072.533697,-148.041188,8956.491898
2654.284975,1302.362347,-592.164754,7772.162391
2654.285304,459.657299,1258.350101,8734.430116
2654.285633,306.438199,1258.350101,9696.697840
2654.285962,2145.067394,740.205942,8956.491898
2654.286291,2221.676944,1332.370696,6735.874072
2654.286620,1685.410096,740.205942,8438.347739
2654.286949,76.609550,-0.000000,10288.862594
2654.287278,0.000000,-1480.411884,10436.903782
2654.287608,612.876398,-888.247130,8808.450710
2654.287937,76.609550,-1036.288319,8586.388927
2654.288266,-1149.143247,-0.000000,9178.553681
2654.288595,-1149.143247,-444.123565,10510.924376
2654.288924,153.219100,-296.082377,9918.759623
2654.289253,766.095498,-0.000000,8290.306550
2654.289582,0.000000,740.205942,7846.182985
2654.289911,-919.314598,-222.061783,10807.006753
2654.290240,-153.219100,-962.267725,10214.842000
2654.290569,1072.533697,-1036.288319,9326.594869
2654.290899,689.485948,-74.020594,7994.224174
2654.291228,-306.438199,296.082377,9252.574275
2654.291557,0.000000,592.164754,10066.800811
2654.291886,459.657299,-0.000000,8586.388927
2654.292215,2145.067394,518.144159,7920.203579
2654.292544,383.047749,1184.329507,7994.224174
2654.292873,-459.657299,-444.123565,9992.780217
2654.293202,536.266849,-592.164754,10362.883188
2654.293531,1149.143247,-1110.308913,8216.285956
2654.293860,612.876398,-888.247130,8290.306550
2654.294190,-995.924147,-148.041188,9400.615463
2654.294519,-536.266849,-0.000000,10066.800811
2654.294848,229.828649,-0.000000,9326.594869
2654.295177,842.705048,518.144159,7772.162391
2654.295506,-153.219100,444.123565,8438.347739
2654.295835,-919.314598,370.102971,9548.656652
2654.296164,153.219100,-666.185348,10140.821405
2654.296493,842.705048,-518.144159,9030.512492
2654.296822,536.266849,-296.082377,8438.347739
2654.297151,0.000000,-0.000000,9252.574275
2654.297481,229.828649,814.226536,9844.739029
2654.297810,1762.019645,296.082377,9252.574275
2654.298139,1455.581446,666.185348,7402.059420
2654.298468,689.485948,1184.329507,8586.388927
2654.298797,459.657299,740.205942,10066.800811
2654.299126,1378.971896,-0.000000,9992.780217
2654.299455,1838.629195,-74.020594,9030.512492
2654.299784,919.314598,370.102971,8364.327145
2654.300113,0.000000,296.082377,9474.636058
2654.300442,0.000000,-0.000000,9548.656652
2654.300772,842.705048,-444.123565,9474.636058
2654.301101,919.314598,222.061783,8216.285956
2654.301430,-536.266849,518.144159,8216.285956
2654.301759,-1608.800546,-148.041188,10510.924376
2654.302088,-383.047749,-518.144159,9918.759623
2654.302417,76.609550,-296.082377,8512.368333
2654.302746,0.000000,-740.205942,8290.306550
2654.303075,-995.924147,-296.082377,9622.677246
2654.303405,0.000000,-740.205942,10436.903782
2654.303734,1991.848295,-592.164754,8882.471304
2654.304063,1762.019645,444.123565,7920.203579
2654.304392,612.876398,-0.000000,9178.553681
2654.304721,689.485948,-0.000000,9696.697840
2654.305050,1915.238745,-370.102971,9548.656652
2654.305379,2374.896044,-296.082377,8142.265362
2654.305708,689.485948,-0.000000,7920.203579
2654.306038,-612.876398,-444.123565,9400.615463
2654.306367,-536.266849,-1184.329507,9770.718434
2654.306696,459.657299,-1480.411884,9252.574275
2654.307025,-229.828649,-888.247130,8068.244768
2654.307354,-2145.067394,-518.144159,8808.450710
2654.307683,-2145.067394,-1258.350101,10658.965565
2654.308012,-1378.971896,-2368.659014,10066.800811
2654.308342,0.000000,-518.144159,9548.656652
2654.308671,-383.047749,-740.205942,8512.368333
2654.309000,-1149.143247,-222.061783,9696.697840
2654.309329,306.438199,148.041188,9918.759623
2654.309658,2374.896044,-0.000000,8586.388927
2654.309987,2221.676944,888.247130,7550.100608
2654.310316,1915.238745,1036.288319,8734.430116
2654.310645,1685.410096,444.123565,9770.718434
2654.310975,2681.334243,962.267725,9030.512492
2654.311304,2528.115143,740.205942,7698.141797
2654.311633,995.924147,962.267725,7328.038826
2654.311962,-229.828649,518.144159,9326.594869
2654.312291,0.000000,-370.102971,10066.800811
2654.312620,766.095498,-888.247130,8660.409521
2654.312949,-306.438199,-1480.411884,8142.265362
2654.313278,-1455.581446,-1110.308913,9474.636058
2654.313608,-2221.676944,-814.226536,10140.821405
2654.313937,-766.095498,-1110.308913,10140.821405
2654.314266,0.000000,-296.082377,8586.388927
2654.314595,-459.657299,-0.000000,8734.430116
2654.314924,306.438199,296.082377,9548.656652
2654.315253,1685.410096,-222.061783,9622.677246
2654.315582,2374.896044,148.041188,8512.368333
2654.315911,2221.676944,666.185348,7402.059420
2654.316241,1378.971896,666.185348,9104.533087
2654.316570,1149.143247,222.061783,10066.800811
2654.316899,2298.286494,518.144159,8660.409521
2654.317228,1991.848295,-0.000000,8216.285956
2654.317557,153.219100,1036.288319,8512.368333
2654.317886,-306.438199,148.041188,9400.615463
2654.318215,-306.438199,-592.164754,9622.677246
2654.318544,76.609550,-1036.288319,9252.574275
2654.318874,-842.705048,-1184.329507,8512.368333
2654.319203,-2451.505594,-1628.453072,9622.677246
2654.319532,-1915.238745,-1776.494261,11103.089130
2654.319861,-1302.362347,-2220.617826,9844.739029
2654.320190,0.000000,-1258.350101,8808.450710
2654.320519,-689.485948,-0.000000,9474.636058
2654.320848,-306.438199,-0.000000,9474.636058
2654.321178,1225.752797,444.123565,9622.677246
2654.321507,2681.334243,444.123565,8068.244768
2654.321836,2221.676944,1332.370696,7254.018232
2654.322165,459.657299,444.123565,9548.656652
2654.322494,1762.019645,-0.000000,9178.553681
2654.322823,2604.724693,-222.061783,8586.388927
2654.323152,1532.190996,592.164754,7772.162391
2654.323481,0.000000,592.164754,7698.141797
2654.323811,-919.314598,1036.288319,9030.512492
2654.324140,-229.828649,-222.061783,9474.636058
2654.324469,153.219100,-814.226536,7994.224174
2654.324798,-1149.143247,-814.226536,8734.430116
2654.325127,-2298.286494,-1110.308913,10214.842000
2654.325456,-1608.800546,-1554.432478,10658.965565
2654.325785,-612.876398,-1998.556043,10066.800811
2654.326114,0.000000,-1110.308913,8882.471304
2654.326444,0.000000,-0.000000,8808.450710
2654.326773,153.219100,1036.288319,9770.718434
2654.327102,2068.457845,740.205942,8512.368333
2654.327431,3294.210641,1628.453072,7105.977043
2654.327760,2451.505594,1036.288319,7105.977043
2654.328089,1685.410096,1184.329507,9400.615463
2654.328418,1378.971896,148.041188,9178.553681
2654.328747,1991.848295,-0.000000,8438.347739
2654.329077,1378.971896,-0.000000,8068.244768
2654.329406,-383.047749,-0.000000,8808.450710
2654.329735,-1378.971896,-1406.391290,10288.862594
2654.330064,-689.485948,-1332.370696,10288.862594
2654.330393,-306.438199,-1258.350101,8808.450710
2654.330722,-1149.143247,-962.267725,8956.491898
2654.331051,-1991.848295,-888.247130,10066.800811
2654.331381,-1225.752797,-2072.576638,11251.130318
2654.331710,76.609550,-1184.329507,9178.553681
2654.332039,536.266849,-666.185348,8808.450710
2654.332368,229.828649,962.267725,9326.594869
2654.332697,536.266849,296.082377,9918.759623
2654.333026,1762.019645,444.123565,9104.533087
2654.333355,2604.724693,888.247130,7550.100608
2654.333684,2068.457845,1184.329507,7179.997637
2654.334014,536.266849,-74.020594,9326.594869
2654.334343,766.095498,-148.041188,10288.862594
2654.334672,2145.067394,-740.205942,9178.553681
2654.335001,459.657299,-0.000000,7994.224174
2654.335330,-842.705048,-0.000000,8882.471304
2654.335659,-612.876398,-222.061783,9844.739029
2654.335988,153.219100,-814.226536,9622.677246
2654.336317,459.657299,-592.164754,8364.327145
2654.336647,0.000000,-888.247130,8586.388927
2654.336976,-2221.676944,-1110.308913,10288.862594
2654.337305,-689.485948,-1332.370696,9992.780217
2654.337634,459.657299,-592.164754,8586.388927
2654.337963,0.000000,-0.000000,7846.182985
2654.338292,-459.657299,444.123565,8808.450710
2654.338621,76.609550,222.061783,9548.656652
2654.338950,689.485948,-0.000000,8808.450710
2654.339280,1685.410096,-74.020594,7624.121203
2654.339609,306.438199,296.082377,8216.285956
2654.339938,-229.828649,-592.164754,9918.759623
2654.340267,766.095498,-1036.288319,9992.780217
2654.340596,1378.971896,-666.185348,8438.347739
2654.340925,919.314598,-370.102971,8660.409521
2654.341254,-306.438199,-0.000000,8882.471304
2654.341584,0.000000,-444.123565,9918.759623
2654.341913,842.705048,518.144159,9104.533087
2654.342242,919.314598,-0.000000,8512.368333
2654.342571,-536.266849,518.144159,9178.553681
2654.342900,-1225.752797,-296.082377,9918.759623
2654.343229,76.609550,-1184.329507,10362.883188
2654.343558,153.219100,-222.061783,9252.574275
2654.343887,-689.485948,-370.102971,9030.512492
2654.344217,-919.314598,222.061783,9178.553681
2654.344546,-766.095498,222.061783,9770.718434
2654.344875,842.705048,222.061783,9104.533087
2654.345204,1225.752797,444.123565,7698.141797
2654.345533,536.266849,888.247130,8808.450710
2654.345862,689.485948,518.144159,9474.636058
2654.346191,1225.752797,296.082377,9474.636058
2654.346520,1838.629195,-0.000000,9030.512492
2654.346850,1225.752797,592.164754,8290.306550
2654.347179,459.657299,-0.000000,9030.512492
2654.347508,536.266849,-0.000000,9474.636058
2654.347837,1838.629195,-0.000000,9178.553681
2654.348166,1302.362347,296.082377,7994.224174
2654.348495,-153.219100,-0.000000,8586.388927
2654.348824,-1302.362347,-222.061783,10362.883188
2654.349153,-766.095498,-370.102971,9696.697840
2654.349483,0.000000,-222.061783,8734.430116
2654.349812,-919.314598,-1036.288319,8512.368333
2654.350141,-1685.410096,-888.247130,9104.533087
2654.350470,-766.095498,-1628.453072,10955.047942
2654.350799,612.876398,-1406.391290,8956.491898
2654.351128,766.095498,-296.082377,7698.141797
2654.351457,153.219100,592.164754,8956.491898
2654.351786,612.876398,-370.102971,10066.800811
