#time,accel_x,accel_y,accel_z
2599.934256,306.438199,-0.000000,8808.450710
2599.934585,383.047749,-0.000000,9030.512492
2599.934914,153.219100,-222.061783,8956.491898
2599.935243,76.609550,-222.061783,9104.533087
2599.935572,76.609550,-444.123565,9326.594869
2599.935902,229.828649,-370.102971,9104.533087
2599.936231,0.000000,-0.000000,9178.553681
2599.936560,459.657299,-518.144159,9104.533087
2599.936889,689.485948,-444.123565,9178.553681
2599.937218,689.485948,-0.000000,9178.553681
2599.937548,689.485948,-0.000000,9104.533087
2599.937877,612.876398,-0.000000,9178.553681
2599.938206,689.485948,-148.041188,9030.512492
2599.938535,612.876398,-74.020594,9400.615463
2599.938864,306.438199,-296.082377,9104.533087
2599.939194,383.047749,-296.082377,9030.512492
2599.939523,229.828649,-222.061783,9474.636058
2599.939852,229.828649,-222.061783,9178.553681
2599.940181,0.000000,-296.082377,9178.553681
2599.940510,459.657299,-0.000000,9474.636058
2599.940840,612.876398,-296.082377,9326.594869
2599.941169,536.266849,-222.061783,9030.512492
2599.941498,536.266849,296.082377,8882.471304
2599.941827,536.266849,296.082377,9104.533087
2599.942156,459.657299,-0.000000,9104.533087
2599.942486,459.657299,-0.000000,8734.430116
2599.942815,383.047749,-0.000000,9104.533087
2599.943144,153.219100,-296.082377,9252.574275
2599.943473,0.000000,-148.041188,9104.533087
2599.943803,0.000000,-296.082377,9104.533087
2599.944132,76.609550,-148.041188,9104.533087
2599.944461,229.828649,-222.061783,9030.512492
2599.944790,153.219100,-370.102971,9030.512492
2599.945119,229.828649,-222.061783,8734.430116
2599.945449,536.266849,-74.020594,8882.471304
2599.945778,0.000000,-296.082377,8808.450710
2599.946107,612.876398,-222.061783,8808.450710
2599.946436,229.828649,-296.082377,8956.491898
2599.946765,383.047749,-74.020594,9178.553681
2599.947095,153.219100,-370.102971,9030.512492
2599.947424,306.438199,-444.123565,9400.615463
2599.947753,153.219100,-592.164754,9252.574275
2599.948082,306.438199,-814.226536,9030.512492
2599.948411,536.266849,-518.144159,9178.553681
2599.948741,536.266849,-148.041188,9104.533087
2599.949070,383.047749,-0.000000,9104.533087
2599.949399,536.266849,-0.000000,9178.553681
2599.949728,306.438199,-74.020594,9104.533087
2599.950057,153.219100,-0.000000,9252.574275
2599.950387,76.609550,-296.082377,9178.553681
2599.950716,76.609550,-74.020594,9178.553681
2599.951045,0.000000,-222.061783,9178.553681
2599.951374,383.047749,-222.061783,9474.636058
2599.951703,229.828649,-296.082377,9252.574275
2599.952033,229.828649,-74.020594,9252.574275
2599.952362,-689.485948,-222.061783,9474.636058
2599.952691,306.438199,-222.061783,8956.491898
2599.953020,536.266849,-296.082377,8586.388927
2599.953349,306.438199,-74.020594,8586.388927
2599.953679,459.657299,-0.000000,8882.471304
2599.954008,536.266849,-0.000000,8882.471304
2599.954337,0.000000,-148.041188,8956.491898
2599.954666,153.219100,-222.061783,8882.471304
2599.954996,229.828649,-222.061783,9030.512492
2599.955325,0.000000,-0.000000,9030.512492
2599.955654,153.219100,-0.000000,9030.512492
2599.955983,229.828649,-0.000000,8956.491898
2599.956312,229.828649,-0.000000,9030.512492
2599.956642,536.266849,-444.123565,8882.471304
2599.956971,383.047749,-370.102971,8882.471304
2599.957300,153.219100,-222.061783,8660.409521
2599.957629,459.657299,-74.020594,8956.491898
2599.957958,306.438199,-222.061783,9030.512492
2599.958288,306.438199,-296.082377,8956.491898
2599.958617,153.219100,-148.041188,9104.533087
2599.958946,612.876398,-222.061783,9252.574275
2599.959275,459.657299,-370.102971,9104.533087
2599.959604,459.657299,-148.041188,9326.594869
2599.959934,76.609550,-148.041188,9104.533087
2599.960263,76.609550,-296.082377,9326.594869
2599.960592,306.438199,-0.000000,9252.574275
2599.960921,383.047749,-0.000000,9252.574275
2599.961250,536.266849,-222.061783,9178.553681
2599.961580,229.828649,-222.061783,9178.553681
2599.961909,383.047749,-222.061783,9400.615463
2599.962238,536.266849,-296.082377,9252.574275
2599.962567,76.609550,-1036.288319,9326.594869
2599.962896,383.047749,-518.144159,9104.533087
2599.963226,153.219100,148.041188,9104.533087
2599.963555,306.438199,-444.123565,9474.636058
2599.963884,1302.362347,-666.185348,9474.636058
2599.964213,1532.190996,-444.123565,9326.594869
2599.964543,2068.457845,-518.144159,9252.574275
2599.964872,2374.896044,-592.164754,8734.430116
2599.965201,2221.676944,148.041188,8882.471304
2599.965530,3447.429741,222.061783,8956.491898
2599.965859,4060.306139,-148.041188,8586.388927
2599.966189,3294.210641,222.061783,8438.347739
2599.966518,2911.162892,666.185348,8808.450710
2599.966847,2911.162892,296.082377,8512.368333
2599.967176,2681.334243,-74.020594,9548.656652
2599.967505,2604.724693,-592.164754,9104.533087
2599.967835,1455.581446,-814.226536,9474.636058
2599.968164,2145.067394,-1850.514855,9696.697840
2599.968493,2451.505594,-1110.308913,9104.533087
2599.968822,2604.724693,-0.000000,9474.636058
2599.969151,2681.334243,-1036.288319,9400.615463
2599.969481,3524.039291,-518.144159,8956.491898
2599.969810,4519.963438,740.205942,9696.697840
2599.970139,5439.278036,592.164754,7328.038826
2599.970468,4596.572988,1258.350101,8512.368333
2599.970797,4826.401637,1110.308913,9400.615463
2599.971127,4673.182538,740.205942,7179.997637
2599.971456,3830.477490,518.144159,9326.594869
2599.971785,3140.991542,-148.041188,8956.491898
2599.972114,2145.067394,370.102971,9178.553681
2599.972443,1455.581446,-518.144159,10140.821405
2599.972773,1225.752797,-888.247130,9696.697840
2599.973102,1532.190996,-888.247130,9992.780217
2599.973431,612.876398,-1036.288319,9696.697840
2599.973760,2145.067394,-0.000000,10066.800811
2599.974089,1838.629195,592.164754,10436.903782
2599.974419,2987.772442,666.185348,8068.244768
2599.974748,3677.258390,370.102971,9548.656652
2599.975077,4290.134789,1702.473667,8512.368333
2599.975406,4443.353888,814.226536,8216.285956
2599.975736,4519.963438,1332.370696,8216.285956
2599.976065,4213.525239,592.164754,9030.512492
2599.976394,3524.039291,-444.123565,8882.471304
2599.976723,2528.115143,-1406.391290,9696.697840
2599.977052,2298.286494,-1406.391290,9918.759623
2599.977382,2145.067394,-1702.473667,10436.903782
2599.977711,1915.238745,-1702.473667,9622.677246
2599.978040,2298.286494,-1702.473667,10214.842000
2599.978369,2298.286494,-740.205942,9548.656652
2599.978698,3370.820191,-222.061783,9622.677246
2599.979028,3907.087040,444.123565,8142.265362
2599.979357,4596.572988,1480.411884,8512.368333
2599.979686,4749.792088,2442.679609,8068.244768
2599.980015,4749.792088,2664.741391,7179.997637
2599.980344,4519.963438,2368.659014,7550.100608
2599.980674,4136.915689,1776.494261,7846.182985
2599.981003,2451.505594,592.164754,8290.306550
2599.981332,2528.115143,-1258.350101,9474.636058
2599.981661,2068.457845,-2294.638420,9770.718434
2599.981990,1838.629195,-2812.782580,10584.944971
2599.982320,1532.190996,-3182.885551,10807.006753
2599.982649,2374.896044,-2960.823768,11177.109724
2599.982978,3294.210641,-2072.576638,10658.965565
2599.983307,4443.353888,-666.185348,9696.697840
2599.983636,5209.449386,740.205942,9252.574275
2599.983966,6281.983084,2072.576638,8438.347739
2599.984295,5822.325785,2960.823768,7624.121203
2599.984624,4903.011187,3330.926739,7550.100608
2599.984953,4519.963438,3849.070898,6587.832884
2599.985282,4443.353888,2516.700203,7031.956449
2599.985612,2528.115143,222.061783,7772.162391
2599.985941,1072.533697,-1850.514855,9474.636058
2599.986270,-612.876398,-3627.009116,10881.027347
2599.986599,-1302.362347,-4293.194464,11325.150913
2599.986929,-842.705048,-4589.276840,11251.130318
2599.987258,-766.095498,-1924.535449,10510.924376
2599.987587,612.876398,-1776.494261,11177.109724
2599.987916,842.705048,-0.000000,9992.780217
2599.988245,3524.039291,-296.082377,10881.027347
2599.988575,6128.763984,1480.411884,8512.368333
2599.988904,7737.564530,2220.617826,8068.244768
2599.989233,6665.030833,1332.370696,7624.121203
2599.989562,6052.154434,1184.329507,6439.791695
2599.989891,5592.497135,3108.864956,7179.997637
2599.990221,6052.154434,962.267725,6587.832884
2599.990550,4979.620737,2738.761985,4885.359217
2599.990879,4673.182538,3182.885551,6217.729913
2599.991208,4596.572988,666.185348,6735.874072
2599.991537,1225.752797,-3256.906145,9252.574275
2599.991867,-459.657299,-7550.100608,12583.501014
2599.992196,-1685.410096,-4145.153275,11695.253884
2599.992525,-1149.143247,-6365.771101,14137.933492
2599.992854,-1608.800546,-3552.988522,10584.944971
2599.993183,306.438199,-0.000000,12583.501014
2599.993513,1838.629195,-0.000000,11547.212695
2599.993842,4903.011187,1776.494261,10881.027347
2599.994171,7201.297681,1110.308913,8660.409521
2599.994500,7354.516781,1776.494261,9770.718434
2599.994829,7507.735880,2368.659014,7254.018232
2599.995159,7737.564530,4959.379811,3997.112087
2599.995488,7660.954980,740.205942,6513.812290
2599.995817,7354.516781,3701.029710,4515.256246
2599.996146,7737.564530,2368.659014,7031.956449
2599.996475,4366.744339,888.247130,6513.812290
2599.996805,3370.820191,2960.823768,5107.421000
2599.997134,2451.505594,-1702.473667,10140.821405
2599.997463,-2145.067394,-6809.894666,14211.954086
2599.997792,-3064.381992,-2738.761985,12213.398043
2599.998122,-2221.676944,-2220.617826,12583.501014
2599.998451,-1378.971896,-5995.668130,12657.521608
2599.998780,-1915.238745,2220.617826,9844.739029
2599.999109,2145.067394,-1406.391290,11029.068536
2599.999438,-2298.286494,3034.844362,8882.471304
2599.999768,229.828649,-444.123565,10658.965565
2600.000097,4290.134789,-592.164754,11399.171507
2600.000426,4366.744339,3256.906145,5847.626942
2600.000755,5898.935335,2516.700203,6661.853478
2600.001084,4596.572988,-666.185348,3034.844362
2600.001414,4979.620737,1776.494261,6587.832884
2600.001743,2451.505594,888.247130,7476.080014
2600.002072,766.095498,740.205942,7550.100608
2600.002401,-2528.115143,-1258.350101,10510.924376
2600.002730,-612.876398,-3404.947333,11547.212695
2600.003060,-2451.505594,962.267725,7105.977043
2600.003389,-3370.820191,-2886.803174,11917.315666
2600.003718,-3370.820191,-1628.453072,10214.842000
2600.004047,-689.485948,-1850.514855,13471.748144
2600.004376,-1225.752797,-370.102971,11251.130318
2600.004706,-306.438199,592.164754,7772.162391
2600.005035,-1532.190996,-1258.350101,10732.986159
2600.005364,-1608.800546,-148.041188,10881.027347
2600.005693,76.609550,1258.350101,9548.656652
2600.006022,842.705048,1554.432478,6735.874072
2600.006352,3447.429741,1406.391290,7328.038826
2600.006681,2068.457845,592.164754,7031.956449
2600.007010,995.924147,666.185348,7550.100608
2600.007339,-383.047749,-1258.350101,7254.018232
2600.007669,0.000000,-2294.638420,9326.594869
2600.007998,-612.876398,-814.226536,10362.883188
2600.008327,-1072.533697,-222.061783,9326.594869
2600.008656,-2145.067394,-962.267725,9844.739029
2600.008985,-1302.362347,-518.144159,10140.821405
2600.009315,842.705048,444.123565,9474.636058
2600.009644,229.828649,888.247130,8660.409521
2600.009973,306.438199,1184.329507,9104.533087
2600.010302,536.266849,1332.370696,9400.615463
2600.010631,612.876398,666.185348,9326.594869
2600.010960,0.000000,148.041188,8438.347739
2600.011289,153.219100,-962.267725,8290.306550
2600.011618,0.000000,-962.267725,8808.450710
2600.011947,-766.095498,-1406.391290,9400.615463
2600.012276,-306.438199,-2590.720797,9548.656652
2600.012605,-536.266849,-2812.782580,9474.636058
2600.012934,383.047749,-1702.473667,9622.677246
2600.013263,306.438199,-74.020594,8734.430116
2600.013592,229.828649,1406.391290,9030.512492
2600.013921,919.314598,1554.432478,8956.491898
2600.014250,1608.800546,2072.576638,9178.553681
2600.014578,1762.019645,1924.535449,9474.636058
2600.014907,1915.238745,1184.329507,8512.368333
2600.015236,2451.505594,888.247130,7846.182985
2600.015565,2451.505594,-0.000000,8586.388927
2600.015894,1532.190996,-1258.350101,8512.368333
2600.016223,1455.581446,-1628.453072,9622.677246
2600.016552,689.485948,-1776.494261,9918.759623
2600.016881,459.657299,-962.267725,9400.615463
2600.017210,153.219100,-1110.308913,9030.512492
2600.017539,0.000000,-1036.288319,9178.553681
2600.017868,536.266849,-814.226536,10288.862594
2600.018197,1072.533697,-0.000000,10955.047942
2600.018526,995.924147,-0.000000,9844.739029
2600.018855,1838.629195,1258.350101,9400.615463
2600.019184,2068.457845,1776.494261,8364.327145
2600.019513,2374.896044,2072.576638,8068.244768
2600.019842,2451.505594,1036.288319,8734.430116
2600.020171,2681.334243,1036.288319,8290.306550
2600.020500,3140.991542,-0.000000,8438.347739
2600.020829,995.924147,-444.123565,8364.327145
2600.021157,0.000000,-592.164754,7920.203579
2600.021486,-766.095498,-888.247130,8512.368333
2600.021815,-1302.362347,-1332.370696,9252.574275
2600.022144,-1225.752797,-814.226536,9474.636058
2600.022473,-995.924147,-518.144159,9326.594869
2600.022802,-612.876398,-740.205942,9474.636058
2600.023131,-919.314598,-0.000000,8808.450710
2600.023460,-1149.143247,-0.000000,9474.636058
2600.023789,-1302.362347,-222.061783,9992.780217
2600.024118,-766.095498,-222.061783,9918.759623
2600.024447,-842.705048,-666.185348,9992.780217
2600.024776,-919.314598,-296.082377,9622.677246
2600.025105,-1072.533697,-814.226536,9400.615463
2600.025434,-919.314598,-444.123565,8734.430116
2600.025763,0.000000,-74.020594,8512.368333
2600.026092,-229.828649,-74.020594,8438.347739
2600.026421,-536.266849,-0.000000,9104.533087
2600.026750,-229.828649,-222.061783,8956.491898
2600.027079,-383.047749,-962.267725,7402.059420
2600.027407,-689.485948,370.102971,9030.512492
2600.027736,76.609550,-1332.370696,9400.615463
2600.028065,-842.705048,-1036.288319,8882.471304
2600.028394,-766.095498,-222.061783,9030.512492
2600.028723,-842.705048,-0.000000,9400.615463
2600.029052,-612.876398,518.144159,9104.533087
2600.029381,0.000000,740.205942,9178.553681
2600.029710,-306.438199,666.185348,9252.574275
2600.030039,-766.095498,-592.164754,9474.636058
2600.030368,-383.047749,-518.144159,9918.759623
2600.030697,-153.219100,-74.020594,9326.594869
2600.031026,76.609550,-296.082377,8586.388927
2600.031355,0.000000,-518.144159,8660.409521
2600.031684,1072.533697,-1258.350101,8882.471304
2600.032013,1455.581446,-1554.432478,9622.677246
2600.032342,1991.848295,-962.267725,8290.306550
2600.032671,2221.676944,148.041188,8586.388927
2600.033000,2451.505594,1184.329507,7920.203579
2600.033329,2528.115143,1480.411884,8142.265362
2600.033658,2221.676944,592.164754,8808.450710
2600.033986,1225.752797,-0.000000,9474.636058
2600.034315,1685.410096,-370.102971,9474.636058
2600.034644,1072.533697,74.020594,9326.594869
2600.034973,536.266849,370.102971,9178.553681
2600.035302,766.095498,-592.164754,9178.553681
2600.035631,1149.143247,-1036.288319,9474.636058
2600.035960,1532.190996,-1406.391290,9474.636058
2600.036289,1302.362347,-444.123565,9104.533087
2600.036618,1072.533697,-148.041188,8808.450710
2600.036947,2068.457845,592.164754,8512.368333
2600.037276,1608.800546,1036.288319,8808.450710
2600.037605,995.924147,666.185348,8808.450710
2600.037934,383.047749,-148.041188,9178.553681
2600.038263,383.047749,-0.000000,9992.780217
2600.038592,76.609550,-0.000000,9252.574275
2600.038921,383.047749,-74.020594,9178.553681
2600.039250,-306.438199,-666.185348,9400.615463
2600.039579,-383.047749,-1036.288319,9992.780217
2600.039908,0.000000,-1184.329507,9474.636058
2600.040237,0.000000,-370.102971,9104.533087
2600.040565,383.047749,-148.041188,9178.553681
2600.040894,383.047749,222.061783,8216.285956
2600.041223,536.266849,-148.041188,8660.409521
2600.041552,459.657299,-740.205942,8364.327145
2600.041881,383.047749,-0.000000,8808.450710
2600.042210,-306.438199,-444.123565,9104.533087
2600.042539,0.000000,592.164754,8660.409521
2600.042868,-689.485948,296.082377,8660.409521
2600.043197,-229.828649,-0.000000,9030.512492
2600.043526,-536.266849,-1184.329507,9178.553681
2600.043855,-1225.752797,-814.226536,9326.594869
2600.044184,-995.924147,-444.123565,9400.615463
2600.044513,-919.314598,148.041188,8882.471304
2600.044842,-1225.752797,-0.000000,8512.368333
2600.045171,-766.095498,-0.000000,8512.368333
2600.045500,-842.705048,-740.205942,8438.347739
2600.045829,-689.485948,-370.102971,8882.471304
2600.046158,-459.657299,-814.226536,9326.594869
2600.046487,-536.266849,-518.144159,9104.533087
2600.046815,-536.266849,-222.061783,9030.512492
2600.047144,-536.266849,-888.247130,9178.553681
2600.047473,-459.657299,-1628.453072,9622.677246
2600.047802,-612.876398,-1258.350101,9400.615463
2600.048131,-229.828649,-740.205942,9696.697840
2600.048460,0.000000,-592.164754,9326.594869
2600.048789,153.219100,222.061783,9178.553681
2600.049118,459.657299,-0.000000,9104.533087
2600.049447,689.485948,-0.000000,8586.388927
2600.049776,1072.533697,148.041188,8956.491898
2600.050105,995.924147,296.082377,9400.615463
2600.050434,1455.581446,1184.329507,8882.471304
2600.050763,1149.143247,518.144159,8512.368333
2600.051092,1455.581446,222.061783,8364.327145
2600.051421,1608.800546,-592.164754,9326.594869
2600.051750,1302.362347,-592.164754,9474.636058
2600.052079,1225.752797,-296.082377,9400.615463
2600.052408,1072.533697,-0.000000,9178.553681
2600.052737,1378.971896,-0.000000,8956.491898
2600.053066,1072.533697,222.061783,9178.553681
2600.053394,459.657299,-222.061783,9548.656652
2600.053723,153.219100,-518.144159,9770.718434
2600.054052,229.828649,-0.000000,9918.759623
2600.054381,612.876398,148.041188,9178.553681
2600.054710,842.705048,518.144159,8808.450710
2600.055039,766.095498,-148.041188,9400.615463
2600.055368,2221.676944,-666.185348,8808.450710
2600.055697,2987.772442,-962.267725,8586.388927
2600.056026,3064.381992,518.144159,8438.347739
2600.056355,2834.553343,666.185348,7920.203579
2600.056684,2604.724693,740.205942,7994.224174
2600.057013,1915.238745,444.123565,8068.244768
2600.057342,1685.410096,-148.041188,9178.553681
2600.057671,383.047749,-888.247130,9178.553681
2600.058000,306.438199,-148.041188,9548.656652
2600.058329,0.000000,-296.082377,9178.553681
2600.058658,-153.219100,-370.102971,9104.533087
2600.058987,-459.657299,-962.267725,9622.677246
2600.059316,0.000000,-1332.370696,9770.718434
2600.059644,-612.876398,-1332.370696,10140.821405
2600.059973,0.000000,-74.020594,9400.615463
2600.060302,0.000000,-0.000000,8956.491898
2600.060631,-689.485948,222.061783,9326.594869
2600.060960,0.000000,-444.123565,8956.491898
2600.061289,-306.438199,-518.144159,9178.553681
2600.061618,-383.047749,-592.164754,8956.491898
2600.061947,612.876398,-444.123565,9178.553681
2600.062276,-995.924147,-74.020594,8882.471304
2600.062605,0.000000,370.102971,8512.368333
2600.062934,153.219100,-1258.350101,8808.450710
2600.063263,0.000000,-444.123565,8882.471304
2600.063592,-383.047749,-740.205942,8956.491898
2600.063921,0.000000,-444.123565,8956.491898
2600.064250,612.876398,-0.000000,8364.327145
2600.064579,-383.047749,444.123565,8808.450710
2600.064908,-1532.190996,-74.020594,9400.615463
2600.065237,-1225.752797,-148.041188,9400.615463
2600.065566,-1225.752797,-148.041188,9474.636058
2600.065895,-842.705048,592.164754,9474.636058
2600.066223,-383.047749,444.123565,9400.615463
2600.066552,-536.266849,296.082377,9178.553681
2600.066881,-842.705048,-666.185348,9474.636058
2600.067210,-536.266849,-1332.370696,9400.615463
2600.067539,-1149.143247,-814.226536,9474.636058
2600.067868,-612.876398,-740.205942,9770.718434
2600.068197,0.000000,-148.041188,8586.388927
2600.068526,229.828649,-0.000000,8586.388927
2600.068855,536.266849,-222.061783,8956.491898
2600.069184,689.485948,-592.164754,8660.409521
2600.069513,612.876398,-0.000000,9326.594869
2600.069842,842.705048,666.185348,8882.471304
2600.070171,1072.533697,370.102971,8512.368333
2600.070500,612.876398,370.102971,8882.471304
2600.070829,842.705048,-518.144159,9178.553681
2600.071158,1455.581446,-1480.411884,9474.636058
2600.071487,1532.190996,-740.205942,9178.553681
2600.071816,1608.800546,-148.041188,9030.512492
2600.072145,1915.238745,296.082377,8586.388927
2600.072473,1608.800546,222.061783,8882.471304
2600.072802,1225.752797,-0.000000,9252.574275
2600.073131,1608.800546,-444.123565,9770.718434
2600.073460,1072.533697,-0.000000,9770.718434
2600.073789,1072.533697,666.185348,9770.718434
2600.074118,1455.581446,814.226536,9030.512492
2600.074447,1608.800546,814.226536,9030.512492
2600.074776,2298.286494,296.082377,9474.636058
2600.075105,2298.286494,-296.082377,8882.471304
2600.075434,1991.848295,-74.020594,8512.368333
2600.075763,2068.457845,-0.000000,8956.491898
2600.076092,612.876398,518.144159,7994.224174
2600.076421,306.438199,296.082377,8734.430116
2600.076750,536.266849,-370.102971,9104.533087
2600.077079,-306.438199,-666.185348,9178.553681
2600.077408,-306.438199,-444.123565,9474.636058
2600.077737,0.000000,-0.000000,9548.656652
2600.078066,0.000000,222.061783,9178.553681
2600.078395,76.609550,-518.144159,9252.574275
2600.078724,383.047749,-1110.308913,8956.491898
2600.079052,766.095498,-740.205942,9326.594869
2600.079381,612.876398,-296.082377,8660.409521
2600.079710,842.705048,370.102971,9030.512492
2600.080039,842.705048,962.267725,8438.347739
2600.080368,995.924147,592.164754,8660.409521
2600.080697,459.657299,-0.000000,8660.409521
2600.081026,-459.657299,-888.247130,8882.471304
2600.081355,-1149.143247,-444.123565,9474.636058
2600.081684,-1072.533697,-222.061783,9252.574275
2600.082013,-2068.457845,-518.144159,9178.553681
2600.082342,-1225.752797,-518.144159,9178.553681
2600.082671,-2068.457845,-1628.453072,8512.368333
2600.083000,-2298.286494,-1036.288319,9622.677246
2600.083329,-1685.410096,-1110.308913,10436.903782
2600.083658,-2068.457845,-666.185348,8808.450710
2600.083987,-2068.457845,-0.000000,8068.244768
2600.084316,-1532.190996,370.102971,9252.574275
2600.084645,-1762.019645,-444.123565,9770.718434
2600.084974,-1302.362347,-666.185348,10066.800811
2600.085302,-766.095498,-1036.288319,9474.636058
2600.085631,-383.047749,-518.144159,9178.553681
2600.085960,-306.438199,-0.000000,8512.368333
2600.086289,0.000000,-444.123565,8808.450710
2600.086618,-153.219100,-1110.308913,9104.533087
2600.086947,306.438199,-1332.370696,9400.615463
2600.087276,1149.143247,-1036.288319,8438.347739
2600.087605,1072.533697,222.061783,8364.327145
2600.087934,1532.190996,814.226536,7994.224174
2600.088263,1915.238745,814.226536,7402.059420
2600.088592,1302.362347,814.226536,8438.347739
2600.088921,1378.971896,-0.000000,9030.512492
2600.089250,1378.971896,370.102971,8882.471304
2600.089579,1378.971896,222.061783,8882.471304
2600.089908,1225.752797,296.082377,8808.450710
2600.090237,459.657299,-222.061783,10510.924376
2600.090566,536.266849,-1776.494261,9104.533087
2600.090895,1149.143247,-2072.576638,9474.636058
2600.091224,1302.362347,-296.082377,9252.574275
2600.091553,1532.190996,-962.267725,8734.430116
2600.091881,1915.238745,370.102971,8956.491898
2600.092210,1072.533697,296.082377,8734.430116
2600.092539,1149.143247,222.061783,8956.491898
2600.092868,1225.752797,222.061783,9252.574275
2600.093197,1378.971896,518.144159,9326.594869
2600.093526,1072.533697,444.123565,9030.512492
2600.093855,1149.143247,148.041188,9326.594869
2600.094184,1072.533697,-666.185348,10140.821405
2600.094513,1991.848295,-666.185348,9992.780217
2600.094842,1532.190996,-888.247130,9548.656652
2600.095171,1685.410096,-0.000000,9178.553681
2600.095500,1532.190996,518.144159,9252.574275
2600.095829,1915.238745,296.082377,8734.430116
2600.096158,2681.334243,1110.308913,8068.244768
2600.096487,1455.581446,-0.000000,9178.553681
2600.096816,1225.752797,-222.061783,9400.615463
2600.097145,536.266849,-148.041188,9622.677246
2600.097474,-153.219100,444.123565,8956.491898
2600.097803,-306.438199,370.102971,8808.450710
2600.098131,-612.876398,-888.247130,9918.759623
2600.098460,-306.438199,-296.082377,9400.615463
2600.098789,0.000000,-1480.411884,10066.800811
2600.099118,-383.047749,-888.247130,9326.594869
2600.099447,-612.876398,-0.000000,9622.677246
2600.099776,-612.876398,-0.000000,9030.512492
2600.100105,-919.314598,-0.000000,8512.368333
2600.100434,-459.657299,-222.061783,8734.430116
2600.100763,-995.924147,-74.020594,8882.471304
2600.101092,-919.314598,-0.000000,9104.533087
2600.101421,-153.219100,-0.000000,8142.265362
2600.101750,0.000000,-370.102971,8068.244768
2600.102079,-153.219100,-888.247130,8586.388927
2600.102408,0.000000,-814.226536,8882.471304
2600.102737,0.000000,-962.267725,8734.430116
2600.103066,-306.438199,-1036.288319,8808.450710
2600.103395,76.609550,148.041188,8586.388927
2600.103724,0.000000,444.123565,7698.141797
2600.104053,-459.657299,222.061783,8882.471304
2600.104382,-766.095498,-296.082377,9178.553681
2600.104710,-995.924147,-444.123565,9696.697840
2600.105039,-1072.533697,-222.061783,9548.656652
2600.105368,-842.705048,-518.144159,9104.533087
2600.105697,-919.314598,-296.082377,9400.615463
2600.106026,-229.828649,-962.267725,9992.780217
2600.106355,-689.485948,-1628.453072,9400.615463
2600.106684,0.000000,-888.247130,9178.553681
2600.107013,0.000000,-370.102971,8956.491898
2600.107342,459.657299,-0.000000,8438.347739
2600.107671,536.266849,518.144159,8364.327145
2600.108000,459.657299,-0.000000,9030.512492
2600.108329,459.657299,-740.205942,9104.533087
2600.108658,0.000000,-0.000000,9400.615463
2600.108987,76.609550,-0.000000,9326.594869
2600.109316,536.266849,370.102971,9104.533087
2600.109645,612.876398,-296.082377,8882.471304
2600.109974,1225.752797,-370.102971,9548.656652
2600.110304,1608.800546,-1258.350101,9326.594869
2600.110633,2298.286494,-518.144159,8808.450710
2600.110962,2451.505594,-0.000000,8882.471304
2600.111291,2068.457845,814.226536,8290.306550
2600.111620,2221.676944,296.082377,8512.368333
2600.111950,2451.505594,148.041188,8512.368333
2600.112279,2068.457845,-0.000000,8808.450710
2600.112608,2068.457845,-296.082377,9400.615463
2600.112937,1915.238745,-0.000000,8660.409521
2600.113267,1225.752797,740.205942,8956.491898
2600.113596,1455.581446,222.061783,8956.491898
2600.113925,1302.362347,-666.185348,8734.430116
2600.114254,1225.752797,-888.247130,9326.594869
2600.114583,1378.971896,-1110.308913,9548.656652
2600.114913,919.314598,-814.226536,8956.491898
2600.115242,995.924147,-518.144159,8660.409521
2600.115571,612.876398,-0.000000,8734.430116
2600.115900,689.485948,-0.000000,9326.594869
2600.116229,229.828649,-296.082377,8882.471304
2600.116559,153.219100,-444.123565,9918.759623
2600.116888,0.000000,-74.020594,9770.718434
2600.117217,76.609550,-296.082377,9326.594869
2600.117546,0.000000,-666.185348,9030.512492
2600.117876,153.219100,-1406.391290,9992.780217
2600.118205,383.047749,-814.226536,9474.636058
2600.118534,536.266849,-370.102971,9326.594869
2600.118863,612.876398,370.102971,9030.512492
2600.119192,536.266849,962.267725,8142.265362
2600.119522,1302.362347,1110.308913,7846.182985
2600.119851,383.047749,370.102971,9030.512492
2600.120180,-76.609550,-0.000000,8956.491898
2600.120509,-689.485948,-296.082377,8882.471304
2600.120838,-1149.143247,296.082377,9178.553681
2600.121168,-995.924147,-0.000000,8882.471304
2600.121497,-1378.971896,-222.061783,8956.491898
2600.121826,-766.095498,-888.247130,9548.656652
2600.122155,-1378.971896,-1480.411884,9696.697840
2600.122484,-766.095498,-1110.308913,9030.512492
2600.122814,-1225.752797,-370.102971,9326.594869
2600.123143,-1225.752797,-0.000000,9178.553681
2600.123472,-1378.971896,-0.000000,8808.450710
2600.123801,-1072.533697,-296.082377,9400.615463
2600.124131,-1225.752797,-222.061783,9326.594869
2600.124460,-1608.800546,-0.000000,9474.636058
2600.124789,-306.438199,-0.000000,9326.594869
2600.125118,-459.657299,592.164754,8438.347739
2600.125447,-229.828649,-148.041188,9104.533087
2600.125777,0.000000,-1184.329507,9474.636058
2600.126106,0.000000,-1332.370696,9178.553681
2600.126435,153.219100,-1184.329507,9326.594869
2600.126764,766.095498,-148.041188,8290.306550
2600.127093,766.095498,-0.000000,8216.285956
2600.127423,1302.362347,-0.000000,9104.533087
2600.127752,842.705048,-148.041188,9030.512492
2600.128081,842.705048,-74.020594,9030.512492
2600.128410,612.876398,-222.061783,9474.636058
2600.128739,1149.143247,222.061783,8956.491898
2600.129069,1072.533697,666.185348,8808.450710
2600.129398,995.924147,-296.082377,9178.553681
2600.129727,1455.581446,-962.267725,9326.594869
2600.130056,1455.581446,-814.226536,9178.553681
2600.130386,1378.971896,-518.144159,9178.553681
2600.130715,1378.971896,-148.041188,8956.491898
2600.131044,1532.190996,444.123565,8734.430116
2600.131373,919.314598,444.123565,8364.327145
2600.131702,536.266849,296.082377,9326.594869
2600.132032,153.219100,-592.164754,9474.636058
2600.132361,306.438199,-296.082377,9770.718434
2600.132690,842.705048,-0.000000,9104.533087
2600.133019,536.266849,296.082377,8808.450710
2600.133348,689.485948,-296.082377,9030.512492
2600.133678,1149.143247,-222.061783,9474.636058
2600.134007,1762.019645,-518.144159,8882.471304
2600.134336,1838.629195,-74.020594,9252.574275
2600.134665,2145.067394,518.144159,8142.265362
2600.134995,1915.238745,1036.288319,7772.162391
2600.135324,1762.019645,1036.288319,7772.162391
2600.135653,1838.629195,296.082377,8364.327145
2600.135982,536.266849,-370.102971,9178.553681
2600.136311,919.314598,222.061783,9326.594869
2600.136641,383.047749,-0.000000,9400.615463
2600.136970,-536.266849,-222.061783,8882.471304
2600.137299,0.000000,-962.267725,9770.718434
2600.137628,-612.876398,-1628.453072,9992.780217
2600.137957,-689.485948,-1258.350101,9548.656652
2600.138287,0.000000,-1702.473667,9622.677246
2600.138616,0.000000,-148.041188,8734.430116
2600.138945,-153.219100,740.205942,8438.347739
2600.139274,0.000000,444.123565,8438.347739
2600.139603,-383.047749,-0.000000,8586.388927
2600.139933,-459.657299,-74.020594,8808.450710
2600.140262,-536.266849,-148.041188,9104.533087
2600.140591,-766.095498,-0.000000,8734.430116
2600.140920,-919.314598,-370.102971,9030.512492
2600.141250,-689.485948,-666.185348,8882.471304
2600.141579,-459.657299,-888.247130,9178.553681
2600.141908,-995.924147,-814.226536,9400.615463
2600.142237,-842.705048,-592.164754,10066.800811
2600.142566,-995.924147,444.123565,9400.615463
2600.142896,-689.485948,74.020594,9252.574275
2600.143225,-842.705048,740.205942,8142.265362
2600.143554,-842.705048,-222.061783,8808.450710
2600.143883,-766.095498,-444.123565,9104.533087
2600.144212,-459.657299,-0.000000,9548.656652
2600.144542,-306.438199,-74.020594,8512.368333
2600.144871,-459.657299,-74.020594,8068.244768
2600.145200,-919.314598,-0.000000,8882.471304
2600.145529,-229.828649,-1184.329507,9400.615463
2600.145858,0.000000,-962.267725,9104.533087
2600.146188,76.609550,-518.144159,8956.491898
2600.146517,76.609550,666.185348,8808.450710
2600.146846,0.000000,740.205942,8660.409521
2600.147175,-383.047749,148.041188,9326.594869
2600.147505,76.609550,-74.020594,9400.615463
2600.147834,0.000000,-592.164754,9992.780217
2600.148163,-229.828649,-296.082377,9474.636058
2600.148492,-383.047749,-222.061783,8956.491898
2600.148821,153.219100,-296.082377,9474.636058
2600.149151,536.266849,-814.226536,9400.615463
2600.149480,1378.971896,-1332.370696,9326.594869
2600.149809,2068.457845,-518.144159,8808.450710
2600.150138,2374.896044,296.082377,8882.471304
2600.150467,2374.896044,888.247130,8216.285956
2600.150797,2451.505594,1258.350101,8364.327145
2600.151126,2145.067394,962.267725,8882.471304
2600.151455,1991.848295,296.082377,8956.491898
2600.151784,1149.143247,-444.123565,9326.594869
2600.152113,995.924147,-0.000000,9474.636058
2600.152443,1455.581446,148.041188,9400.615463
2600.152772,1302.362347,-444.123565,8956.491898
2600.153101,1225.752797,-518.144159,9400.615463
2600.153430,1378.971896,-592.164754,9696.697840
2600.153760,1685.410096,-592.164754,9696.697840
2600.154089,1225.752797,-444.123565,8734.430116
2600.154418,1608.800546,518.144159,8438.347739
2600.154747,1455.581446,740.205942,8438.347739
2600.155076,919.314598,370.102971,8142.265362
2600.155406,612.876398,222.061783,8660.409521
2600.155735,383.047749,-370.102971,9178.553681
2600.156064,229.828649,-74.020594,9030.512492
2600.156393,0.000000,-0.000000,9178.553681
2600.156722,229.828649,-666.185348,9030.512492
2600.157052,0.000000,-1554.432478,9622.677246
2600.157381,153.219100,-1184.329507,9474.636058
2600.157710,383.047749,-962.267725,9400.615463
2600.158039,919.314598,-74.020594,8956.491898
2600.158369,1072.533697,370.102971,8142.265362
2600.158698,1532.190996,740.205942,7920.203579
2600.159027,1072.533697,592.164754,8882.471304
2600.159356,766.095498,-518.144159,8956.491898
2600.159685,306.438199,-0.000000,8808.450710
2600.160015,-383.047749,296.082377,9400.615463
2600.160344,-612.876398,444.123565,8808.450710
2600.160673,-842.705048,-0.000000,8660.409521
2600.161002,-995.924147,-1480.411884,9770.718434
2600.161331,-1608.800546,-1998.556043,9474.636058
2600.161661,-1378.971896,-1554.432478,9474.636058
2600.161990,-1685.410096,-1184.329507,9400.615463
2600.162319,-1302.362347,-0.000000,8882.471304
2600.162648,-1455.581446,148.041188,8882.471304
2600.162977,-1149.143247,-74.020594,9252.574275
2600.163307,-1225.752797,-148.041188,9474.636058
2600.163636,-612.876398,-222.061783,9178.553681
2600.163965,-689.485948,-0.000000,8734.430116
2600.164294,-766.095498,592.164754,8512.368333
2600.164624,-536.266849,-74.020594,9030.512492
2600.164953,0.000000,-814.226536,9252.574275
2600.165282,0.000000,-1406.391290,9030.512492
2600.165611,-76.609550,-1110.308913,9400.615463
2600.165940,306.438199,-592.164754,8882.471304
2600.166270,-153.219100,-0.000000,8290.306550
2600.166599,306.438199,148.041188,8364.327145
2600.166928,383.047749,-0.000000,8660.409521
2600.167257,536.266849,-444.123565,9400.615463
2600.167586,612.876398,-74.020594,9252.574275
2600.167916,1072.533697,-0.000000,9400.615463
2600.168245,1532.190996,888.247130,8660.409521
2600.168574,1455.581446,-0.000000,8364.327145
2600.168903,1685.410096,-444.123565,9400.615463
2600.169232,1455.581446,-888.247130,9326.594869
2600.169562,1915.238745,-518.144159,9030.512492
2600.169891,1302.362347,370.102971,8956.491898
2600.170220,1455.581446,518.144159,8734.430116
2600.170549,229.828649,370.102971,9548.656652
2600.170879,689.485948,-296.082377,9474.636058
2600.171208,306.438199,-814.226536,10066.800811
2600.171537,536.266849,-370.102971,10066.800811
2600.171866,766.095498,-148.041188,9400.615463
2600.172195,995.924147,-0.000000,8882.471304
2600.172525,1378.971896,-0.000000,9474.636058
2600.172854,612.876398,-444.123565,9474.636058
2600.173183,2451.505594,-370.102971,8882.471304
2600.173512,2451.505594,-444.123565,8882.471304
2600.173841,2528.115143,740.205942,8142.265362
2600.174171,1991.848295,518.144159,8290.306550
2600.174500,1532.190996,296.082377,8512.368333
2600.174829,1225.752797,-518.144159,9030.512492
2600.175158,689.485948,-296.082377,9178.553681
2600.175488,153.219100,-814.226536,8956.491898
2600.175817,-306.438199,370.102971,9252.574275
2600.176146,-536.266849,222.061783,9474.636058
2600.176475,306.438199,-370.102971,8808.450710
2600.176804,459.657299,-518.144159,9474.636058
2600.177134,842.705048,-888.247130,9400.615463
2600.177463,1072.533697,-148.041188,8660.409521
2600.177792,1225.752797,740.205942,8142.265362
2600.178121,1072.533697,1332.370696,7994.224174
2600.178450,383.047749,666.185348,8438.347739
2600.178780,-306.438199,444.123565,8882.471304
2600.179109,-383.047749,-518.144159,9104.533087
2600.179438,-842.705048,-222.061783,9474.636058
2600.179767,-1149.143247,-888.247130,9252.574275
2600.180096,-1455.581446,-592.164754,8956.491898
2600.180426,-1378.971896,-1110.308913,9622.677246
2600.180755,-1455.581446,-1258.350101,10214.842000
2600.181084,-766.095498,-1480.411884,9474.636058
2600.181413,-1302.362347,-666.185348,9918.759623
2600.181743,-1378.971896,-0.000000,9326.594869
2600.182072,-919.314598,296.082377,8512.368333
2600.182401,-306.438199,296.082377,7994.224174
2600.182730,0.000000,-74.020594,9326.594869
2600.183059,-612.876398,-74.020594,9178.553681
2600.183389,-306.438199,-222.061783,9326.594869
2600.183718,0.000000,740.205942,8882.471304
2600.184047,76.609550,444.123565,8512.368333
2600.184376,-383.047749,-148.041188,8956.491898
2600.184705,-689.485948,-1258.350101,9400.615463
2600.185035,-842.705048,-1628.453072,9474.636058
2600.185364,-459.657299,-962.267725,9474.636058
2600.185693,-383.047749,-0.000000,9326.594869
2600.186022,-459.657299,444.123565,8734.430116
2600.186351,-306.438199,148.041188,8956.491898
2600.186681,-306.438199,-222.061783,9326.594869
2600.187010,-153.219100,-814.226536,9474.636058
2600.187339,0.000000,-0.000000,9622.677246
2600.187668,229.828649,222.061783,9178.553681
2600.187998,383.047749,518.144159,9030.512492
2600.188327,689.485948,-148.041188,9252.574275
2600.188656,1149.143247,-592.164754,9104.533087
2600.188985,1608.800546,-444.123565,8882.471304
2600.189314,1991.848295,222.061783,8808.450710
2600.189644,1915.238745,444.123565,8364.327145
2600.189973,2068.457845,148.041188,8512.368333
2600.190302,1608.800546,-0.000000,9104.533087
2600.190631,1302.362347,-444.123565,9104.533087
2600.190960,1225.752797,-740.205942,9252.574275
2600.191290,919.314598,-148.041188,9400.615463
2600.191619,1302.362347,296.082377,9400.615463
2600.191948,1762.019645,-0.000000,8882.471304
2600.192277,2221.676944,-444.123565,9326.594869
2600.192606,1838.629195,-888.247130,9326.594869
2600.192936,2068.457845,-666.185348,9178.553681
2600.193265,1762.019645,-592.164754,9178.553681
2600.193594,1532.190996,518.144159,8734.430116
2600.193923,1302.362347,-0.000000,8512.368333
2600.194253,1149.143247,-0.000000,9252.574275
2600.194582,383.047749,-370.102971,9770.718434
2600.194911,-383.047749,-592.164754,9918.759623
2600.195240,0.000000,-0.000000,9474.636058
2600.195569,459.657299,-370.102971,9178.553681
2600.195899,76.609550,-0.000000,9104.533087
2600.196228,689.485948,-666.185348,9326.594869
2600.196557,1532.190996,-740.205942,9030.512492
2600.196886,1072.533697,-888.247130,9030.512492
2600.197215,1149.143247,444.123565,9104.533087
2600.197545,1302.362347,592.164754,8512.368333
2600.197874,689.485948,1110.308913,8290.306550
2600.198203,229.828649,370.102971,8586.388927
2600.198532,-229.828649,-74.020594,9104.533087
2600.198862,-1302.362347,-370.102971,9474.636058
2600.199191,-995.924147,-518.144159,9474.636058
2600.199520,-1072.533697,222.061783,9252.574275
2600.199849,-1302.362347,-296.082377,8882.471304
2600.200178,-1378.971896,-740.205942,9252.574275
2600.200508,-1225.752797,-1110.308913,9252.574275
2600.200837,-919.314598,-1628.453072,9326.594869
2600.201166,-1149.143247,-1036.288319,10510.924376
2600.201495,-1072.533697,-0.000000,8660.409521
2600.201824,-306.438199,-222.061783,8438.347739
2600.202154,-612.876398,592.164754,8216.285956
2600.202483,-306.438199,296.082377,9178.553681
2600.202812,-766.095498,-222.061783,9918.759623
2600.203141,-689.485948,-0.000000,8290.306550
2600.203470,-689.485948,-0.000000,8734.430116
2600.203800,-995.924147,-518.144159,8956.491898
2600.204129,-689.485948,-1850.514855,9770.718434
2600.204458,-842.705048,-1924.535449,9474.636058
2600.204787,-612.876398,-1184.329507,9622.677246
2600.205117,-383.047749,-74.020594,9178.553681
2600.205446,459.657299,-0.000000,8734.430116
2600.205775,1072.533697,666.185348,8956.491898
2600.206104,536.266849,-0.000000,8882.471304
2600.206433,229.828649,-666.185348,9770.718434
2600.206763,153.219100,-74.020594,9252.574275
2600.207092,766.095498,592.164754,9178.553681
2600.207421,1072.533697,814.226536,8660.409521
2600.207750,842.705048,666.185348,8512.368333
2600.208079,1225.752797,-222.061783,9178.553681
2600.208409,1302.362347,-962.267725,9178.553681
2600.208738,1455.581446,-814.226536,8882.471304
2600.209067,1532.190996,-0.000000,8808.450710
2600.209396,1378.971896,740.205942,8216.285956
2600.209725,766.095498,222.061783,8808.450710
2600.210055,536.266849,-222.061783,9326.594869
2600.210384,459.657299,-592.164754,9400.615463
2600.210713,842.705048,-518.144159,10214.842000
2600.211042,1149.143247,222.061783,9400.615463
2600.211371,1378.971896,370.102971,8956.491898
2600.211700,1378.971896,-0.000000,9252.574275
2600.212029,1991.848295,-0.000000,8956.491898
2600.212358,2221.676944,-296.082377,9178.553681
2600.212687,2681.334243,-444.123565,8956.491898
2600.213016,2834.553343,518.144159,7994.224174
2600.213346,2374.896044,1184.329507,7994.224174
2600.213675,1072.533697,1184.329507,7698.141797
2600.214004,1302.362347,-296.082377,8956.491898
2600.214333,383.047749,-1184.329507,9474.636058
2600.214662,153.219100,-518.144159,9622.677246
2600.214991,-229.828649,-1480.411884,10214.842000
2600.215320,-383.047749,-1406.391290,9178.553681
2600.215649,-306.438199,-814.226536,9622.677246
2600.215978,0.000000,-1406.391290,9548.656652
2600.216307,459.657299,-1036.288319,9474.636058
2600.216636,842.705048,-518.144159,9622.677246
2600.216965,1302.362347,888.247130,7994.224174
2600.217294,1302.362347,1628.453072,8068.244768
2600.217623,766.095498,1184.329507,8142.265362
2600.217952,0.000000,814.226536,8290.306550
2600.218281,-536.266849,-370.102971,9474.636058
2600.218610,-1225.752797,-666.185348,9326.594869
2600.218939,-1455.581446,-222.061783,9178.553681
2600.219268,-1149.143247,-888.247130,9474.636058
2600.219597,-1455.581446,-962.267725,9104.533087
2600.219926,-1149.143247,-1406.391290,9474.636058
2600.220255,-1762.019645,-1554.432478,9622.677246
2600.220584,-1302.362347,-888.247130,9844.739029
2600.220913,-1149.143247,-0.000000,9252.574275
2600.221242,-766.095498,-0.000000,8956.491898
2600.221571,-459.657299,592.164754,8512.368333
2600.221900,0.000000,-148.041188,8882.471304
2600.222229,-536.266849,-74.020594,8364.327145
2600.222558,0.000000,666.185348,9104.533087
2600.222887,306.438199,888.247130,8290.306550
2600.223216,0.000000,1036.288319,8216.285956
2600.223545,-153.219100,-74.020594,9104.533087
2600.223874,-766.095498,-1184.329507,9252.574275
2600.224203,-995.924147,-1628.453072,9548.656652
2600.224532,-1225.752797,-1184.329507,10066.800811
2600.224861,-1685.410096,-222.061783,9474.636058
2600.225190,-1225.752797,-148.041188,9178.553681
2600.225520,-689.485948,-148.041188,9400.615463
2600.225849,-536.266849,-74.020594,9474.636058
2600.226178,-536.266849,-592.164754,9622.677246
2600.226507,383.047749,-518.144159,9844.739029
2600.226836,766.095498,-0.000000,9474.636058
2600.227165,1072.533697,148.041188,8956.491898
2600.227494,1149.143247,-222.061783,9252.574275
2600.227823,1762.019645,-518.144159,9252.574275
2600.228152,2298.286494,-296.082377,9326.594869
2600.228481,2451.505594,-0.000000,8660.409521
2600.228810,3370.820191,222.061783,7920.203579
2600.229139,2757.943793,1184.329507,8364.327145
2600.229468,1991.848295,1036.288319,8956.491898
2600.229797,1302.362347,-74.020594,9696.697840
2600.230126,995.924147,-296.082377,9474.636058
2600.230455,689.485948,-148.041188,9918.759623
2600.230784,919.314598,-148.041188,9548.656652
2600.231113,1225.752797,-74.020594,8956.491898
2600.231442,919.314598,-296.082377,9548.656652
2600.231771,995.924147,-1036.288319,9474.636058
2600.232100,1762.019645,-666.185348,9326.594869
2600.232429,1915.238745,-222.061783,9030.512492
2600.232758,2451.505594,962.267725,7994.224174
2600.233087,2068.457845,1036.288319,7624.121203
2600.233416,1608.800546,592.164754,7994.224174
2600.233745,1378.971896,-0.000000,8290.306550
2600.234074,1455.581446,-518.144159,9178.553681
2600.234403,383.047749,-74.020594,9030.512492
2600.234732,76.609550,-296.082377,8438.347739
2600.235061,0.000000,-0.000000,9400.615463
2600.235390,0.000000,-518.144159,9474.636058
2600.235719,306.438199,-1480.411884,9474.636058
2600.236048,766.095498,-814.226536,9400.615463
2600.236377,-153.219100,-666.185348,9178.553681
2600.236706,306.438199,222.061783,9178.553681
2600.237035,459.657299,518.144159,8586.388927
2600.237364,229.828649,296.082377,8660.409521
2600.237694,229.828649,-0.000000,8882.471304
2600.238023,-229.828649,-222.061783,9104.533087
2600.238352,-1225.752797,-0.000000,9474.636058
2600.238681,-76.609550,-0.000000,8882.471304
2600.239010,-766.095498,-74.020594,9030.512492
2600.239339,-842.705048,-444.123565,9178.553681
2600.239668,-1225.752797,-1628.453072,9548.656652
2600.239997,-1762.019645,-1480.411884,9918.759623
2600.240326,-1225.752797,-888.247130,9696.697840
2600.240655,-1149.143247,-0.000000,9104.533087
2600.240984,-842.705048,1110.308913,8956.491898
2600.241313,-1072.533697,740.205942,8956.491898
2600.241642,-766.095498,-0.000000,9104.533087
2600.241971,-689.485948,-0.000000,9326.594869
2600.242300,-459.657299,-0.000000,9326.594869
2600.242629,-229.828649,296.082377,8882.471304
2600.242958,-612.876398,-74.020594,8438.347739
2600.243287,229.828649,-1184.329507,9030.512492
2600.243616,0.000000,-1332.370696,9474.636058
2600.243945,0.000000,-1184.329507,8808.450710
2600.244274,0.000000,-666.185348,9030.512492
2600.244603,229.828649,370.102971,8586.388927
2600.244932,229.828649,370.102971,8512.368333
2600.245261,383.047749,-0.000000,8512.368333
2600.245590,153.219100,-444.123565,9400.615463
2600.245919,0.000000,-592.164754,9548.656652
2600.246248,229.828649,-0.000000,9474.636058
2600.246577,612.876398,518.144159,9030.512492
2600.246906,383.047749,370.102971,9104.533087
2600.247235,919.314598,-74.020594,9474.636058
2600.247564,1072.533697,-888.247130,9400.615463
2600.247893,1225.752797,-1184.329507,10362.883188
2600.248222,1838.629195,-518.144159,8512.368333
2600.248551,1532.190996,370.102971,8438.347739
2600.248880,1608.800546,222.061783,8734.430116
2600.249209,1608.800546,-0.000000,8512.368333
2600.249538,1762.019645,-74.020594,9326.594869
2600.249867,919.314598,-444.123565,9178.553681
2600.250197,1378.971896,296.082377,9770.718434
2600.250526,919.314598,222.061783,9104.533087
2600.250855,1072.533697,296.082377,8882.471304
2600.251184,919.314598,-962.267725,9918.759623
2600.251513,1302.362347,-592.164754,9400.615463
2600.251842,1302.362347,-518.144159,9918.759623
2600.252171,1532.190996,148.041188,9030.512492
2600.252500,1991.848295,296.082377,8512.368333
2600.252829,1838.629195,-444.123565,9918.759623
2600.253158,1838.629195,518.144159,8734.430116
2600.253487,1532.190996,-444.123565,8808.450710
2600.253816,612.876398,-592.164754,8660.409521
2600.254145,995.924147,962.267725,9844.739029
2600.254474,612.876398,-222.061783,9326.594869
2600.254803,689.485948,370.102971,7920.203579
2600.255132,229.828649,-1184.329507,9326.594869
2600.255461,0.000000,-1184.329507,8660.409521
2600.255790,306.438199,-1184.329507,9252.574275
2600.256119,0.000000,-666.185348,8808.450710
2600.256448,-383.047749,-0.000000,8512.368333
2600.256777,0.000000,296.082377,9178.553681
2600.257106,-842.705048,-444.123565,9178.553681
2600.257435,-153.219100,-222.061783,8882.471304
2600.257764,-306.438199,-0.000000,9252.574275
2600.258093,-459.657299,370.102971,8660.409521
2600.258422,-459.657299,370.102971,8808.450710
2600.258751,0.000000,-370.102971,8882.471304
2600.259080,153.219100,-592.164754,9178.553681
2600.259409,0.000000,-1036.288319,9548.656652
2600.259738,-306.438199,-1036.288319,9252.574275
2600.260067,-306.438199,-0.000000,8956.491898
2600.260396,-153.219100,962.267725,8290.306550
2600.260725,-383.047749,370.102971,8438.347739
2600.261054,-536.266849,-0.000000,9178.553681
2600.261383,-766.095498,-962.267725,9622.677246
2600.261712,-1378.971896,-370.102971,10066.800811
2600.262041,-1302.362347,-592.164754,9474.636058
2600.262371,-1302.362347,-296.082377,9326.594869
2600.262700,-995.924147,-370.102971,9178.553681
2600.263029,-766.095498,-1406.391290,9400.615463
2600.263358,-229.828649,-1702.473667,9992.780217
2600.263687,229.828649,-444.123565,9400.615463
2600.264016,536.266849,592.164754,8882.471304
2600.264345,536.266849,1998.556043,8290.306550
2600.264674,229.828649,1554.432478,8438.347739
2600.265003,229.828649,592.164754,9178.553681
2600.265332,0.000000,-74.020594,9178.553681
2600.265661,229.828649,222.061783,9326.594869
2600.265990,-459.657299,-222.061783,9548.656652
2600.266319,536.266849,-222.061783,9474.636058
2600.266648,-153.219100,-74.020594,8956.491898
2600.266977,-306.438199,-1110.308913,9548.656652
2600.267306,612.876398,-1480.411884,9474.636058
2600.267635,1378.971896,-148.041188,9400.615463
2600.267964,1762.019645,740.205942,8512.368333
2600.268293,2374.896044,888.247130,8068.244768
2600.268622,1838.629195,666.185348,8438.347739
2600.268951,1762.019645,592.164754,8956.491898
2600.269280,1838.629195,296.082377,9030.512492
2600.269609,1072.533697,222.061783,9252.574275
2600.269938,1302.362347,222.061783,8956.491898
2600.270267,995.924147,370.102971,9178.553681
2600.270596,612.876398,-962.267725,9474.636058
2600.270925,536.266849,-2146.597232,9030.512492
2600.271254,842.705048,-1850.514855,9918.759623
2600.271583,842.705048,-888.247130,9474.636058
2600.271912,842.705048,-74.020594,8956.491898
2600.272241,842.705048,296.082377,8660.409521
2600.272570,842.705048,592.164754,9030.512492
2600.272899,459.657299,370.102971,9400.615463
2600.273228,842.705048,-444.123565,9400.615463
2600.273557,1378.971896,-222.061783,9178.553681
2600.273886,995.924147,-0.000000,8660.409521
2600.274215,383.047749,-0.000000,8734.430116
2600.274545,153.219100,-666.185348,8882.471304
2600.274874,842.705048,-1332.370696,9548.656652
2600.275203,689.485948,-1036.288319,9400.615463
2600.275532,919.314598,-0.000000,9252.574275
2600.275861,536.266849,-148.041188,8586.388927
2600.276190,1225.752797,1332.370696,7698.141797
2600.276519,995.924147,1110.308913,8364.327145
2600.276848,536.266849,518.144159,8438.347739
2600.277177,229.828649,-0.000000,9252.574275
2600.277506,-229.828649,-74.020594,9474.636058
2600.277835,-612.876398,888.247130,9030.512492
2600.278164,-842.705048,-0.000000,8438.347739
2600.278493,-995.924147,-666.185348,9252.574275
2600.278822,-995.924147,-1036.288319,9400.615463
2600.279151,-1302.362347,-1184.329507,9548.656652
2600.279480,-1302.362347,-1110.308913,9400.615463
2600.279809,-766.095498,-74.020594,9178.553681
2600.280138,-1302.362347,-0.000000,8808.450710
2600.280467,-1455.581446,-444.123565,9326.594869
2600.280796,-1225.752797,-592.164754,9770.718434
2600.281125,-842.705048,-296.082377,9770.718434
2600.281454,-766.095498,-0.000000,9696.697840
2600.281783,-612.876398,222.061783,9178.553681
2600.282112,-383.047749,-0.000000,9326.594869
2600.282441,0.000000,-888.247130,9030.512492
2600.282770,229.828649,-1184.329507,9400.615463
2600.283099,229.828649,-1258.350101,9474.636058
2600.283428,459.657299,-592.164754,9400.615463
2600.283757,536.266849,518.144159,8586.388927
2600.284086,306.438199,666.185348,8068.244768
2600.284415,612.876398,518.144159,9104.533087
2600.284744,-229.828649,-222.061783,9474.636058
2600.285073,306.438199,-148.041188,10140.821405
2600.285402,76.609550,-74.020594,9548.656652
2600.285731,383.047749,-0.000000,9400.615463
2600.286060,153.219100,-0.000000,9104.533087
2600.286389,459.657299,-296.082377,9474.636058
2600.286718,612.876398,-1332.370696,9918.759623
2600.287048,1149.143247,-962.267725,9104.533087
2600.287377,1685.410096,-0.000000,9030.512492
2600.287706,1225.752797,888.247130,8216.285956
2600.288035,1455.581446,1406.391290,8142.265362
2600.288364,1762.019645,888.247130,8290.306550
2600.288693,1608.800546,592.164754,8586.388927
2600.289022,1455.581446,-370.102971,9104.533087
2600.289351,1225.752797,-74.020594,9178.553681
2600.289680,919.314598,-148.041188,8882.471304
2600.290009,919.314598,-148.041188,9030.512492
2600.290338,919.314598,-1036.288319,9252.574275
2600.290667,1455.581446,-1406.391290,9474.636058
2600.290996,1915.238745,-962.267725,9252.574275
2600.291325,2451.505594,-222.061783,9474.636058
2600.291654,2757.943793,666.185348,8512.368333
2600.291983,2681.334243,592.164754,8216.285956
2600.292312,2451.505594,1184.329507,8364.327145
2600.292641,1838.629195,148.041188,8956.491898
2600.292970,1225.752797,-0.000000,9178.553681
2600.293299,919.314598,444.123565,9252.574275
2600.293628,459.657299,-0.000000,8586.388927
2600.293957,0.000000,-518.144159,9178.553681
2600.294286,-383.047749,-1036.288319,9474.636058
2600.294615,-459.657299,-1702.473667,9178.553681
2600.294944,-689.485948,-1702.473667,9622.677246
2600.295273,-536.266849,-1184.329507,9252.574275
2600.295602,-459.657299,-0.000000,9104.533087
2600.295931,-842.705048,444.123565,8808.450710
2600.296260,-689.485948,-74.020594,9326.594869
2600.296589,0.000000,-296.082377,9104.533087
2600.296918,0.000000,-222.061783,9474.636058
2600.297247,0.000000,666.185348,8956.491898
2600.297576,0.000000,888.247130,8438.347739
2600.297905,76.609550,666.185348,8586.388927
2600.298234,229.828649,-518.144159,8734.430116
2600.298563,459.657299,-740.205942,9400.615463
2600.298892,229.828649,-370.102971,8660.409521
2600.299222,0.000000,-148.041188,8734.430116
2600.299551,-459.657299,592.164754,8438.347739
2600.299880,-383.047749,666.185348,8512.368333
2600.300209,-1072.533697,-222.061783,9030.512492
2600.300538,-1225.752797,-1110.308913,9844.739029
2600.300867,-1915.238745,-888.247130,9770.718434
2600.301196,-1455.581446,-0.000000,9474.636058
2600.301525,-1762.019645,-0.000000,10066.800811
2600.301854,-1225.752797,-666.185348,9548.656652
2600.302183,-1072.533697,-592.164754,9696.697840
2600.302512,-536.266849,-1258.350101,9770.718434
2600.302841,153.219100,-814.226536,9326.594869
2600.303170,0.000000,-0.000000,9104.533087
2600.303499,76.609550,1332.370696,8290.306550
2600.303828,0.000000,1332.370696,8586.388927
2600.304157,0.000000,-296.082377,9030.512492
2600.304486,0.000000,-74.020594,9104.533087
2600.304815,0.000000,-814.226536,9474.636058
2600.305144,0.000000,-592.164754,9326.594869
2600.305473,0.000000,-962.267725,9252.574275
2600.305802,76.609550,-1036.288319,9548.656652
2600.306131,229.828649,-1406.391290,9844.739029
2600.306460,842.705048,-962.267725,9622.677246
2600.306789,1532.190996,-814.226536,9326.594869
2600.307118,2068.457845,814.226536,8660.409521
2600.307447,2451.505594,1258.350101,8290.306550
2600.307776,2911.162892,1332.370696,7920.203579
2600.308105,2757.943793,814.226536,8290.306550
2600.308434,1991.848295,518.144159,9252.574275
2600.308763,1991.848295,148.041188,9030.512492
2600.309092,1455.581446,370.102971,9326.594869
2600.309421,1302.362347,592.164754,8364.327145
2600.309750,842.705048,-0.000000,8956.491898
2600.310078,536.266849,-1554.432478,9696.697840
2600.310407,459.657299,-1702.473667,9474.636058
2600.310736,459.657299,-962.267725,9474.636058
2600.311065,1072.533697,-1184.329507,9252.574275
2600.311394,842.705048,148.041188,7920.203579
2600.311723,919.314598,370.102971,8734.430116
2600.312052,1685.410096,296.082377,8808.450710
2600.312381,1608.800546,-518.144159,9104.533087
2600.312710,842.705048,-0.000000,9252.574275
2600.313039,1608.800546,-0.000000,9104.533087
2600.313368,919.314598,296.082377,8808.450710
2600.313697,995.924147,-74.020594,8956.491898
2600.314026,1225.752797,-740.205942,9326.594869
2600.314355,1302.362347,-518.144159,9474.636058
2600.314684,1149.143247,-666.185348,9030.512492
2600.315013,306.438199,370.102971,8882.471304
2600.315342,459.657299,814.226536,7920.203579
2600.315671,766.095498,-0.000000,9474.636058
2600.316000,0.000000,-518.144159,8882.471304
2600.316329,-1378.971896,-592.164754,9548.656652
2600.316658,-1455.581446,-962.267725,10362.883188
2600.316987,-766.095498,-518.144159,9326.594869
2600.317316,-1149.143247,-296.082377,9030.512492
2600.317645,-766.095498,-666.185348,9696.697840
2600.317974,-1225.752797,-1480.411884,9696.697840
2600.318303,-1072.533697,-814.226536,9474.636058
2600.318632,-459.657299,-518.144159,9178.553681
2600.318961,-612.876398,444.123565,8364.327145
2600.319290,0.000000,518.144159,8142.265362
2600.319619,-689.485948,444.123565,8734.430116
2600.319948,-689.485948,-148.041188,9252.574275
2600.320277,-1225.752797,-370.102971,9252.574275
2600.320606,-1378.971896,-444.123565,9400.615463
2600.320935,-1608.800546,-0.000000,9474.636058
2600.321264,-1991.848295,-0.000000,9030.512492
2600.321593,-1149.143247,-962.267725,9474.636058
2600.321922,-1378.971896,-1332.370696,9548.656652
2600.322251,-536.266849,-1702.473667,9474.636058
2600.322580,-306.438199,-518.144159,9104.533087
2600.322909,306.438199,444.123565,8808.450710
2600.323238,612.876398,1258.350101,7772.162391
2600.323567,1072.533697,888.247130,8216.285956
2600.323896,1072.533697,518.144159,8808.450710
2600.324225,1149.143247,-0.000000,9104.533087
2600.324554,1378.971896,444.123565,9104.533087
2600.324883,1225.752797,666.185348,8882.471304
2600.325212,766.095498,-0.000000,8660.409521
2600.325541,306.438199,-296.082377,9104.533087
2600.325870,536.266849,-962.267725,9548.656652
2600.326199,1072.533697,-740.205942,9252.574275
2600.326528,1608.800546,-666.185348,9252.574275
2600.326857,1302.362347,-0.000000,9030.512492
2600.327186,689.485948,296.082377,8734.430116
2600.327515,536.266849,-74.020594,9104.533087
2600.327844,306.438199,-370.102971,9474.636058
2600.328173,153.219100,-592.164754,9992.780217
2600.328502,0.000000,-148.041188,9770.718434
2600.328831,919.314598,-0.000000,9696.697840
2600.329160,1072.533697,-296.082377,9252.574275
2600.329489,1225.752797,-370.102971,9178.553681
2600.329818,1685.410096,-962.267725,9474.636058
2600.330147,2374.896044,-666.185348,9326.594869
2600.330476,2451.505594,-0.000000,8438.347739
2600.330805,2757.943793,888.247130,7772.162391
2600.331134,2987.772442,1184.329507,8364.327145
2600.331463,2451.505594,1036.288319,8512.368333
2600.331792,1838.629195,518.144159,8660.409521
2600.332121,1149.143247,-0.000000,9104.533087
2600.332450,689.485948,-148.041188,9104.533087
2600.332779,383.047749,-0.000000,9104.533087
2600.333108,0.000000,-0.000000,8882.471304
2600.333437,76.609550,-1702.473667,9326.594869
2600.333766,-306.438199,-2220.617826,9918.759623
2600.334095,-306.438199,-1702.473667,9622.677246
2600.334424,0.000000,-814.226536,9474.636058
2600.334753,306.438199,-0.000000,8438.347739
2600.335082,229.828649,962.267725,7994.224174
2600.335411,306.438199,740.205942,8586.388927
2600.335740,459.657299,518.144159,7920.203579
2600.336069,0.000000,666.185348,9030.512492
2600.336398,-612.876398,148.041188,7920.203579
2600.336727,-612.876398,740.205942,8734.430116
2600.337056,-1378.971896,-444.123565,8956.491898
2600.337385,-995.924147,-740.205942,9696.697840
2600.337714,-766.095498,-1480.411884,9400.615463
2600.338043,-1302.362347,-1850.514855,9844.739029
2600.338372,0.000000,-1036.288319,9696.697840
2600.338701,-689.485948,-0.000000,8512.368333
2600.339030,-459.657299,370.102971,8364.327145
2600.339359,-612.876398,370.102971,9178.553681
2600.339688,0.000000,-666.185348,9178.553681
2600.340017,-536.266849,-0.000000,9474.636058
2600.340346,229.828649,-0.000000,9474.636058
2600.340675,0.000000,888.247130,8438.347739
2600.341004,0.000000,-0.000000,8512.368333
2600.341333,-306.438199,-0.000000,9252.574275
2600.341662,-612.876398,-1258.350101,9326.594869
2600.341991,0.000000,-1332.370696,9696.697840
2600.342320,-306.438199,-518.144159,8808.450710
2600.342649,-459.657299,1184.329507,8956.491898
2600.342978,-536.266849,148.041188,8734.430116
2600.343307,-536.266849,-148.041188,9326.594869
2600.343636,-612.876398,-370.102971,8956.491898
2600.343965,-383.047749,-740.205942,9474.636058
2600.344294,-306.438199,-0.000000,9474.636058
2600.344623,306.438199,-222.061783,8956.491898
2600.344952,383.047749,-0.000000,8660.409521
2600.345281,689.485948,-1110.308913,9104.533087
2600.345610,1915.238745,-518.144159,9474.636058
2600.345939,1991.848295,-962.267725,7476.080014
2600.346268,1991.848295,370.102971,8956.491898
2600.346597,2681.334243,1480.411884,8290.306550
2600.346926,2221.676944,740.205942,8068.244768
2600.347255,1838.629195,-0.000000,9178.553681
2600.347584,1762.019645,-222.061783,9474.636058
2600.347913,1378.971896,-444.123565,9696.697840
2600.348242,1072.533697,-0.000000,9548.656652
2600.348571,919.314598,444.123565,9400.615463
2600.348900,766.095498,-370.102971,9474.636058
2600.349229,1149.143247,-444.123565,8956.491898
2600.349558,1378.971896,-1332.370696,9474.636058
2600.349887,1225.752797,-1036.288319,9326.594869
2600.350216,1915.238745,-0.000000,8882.471304
2600.350545,1685.410096,888.247130,8512.368333
2600.350874,1149.143247,666.185348,8660.409521
2600.351203,766.095498,444.123565,9474.636058
2600.351532,229.828649,-370.102971,9696.697840
2600.351861,153.219100,-0.000000,10436.903782
2600.352190,995.924147,-222.061783,10140.821405
2600.352519,76.609550,370.102971,9326.594869
2600.352848,689.485948,-0.000000,9992.780217
2600.353177,612.876398,-296.082377,9400.615463
2600.353505,1225.752797,-148.041188,9252.574275
2600.353834,1608.800546,-370.102971,9030.512492
2600.354163,1685.410096,592.164754,7994.224174
2600.354492,1302.362347,1332.370696,7105.977043
2600.354821,766.095498,740.205942,7772.162391
2600.355150,1149.143247,-222.061783,8808.450710
2600.355479,0.000000,-370.102971,9326.594869
2600.355808,-766.095498,-1184.329507,9400.615463
2600.356137,-689.485948,-962.267725,9548.656652
2600.356466,-919.314598,-518.144159,8956.491898
2600.356795,-995.924147,-518.144159,8956.491898
2600.357124,-383.047749,-1332.370696,9770.718434
2600.357453,-689.485948,-1036.288319,9918.759623
2600.357782,0.000000,-592.164754,8882.471304
2600.358111,0.000000,592.164754,8438.347739
2600.358440,76.609550,888.247130,7846.182985
2600.358769,-229.828649,1110.308913,7698.141797
2600.359098,-383.047749,518.144159,9326.594869
2600.359427,-1608.800546,-1110.308913,9474.636058
2600.359756,-1072.533697,-814.226536,9474.636058
2600.360085,-1532.190996,-814.226536,9474.636058
2600.360414,-1991.848295,-592.164754,9178.553681
2600.360743,-2374.896044,-1480.411884,9548.656652
2600.361072,-1915.238745,-1998.556043,9844.739029
2600.361401,-842.705048,-2220.617826,10214.842000
2600.361730,-306.438199,-1036.288319,10066.800811
2600.362059,-153.219100,370.102971,9030.512492
2600.362388,459.657299,666.185348,8364.327145
2600.362717,1532.190996,370.102971,8808.450710
2600.363046,1685.410096,592.164754,7846.182985
2600.363375,1072.533697,148.041188,9030.512492
2600.363704,1915.238745,666.185348,9696.697840
2600.364033,766.095498,666.185348,8808.450710
2600.364362,842.705048,222.061783,8290.306550
2600.364691,689.485948,222.061783,8882.471304
2600.365020,0.000000,-1406.391290,9400.615463
2600.365349,0.000000,-888.247130,9474.636058
2600.365678,306.438199,-1554.432478,9622.677246
2600.366007,-153.219100,-74.020594,9548.656652
2600.366336,229.828649,518.144159,8882.471304
2600.366665,1149.143247,370.102971,9400.615463
2600.366994,689.485948,-0.000000,8882.471304
2600.367323,1302.362347,222.061783,9474.636058
2600.367652,1378.971896,-74.020594,9548.656652
2600.367981,1838.629195,592.164754,9178.553681
2600.368310,1838.629195,148.041188,7994.224174
2600.368639,1915.238745,-0.000000,9178.553681
2600.368968,2911.162892,-592.164754,9474.636058
2600.369297,2068.457845,-518.144159,8660.409521
2600.369626,2068.457845,-370.102971,8882.471304
2600.369955,1532.190996,666.185348,8808.450710
2600.370284,1302.362347,222.061783,8586.388927
2600.370613,536.266849,-444.123565,8734.430116
2600.370942,0.000000,-962.267725,9696.697840
2600.371271,153.219100,-1258.350101,10288.862594
2600.371600,0.000000,-592.164754,10214.842000
2600.371929,0.000000,148.041188,9474.636058
2600.372258,536.266849,296.082377,8808.450710
2600.372587,995.924147,-0.000000,9326.594869
2600.372916,1532.190996,-592.164754,8956.491898
2600.373245,1762.019645,-296.082377,9030.512492
2600.373574,1532.190996,-0.000000,8512.368333
2600.373903,1302.362347,888.247130,8364.327145
2600.374232,1378.971896,1258.350101,7994.224174
2600.374561,229.828649,1184.329507,8438.347739
2600.374890,0.000000,-148.041188,9178.553681
2600.375219,-766.095498,-296.082377,9844.739029
2600.375548,-1225.752797,-1036.288319,10066.800811
2600.375877,-1302.362347,-148.041188,9326.594869
2600.376206,-1685.410096,-222.061783,9178.553681
2600.376535,-1532.190996,-888.247130,9178.553681
2600.376864,-1149.143247,-1110.308913,9252.574275
2600.377193,-1072.533697,-1184.329507,9104.533087
2600.377522,-459.657299,-444.123565,8882.471304
2600.377851,0.000000,148.041188,8364.327145
2600.378180,0.000000,888.247130,8364.327145
2600.378509,0.000000,148.041188,8068.244768
2600.378838,-229.828649,-0.000000,8586.388927
2600.379167,-536.266849,-814.226536,9474.636058
2600.379496,-766.095498,-518.144159,9400.615463
2600.379825,-766.095498,-74.020594,8956.491898
2600.380154,-1225.752797,-592.164754,8956.491898
2600.380483,-995.924147,-814.226536,9622.677246
2600.380812,-1149.143247,-2220.617826,9844.739029
2600.381141,-1149.143247,-1258.350101,9474.636058
2600.381470,-229.828649,-518.144159,9104.533087
2600.381799,0.000000,592.164754,8438.347739
2600.382128,0.000000,888.247130,9178.553681
2600.382457,229.828649,-0.000000,9178.553681
2600.382786,-306.438199,-222.061783,9400.615463
2600.383115,0.000000,-370.102971,9844.739029
2600.383444,229.828649,-0.000000,9252.574275
2600.383773,229.828649,-74.020594,9252.574275
2600.384102,536.266849,-0.000000,9030.512492
2600.384431,536.266849,-370.102971,9326.594869
2600.384760,1149.143247,-1258.350101,9696.697840
2600.385089,1838.629195,-888.247130,9252.574275
2600.385418,2145.067394,222.061783,8438.347739
2600.385747,1915.238745,962.267725,8216.285956
2600.386076,1991.848295,1480.411884,8142.265362
2600.386405,1455.581446,814.226536,9178.553681
2600.386734,1532.190996,148.041188,9474.636058
2600.387063,1608.800546,-0.000000,9622.677246
2600.387392,1378.971896,-222.061783,9548.656652
2600.387721,919.314598,296.082377,8808.450710
2600.388050,1225.752797,-0.000000,8882.471304
2600.388379,1762.019645,-1110.308913,9178.553681
2600.388708,1685.410096,-962.267725,9104.533087
2600.389037,1685.410096,-666.185348,9252.574275
2600.389366,1991.848295,-0.000000,8808.450710
2600.389695,2068.457845,1036.288319,8512.368333
2600.390024,2451.505594,962.267725,7624.121203
2600.390353,1838.629195,888.247130,7994.224174
2600.390682,1378.971896,-222.061783,9030.512492
2600.391011,919.314598,-0.000000,9326.594869
2600.391340,536.266849,-0.000000,9104.533087
2600.391669,229.828649,-74.020594,9030.512492
2600.391998,0.000000,-444.123565,9252.574275
2600.392327,0.000000,-1036.288319,9474.636058
2600.392656,76.609550,-1998.556043,9178.553681
2600.392985,76.609550,-740.205942,9400.615463
2600.393314,612.876398,-370.102971,8956.491898
2600.393643,383.047749,592.164754,8438.347739
2600.393972,689.485948,666.185348,8142.265362
2600.394301,612.876398,518.144159,8512.368333
2600.394630,-383.047749,-74.020594,9400.615463
2600.394959,229.828649,-222.061783,9696.697840
2600.395288,0.000000,-0.000000,9326.594869
2600.395617,-153.219100,296.082377,8660.409521
2600.395946,-459.657299,-0.000000,8956.491898
2600.396275,-536.266849,-592.164754,9474.636058
2600.396604,-766.095498,-1036.288319,9326.594869
2600.396933,-536.266849,-1258.350101,9400.615463
2600.397262,-919.314598,814.226536,8956.491898
2600.397591,-689.485948,666.185348,8142.265362
2600.397920,-766.095498,518.144159,8290.306550
2600.398249,-1455.581446,222.061783,8956.491898
2600.398578,-1532.190996,-740.205942,9400.615463
2600.398907,-1991.848295,-814.226536,9696.697840
2600.399236,-1838.629195,-222.061783,9770.718434
2600.399565,-1608.800546,148.041188,9770.718434
2600.399894,-1225.752797,-814.226536,9400.615463
2600.400223,-919.314598,-444.123565,9326.594869
2600.400552,-229.828649,-1110.308913,9178.553681
2600.400881,0.000000,-888.247130,9474.636058
2600.401210,995.924147,962.267725,8068.244768
2600.401539,1225.752797,518.144159,7179.997637
2600.401868,612.876398,888.247130,8808.450710
2600.402197,1225.752797,-0.000000,9696.697840
2600.402526,-612.876398,-740.205942,9474.636058
2600.402855,-536.266849,-592.164754,9696.697840
2600.403184,-153.219100,-592.164754,9474.636058
2600.403513,-306.438199,-148.041188,8660.409521
2600.403842,76.609550,-592.164754,9326.594869
2600.404171,1225.752797,-2072.576638,9770.718434
2600.404500,995.924147,-1850.514855,9252.574275
2600.404829,1608.800546,-740.205942,9400.615463
2600.405158,1685.410096,-0.000000,8882.471304
2600.405486,2068.457845,1110.308913,7994.224174
2600.405815,2221.676944,1332.370696,8364.327145
2600.406144,1991.848295,1480.411884,8808.450710
2600.406473,919.314598,-0.000000,8956.491898
2600.406802,1455.581446,296.082377,9622.677246
2600.407131,1225.752797,148.041188,9474.636058
2600.407460,229.828649,-296.082377,8956.491898
2600.407789,306.438199,-1036.288319,9474.636058
2600.408118,459.657299,-1480.411884,9844.739029
2600.408447,1072.533697,-1258.350101,9548.656652
2600.408776,1838.629195,-888.247130,8808.450710
2600.409105,1685.410096,592.164754,8882.471304
2600.409434,1838.629195,888.247130,8216.285956
2600.409763,2298.286494,1036.288319,7846.182985
2600.410092,1838.629195,740.205942,8142.265362
2600.410421,1915.238745,148.041188,9030.512492
2600.410750,1532.190996,296.082377,8882.471304
2600.411079,1762.019645,814.226536,9252.574275
2600.411408,1149.143247,-0.000000,8438.347739
2600.411737,842.705048,-0.000000,8660.409521
2600.412067,459.657299,-814.226536,9400.615463
2600.412396,536.266849,-1036.288319,9252.574275
2600.412725,383.047749,-1184.329507,8956.491898
2600.413054,0.000000,-74.020594,8882.471304
2600.413383,229.828649,1480.411884,7698.141797
2600.413712,306.438199,-296.082377,8882.471304
2600.414041,-153.219100,-222.061783,8734.430116
2600.414371,-1149.143247,-444.123565,9178.553681
2600.414700,-995.924147,-666.185348,10807.006753
2600.415029,-1149.143247,-148.041188,9474.636058
2600.415358,-1302.362347,-0.000000,9548.656652
2600.415687,-689.485948,-370.102971,9918.759623
2600.416016,-842.705048,-1850.514855,10140.821405
2600.416346,-536.266849,-814.226536,9918.759623
2600.416675,0.000000,-74.020594,9474.636058
2600.417004,0.000000,888.247130,8734.430116
2600.417333,0.000000,740.205942,8290.306550
2600.417662,153.219100,888.247130,8512.368333
2600.417991,-536.266849,296.082377,9326.594869
2600.418320,-536.266849,-814.226536,9400.615463
2600.418650,-1532.190996,-592.164754,9474.636058
2600.418979,-1302.362347,-222.061783,9474.636058
2600.419308,-1378.971896,-222.061783,8734.430116
2600.419637,-1225.752797,-666.185348,8882.471304
2600.419966,-1455.581446,-666.185348,9474.636058
2600.420295,-919.314598,-1036.288319,9474.636058
2600.420625,-459.657299,-740.205942,9178.553681
2600.420954,-306.438199,-0.000000,8808.450710
2600.421283,0.000000,814.226536,8512.368333
2600.421612,0.000000,296.082377,8882.471304
2600.421941,0.000000,-74.020594,9030.512492
2600.422270,459.657299,-518.144159,8956.491898
2600.422599,229.828649,-74.020594,9252.574275
2600.422929,612.876398,-0.000000,8808.450710
2600.423258,1225.752797,-74.020594,8438.347739
2600.423587,842.705048,-296.082377,8438.347739
2600.423916,1225.752797,-1332.370696,8956.491898
2600.424245,1455.581446,-1110.308913,8882.471304
2600.424574,1302.362347,-222.061783,8364.327145
2600.424904,1685.410096,-444.123565,8142.265362
2600.425233,1378.971896,740.205942,8290.306550
2600.425562,1378.971896,518.144159,8956.491898
2600.425891,1072.533697,-0.000000,9326.594869
2600.426220,1149.143247,-222.061783,9770.718434
2600.426549,842.705048,-148.041188,9696.697840
2600.426878,689.485948,148.041188,9548.656652
2600.427208,1915.238745,-740.205942,9326.594869
2600.427537,1608.800546,-296.082377,9622.677246
2600.427866,1608.800546,-962.267725,9548.656652
2600.428195,2068.457845,-296.082377,9400.615463
2600.428524,2145.067394,-0.000000,8586.388927
2600.428853,2068.457845,1480.411884,7772.162391
2600.429183,1685.410096,888.247130,8586.388927
2600.429512,1149.143247,370.102971,8956.491898
2600.429841,842.705048,222.061783,9178.553681
2600.430170,842.705048,-518.144159,9696.697840
2600.430499,306.438199,-296.082377,9474.636058
2600.430828,383.047749,-0.000000,9252.574275
2600.431157,536.266849,296.082377,9030.512492
2600.431487,153.219100,-888.247130,9326.594869
2600.431816,842.705048,-1110.308913,9474.636058
2600.432145,766.095498,-1110.308913,9844.739029
2600.432474,995.924147,-0.000000,9622.677246
2600.432803,919.314598,518.144159,8142.265362
2600.433132,842.705048,666.185348,7846.182985
2600.433462,766.095498,518.144159,8808.450710
2600.433791,-306.438199,444.123565,8882.471304
2600.434120,-229.828649,-666.185348,9178.553681
2600.434449,-689.485948,-592.164754,8882.471304
2600.434778,-995.924147,296.082377,9178.553681
2600.435107,-612.876398,-0.000000,9030.512492
2600.435436,-842.705048,-1406.391290,9104.533087
2600.435766,-995.924147,-1480.411884,9622.677246
2600.436095,-1225.752797,-1036.288319,9326.594869
2600.436424,-995.924147,-0.000000,9104.533087
2600.436753,-842.705048,148.041188,8586.388927
2600.437082,-1225.752797,518.144159,8512.368333
2600.437411,-766.095498,222.061783,9326.594869
2600.437741,-1225.752797,-444.123565,9474.636058
2600.438070,-1149.143247,-518.144159,9474.636058
2600.438399,-842.705048,-74.020594,9696.697840
2600.438728,-766.095498,-148.041188,9252.574275
2600.439057,-842.705048,-592.164754,8660.409521
2600.439386,-612.876398,-1036.288319,9474.636058
2600.439715,383.047749,-1110.308913,9252.574275
2600.440045,-689.485948,-962.267725,9178.553681
2600.440374,76.609550,-0.000000,8956.491898
2600.440703,383.047749,296.082377,8290.306550
2600.441032,306.438199,814.226536,8512.368333
2600.441361,0.000000,-0.000000,8956.491898
2600.441690,-229.828649,-370.102971,9474.636058
2600.442020,-766.095498,-666.185348,10066.800811
2600.442349,0.000000,-148.041188,9474.636058
2600.442678,0.000000,-148.041188,8956.491898
2600.443007,0.000000,-444.123565,9104.533087
2600.443336,536.266849,-888.247130,9252.574275
2600.443665,842.705048,-1184.329507,9104.533087
2600.443994,1838.629195,-888.247130,8512.368333
2600.444324,1838.629195,-0.000000,8586.388927
2600.444653,2221.676944,666.185348,7994.224174
2600.444982,2298.286494,1110.308913,7698.141797
2600.445311,1838.629195,1258.350101,8216.285956
2600.445640,1455.581446,592.164754,8660.409521
2600.445969,1225.752797,-148.041188,9622.677246
2600.446299,1072.533697,-444.123565,9696.697840
2600.446628,229.828649,-222.061783,8808.450710
2600.446957,612.876398,-1702.473667,9474.636058
2600.447286,536.266849,-1554.432478,9548.656652
2600.447615,689.485948,-1554.432478,9474.636058
2600.447944,995.924147,-888.247130,9400.615463
2600.448273,1762.019645,-0.000000,8808.450710
2600.448603,2068.457845,1258.350101,8660.409521
2600.448932,1838.629195,962.267725,8660.409521
2600.449261,1302.362347,962.267725,9326.594869
2600.449590,1149.143247,-0.000000,9622.677246
2600.449919,1532.190996,370.102971,9622.677246
2600.450248,1072.533697,148.041188,9326.594869
2600.450577,536.266849,222.061783,9178.553681
2600.450907,919.314598,-222.061783,9622.677246
2600.451236,842.705048,-1110.308913,9770.718434
2600.451565,0.000000,-1258.350101,9400.615463
2600.451894,536.266849,-666.185348,9696.697840
2600.452223,153.219100,-296.082377,8734.430116
2600.452552,0.000000,1184.329507,8512.368333
2600.452882,153.219100,740.205942,8660.409521
2600.453211,0.000000,-74.020594,8512.368333
2600.453540,0.000000,-222.061783,9178.553681
2600.453869,0.000000,-0.000000,9400.615463
2600.454198,-306.438199,-0.000000,9400.615463
2600.454527,-766.095498,444.123565,8808.450710
2600.454856,-536.266849,-370.102971,8512.368333
2600.455186,-842.705048,-666.185348,9622.677246
2600.455515,-536.266849,-1776.494261,9548.656652
2600.455844,-306.438199,-1036.288319,9326.594869
2600.456173,0.000000,-370.102971,8290.306550
2600.456502,-459.657299,296.082377,8364.327145
2600.456831,-306.438199,1036.288319,8290.306550
2600.457161,-689.485948,-0.000000,8512.368333
2600.457490,-995.924147,-518.144159,9326.594869
2600.457819,-1072.533697,-222.061783,9474.636058
2600.458148,-995.924147,-0.000000,9104.533087
2600.458477,-1608.800546,-370.102971,8882.471304
2600.458806,-1302.362347,-222.061783,9178.553681
2600.459135,-1225.752797,-1554.432478,9770.718434
2600.459465,-1225.752797,-1628.453072,9918.759623
2600.459794,-383.047749,-1184.329507,9548.656652
2600.460123,-229.828649,-666.185348,8808.450710
2600.460452,229.828649,592.164754,8660.409521
2600.460781,-383.047749,-222.061783,8808.450710
2600.461110,229.828649,-740.205942,9548.656652
2600.461440,76.609550,-444.123565,9474.636058
2600.461769,76.609550,-148.041188,9474.636058
2600.462098,536.266849,-0.000000,9474.636058
2600.462427,536.266849,-0.000000,8882.471304
2600.462756,919.314598,-0.000000,9326.594869
2600.463085,1225.752797,-888.247130,9474.636058
2600.463414,1378.971896,-1036.288319,9104.533087
2600.463744,1991.848295,222.061783,9104.533087
2600.464073,2068.457845,592.164754,8364.327145
2600.464402,1532.190996,1258.350101,8216.285956
2600.464731,1991.848295,444.123565,8882.471304
2600.465060,1302.362347,-296.082377,8660.409521
2600.465389,842.705048,-592.164754,9474.636058
2600.465719,1225.752797,-370.102971,9918.759623
2600.466048,1072.533697,-0.000000,9178.553681
2600.466377,1532.190996,-0.000000,9104.533087
2600.466706,1455.581446,222.061783,8808.450710
2600.467035,2145.067394,-888.247130,9400.615463
2600.467364,2451.505594,-740.205942,9326.594869
2600.467693,2221.676944,370.102971,8512.368333
2600.468023,1991.848295,1110.308913,8142.265362
2600.468352,1991.848295,1184.329507,7772.162391
2600.468681,1455.581446,962.267725,8660.409521
2600.469010,459.657299,-0.000000,9178.553681
2600.469339,306.438199,-740.205942,10066.800811
2600.469668,919.314598,-814.226536,10214.842000
2600.469998,0.000000,-888.247130,9474.636058
2600.470327,0.000000,-592.164754,9474.636058
2600.470656,76.609550,-1184.329507,9696.697840
2600.470985,536.266849,-1184.329507,9474.636058
2600.471314,1149.143247,-740.205942,9400.615463
2600.471643,1225.752797,-0.000000,8882.471304
2600.471972,1991.848295,962.267725,8216.285956
2600.472302,1762.019645,1332.370696,7994.224174
2600.472631,1608.800546,888.247130,7846.182985
2600.472960,536.266849,-74.020594,8808.450710
2600.473289,0.000000,-296.082377,9474.636058
2600.473618,-459.657299,-444.123565,9178.553681
2600.473947,-1072.533697,-0.000000,9400.615463
2600.474277,-1608.800546,-1184.329507,9474.636058
2600.474606,-1915.238745,-1554.432478,9992.780217
2600.474935,-1991.848295,-1554.432478,9770.718434
2600.475264,-1762.019645,-1480.411884,9326.594869
2600.475593,-1685.410096,-444.123565,9252.574275
2600.475922,-1378.971896,296.082377,9030.512492
2600.476251,-1072.533697,444.123565,8364.327145
2600.476581,-1072.533697,666.185348,8586.388927
2600.476910,-1149.143247,-222.061783,8808.450710
2600.477239,-1149.143247,-222.061783,9474.636058
2600.477568,-1072.533697,-74.020594,9178.553681
2600.477897,-689.485948,296.082377,8586.388927
2600.478226,-536.266849,-148.041188,8438.347739
2600.478556,-612.876398,-740.205942,8882.471304
2600.478885,-153.219100,-1332.370696,9030.512492
2600.479214,0.000000,-1332.370696,9474.636058
2600.479543,76.609550,-888.247130,9030.512492
2600.479872,459.657299,518.144159,8586.388927
2600.480201,766.095498,444.123565,8438.347739
2600.480530,229.828649,-0.000000,8956.491898
2600.480860,-306.438199,-370.102971,9474.636058
2600.481189,0.000000,-1110.308913,9770.718434
2600.481518,0.000000,-962.267725,9474.636058
2600.481847,0.000000,-222.061783,9474.636058
2600.482176,76.609550,-814.226536,9104.533087
2600.482505,0.000000,-888.247130,9178.553681
2600.482835,612.876398,-1036.288319,9622.677246
2600.483164,1455.581446,-1184.329507,9770.718434
2600.483493,1838.629195,444.123565,9030.512492
2600.483822,2068.457845,296.082377,8512.368333
2600.484151,1685.410096,888.247130,8364.327145
2600.484480,2145.067394,814.226536,8586.388927
2600.484809,1838.629195,370.102971,9252.574275
2600.485139,1149.143247,444.123565,9474.636058
2600.485468,1302.362347,518.144159,9400.615463
2600.485797,1378.971896,592.164754,9030.512492
2600.486126,1225.752797,-0.000000,8882.471304
2600.486455,1532.190996,-888.247130,9696.697840
2600.486784,1072.533697,-1258.350101,9548.656652
2600.487114,1838.629195,-740.205942,9474.636058
2600.487443,2451.505594,-0.000000,8734.430116
2600.487772,2374.896044,1258.350101,8142.265362
2600.488101,2221.676944,1480.411884,8438.347739
2600.488430,1838.629195,370.102971,8586.388927
2600.488759,2068.457845,-148.041188,9326.594869
2600.489088,919.314598,148.041188,9400.615463
2600.489418,689.485948,-0.000000,9548.656652
2600.489747,153.219100,-0.000000,9400.615463
2600.490076,0.000000,-740.205942,9548.656652
2600.490405,76.609550,-962.267725,9252.574275
2600.490734,306.438199,-1924.535449,9326.594869
2600.491063,0.000000,-814.226536,9400.615463
2600.491393,-383.047749,-296.082377,9252.574275
2600.491722,-229.828649,296.082377,8142.265362
2600.492051,-306.438199,888.247130,7994.224174
2600.492380,-306.438199,-0.000000,8660.409521
2600.492709,-689.485948,-0.000000,8882.471304
2600.493038,-919.314598,-370.102971,9770.718434
2600.493367,-1225.752797,-148.041188,9474.636058
2600.493697,-842.705048,-370.102971,9178.553681
2600.494026,-995.924147,-222.061783,9400.615463
2600.494355,-536.266849,-1110.308913,9992.780217
2600.494684,-536.266849,-1480.411884,9474.636058
2600.495013,-1072.533697,-1036.288319,9178.553681
2600.495342,536.266849,592.164754,9252.574275
2600.495672,153.219100,370.102971,7402.059420
2600.496001,-536.266849,888.247130,8660.409521
2600.496330,229.828649,-0.000000,9104.533087
2600.496659,-689.485948,-888.247130,9104.533087
2600.496988,-995.924147,-0.000000,9696.697840
2600.497317,-766.095498,-222.061783,9326.594869
2600.497646,-1302.362347,-148.041188,8512.368333
2600.497976,-1608.800546,-148.041188,9696.697840
2600.498305,76.609550,-1110.308913,8882.471304
2600.498634,-1608.800546,-1702.473667,9474.636058
2600.498963,-995.924147,-518.144159,10140.821405
2600.499292,-229.828649,-0.000000,8882.471304
2600.499621,-612.876398,518.144159,7698.141797
2600.499951,0.000000,666.185348,8216.285956
2600.500280,536.266849,296.082377,9326.594869
2600.500609,-383.047749,-592.164754,9474.636058
2600.500938,306.438199,-0.000000,9326.594869
2600.501267,459.657299,-148.041188,9030.512492
2600.501596,383.047749,-0.000000,8586.388927
2600.501925,689.485948,-518.144159,8882.471304
2600.502255,1149.143247,-666.185348,9178.553681
2600.502584,1608.800546,-1258.350101,9548.656652
2600.502913,1991.848295,-370.102971,9474.636058
2600.503242,1991.848295,592.164754,8290.306550
2600.503571,1838.629195,740.205942,8438.347739
2600.503900,1838.629195,814.226536,8512.368333
2600.504230,1532.190996,222.061783,8956.491898
2600.504559,919.314598,-518.144159,9178.553681
2600.504888,1378.971896,-592.164754,9844.739029
2600.505217,1149.143247,-0.000000,9400.615463
2600.505546,536.266849,-0.000000,9548.656652
2600.505875,1455.581446,-740.205942,9622.677246
2600.506204,1762.019645,-814.226536,9326.594869
2600.506534,1608.800546,-1110.308913,9178.553681
2600.506863,2221.676944,-518.144159,8660.409521
2600.507192,1991.848295,1110.308913,8512.368333
2600.507521,1455.581446,1036.288319,7994.224174
2600.507850,1455.581446,814.226536,8142.265362
2600.508179,995.924147,296.082377,8734.430116
2600.508509,306.438199,-222.061783,9326.594869
2600.508838,229.828649,-222.061783,9474.636058
2600.509167,-306.438199,-74.020594,9474.636058
2600.509496,-383.047749,-222.061783,9474.636058
2600.509825,383.047749,-1184.329507,8956.491898
2600.510154,612.876398,-1406.391290,9548.656652
2600.510483,76.609550,-888.247130,9548.656652
2600.510813,995.924147,-666.185348,8956.491898
2600.511142,919.314598,962.267725,7772.162391
2600.511471,1991.848295,1702.473667,8290.306550
2600.511800,1532.190996,888.247130,8142.265362
2600.512129,306.438199,-74.020594,8882.471304
2600.512458,0.000000,-740.205942,9400.615463
2600.512788,-306.438199,-0.000000,9548.656652
2600.513117,-1225.752797,-0.000000,8956.491898
2600.513446,-1149.143247,222.061783,8882.471304
2600.513775,-1378.971896,-1258.350101,9252.574275
2600.514104,-1149.143247,-814.226536,9918.759623
2600.514433,-842.705048,-1480.411884,9844.739029
2600.514762,-1225.752797,-296.082377,9844.739029
2600.515091,-995.924147,296.082377,8956.491898
2600.515421,-919.314598,1110.308913,8512.368333
2600.515750,-1378.971896,592.164754,9178.553681
2600.516079,-1225.752797,-296.082377,9992.780217
2600.516408,-1532.190996,-814.226536,9622.677246
2600.516737,-1225.752797,-370.102971,9696.697840
2600.517066,-1378.971896,-518.144159,9104.533087
2600.517395,-1455.581446,-518.144159,9178.553681
2600.517724,-1378.971896,-814.226536,9770.718434
2600.518054,-383.047749,-1554.432478,9696.697840
2600.518383,-536.266849,-962.267725,9400.615463
2600.518712,0.000000,-0.000000,8882.471304
2600.519041,536.266849,444.123565,7920.203579
2600.519370,1072.533697,962.267725,8290.306550
2600.519699,766.095498,-0.000000,8882.471304
2600.520028,766.095498,-518.144159,9178.553681
2600.520357,229.828649,-518.144159,9104.533087
2600.520686,536.266849,-518.144159,9326.594869
2600.521016,842.705048,-0.000000,8808.450710
2600.521345,842.705048,-296.082377,8808.450710
2600.521674,919.314598,-1036.288319,9326.594869
2600.522003,1762.019645,-962.267725,8882.471304
2600.522332,1455.581446,-740.205942,8956.491898
2600.522661,2221.676944,-0.000000,8068.244768
2600.522990,2145.067394,814.226536,7698.141797
2600.523319,1838.629195,888.247130,8068.244768
2600.523648,1685.410096,592.164754,8290.306550
2600.523978,1455.581446,-296.082377,8956.491898
2600.524307,689.485948,-666.185348,9326.594869
2600.524636,383.047749,-518.144159,9104.533087
2600.524965,229.828649,-222.061783,9474.636058
2600.525294,229.828649,-666.185348,9326.594869
2600.525623,766.095498,-888.247130,9474.636058
2600.525952,1378.971896,-1628.453072,9696.697840
2600.526281,1455.581446,-888.247130,9326.594869
2600.526611,2604.724693,148.041188,9030.512492
2600.526940,3064.381992,962.267725,7698.141797
2600.527269,2757.943793,1628.453072,7846.182985
2600.527598,2451.505594,888.247130,8734.430116
2600.527927,1915.238745,296.082377,9104.533087
2600.528256,1378.971896,-0.000000,9474.636058
2600.528585,1225.752797,-0.000000,9844.739029
2600.528914,306.438199,-0.000000,9400.615463
2600.529243,0.000000,-296.082377,9844.739029
2600.529573,0.000000,-962.267725,9770.718434
2600.529902,-229.828649,-1628.453072,9844.739029
2600.530231,0.000000,-1258.350101,9918.759623
2600.530560,0.000000,-666.185348,9252.574275
2600.530889,-536.266849,296.082377,8734.430116
2600.531218,0.000000,444.123565,8660.409521
2600.531547,153.219100,1554.432478,8882.471304
2600.531876,0.000000,-0.000000,9104.533087
2600.532206,-612.876398,370.102971,9252.574275
2600.532535,-229.828649,444.123565,9178.553681
2600.532864,-766.095498,444.123565,8438.347739
2600.533193,0.000000,-222.061783,8586.388927
2600.533522,-689.485948,-592.164754,9252.574275
2600.533851,-919.314598,-1258.350101,9474.636058
2600.534180,-612.876398,-1036.288319,9030.512492
2600.534509,-919.314598,-222.061783,8808.450710
2600.534838,-995.924147,370.102971,8364.327145
2600.535168,-689.485948,296.082377,8882.471304
2600.535497,-995.924147,-74.020594,9326.594869
2600.535826,-1608.800546,-740.205942,9622.677246
2600.536155,-1225.752797,-1036.288319,9696.697840
2600.536484,-1378.971896,-592.164754,9326.594869
2600.536813,-842.705048,-0.000000,8882.471304
2600.537142,-919.314598,-518.144159,8882.471304
2600.537471,-689.485948,-740.205942,9252.574275
2600.537801,-459.657299,-1258.350101,9474.636058
2600.538130,76.609550,-888.247130,9548.656652
2600.538459,-306.438199,-74.020594,8586.388927
2600.538788,0.000000,592.164754,8438.347739
2600.539117,-306.438199,296.082377,9104.533087
2600.539446,-536.266849,-148.041188,9326.594869
2600.539775,-383.047749,-740.205942,9474.636058
2600.540104,-612.876398,-814.226536,9918.759623
2600.540433,459.657299,-666.185348,9326.594869
2600.540763,153.219100,-222.061783,8808.450710
2600.541092,383.047749,-592.164754,9252.574275
2600.541421,919.314598,-666.185348,9030.512492
2600.541750,1455.581446,-888.247130,8882.471304
2600.542079,1838.629195,-148.041188,8586.388927
2600.542408,2068.457845,296.082377,8290.306550
2600.542737,1685.410096,740.205942,8586.388927
2600.543066,2911.162892,888.247130,8734.430116
2600.543396,2145.067394,296.082377,9252.574275
2600.543725,1838.629195,-296.082377,9252.574275
2600.544054,1685.410096,-0.000000,9474.636058
2600.544383,1608.800546,-0.000000,9178.553681
2600.544712,1149.143247,666.185348,8290.306550
2600.545041,2221.676944,-1110.308913,9104.533087
2600.545370,2221.676944,-0.000000,8882.471304
2600.545699,1225.752797,-1258.350101,9770.718434
2600.546028,2757.943793,-1406.391290,9622.677246
2600.546358,1838.629195,592.164754,8290.306550
2600.546687,1608.800546,-0.000000,8290.306550
2600.547016,1991.848295,1184.329507,8512.368333
2600.547345,1608.800546,-74.020594,9252.574275
2600.547674,612.876398,444.123565,9844.739029
2600.548003,919.314598,-444.123565,10214.842000
2600.548332,-153.219100,-0.000000,9548.656652
2600.548661,459.657299,-74.020594,9400.615463
2600.548991,459.657299,-222.061783,9474.636058
2600.549320,383.047749,-1480.411884,9400.615463
2600.549649,1762.019645,-1036.288319,9770.718434
2600.549978,1455.581446,-666.185348,9178.553681
2600.550307,1608.800546,-0.000000,8586.388927
2600.550636,1149.143247,1406.391290,7476.080014
2600.550965,766.095498,814.226536,8290.306550
2600.551294,229.828649,-0.000000,8660.409521
2600.551623,536.266849,-148.041188,8660.409521
2600.551953,-995.924147,-0.000000,9474.636058
2600.552282,-1532.190996,-0.000000,9178.553681
2600.552611,-2374.896044,666.185348,8882.471304
2600.552940,-3064.381992,-518.144159,9178.553681
2600.553269,-3217.601092,-1036.288319,9474.636058
2600.553598,-3447.429741,-1554.432478,9474.636058
2600.553927,-3600.648841,-518.144159,8882.471304
2600.554256,-3447.429741,-370.102971,8068.244768
2600.554586,-4213.525239,-222.061783,8734.430116
2600.554915,-4749.792088,-296.082377,8068.244768
2600.555244,-4596.572988,-0.000000,8808.450710
2600.555573,-4673.182538,-592.164754,8882.471304
2600.555902,-4979.620737,-814.226536,9326.594869
2600.556231,-5132.839837,-1184.329507,9696.697840
2600.556560,-5209.449386,-1628.453072,9696.697840
2600.556889,-4979.620737,-1998.556043,9622.677246
2600.557218,-4596.572988,-1480.411884,9622.677246
2600.557548,-3753.867940,-814.226536,9104.533087
2600.557877,-2911.162892,-370.102971,8882.471304
2600.558206,-2451.505594,-0.000000,8216.285956
2600.558535,-2451.505594,296.082377,8068.244768
2600.558864,-2298.286494,-0.000000,8956.491898
2600.559193,-3064.381992,-0.000000,9326.594869
2600.559522,-3064.381992,296.082377,9104.533087
2600.559851,-2987.772442,148.041188,9326.594869
2600.560181,-2374.896044,-222.061783,9474.636058
2600.560510,-1685.410096,-888.247130,9252.574275
2600.560839,-1762.019645,-0.000000,8956.491898
2600.561168,-2298.286494,-592.164754,9474.636058
2600.561497,-1455.581446,-296.082377,9030.512492
2600.561826,-1762.019645,814.226536,9252.574275
2600.562155,-919.314598,370.102971,9326.594869
2600.562484,-766.095498,148.041188,8956.491898
2600.562813,-612.876398,-0.000000,8586.388927
2600.563143,-1149.143247,370.102971,8068.244768
2600.563472,-1378.971896,592.164754,8734.430116
2600.563801,-2145.067394,518.144159,9474.636058
2600.564130,-2987.772442,518.144159,9474.636058
2600.564459,-2757.943793,444.123565,10288.862594
2600.564788,-3064.381992,222.061783,8956.491898
2600.565117,-2528.115143,-222.061783,9918.759623
2600.565446,-2834.553343,-1036.288319,9696.697840
2600.565776,-2298.286494,-1998.556043,10436.903782
2600.566105,-1455.581446,-1850.514855,10214.842000
2600.566434,-612.876398,-1702.473667,9548.656652
2600.566763,-689.485948,-296.082377,9178.553681
2600.567092,-995.924147,-814.226536,10436.903782
2600.567421,919.314598,370.102971,8734.430116
2600.567750,1915.238745,3034.844362,6217.729913
2600.568079,2528.115143,2738.761985,6587.832884
2600.568408,1072.533697,2738.761985,5847.626942
2600.568738,383.047749,1554.432478,7698.141797
2600.569067,-2604.724693,222.061783,7994.224174
2600.569396,-3140.991542,-2294.638420,10066.800811
2600.569725,-4366.744339,-2664.741391,10362.883188
2600.570054,-6205.373534,-1480.411884,7772.162391
2600.570383,-7431.126331,-3552.988522,12509.480420
2600.570712,-8427.050478,-2442.679609,11399.171507
2600.571041,-5669.106685,-2442.679609,11991.336260
2600.571370,-4443.353888,-1776.494261,10510.924376
2600.571700,-2221.676944,370.102971,8512.368333
2600.572029,-612.876398,592.164754,8068.244768
2600.572358,-1378.971896,2368.659014,5477.523971
2600.572687,459.657299,666.185348,11769.274478
2600.573016,842.705048,1998.556043,5329.482782
2600.573345,3294.210641,2590.720797,6143.709319
2600.573674,766.095498,1184.329507,5033.400406
2600.574003,0.000000,1998.556043,6735.874072
2600.574333,-3447.429741,-666.185348,10066.800811
2600.574662,-4749.792088,-1702.473667,9474.636058
2600.574991,-2834.553343,-1480.411884,10288.862594
2600.575320,-5898.935335,-0.000000,7920.203579
2600.575649,-7354.516781,-2368.659014,10732.986159
2600.575978,-10035.851024,-3034.844362,12731.542202
2600.576307,-7890.783629,-1998.556043,11769.274478
2600.576636,-6818.249932,-2812.782580,10066.800811
2600.576965,-4903.011187,-2220.617826,9474.636058
2600.577295,-3370.820191,296.082377,9474.636058
2600.577624,-2834.553343,-0.000000,7328.038826
2600.577953,-1302.362347,444.123565,8660.409521
2600.578282,-1378.971896,1998.556043,8216.285956
2600.578611,-689.485948,-444.123565,9622.677246
2600.578940,-2681.334243,666.185348,8808.450710
2600.579269,-1991.848295,592.164754,9400.615463
2600.579598,-2681.334243,-0.000000,8438.347739
2600.579928,-2221.676944,-74.020594,9178.553681
2600.580257,-1915.238745,1850.514855,8882.471304
2600.580586,-1991.848295,814.226536,9918.759623
2600.580915,-1762.019645,1332.370696,8216.285956
2600.581244,-2298.286494,1110.308913,7920.203579
2600.581573,-2145.067394,592.164754,8660.409521
2600.581902,-2451.505594,-0.000000,8512.368333
2600.582231,-1991.848295,222.061783,8512.368333
2600.582560,-1915.238745,592.164754,7624.121203
2600.582890,-2374.896044,-0.000000,9252.574275
2600.583219,-2681.334243,592.164754,8882.471304
2600.583548,-2987.772442,1406.391290,9474.636058
2600.583877,-2911.162892,1332.370696,9326.594869
2600.584206,-2451.505594,962.267725,9696.697840
2600.584535,-2528.115143,2072.576638,9474.636058
2600.584864,-2834.553343,370.102971,10510.924376
2600.585193,-2604.724693,740.205942,11103.089130
2600.585523,-2374.896044,-0.000000,10066.800811
2600.585852,-1149.143247,370.102971,9326.594869
2600.586181,-536.266849,888.247130,8586.388927
2600.586510,-536.266849,1332.370696,9474.636058
2600.586839,-536.266849,-222.061783,11251.130318
2600.587168,1915.238745,2368.659014,8290.306550
2600.587497,3370.820191,3256.906145,6883.915261
2600.587826,4060.306139,3701.029710,5773.606348
2600.588155,3370.820191,4663.297435,6513.812290
2600.588485,3140.991542,4737.318029,7920.203579
2600.588814,2221.676944,4737.318029,6513.812290
2600.589143,2911.162892,3627.009116,8808.450710
2600.589472,306.438199,2220.617826,9178.553681
2600.589801,-383.047749,1702.473667,10288.862594
2600.590130,-2068.457845,1036.288319,11177.109724
2600.590459,-1685.410096,370.102971,10214.842000
2600.590788,-1532.190996,888.247130,10732.986159
2600.591118,-766.095498,2294.638420,8808.450710
2600.591447,0.000000,3108.864956,10140.821405
2600.591776,0.000000,1850.514855,8734.430116
2600.592105,1608.800546,2960.823768,7994.224174
2600.592434,2374.896044,4515.256246,6365.771101
2600.592763,1762.019645,4737.318029,7105.977043
2600.593092,1532.190996,5033.400406,7698.141797
2600.593421,0.000000,4293.194464,7624.121203
2600.593750,-612.876398,2886.803174,9474.636058
2600.594080,-2604.724693,1480.411884,9992.780217
2600.594409,-2987.772442,592.164754,10955.047942
2600.594738,-3677.258390,962.267725,10584.944971
2600.595067,-3217.601092,3108.864956,9622.677246
2600.595396,-3983.696590,1850.514855,10510.924376
2600.595725,-4290.134789,1702.473667,11695.253884
2600.596054,-3294.210641,2368.659014,11769.274478
2600.596383,-2451.505594,2072.576638,10658.965565
2600.596713,-995.924147,2294.638420,8808.450710
2600.597042,-689.485948,4071.132681,8290.306550
2600.597371,-995.924147,3997.112087,9548.656652
2600.597700,-1149.143247,2664.741391,11103.089130
2600.598029,2451.505594,3256.906145,9770.718434
2600.598358,3370.820191,5773.606348,5107.421000
2600.598687,3677.258390,4589.276840,7105.977043
2600.599016,2834.553343,5847.626942,5921.647536
2600.599345,3447.429741,6809.894666,8142.265362
2600.599675,2221.676944,4885.359217,7254.018232
2600.600004,1378.971896,6809.894666,7031.956449
2600.600333,919.314598,4663.297435,9400.615463
2600.600662,0.000000,4145.153275,8068.244768
2600.600991,-1225.752797,1850.514855,11621.233289
2600.601320,-1838.629195,-962.267725,11843.295072
2600.601649,-459.657299,518.144159,10584.944971
2600.601978,-1915.238745,-1036.288319,12287.418637
2600.602308,-1072.533697,3034.844362,8586.388927
2600.602637,383.047749,3034.844362,10955.047942
2600.602966,2145.067394,2812.782580,8290.306550
2600.603295,4136.915689,4885.359217,7179.997637
2600.603624,3830.477490,4367.215058,7031.956449
2600.603953,3524.039291,4293.194464,7994.224174
2600.604282,2298.286494,5329.482782,7550.100608
2600.604611,1762.019645,4071.132681,6883.915261
2600.604940,-383.047749,2220.617826,8512.368333
2600.605270,-1455.581446,-1036.288319,12657.521608
2600.605599,-2757.943793,-518.144159,11103.089130
2600.605928,-1991.848295,-222.061783,11473.192101
2600.606257,-2451.505594,-444.123565,9844.739029
2600.606586,-1378.971896,2368.659014,10362.883188
2600.606915,-842.705048,2146.597232,9474.636058
2600.607244,-1149.143247,1924.535449,9400.615463
2600.607573,2145.067394,1850.514855,10214.842000
2600.607903,3677.258390,2590.720797,6661.853478
2600.608232,4673.182538,2516.700203,7624.121203
2600.608561,3140.991542,3701.029710,6069.688724
2600.608890,3370.820191,3627.009116,6735.874072
2600.609219,2681.334243,3478.967927,7550.100608
2600.609548,2145.067394,4515.256246,5625.565159
2600.609877,1915.238745,4071.132681,8142.265362
2600.610206,-1915.238745,1480.411884,7476.080014
2600.610535,-2834.553343,-2664.741391,12953.603985
2600.610865,-3677.258390,-1036.288319,11251.130318
2600.611194,-2145.067394,-1850.514855,10881.027347
2600.611523,-3677.258390,-296.082377,10658.965565
2600.611852,-2451.505594,2664.741391,11177.109724
2600.612181,-459.657299,3404.947333,8882.471304
2600.612510,0.000000,2960.823768,7994.224174
2600.612839,995.924147,3478.967927,7994.224174
2600.613168,4826.401637,1184.329507,11473.192101
2600.613497,2145.067394,4145.153275,3849.070898
2600.613826,4136.915689,3330.926739,8290.306550
2600.614156,2451.505594,4737.318029,4737.318029
2600.614485,4979.620737,3701.029710,7105.977043
2600.614814,2528.115143,2590.720797,6365.771101
2600.615143,3064.381992,4145.153275,6735.874072
2600.615472,76.609550,962.267725,9252.574275
2600.615801,-3753.867940,-962.267725,12065.356855
2600.616130,-4673.182538,-740.205942,12879.583391
2600.616459,-5286.058936,888.247130,12065.356855
2600.616788,-3907.087040,-1184.329507,11325.150913
2600.617117,-4290.134789,-1184.329507,12953.603985
2600.617446,-2145.067394,-1702.473667,11399.171507
2600.617775,-1532.190996,1998.556043,11029.068536
2600.618104,-1378.971896,296.082377,7476.080014
2600.618433,-689.485948,1776.494261,9844.739029
2600.618763,2298.286494,1850.514855,12583.501014
2600.619092,2604.724693,6069.688724,666.185348
2600.619421,4903.011187,1036.288319,9548.656652
2600.619750,3677.258390,3256.906145,6291.750507
2600.620079,5898.935335,4219.173869,5551.544565
2600.620408,2145.067394,2590.720797,7698.141797
2600.620737,0.000000,4219.173869,7624.121203
2600.621066,-2374.896044,-1184.329507,14508.036463
2600.621395,-3830.477490,-0.000000,10510.924376
2600.621724,-2757.943793,-0.000000,11177.109724
2600.622053,-2451.505594,-2738.761985,11843.295072
2600.622382,-1149.143247,-0.000000,8808.450710
2600.622711,-2374.896044,-1628.453072,10362.883188
2600.623041,-1455.581446,-370.102971,9696.697840
2600.623370,-2145.067394,-1924.535449,11177.109724
2600.623699,2451.505594,-3552.988522,8438.347739
2600.624028,3524.039291,3701.029710,5477.523971
2600.624357,4136.915689,2738.761985,5403.503377
2600.624686,3983.696590,2442.679609,5995.668130
2600.625015,3447.429741,3256.906145,9400.615463
2600.625344,2145.067394,4367.215058,7105.977043
2600.625673,1991.848295,1998.556043,7920.203579
2600.626002,0.000000,-592.164754,11547.212695
2600.626331,-1532.190996,-2368.659014,11029.068536
2600.626660,-2987.772442,-1480.411884,13249.686362
2600.626989,-3830.477490,-3627.009116,11547.212695
2600.627319,-2911.162892,-3997.112087,10658.965565
2600.627648,306.438199,-2738.761985,11177.109724
2600.627977,1762.019645,592.164754,7920.203579
2600.628306,2068.457845,1184.329507,6809.894666
2600.628635,3677.258390,-0.000000,6217.729913
2600.628964,4749.792088,2590.720797,7105.977043
2600.629293,3753.867940,3256.906145,7994.224174
2600.629622,2911.162892,2220.617826,7105.977043
2600.629951,2451.505594,518.144159,9030.512492
2600.630280,1072.533697,-444.123565,9696.697840
2600.630609,-306.438199,-1258.350101,9326.594869
2600.630938,-1378.971896,-2220.617826,11399.171507
2600.631267,-1378.971896,-2812.782580,12953.603985
2600.631596,-1608.800546,-1628.453072,11621.233289
2600.631926,-1915.238745,-2368.659014,10510.924376
2600.632255,-1608.800546,-888.247130,9400.615463
2600.632584,-689.485948,296.082377,8438.347739
2600.632913,842.705048,740.205942,7402.059420
2600.633242,2298.286494,2368.659014,7031.956449
2600.633571,2987.772442,444.123565,7402.059420
2600.633900,2604.724693,-444.123565,7624.121203
2600.634229,1225.752797,-148.041188,7920.203579
2600.634558,689.485948,-1776.494261,8290.306550
2600.634887,0.000000,-2368.659014,9696.697840
2600.635216,-995.924147,-1776.494261,10140.821405
2600.635545,-995.924147,-2664.741391,11769.274478
2600.635874,-1302.362347,-1480.411884,11473.192101
2600.636204,-1762.019645,-1184.329507,9696.697840
2600.636533,-1685.410096,-222.061783,9770.718434
2600.636862,-1455.581446,962.267725,9474.636058
2600.637191,-383.047749,-0.000000,9696.697840
2600.637520,842.705048,-296.082377,8808.450710
2600.637849,766.095498,-0.000000,7698.141797
2600.638178,1302.362347,-444.123565,7624.121203
2600.638507,1149.143247,-222.061783,6661.853478
2600.638836,1532.190996,-1110.308913,7698.141797
2600.639165,1149.143247,-740.205942,7772.162391
2600.639494,842.705048,-1406.391290,9178.553681
2600.639823,153.219100,-1924.535449,9918.759623
2600.640152,-229.828649,-1110.308913,9696.697840
2600.640481,-383.047749,148.041188,9326.594869
2600.640811,-766.095498,888.247130,9992.780217
2600.641140,-995.924147,962.267725,11029.068536
2600.641469,-919.314598,962.267725,10807.006753
2600.641798,0.000000,666.185348,9696.697840
2600.642127,76.609550,962.267725,8438.347739
2600.642456,306.438199,962.267725,8438.347739
2600.642785,766.095498,370.102971,7772.162391
2600.643114,919.314598,-0.000000,8142.265362
2600.643443,1991.848295,-740.205942,7254.018232
2600.643772,1532.190996,-444.123565,7254.018232
2600.644101,689.485948,296.082377,7624.121203
2600.644430,153.219100,-74.020594,7994.224174
2600.644759,0.000000,-74.020594,9178.553681
2600.645089,-306.438199,-444.123565,9992.780217
2600.645418,-306.438199,-518.144159,10288.862594
2600.645747,-383.047749,296.082377,10584.944971
2600.646076,-612.876398,666.185348,9844.739029
2600.646405,-306.438199,1036.288319,9474.636058
2600.646734,612.876398,814.226536,9770.718434
2600.647063,1302.362347,148.041188,9548.656652
2600.647392,1991.848295,148.041188,8734.430116
2600.647721,2145.067394,148.041188,7994.224174
2600.648050,2145.067394,518.144159,7624.121203
2600.648379,383.047749,444.123565,7772.162391
2600.648708,153.219100,-0.000000,8290.306550
2600.649037,0.000000,-518.144159,9400.615463
2600.649367,-459.657299,-1258.350101,9992.780217
2600.649696,-536.266849,-1332.370696,10066.800811
2600.650025,-536.266849,-1184.329507,10140.821405
2600.650354,-306.438199,-444.123565,10214.842000
2600.650683,229.828649,-222.061783,9622.677246
2600.651012,536.266849,-0.000000,10066.800811
2600.651341,1455.581446,370.102971,9474.636058
2600.651670,1991.848295,1036.288319,8956.491898
2600.651999,1762.019645,1554.432478,7846.182985
2600.652328,1149.143247,888.247130,7920.203579
2600.652657,459.657299,1110.308913,8216.285956
2600.652986,153.219100,-0.000000,8882.471304
2600.653315,306.438199,-370.102971,9104.533087
2600.653644,-306.438199,-1184.329507,8956.491898
2600.653974,-536.266849,-1776.494261,8660.409521
2600.654303,-383.047749,-1628.453072,9030.512492
2600.654632,0.000000,-1924.535449,9252.574275
2600.654961,612.876398,-1554.432478,9030.512492
2600.655290,1072.533697,-592.164754,8956.491898
2600.655619,1149.143247,666.185348,8512.368333
2600.655948,1608.800546,1406.391290,8068.244768
2600.656277,1302.362347,2146.597232,7994.224174
2600.656606,919.314598,1702.473667,8290.306550
2600.656935,383.047749,-0.000000,9696.697840
2600.657264,919.314598,-1036.288319,9474.636058
2600.657593,-229.828649,-1554.432478,9252.574275
2600.657922,-1149.143247,-1480.411884,8808.450710
2600.658252,-1302.362347,-1554.432478,8808.450710
2600.658581,-612.876398,-1998.556043,8956.491898
2600.658910,0.000000,-2516.700203,8956.491898
2600.659239,0.000000,-2368.659014,8512.368333
2600.659568,153.219100,-1628.453072,8734.430116
2600.659897,0.000000,-444.123565,8364.327145
2600.660226,153.219100,222.061783,8586.388927
2600.660555,383.047749,-0.000000,9030.512492
2600.660884,153.219100,-444.123565,9696.697840
2600.661213,229.828649,-444.123565,10140.821405
2600.661542,76.609550,-1184.329507,9474.636058
2600.661871,0.000000,-148.041188,9030.512492
2600.662200,-153.219100,-518.144159,9252.574275
2600.662529,-536.266849,-518.144159,9400.615463
2600.662859,229.828649,-1406.391290,9252.574275
2600.663188,153.219100,-1480.411884,8808.450710
2600.663517,76.609550,-1480.411884,8734.430116
2600.663846,153.219100,-814.226536,8290.306550
2600.664175,0.000000,-0.000000,7698.141797
2600.664504,-153.219100,-0.000000,8586.388927
2600.664833,0.000000,-74.020594,9326.594869
2600.665162,-229.828649,592.164754,9474.636058
2600.665491,229.828649,592.164754,8956.491898
2600.665820,0.000000,1110.308913,9252.574275
2600.666149,766.095498,888.247130,9326.594869
2600.666478,689.485948,222.061783,9104.533087
2600.666807,1302.362347,-296.082377,9474.636058
2600.667137,1838.629195,-592.164754,9474.636058
2600.667466,1685.410096,-74.020594,8734.430116
2600.667795,1225.752797,1110.308913,8068.244768
2600.668124,919.314598,1480.411884,8142.265362
2600.668453,0.000000,1332.370696,9178.553681
2600.668782,1072.533697,296.082377,9474.636058
2600.669111,459.657299,-518.144159,9400.615463
2600.669440,229.828649,-148.041188,9104.533087
2600.669769,0.000000,-740.205942,9030.512492
2600.670098,76.609550,-592.164754,9178.553681
2600.670427,306.438199,-518.144159,9696.697840
2600.670756,1149.143247,-592.164754,9400.615463
2600.671085,1455.581446,222.061783,9474.636058
2600.671414,1149.143247,1332.370696,9252.574275
2600.671744,536.266849,1628.453072,8438.347739
2600.672073,459.657299,1702.473667,8882.471304
2600.672402,306.438199,740.205942,9622.677246
2600.672731,229.828649,-740.205942,9770.718434
2600.673060,0.000000,-740.205942,9844.739029
2600.673389,383.047749,-1332.370696,9474.636058
2600.673718,-383.047749,-518.144159,8882.471304
2600.674047,-229.828649,-296.082377,8882.471304
2600.674376,459.657299,-296.082377,9104.533087
2600.674705,919.314598,-962.267725,9030.512492
2600.675034,306.438199,-296.082377,8734.430116
2600.675363,689.485948,-74.020594,8068.244768
2600.675692,153.219100,666.185348,8216.285956
2600.676022,76.609550,666.185348,8290.306550
2600.676351,76.609550,-0.000000,9400.615463
2600.676680,-306.438199,-222.061783,9622.677246
2600.677009,0.000000,-592.164754,9918.759623
2600.677338,-536.266849,-296.082377,9178.553681
2600.677667,-229.828649,-0.000000,8586.388927
2600.677996,-459.657299,-370.102971,9326.594869
2600.678325,76.609550,-962.267725,9400.615463
2600.678654,536.266849,-1332.370696,8734.430116
2600.678983,995.924147,-1110.308913,8734.430116
2600.679312,689.485948,-518.144159,8512.368333
2600.679641,383.047749,-0.000000,7994.224174
2600.679970,383.047749,444.123565,8586.388927
2600.680300,153.219100,518.144159,9178.553681
2600.680629,76.609550,-148.041188,9696.697840
2600.680958,153.219100,-222.061783,9770.718434
2600.681287,-153.219100,-0.000000,9400.615463
2600.681616,-229.828649,-148.041188,9400.615463
2600.681945,383.047749,-740.205942,9252.574275
2600.682274,612.876398,-1406.391290,9252.574275
2600.682603,689.485948,-888.247130,9474.636058
2600.682932,995.924147,-888.247130,8882.471304
2600.683261,459.657299,-0.000000,8438.347739
2600.683590,306.438199,592.164754,8216.285956
2600.683919,153.219100,888.247130,8734.430116
2600.684248,-612.876398,-296.082377,9178.553681
2600.684577,0.000000,-1036.288319,9770.718434
2600.684907,459.657299,-1332.370696,9474.636058
2600.685236,-383.047749,-666.185348,9474.636058
2600.685565,-306.438199,-888.247130,9474.636058
2600.685894,306.438199,-444.123565,9474.636058
2600.686223,766.095498,-666.185348,9474.636058
2600.686552,1302.362347,-814.226536,9104.533087
2600.686881,1378.971896,-0.000000,8808.450710
2600.687210,766.095498,444.123565,8734.430116
2600.687539,689.485948,1110.308913,8068.244768
2600.687868,383.047749,962.267725,8660.409521
2600.688197,0.000000,-0.000000,9400.615463
2600.688526,383.047749,-740.205942,9474.636058
2600.688855,0.000000,-1258.350101,9770.718434
2600.689185,153.219100,-1628.453072,8808.450710
2600.689514,306.438199,-1332.370696,8808.450710
2600.689843,689.485948,-888.247130,8660.409521
2600.690172,995.924147,-1184.329507,8734.430116
2600.690501,1149.143247,-370.102971,8808.450710
2600.690830,1915.238745,-74.020594,8364.327145
2600.691159,1838.629195,962.267725,7624.121203
2600.691488,1455.581446,1702.473667,7920.203579
2600.691817,1149.143247,1554.432478,8438.347739
2600.692146,536.266849,444.123565,9844.739029
2600.692475,-842.705048,-592.164754,10214.842000
2600.692804,-612.876398,-1332.370696,9770.718434
2600.693133,-612.876398,-444.123565,9400.615463
2600.693462,-842.705048,-518.144159,9474.636058
2600.693792,-153.219100,-222.061783,9400.615463
2600.694121,842.705048,-518.144159,9400.615463
2600.694450,459.657299,-296.082377,9474.636058
2600.694779,766.095498,-296.082377,9178.553681
2600.695108,766.095498,1332.370696,8216.285956
2600.695437,459.657299,1184.329507,8364.327145
2600.695766,612.876398,1110.308913,9030.512492
2600.696095,76.609550,888.247130,9474.636058
2600.696424,689.485948,296.082377,10214.842000
2600.696753,229.828649,-148.041188,9844.739029
2600.697082,-842.705048,-0.000000,9696.697840
2600.697411,0.000000,296.082377,9918.759623
2600.697740,0.000000,-74.020594,8660.409521
2600.698070,383.047749,-296.082377,9252.574275
2600.698399,842.705048,-0.000000,9178.553681
2600.698728,1149.143247,-222.061783,8512.368333
2600.699057,383.047749,-0.000000,8438.347739
2600.699386,-153.219100,888.247130,8068.244768
2600.699715,306.438199,814.226536,9104.533087
2600.700044,-689.485948,518.144159,9400.615463
2600.700373,-842.705048,-370.102971,9696.697840
2600.700702,-689.485948,-518.144159,9474.636058
2600.701031,-995.924147,-370.102971,9326.594869
2600.701360,-383.047749,-740.205942,9178.553681
2600.701689,0.000000,-518.144159,9104.533087
2600.702018,459.657299,-592.164754,9548.656652
2600.702348,842.705048,-666.185348,9252.574275
2600.702677,689.485948,222.061783,8734.430116
2600.703006,766.095498,1036.288319,8142.265362
2600.703335,536.266849,1036.288319,8290.306550
2600.703664,-383.047749,962.267725,9178.553681
2600.703993,76.609550,-296.082377,9844.739029
2600.704322,0.000000,-740.205942,9696.697840
2600.704651,-383.047749,-666.185348,9696.697840
2600.704980,-306.438199,-666.185348,9474.636058
2600.705309,0.000000,-740.205942,9252.574275
2600.705638,536.266849,-444.123565,8808.450710
2600.705967,995.924147,-814.226536,9326.594869
2600.706296,2068.457845,-444.123565,8956.491898
2600.706625,1532.190996,222.061783,8734.430116
2600.706955,1532.190996,962.267725,7920.203579
2600.707284,1149.143247,814.226536,8068.244768
2600.707613,919.314598,518.144159,8586.388927
2600.707942,766.095498,-222.061783,9474.636058
2600.708271,229.828649,-740.205942,9696.697840
2600.708600,-153.219100,-888.247130,9030.512492
2600.708929,-229.828649,-296.082377,9104.533087
2600.709258,0.000000,-518.144159,9400.615463
2600.709587,306.438199,-666.185348,8808.450710
2600.709916,995.924147,-1036.288319,8808.450710
2600.710245,1072.533697,-888.247130,8660.409521
2600.710574,1072.533697,-592.164754,8808.450710
2600.710903,995.924147,814.226536,8512.368333
2600.711233,383.047749,1036.288319,8216.285956
2600.711562,689.485948,814.226536,8956.491898
2600.711891,766.095498,-0.000000,9178.553681
2600.712220,612.876398,-518.144159,9474.636058
2600.712549,383.047749,-518.144159,9474.636058
2600.712878,0.000000,-518.144159,9178.553681
2600.713207,229.828649,-1110.308913,9252.574275
2600.713536,919.314598,-962.267725,9474.636058
2600.713865,766.095498,-1628.453072,9474.636058
2600.714194,919.314598,-1406.391290,9178.553681
2600.714523,536.266849,-222.061783,8142.265362
2600.714852,536.266849,296.082377,8512.368333
2600.715182,306.438199,814.226536,8882.471304
2600.715511,0.000000,-74.020594,9326.594869
2600.715840,0.000000,-222.061783,10066.800811
2600.716169,-536.266849,-1258.350101,9770.718434
2600.716498,-766.095498,-1036.288319,9696.697840
2600.716827,-536.266849,-888.247130,9326.594869
2600.717156,-459.657299,-148.041188,9400.615463
2600.717486,153.219100,-1036.288319,9104.533087
2600.717815,459.657299,-1110.308913,9622.677246
2600.718144,689.485948,-148.041188,9178.553681
2600.718473,229.828649,370.102971,8290.306550
2600.718802,76.609550,666.185348,7994.224174
2600.719131,0.000000,1184.329507,8438.347739
2600.719460,-306.438199,148.041188,8808.450710
2600.719790,-459.657299,-666.185348,9548.656652
2600.720119,-536.266849,-888.247130,9474.636058
2600.720448,-383.047749,-962.267725,9104.533087
2600.720777,-842.705048,-74.020594,8956.491898
2600.721106,0.000000,-666.185348,9326.594869
2600.721435,459.657299,-888.247130,8734.430116
2600.721764,766.095498,-888.247130,8586.388927
2600.722094,2145.067394,-370.102971,8512.368333
2600.722423,1608.800546,296.082377,7920.203579
2600.722752,842.705048,814.226536,8290.306550
2600.723081,995.924147,1332.370696,8290.306550
2600.723410,383.047749,666.185348,8586.388927
2600.723739,229.828649,222.061783,9548.656652
2600.724068,153.219100,-0.000000,9474.636058
2600.724398,-459.657299,-444.123565,9030.512492
2600.724727,-766.095498,-592.164754,9400.615463
2600.725056,-76.609550,-518.144159,9548.656652
2600.725385,0.000000,-666.185348,9252.574275
2600.725714,536.266849,-296.082377,9326.594869
2600.726043,919.314598,-296.082377,8808.450710
2600.726372,842.705048,370.102971,9178.553681
2600.726702,766.095498,962.267725,8364.327145
2600.727031,689.485948,962.267725,9178.553681
2600.727360,153.219100,444.123565,9622.677246
2600.727689,612.876398,222.061783,9696.697840
2600.728018,842.705048,-74.020594,9696.697840
2600.728347,306.438199,-444.123565,9474.636058
2600.728676,842.705048,148.041188,8882.471304
2600.729006,1378.971896,296.082377,9178.553681
2600.729335,2068.457845,592.164754,8882.471304
2600.729664,2374.896044,-0.000000,9622.677246
2600.729993,1915.238745,-0.000000,8734.430116
2600.730322,1455.581446,296.082377,8734.430116
2600.730651,919.314598,1480.411884,8364.327145
2600.730980,76.609550,592.164754,8882.471304
2600.731310,306.438199,-0.000000,9770.718434
2600.731639,306.438199,-962.267725,10214.842000
2600.731968,-306.438199,-962.267725,9400.615463
2600.732297,-459.657299,-740.205942,9474.636058
2600.732626,-229.828649,-148.041188,9326.594869
2600.732955,0.000000,-666.185348,9178.553681
2600.733284,612.876398,-814.226536,9326.594869
2600.733614,1225.752797,-1332.370696,9030.512492
2600.733943,1149.143247,-814.226536,8882.471304
2600.734272,612.876398,222.061783,8290.306550
2600.734601,0.000000,814.226536,7772.162391
2600.734930,-536.266849,740.205942,8660.409521
2600.735259,-459.657299,-74.020594,9104.533087
2600.735588,-766.095498,-1258.350101,9548.656652
2600.735918,-766.095498,-1184.329507,9622.677246
2600.736247,-1302.362347,-1184.329507,9474.636058
2600.736576,-1225.752797,-1184.329507,9326.594869
2600.736905,-612.876398,-1258.350101,9548.656652
2600.737234,153.219100,-1776.494261,8956.491898
2600.737563,536.266849,-1776.494261,9696.697840
2600.737892,1149.143247,-444.123565,8290.306550
2600.738222,1149.143247,814.226536,7179.997637
2600.738551,766.095498,1924.535449,7624.121203
2600.738880,689.485948,1628.453072,8438.347739
2600.739209,536.266849,296.082377,9252.574275
2600.739538,-153.219100,-814.226536,9474.636058
2600.739867,0.000000,-1332.370696,9104.533087
2600.740196,-995.924147,-1036.288319,9104.533087
2600.740526,-1455.581446,-1554.432478,9400.615463
2600.740855,-919.314598,-1998.556043,9548.656652
2600.741184,-229.828649,-2294.638420,9252.574275
2600.741513,383.047749,-814.226536,8882.471304
2600.741842,842.705048,-518.144159,8512.368333
2600.742171,0.000000,222.061783,7994.224174
2600.742500,536.266849,1184.329507,7698.141797
2600.742830,459.657299,814.226536,8586.388927
2600.743159,306.438199,-74.020594,9326.594869
2600.743488,612.876398,-222.061783,9400.615463
2600.743817,76.609550,-222.061783,9104.533087
2600.744146,0.000000,-518.144159,8956.491898
2600.744475,383.047749,-444.123565,9030.512492
2600.744804,842.705048,-592.164754,9178.553681
2600.745134,1455.581446,-592.164754,9030.512492
2600.745463,1685.410096,-222.061783,8882.471304
2600.745792,1685.410096,-148.041188,8808.450710
2600.746121,1532.190996,370.102971,8586.388927
2600.746450,1149.143247,962.267725,8438.347739
2600.746779,766.095498,740.205942,8956.491898
2600.747108,383.047749,370.102971,9400.615463
2600.747438,383.047749,-0.000000,10066.800811
2600.747767,536.266849,-0.000000,9622.677246
2600.748096,229.828649,-370.102971,9178.553681
2600.748425,0.000000,148.041188,9400.615463
2600.748754,536.266849,-740.205942,9548.656652
2600.749083,842.705048,-814.226536,9400.615463
2600.749412,919.314598,-814.226536,9400.615463
2600.749742,919.314598,-370.102971,9030.512492
2600.750071,306.438199,962.267725,8660.409521
2600.750400,229.828649,740.205942,8660.409521
2600.750729,0.000000,370.102971,9178.553681
2600.751058,0.000000,-0.000000,10140.821405
2600.751387,0.000000,-0.000000,9992.780217
2600.751716,-612.876398,-444.123565,9548.656652
2600.752045,-842.705048,-74.020594,9474.636058
2600.752375,0.000000,-148.041188,9400.615463
2600.752704,919.314598,-888.247130,9400.615463
2600.753033,612.876398,-444.123565,9474.636058
2600.753362,1991.848295,-814.226536,9178.553681
2600.753691,1455.581446,444.123565,8512.368333
2600.754020,1072.533697,1332.370696,7772.162391
2600.754349,689.485948,1628.453072,7920.203579
2600.754679,766.095498,1110.308913,8734.430116
2600.755008,459.657299,-74.020594,9622.677246
2600.755337,-689.485948,-518.144159,9992.780217
2600.755666,-612.876398,-888.247130,9252.574275
2600.755995,-919.314598,-1036.288319,8438.347739
2600.756324,-995.924147,-1110.308913,8734.430116
2600.756653,-536.266849,-962.267725,9252.574275
2600.756983,-153.219100,-1332.370696,9178.553681
2600.757312,0.000000,-1628.453072,8882.471304
2600.757641,0.000000,-222.061783,8660.409521
2600.757970,0.000000,370.102971,8438.347739
2600.758299,-306.438199,814.226536,8290.306550
2600.758628,0.000000,592.164754,9030.512492
2600.758957,0.000000,-444.123565,9400.615463
2600.759287,76.609550,-740.205942,9400.615463
2600.759616,383.047749,-962.267725,9252.574275
2600.759945,-459.657299,-814.226536,9178.553681
2600.760274,0.000000,-0.000000,9104.533087
2600.760603,689.485948,-370.102971,8956.491898
2600.760932,766.095498,-740.205942,9030.512492
2600.761261,1302.362347,-296.082377,9030.512492
2600.761591,1072.533697,-444.123565,8586.388927
2600.761920,536.266849,296.082377,8216.285956
2600.762249,689.485948,666.185348,8512.368333
2600.762578,306.438199,-148.041188,9548.656652
2600.762907,0.000000,-296.082377,9918.759623
2600.763236,0.000000,-74.020594,9844.739029
2600.763565,0.000000,148.041188,9474.636058
2600.763895,-306.438199,518.144159,9474.636058
2600.764224,0.000000,-0.000000,9474.636058
2600.764553,842.705048,-444.123565,9474.636058
2600.764882,1455.581446,-296.082377,9400.615463
2600.765211,1608.800546,-370.102971,9474.636058
2600.765540,919.314598,-0.000000,8586.388927
2600.765869,612.876398,1036.288319,8364.327145
2600.766199,766.095498,1776.494261,8882.471304
2600.766528,306.438199,1110.308913,9178.553681
2600.766857,76.609550,444.123565,10288.862594
2600.767186,0.000000,-0.000000,9992.780217
2600.767515,-383.047749,-148.041188,9844.739029
2600.767844,0.000000,-0.000000,9474.636058
2600.768173,229.828649,-74.020594,9400.615463
2600.768503,919.314598,-148.041188,9474.636058
2600.768832,1762.019645,-0.000000,9178.553681
2600.769161,2068.457845,-518.144159,9030.512492
