#time,accel_x,accel_y,accel_z
2697.505611,536.266849,-296.082377,9104.533087
2697.505940,229.828649,-0.000000,8882.471304
2697.506270,383.047749,-222.061783,8882.471304
2697.506599,689.485948,-296.082377,9104.533087
2697.506928,459.657299,-222.061783,9030.512492
2697.507258,536.266849,-0.000000,9104.533087
2697.507587,0.000000,-74.020594,9104.533087
2697.507916,306.438199,-222.061783,8956.491898
2697.508246,153.219100,-222.061783,9104.533087
2697.508575,229.828649,-222.061783,9030.512492
2697.508905,612.876398,-666.185348,9326.594869
2697.509234,689.485948,-814.226536,9178.553681
2697.509563,0.000000,-518.144159,9326.594869
2697.509893,229.828649,-222.061783,9252.574275
2697.510222,459.657299,-74.020594,9178.553681
2697.510551,459.657299,-74.020594,9252.574275
2697.510881,459.657299,-74.020594,9178.553681
2697.511210,536.266849,-148.041188,9400.615463
2697.511539,459.657299,-148.041188,9326.594869
2697.511869,689.485948,-370.102971,9178.553681
2697.512198,306.438199,-74.020594,9326.594869
2697.512528,383.047749,-148.041188,9326.594869
2697.512857,383.047749,-222.061783,9178.553681
2697.513186,306.438199,-222.061783,8956.491898
2697.513516,383.047749,-296.082377,8956.491898
2697.513845,536.266849,-222.061783,9178.553681
2697.514174,306.438199,-444.123565,9030.512492
2697.514504,306.438199,-222.061783,9104.533087
2697.514833,536.266849,-0.000000,8882.471304
2697.515162,306.438199,-0.000000,8734.430116
2697.515492,306.438199,-0.000000,8956.491898
2697.515821,459.657299,-0.000000,8660.409521
2697.516150,689.485948,-740.205942,8734.430116
2697.516480,383.047749,-444.123565,8586.388927
2697.516809,0.000000,-222.061783,8956.491898
2697.517139,229.828649,-296.082377,9104.533087
2697.517468,76.609550,-222.061783,8734.430116
2697.517797,306.438199,-0.000000,8808.450710
2697.518127,459.657299,-0.000000,9326.594869
2697.518456,229.828649,-74.020594,9030.512492
2697.518785,689.485948,-222.061783,9030.512492
2697.519115,306.438199,-222.061783,8734.430116
2697.519444,459.657299,-148.041188,9104.533087
2697.519773,306.438199,-0.000000,9400.615463
2697.520103,153.219100,-148.041188,9178.553681
2697.520432,612.876398,-444.123565,9400.615463
2697.520762,153.219100,-370.102971,9326.594869
2697.521091,-229.828649,-148.041188,9474.636058
2697.521420,383.047749,-370.102971,9104.533087
2697.521750,383.047749,-148.041188,9326.594869
2697.522079,153.219100,-222.061783,9030.512492
2697.522408,153.219100,-148.041188,9030.512492
2697.522738,536.266849,-0.000000,9326.594869
2697.523067,612.876398,-444.123565,9178.553681
2697.523396,536.266849,-148.041188,9326.594869
2697.523726,306.438199,-222.061783,9178.553681
2697.524055,459.657299,74.020594,9178.553681
2697.524384,153.219100,-148.041188,9030.512492
2697.524714,306.438199,-74.020594,9178.553681
2697.525043,306.438199,296.082377,9400.615463
2697.525373,0.000000,-74.020594,9104.533087
2697.525702,536.266849,-0.000000,8956.491898
2697.526031,383.047749,-0.000000,8882.471304
2697.526361,229.828649,-0.000000,8882.471304
2697.526690,383.047749,-0.000000,8808.450710
2697.527019,229.828649,-148.041188,8808.450710
2697.527349,0.000000,-148.041188,9030.512492
2697.527678,536.266849,-148.041188,8956.491898
2697.528007,229.828649,-222.061783,8882.471304
2697.528337,306.438199,-222.061783,8734.430116
2697.528666,306.438199,-370.102971,8808.450710
2697.528995,153.219100,-0.000000,8882.471304
2697.529325,306.438199,-0.000000,8956.491898
2697.529654,306.438199,-222.061783,9104.533087
2697.529984,689.485948,-296.082377,8290.306550
2697.530313,153.219100,-0.000000,9252.574275
2697.530642,229.828649,-370.102971,9178.553681
2697.530972,0.000000,-296.082377,9178.553681
2697.531301,0.000000,-444.123565,9326.594869
2697.531630,153.219100,-222.061783,9178.553681
2697.531960,-229.828649,-296.082377,9474.636058
2697.532289,842.705048,-296.082377,9326.594869
2697.532618,842.705048,-444.123565,9400.615463
2697.532948,459.657299,-222.061783,9252.574275
2697.533277,536.266849,-0.000000,9178.553681
2697.533607,459.657299,-0.000000,9104.533087
2697.533936,612.876398,-0.000000,9104.533087
2697.534265,459.657299,-444.123565,9104.533087
2697.534595,383.047749,-0.000000,9030.512492
2697.534924,229.828649,-148.041188,9400.615463
2697.535253,229.828649,-0.000000,9252.574275
2697.535583,306.438199,-296.082377,9178.553681
2697.535912,0.000000,-296.082377,9178.553681
2697.536241,229.828649,-222.061783,9030.512492
2697.536571,536.266849,-0.000000,9178.553681
2697.536900,689.485948,-0.000000,9104.533087
2697.537229,306.438199,-0.000000,8882.471304
2697.537559,306.438199,-0.000000,9030.512492
2697.537888,0.000000,-148.041188,9178.553681
2697.538218,306.438199,-296.082377,9178.553681
2697.538547,229.828649,-148.041188,8808.450710
2697.538876,229.828649,-74.020594,8956.491898
2697.539206,383.047749,-222.061783,8956.491898
2697.539535,383.047749,-370.102971,9178.553681
2697.539864,1302.362347,-1036.288319,9548.656652
2697.540194,1302.362347,-1184.329507,9252.574275
2697.540523,1455.581446,-814.226536,9326.594869
2697.540852,2221.676944,-592.164754,8956.491898
2697.541182,2681.334243,222.061783,8734.430116
2697.541511,3753.867940,296.082377,8882.471304
2697.541841,4596.572988,-222.061783,8882.471304
2697.542170,4060.306139,-148.041188,8512.368333
2697.542499,3524.039291,444.123565,8734.430116
2697.542829,3064.381992,148.041188,8216.285956
2697.543158,2911.162892,-296.082377,9474.636058
2697.543487,2451.505594,-666.185348,9252.574275
2697.543817,1302.362347,-740.205942,9622.677246
2697.544146,1762.019645,-2294.638420,10436.903782
2697.544475,2451.505594,-1850.514855,9696.697840
2697.544805,2451.505594,-0.000000,9770.718434
2697.545134,2451.505594,-1480.411884,10066.800811
2697.545463,3294.210641,-74.020594,8882.471304
2697.545793,4290.134789,962.267725,9474.636058
2697.546122,5362.668486,1036.288319,7476.080014
2697.546452,4596.572988,1110.308913,7920.203579
2697.546781,4979.620737,1036.288319,9474.636058
2697.547110,4596.572988,888.247130,7105.977043
2697.547440,3830.477490,740.205942,8956.491898
2697.547769,3294.210641,-0.000000,8956.491898
2697.548098,2374.896044,370.102971,8660.409521
2697.548428,1608.800546,-666.185348,9844.739029
2697.548757,919.314598,-1406.391290,9622.677246
2697.549086,1762.019645,-1258.350101,9770.718434
2697.549416,459.657299,-1406.391290,9770.718434
2697.549745,1838.629195,-518.144159,9622.677246
2697.550075,1685.410096,-518.144159,9992.780217
2697.550404,3294.210641,666.185348,8068.244768
2697.550733,3753.867940,296.082377,9030.512492
2697.551063,4213.525239,1258.350101,8364.327145
2697.551392,4826.401637,518.144159,8142.265362
2697.551721,4749.792088,962.267725,8068.244768
2697.552051,4519.963438,666.185348,9030.512492
2697.552380,3677.258390,-222.061783,8586.388927
2697.552709,3294.210641,-962.267725,9178.553681
2697.553039,2681.334243,-1480.411884,9474.636058
2697.553368,2451.505594,-1628.453072,11103.089130
2697.553697,2068.457845,-2442.679609,10214.842000
2697.554027,2528.115143,-2220.617826,10436.903782
2697.554356,2298.286494,-1406.391290,9696.697840
2697.554686,2757.943793,-74.020594,9548.656652
2697.555015,3140.991542,444.123565,8512.368333
2697.555344,4213.525239,1480.411884,8882.471304
2697.555674,4213.525239,2294.638420,8216.285956
2697.556003,4596.572988,2368.659014,7254.018232
2697.556332,4213.525239,2072.576638,7846.182985
2697.556662,3830.477490,2146.597232,7772.162391
2697.556991,3677.258390,1184.329507,7994.224174
2697.557320,2987.772442,-222.061783,8808.450710
2697.557650,2834.553343,-1628.453072,9770.718434
2697.557979,2451.505594,-2886.803174,10140.821405
2697.558308,2221.676944,-3256.906145,10584.944971
2697.558638,2528.115143,-2590.720797,10436.903782
2697.558967,3524.039291,-1998.556043,10732.986159
2697.559297,4060.306139,-296.082377,9844.739029
2697.559626,5132.839837,888.247130,9400.615463
2697.559955,5822.325785,1850.514855,8586.388927
2697.560285,6052.154434,2516.700203,7624.121203
2697.560614,5056.230287,3182.885551,7254.018232
2697.560943,4366.744339,3404.947333,6513.812290
2697.561273,4213.525239,2368.659014,6735.874072
2697.561602,2604.724693,592.164754,7550.100608
2697.561931,1072.533697,-1554.432478,9400.615463
2697.562261,-612.876398,-3775.050304,10436.903782
2697.562590,-1302.362347,-4811.338623,12435.459826
2697.562920,-842.705048,-5403.503377,11547.212695
2697.563249,-612.876398,-2812.782580,10584.944971
2697.563578,0.000000,-1850.514855,10732.986159
2697.563908,919.314598,-74.020594,10140.821405
2697.564237,3600.648841,370.102971,11177.109724
2697.564566,5898.935335,1850.514855,8142.265362
2697.564896,7737.564530,1480.411884,8808.450710
2697.565225,6511.811733,1332.370696,8142.265362
2697.565554,6052.154434,1998.556043,6661.853478
2697.565884,5439.278036,2960.823768,7328.038826
2697.566213,5822.325785,1850.514855,6513.812290
2697.566542,4979.620737,3034.844362,5847.626942
2697.566872,4749.792088,2442.679609,6661.853478
2697.567201,4826.401637,1184.329507,5847.626942
2697.567531,2987.772442,-2590.720797,9400.615463
2697.567860,76.609550,-7698.141797,12879.583391
2697.568189,-1532.190996,-4219.173869,11103.089130
2697.568519,-1455.581446,-5255.462188,14434.015869
2697.568848,-1838.629195,-6069.688724,12435.459826
2697.569177,-612.876398,444.123565,11177.109724
2697.569507,2451.505594,-370.102971,11991.336260
2697.569836,4213.525239,2072.576638,9104.533087
2697.570165,7124.688131,1776.494261,9696.697840
2697.570495,7354.516781,1924.535449,9548.656652
2697.570824,7890.783629,3775.050304,6735.874072
2697.571154,8044.002729,5033.400406,5625.565159
2697.571483,7814.174080,1406.391290,5181.441594
2697.571812,7660.954980,2516.700203,5181.441594
2697.572142,7048.078582,1332.370696,6513.812290
2697.572471,5209.449386,1036.288319,6809.894666
2697.572800,3370.820191,1998.556043,5921.647536
2697.573130,3830.477490,-1998.556043,9992.780217
2697.573459,-1149.143247,-4959.379811,13027.624579
2697.573788,-2604.724693,-4293.194464,11991.336260
2697.574118,-1915.238745,-2294.638420,14211.954086
2697.574447,-766.095498,-6217.729913,11547.212695
2697.574776,-536.266849,2072.576638,10955.047942
2697.575106,2068.457845,-962.267725,11473.192101
2697.575435,-612.876398,2368.659014,9548.656652
2697.575765,4060.306139,-814.226536,13471.748144
2697.576094,7507.735880,1406.391290,5403.503377
2697.576423,8733.488677,1110.308913,8882.471304
2697.576753,6281.983084,888.247130,6513.812290
2697.577082,7507.735880,1850.514855,4885.359217
2697.577411,7048.078582,-0.000000,8956.491898
2697.577741,5975.544884,888.247130,5551.544565
2697.578070,4826.401637,2886.803174,7179.997637
2697.578399,2757.943793,1998.556043,7105.977043
2697.578729,3140.991542,518.144159,8216.285956
2697.579058,1991.848295,-0.000000,9326.594869
2697.579388,1225.752797,-3997.112087,11843.295072
2697.579717,-1072.533697,-518.144159,10362.883188
2697.580046,0.000000,-5107.421000,13693.809927
2697.580376,-1455.581446,-2812.782580,10066.800811
2697.580705,536.266849,-74.020594,11177.109724
2697.581034,2145.067394,444.123565,9992.780217
2697.581364,2374.896044,1480.411884,8142.265362
2697.581693,4136.915689,518.144159,8216.285956
2697.582022,4826.401637,1924.535449,7624.121203
2697.582352,4749.792088,2146.597232,7105.977043
2697.582681,3983.696590,-0.000000,7920.203579
2697.583010,3753.867940,-888.247130,7254.018232
2697.583340,3524.039291,-1628.453072,8290.306550
2697.583669,2298.286494,-2146.597232,10584.944971
2697.583999,1915.238745,-1406.391290,10214.842000
2697.584328,1455.581446,-814.226536,9992.780217
2697.584657,3217.601092,888.247130,10584.944971
2697.584987,1991.848295,888.247130,9178.553681
2697.585316,2911.162892,370.102971,9844.739029
2697.585645,3753.867940,1332.370696,8734.430116
2697.585974,5592.497135,1184.329507,8734.430116
2697.586303,5439.278036,1480.411884,7846.182985
2697.586633,5362.668486,518.144159,7624.121203
2697.586962,3830.477490,-74.020594,7920.203579
2697.587291,4136.915689,-0.000000,8290.306550
2697.587620,3294.210641,148.041188,8290.306550
2697.587949,1685.410096,-740.205942,9844.739029
2697.588278,459.657299,-1406.391290,10362.883188
2697.588607,229.828649,-1776.494261,10362.883188
2697.588937,1149.143247,-2146.597232,10362.883188
2697.589266,1455.581446,-1998.556043,10362.883188
2697.589595,995.924147,-1628.453072,11769.274478
2697.589924,1685.410096,-666.185348,10658.965565
2697.590253,4290.134789,1480.411884,9400.615463
2697.590582,5975.544884,1554.432478,8808.450710
2697.590911,6205.373534,1406.391290,8512.368333
2697.591241,5286.058936,370.102971,9400.615463
2697.591570,4673.182538,1258.350101,7179.997637
2697.591899,5669.106685,1036.288319,6883.915261
2697.592228,6052.154434,592.164754,8586.388927
2697.592557,4979.620737,1184.329507,7920.203579
2697.592886,4979.620737,1036.288319,7846.182985
2697.593215,4749.792088,-0.000000,7328.038826
2697.593545,2451.505594,-666.185348,8734.430116
2697.593874,4136.915689,-2590.720797,11547.212695
2697.594203,1532.190996,-74.020594,8438.347739
2697.594532,-689.485948,-962.267725,11251.130318
2697.594861,2068.457845,-1850.514855,10807.006753
2697.595190,1149.143247,-0.000000,9844.739029
2697.595519,1685.410096,-222.061783,9474.636058
2697.595849,4060.306139,2146.597232,8290.306550
2697.596178,3140.991542,-0.000000,7550.100608
2697.596507,3140.991542,2886.803174,7772.162391
2697.596836,4519.963438,592.164754,7994.224174
2697.597165,1225.752797,222.061783,6513.812290
2697.597494,459.657299,-1036.288319,7994.224174
2697.597823,306.438199,-1036.288319,9548.656652
2697.598153,-612.876398,-2294.638420,8808.450710
2697.598482,0.000000,-1776.494261,9770.718434
2697.598811,-2374.896044,-1480.411884,9400.615463
2697.599140,-2757.943793,-1406.391290,9844.739029
2697.599469,-1225.752797,-814.226536,8808.450710
2697.599798,-689.485948,296.082377,9622.677246
2697.600127,-1685.410096,-444.123565,9622.677246
2697.600457,-689.485948,-740.205942,9770.718434
2697.600786,0.000000,-888.247130,10066.800811
2697.601115,-612.876398,-518.144159,8882.471304
2697.601444,1072.533697,1036.288319,8216.285956
2697.601773,1608.800546,666.185348,7476.080014
2697.602102,1838.629195,814.226536,7920.203579
2697.602431,1991.848295,888.247130,8734.430116
2697.602761,1302.362347,-444.123565,8512.368333
2697.603090,1149.143247,-888.247130,8438.347739
2697.603419,-306.438199,-148.041188,9104.533087
2697.603748,-1838.629195,-592.164754,9918.759623
2697.604077,-1378.971896,-962.267725,9918.759623
2697.604406,-536.266849,-592.164754,9844.739029
2697.604735,-612.876398,-370.102971,9844.739029
2697.605065,-229.828649,-222.061783,9474.636058
2697.605394,1608.800546,-518.144159,10140.821405
2697.605723,1149.143247,-148.041188,8586.388927
2697.606052,1838.629195,2368.659014,8142.265362
2697.606381,2451.505594,1850.514855,7698.141797
2697.606710,2528.115143,2146.597232,6957.935855
2697.607039,2528.115143,1258.350101,8956.491898
2697.607369,1302.362347,-74.020594,9252.574275
2697.607698,1838.629195,-0.000000,7772.162391
2697.608027,0.000000,-814.226536,8808.450710
2697.608356,-1532.190996,-592.164754,10362.883188
2697.608685,-2068.457845,-1184.329507,10066.800811
2697.609014,-1302.362347,-1554.432478,8734.430116
2697.609343,-919.314598,-1184.329507,10140.821405
2697.609673,-689.485948,-1702.473667,10584.944971
2697.610002,-919.314598,-1184.329507,9770.718434
2697.610331,-766.095498,-2072.576638,10510.924376
2697.610660,-766.095498,-296.082377,9770.718434
2697.610989,-766.095498,-222.061783,9696.697840
2697.611318,536.266849,-740.205942,9992.780217
2697.611647,1991.848295,740.205942,8068.244768
2697.611977,2987.772442,-0.000000,8512.368333
2697.612306,3600.648841,-0.000000,6513.812290
2697.612635,3140.991542,962.267725,7624.121203
2697.612964,2757.943793,1110.308913,8216.285956
2697.613293,1072.533697,1554.432478,7402.059420
2697.613622,612.876398,296.082377,8586.388927
2697.613951,306.438199,-444.123565,8882.471304
2697.614281,0.000000,-962.267725,9252.574275
2697.614610,-1455.581446,-3034.844362,11769.274478
2697.614939,-766.095498,-2220.617826,10214.842000
2697.615268,-306.438199,-1998.556043,9770.718434
2697.615597,-459.657299,-148.041188,9030.512492
2697.615926,383.047749,-0.000000,8882.471304
2697.616255,1378.971896,444.123565,8956.491898
2697.616585,1915.238745,962.267725,8956.491898
2697.616914,3447.429741,518.144159,7698.141797
2697.617243,2451.505594,148.041188,7476.080014
2697.617572,1455.581446,962.267725,7624.121203
2697.617901,689.485948,888.247130,8734.430116
2697.618230,0.000000,666.185348,8290.306550
2697.618559,-153.219100,-962.267725,8660.409521
2697.618889,-995.924147,-1110.308913,9770.718434
2697.619218,-1838.629195,-1702.473667,10658.965565
2697.619547,-1838.629195,-1702.473667,9696.697840
2697.619876,-1685.410096,-1110.308913,8956.491898
2697.620205,-2068.457845,-888.247130,10807.006753
2697.620534,-1685.410096,-370.102971,10288.862594
2697.620863,-919.314598,-296.082377,9474.636058
2697.621193,-383.047749,-0.000000,8586.388927
2697.621522,0.000000,-444.123565,9844.739029
2697.621851,0.000000,-888.247130,9474.636058
2697.622180,-536.266849,-1258.350101,9770.718434
2697.622509,-383.047749,370.102971,8438.347739
2697.622838,153.219100,740.205942,8586.388927
2697.623167,229.828649,1406.391290,7328.038826
2697.623497,842.705048,1480.411884,7994.224174
2697.623826,383.047749,1258.350101,9252.574275
2697.624155,153.219100,-0.000000,9474.636058
2697.624484,536.266849,-1554.432478,9474.636058
2697.624813,-536.266849,-222.061783,9622.677246
2697.625142,-612.876398,-0.000000,9474.636058
2697.625471,306.438199,-74.020594,9770.718434
2697.625801,1072.533697,-370.102971,9178.553681
2697.626130,2145.067394,222.061783,9178.553681
2697.626459,2451.505594,-0.000000,9178.553681
2697.626788,2374.896044,-0.000000,8512.368333
2697.627117,1532.190996,592.164754,8808.450710
2697.627446,766.095498,740.205942,9104.533087
2697.627775,842.705048,962.267725,7550.100608
2697.628104,1532.190996,-296.082377,8438.347739
2697.628434,612.876398,592.164754,8586.388927
2697.628763,-229.828649,-1406.391290,8956.491898
2697.629092,0.000000,-2220.617826,9622.677246
2697.629421,0.000000,-2072.576638,9400.615463
2697.629750,-689.485948,-0.000000,9474.636058
2697.630079,-306.438199,-74.020594,9696.697840
2697.630408,0.000000,-370.102971,9918.759623
2697.630738,612.876398,-518.144159,8956.491898
2697.631067,1608.800546,444.123565,9400.615463
2697.631396,1072.533697,518.144159,7772.162391
2697.631725,2451.505594,-0.000000,8364.327145
2697.632054,1149.143247,1480.411884,7402.059420
2697.632383,-536.266849,666.185348,8512.368333
2697.632712,-153.219100,-814.226536,8956.491898
2697.633042,-689.485948,-1258.350101,9400.615463
2697.633371,-1455.581446,-1776.494261,9622.677246
2697.633700,-1302.362347,-2220.617826,9400.615463
2697.634029,-766.095498,-2664.741391,9844.739029
2697.634358,-842.705048,-1036.288319,9992.780217
2697.634687,-536.266849,-296.082377,9770.718434
2697.635016,-766.095498,-0.000000,9918.759623
2697.635346,0.000000,-0.000000,9326.594869
2697.635675,459.657299,-296.082377,9992.780217
2697.636004,766.095498,-1184.329507,10066.800811
2697.636333,2757.943793,370.102971,7550.100608
2697.636662,2911.162892,1184.329507,7328.038826
2697.636991,2374.896044,2146.597232,7624.121203
2697.637320,2068.457845,2072.576638,7179.997637
2697.637650,2298.286494,444.123565,8142.265362
2697.637979,1149.143247,222.061783,7550.100608
2697.638308,0.000000,-1036.288319,9178.553681
2697.638637,-459.657299,-2516.700203,9918.759623
2697.638966,-1378.971896,-1850.514855,9770.718434
2697.639295,-1072.533697,-1110.308913,10510.924376
2697.639624,-459.657299,-1036.288319,10066.800811
2697.639954,-383.047749,-444.123565,9474.636058
2697.640283,306.438199,-1110.308913,9992.780217
2697.640612,-383.047749,-0.000000,10214.842000
2697.640941,306.438199,-0.000000,9696.697840
2697.641270,1302.362347,-0.000000,8512.368333
2697.641599,1225.752797,1924.535449,7476.080014
2697.641928,1149.143247,1850.514855,7328.038826
2697.642258,2221.676944,1628.453072,7105.977043
2697.642587,1685.410096,518.144159,6587.832884
2697.642916,1532.190996,-74.020594,8290.306550
2697.643245,0.000000,-1924.535449,9770.718434
2697.643574,-1838.629195,-2442.679609,9844.739029
2697.643903,-2374.896044,-2368.659014,10362.883188
2697.644232,-1915.238745,-518.144159,10066.800811
2697.644562,-1072.533697,-666.185348,9178.553681
2697.644891,-995.924147,-0.000000,10066.800811
2697.645220,-1225.752797,-0.000000,10732.986159
2697.645549,76.609550,-0.000000,10140.821405
2697.645878,1149.143247,-370.102971,9030.512492
2697.646207,1149.143247,888.247130,8142.265362
2697.646536,842.705048,962.267725,9178.553681
2697.646866,842.705048,1776.494261,6957.935855
2697.647195,1685.410096,666.185348,7920.203579
2697.647524,1608.800546,592.164754,8290.306550
2697.647853,919.314598,-222.061783,9178.553681
2697.648182,306.438199,-1776.494261,8882.471304
2697.648511,-229.828649,-1036.288319,8660.409521
2697.648840,-842.705048,-1184.329507,9992.780217
2697.649170,-612.876398,-740.205942,10214.842000
2697.649499,689.485948,-1036.288319,9178.553681
2697.649828,536.266849,-444.123565,9918.759623
2697.650157,1991.848295,-74.020594,9178.553681
2697.650486,2451.505594,666.185348,8216.285956
2697.650815,2451.505594,148.041188,7772.162391
2697.651144,1915.238745,1628.453072,8660.409521
2697.651474,1149.143247,1258.350101,8290.306550
2697.651803,842.705048,962.267725,8290.306550
2697.652132,1455.581446,-0.000000,8882.471304
2697.652461,306.438199,-888.247130,9474.636058
2697.652790,-612.876398,-1850.514855,10362.883188
2697.653119,-1149.143247,-2146.597232,10066.800811
2697.653448,-842.705048,-888.247130,9992.780217
2697.653778,-995.924147,-74.020594,9400.615463
2697.654107,-766.095498,-518.144159,10066.800811
2697.654436,-536.266849,-0.000000,9622.677246
2697.654765,76.609550,-0.000000,10214.842000
2697.655094,919.314598,-296.082377,9770.718434
2697.655423,1532.190996,1258.350101,8142.265362
2697.655752,1762.019645,740.205942,8660.409521
2697.656082,536.266849,1702.473667,8438.347739
2697.656411,689.485948,1776.494261,8586.388927
2697.656740,459.657299,-0.000000,8290.306550
2697.657069,0.000000,-148.041188,8660.409521
2697.657398,-842.705048,-1480.411884,9844.739029
2697.657727,-1532.190996,-2590.720797,10288.862594
2697.658056,-1685.410096,-2072.576638,9326.594869
2697.658386,-842.705048,-370.102971,9696.697840
2697.658715,-842.705048,-148.041188,9326.594869
2697.659044,-306.438199,-148.041188,9178.553681
2697.659373,-229.828649,-74.020594,10288.862594
2697.659702,-536.266849,-0.000000,9992.780217
2697.660031,1302.362347,-592.164754,9400.615463
2697.660360,1532.190996,1184.329507,7328.038826
2697.660690,1225.752797,740.205942,7550.100608
2697.661019,1302.362347,1776.494261,6365.771101
2697.661348,1991.848295,-0.000000,9918.759623
2697.661677,1225.752797,-740.205942,7476.080014
2697.662006,306.438199,592.164754,8216.285956
2697.662335,0.000000,-3034.844362,10214.842000
2697.662664,-689.485948,-2146.597232,9104.533087
2697.662994,76.609550,-888.247130,10362.883188
2697.663323,-1302.362347,-1480.411884,9474.636058
2697.663652,76.609550,-0.000000,9474.636058
2697.663981,919.314598,-1332.370696,9992.780217
2697.664310,2221.676944,1036.288319,8882.471304
2697.664639,2757.943793,148.041188,8586.388927
2697.664968,2374.896044,-0.000000,7772.162391
2697.665298,1302.362347,2294.638420,7624.121203
2697.665627,1455.581446,1776.494261,8290.306550
2697.665956,0.000000,296.082377,8734.430116
2697.666285,306.438199,-444.123565,8364.327145
2697.666614,-153.219100,-1036.288319,10066.800811
2697.666943,-1455.581446,-2294.638420,10362.883188
2697.667272,-1302.362347,-1480.411884,9474.636058
2697.667602,-1225.752797,-1628.453072,10362.883188
2697.667931,-1072.533697,-592.164754,10732.986159
2697.668260,-1302.362347,-0.000000,9548.656652
2697.668589,-1378.971896,-296.082377,9474.636058
2697.668918,-689.485948,-148.041188,9252.574275
2697.669247,229.828649,296.082377,9992.780217
2697.669576,612.876398,-296.082377,9326.594869
2697.669906,1608.800546,1332.370696,7994.224174
2697.670235,1149.143247,962.267725,8216.285956
2697.670564,1149.143247,2368.659014,7550.100608
2697.670893,1838.629195,1036.288319,6661.853478
2697.671222,459.657299,296.082377,8364.327145
2697.671551,-383.047749,-222.061783,9326.594869
2697.671880,-536.266849,-1184.329507,9918.759623
2697.672210,-1149.143247,-2368.659014,9548.656652
2697.672539,-612.876398,-444.123565,9844.739029
2697.672868,-612.876398,-814.226536,9474.636058
2697.673197,0.000000,-666.185348,9400.615463
2697.673526,1378.971896,-74.020594,9844.739029
2697.673855,2145.067394,-0.000000,9474.636058
2697.674184,2681.334243,592.164754,8216.285956
2697.674514,3294.210641,1110.308913,7772.162391
2697.674843,2451.505594,1850.514855,7698.141797
2697.675172,1762.019645,1776.494261,8438.347739
2697.675501,1532.190996,1184.329507,8216.285956
2697.675830,1149.143247,-296.082377,8438.347739
2697.676159,0.000000,-962.267725,9326.594869
2697.676488,-689.485948,-1998.556043,9696.697840
2697.676818,-1149.143247,-3330.926739,9696.697840
2697.677147,-1225.752797,-2072.576638,10510.924376
2697.677476,-842.705048,-444.123565,9844.739029
2697.677805,0.000000,-1258.350101,9400.615463
2697.678134,153.219100,-0.000000,9178.553681
2697.678463,995.924147,222.061783,9474.636058
2697.678792,2068.457845,740.205942,8734.430116
2697.679122,2604.724693,1332.370696,7994.224174
2697.679451,2681.334243,1850.514855,7328.038826
2697.679780,1991.848295,2146.597232,7772.162391
2697.680109,919.314598,1628.453072,8364.327145
2697.680438,-229.828649,518.144159,7920.203579
2697.680767,0.000000,-518.144159,9400.615463
2697.681096,-1225.752797,-1702.473667,10732.986159
2697.681426,-1302.362347,-2442.679609,9770.718434
2697.681755,-1685.410096,-2072.576638,8808.450710
2697.682084,-1532.190996,-1332.370696,9844.739029
2697.682413,-2298.286494,-444.123565,9474.636058
2697.682742,0.000000,296.082377,10288.862594
2697.683071,-536.266849,-74.020594,9400.615463
2697.683400,-229.828649,-518.144159,10066.800811
2697.683730,689.485948,-296.082377,9918.759623
2697.684059,995.924147,-148.041188,9326.594869
2697.684388,1762.019645,1184.329507,7994.224174
2697.684717,1532.190996,1776.494261,7846.182985
2697.685046,2528.115143,1554.432478,7031.956449
2697.685375,2757.943793,1406.391290,7624.121203
2697.685704,1225.752797,-444.123565,8512.368333
2697.686034,536.266849,-1554.432478,8512.368333
2697.686363,229.828649,-2442.679609,8956.491898
2697.686692,-919.314598,-1776.494261,9326.594869
2697.687021,-1915.238745,-1406.391290,9844.739029
2697.687350,-612.876398,-1332.370696,10807.006753
2697.687679,-153.219100,-962.267725,10140.821405
2697.688008,459.657299,370.102971,10140.821405
2697.688338,1302.362347,740.205942,9326.594869
2697.688667,2221.676944,1036.288319,9696.697840
2697.688996,2145.067394,1258.350101,8438.347739
2697.689325,1915.238745,2072.576638,8364.327145
2697.689654,842.705048,1554.432478,8882.471304
2697.689983,1685.410096,592.164754,8290.306550
2697.690312,766.095498,148.041188,8734.430116
2697.690642,-842.705048,-1998.556043,8882.471304
2697.690971,-919.314598,-3182.885551,9696.697840
2697.691300,-1072.533697,-3330.926739,9844.739029
2697.691629,-1608.800546,-1406.391290,9622.677246
2697.691958,-1685.410096,-0.000000,9178.553681
2697.692287,-842.705048,-148.041188,9474.636058
2697.692616,-766.095498,370.102971,9326.594869
2697.692945,0.000000,148.041188,10214.842000
2697.693275,612.876398,296.082377,8956.491898
2697.693604,1608.800546,740.205942,7328.038826
2697.693933,1762.019645,1924.535449,8956.491898
2697.694262,0.000000,2590.720797,7846.182985
2697.694591,1838.629195,-0.000000,8586.388927
2697.694920,383.047749,-222.061783,7179.997637
2697.695249,-1072.533697,444.123565,9770.718434
2697.695579,76.609550,-3330.926739,10140.821405
2697.695908,-1608.800546,-2368.659014,7994.224174
2697.696237,-1225.752797,-1702.473667,9474.636058
2697.696566,-1532.190996,-666.185348,9918.759623
2697.696895,-1302.362347,-1628.453072,9474.636058
2697.697224,-689.485948,-0.000000,10066.800811
2697.697553,536.266849,-0.000000,9844.739029
2697.697883,459.657299,-222.061783,9770.718434
2697.698212,2681.334243,-74.020594,7994.224174
2697.698541,2911.162892,2146.597232,7994.224174
2697.698870,1762.019645,1628.453072,7772.162391
2697.699199,2528.115143,2738.761985,7772.162391
2697.699528,2221.676944,740.205942,7772.162391
2697.699857,1762.019645,296.082377,8586.388927
2697.700187,766.095498,-1554.432478,9696.697840
2697.700516,76.609550,-3108.864956,9622.677246
2697.700845,-2451.505594,-2368.659014,9992.780217
2697.701174,-1762.019645,-1554.432478,10658.965565
2697.701503,-1455.581446,-1258.350101,9770.718434
2697.701832,-1762.019645,-444.123565,9844.739029
2697.702161,-459.657299,-666.185348,10807.006753
2697.702491,459.657299,-222.061783,9696.697840
2697.702820,1608.800546,370.102971,8068.244768
2697.703149,2298.286494,1184.329507,7846.182985
2697.703478,1378.971896,1406.391290,8216.285956
2697.703807,1762.019645,2664.741391,7846.182985
2697.704136,1762.019645,1554.432478,7328.038826
2697.704465,842.705048,666.185348,7846.182985
2697.704795,0.000000,-962.267725,9030.512492
2697.705124,-919.314598,-2072.576638,9474.636058
2697.705453,-1838.629195,-3330.926739,10066.800811
2697.705782,-2298.286494,-1850.514855,10288.862594
2697.706111,-1608.800546,-888.247130,9474.636058
2697.706440,-1072.533697,-592.164754,9474.636058
2697.706769,-612.876398,518.144159,9104.533087
2697.707098,-383.047749,-0.000000,10066.800811
2697.707428,0.000000,-740.205942,10436.903782
2697.707757,1838.629195,666.185348,7624.121203
2697.708086,2987.772442,1924.535449,7920.203579
2697.708415,842.705048,1702.473667,7179.997637
2697.708744,1991.848295,1998.556043,7624.121203
2697.709073,1991.848295,1554.432478,7550.100608
2697.709402,1455.581446,740.205942,7698.141797
2697.709732,1149.143247,-1332.370696,9178.553681
2697.710061,-229.828649,-2294.638420,10066.800811
2697.710390,-1838.629195,-2886.803174,9696.697840
2697.710719,-1685.410096,-2294.638420,10658.965565
2697.711048,-1302.362347,-1480.411884,10140.821405
2697.711377,-766.095498,-444.123565,9696.697840
2697.711706,76.609550,-74.020594,10584.944971
2697.712036,1072.533697,814.226536,9548.656652
2697.712365,2068.457845,592.164754,9178.553681
2697.712694,2451.505594,592.164754,8734.430116
2697.713023,2298.286494,2072.576638,7328.038826
2697.713352,1532.190996,2516.700203,9178.553681
2697.713681,1762.019645,1850.514855,7105.977043
2697.714010,919.314598,444.123565,7476.080014
2697.714340,-229.828649,-1258.350101,10140.821405
2697.714669,-842.705048,-2220.617826,9622.677246
2697.714998,-689.485948,-2738.761985,9696.697840
2697.715327,-1532.190996,-1406.391290,9844.739029
2697.715656,-2068.457845,-444.123565,9992.780217
2697.715985,-1225.752797,-222.061783,10214.842000
2697.716314,-919.314598,-0.000000,9252.574275
2697.716644,-306.438199,-0.000000,10510.924376
2697.716973,766.095498,-296.082377,9474.636058
2697.717302,1532.190996,1480.411884,8068.244768
2697.717631,1915.238745,1850.514855,8512.368333
2697.717960,229.828649,2072.576638,7994.224174
2697.718289,1149.143247,1332.370696,8364.327145
2697.718618,842.705048,1702.473667,7550.100608
2697.718947,689.485948,222.061783,8882.471304
2697.719277,-459.657299,-2146.597232,9992.780217
2697.719606,-536.266849,-2960.823768,9326.594869
2697.719935,-612.876398,-2146.597232,9844.739029
2697.720264,-919.314598,-1480.411884,9474.636058
2697.720593,-536.266849,-518.144159,10436.903782
2697.720922,76.609550,-296.082377,9992.780217
2697.721251,1072.533697,370.102971,9844.739029
2697.721581,2145.067394,592.164754,9326.594869
2697.721910,2221.676944,814.226536,8364.327145
2697.722239,2757.943793,1480.411884,8660.409521
2697.722568,2451.505594,1702.473667,7994.224174
2697.722897,459.657299,518.144159,8882.471304
2697.723226,1225.752797,296.082377,8956.491898
2697.723555,306.438199,-74.020594,8364.327145
2697.723885,-306.438199,-1036.288319,9104.533087
2697.724214,-383.047749,-3256.906145,10658.965565
2697.724543,-1302.362347,-3182.885551,9918.759623
2697.724872,-689.485948,-666.185348,9918.759623
2697.725201,-1378.971896,-814.226536,9918.759623
2697.725530,-1455.581446,-592.164754,9696.697840
2697.725859,229.828649,222.061783,8956.491898
2697.726189,919.314598,1184.329507,7920.203579
2697.726518,1302.362347,222.061783,8808.450710
2697.726847,1762.019645,1036.288319,7698.141797
2697.727176,2068.457845,1184.329507,7624.121203
2697.727505,612.876398,1924.535449,8956.491898
2697.727834,0.000000,666.185348,8290.306550
2697.728163,0.000000,-74.020594,8068.244768
2697.728493,-842.705048,-370.102971,9474.636058
2697.728822,-1225.752797,-2146.597232,9548.656652
2697.729151,-766.095498,-2072.576638,9326.594869
2697.729480,-1225.752797,-1554.432478,9622.677246
2697.729809,-1608.800546,-592.164754,9400.615463
2697.730138,-919.314598,-0.000000,8882.471304
2697.730467,-229.828649,962.267725,7328.038826
2697.730797,536.266849,-148.041188,9992.780217
2697.731126,2681.334243,370.102971,8808.450710
2697.731455,1838.629195,888.247130,7402.059420
2697.731784,2298.286494,-222.061783,9252.574275
2697.732113,1685.410096,1406.391290,9400.615463
2697.732442,459.657299,962.267725,9770.718434
2697.732771,383.047749,-0.000000,9252.574275
2697.733100,536.266849,-148.041188,9548.656652
2697.733430,-766.095498,-1406.391290,10214.842000
2697.733759,229.828649,-2442.679609,10066.800811
2697.734088,383.047749,-2516.700203,9474.636058
2697.734417,-306.438199,-888.247130,9474.636058
2697.734746,-306.438199,-74.020594,9696.697840
2697.735075,612.876398,296.082377,8734.430116
2697.735404,2068.457845,222.061783,8216.285956
2697.735734,3064.381992,1998.556043,7105.977043
2697.736063,2911.162892,592.164754,8882.471304
2697.736392,2298.286494,518.144159,8068.244768
2697.736721,1378.971896,1036.288319,8216.285956
2697.737050,0.000000,814.226536,9030.512492
2697.737379,-1608.800546,-0.000000,9474.636058
2697.737708,-459.657299,-2072.576638,9474.636058
2697.738038,-1455.581446,-1110.308913,9696.697840
2697.738367,-1225.752797,-2368.659014,10584.944971
2697.738696,-1225.752797,-2368.659014,9622.677246
2697.739025,-919.314598,-444.123565,8956.491898
2697.739354,-1302.362347,-0.000000,9844.739029
2697.739683,-153.219100,1036.288319,9252.574275
2697.740012,1378.971896,-148.041188,9178.553681
2697.740342,2068.457845,1776.494261,6513.812290
2697.740671,3064.381992,1480.411884,9178.553681
2697.741000,1991.848295,1258.350101,7624.121203
2697.741329,2374.896044,1480.411884,7846.182985
2697.741658,919.314598,814.226536,9326.594869
2697.741987,-459.657299,148.041188,8290.306550
2697.742316,-689.485948,-296.082377,9030.512492
2697.742646,-1685.410096,-2146.597232,10362.883188
2697.742975,-1608.800546,-1998.556043,10584.944971
2697.743304,-1608.800546,-2294.638420,9474.636058
2697.743633,-842.705048,-1776.494261,10288.862594
2697.743962,-1991.848295,-518.144159,10140.821405
2697.744291,-919.314598,518.144159,9918.759623
2697.744620,-842.705048,-0.000000,8956.491898
2697.744950,0.000000,-740.205942,10214.842000
2697.745279,1762.019645,-296.082377,9548.656652
2697.745608,2528.115143,888.247130,7179.997637
2697.745937,3140.991542,1332.370696,7476.080014
2697.746266,1608.800546,1850.514855,7328.038826
2697.746595,2068.457845,1110.308913,9400.615463
2697.746924,229.828649,888.247130,7550.100608
2697.747253,919.314598,592.164754,8142.265362
2697.747583,-842.705048,-1406.391290,9918.759623
2697.747912,-2681.334243,-1776.494261,10807.006753
2697.748241,-689.485948,-3034.844362,10881.027347
2697.748570,-1685.410096,-1258.350101,9548.656652
2697.748899,-1225.752797,-888.247130,9474.636058
2697.749228,-919.314598,-0.000000,9770.718434
2697.749557,0.000000,-148.041188,9326.594869
2697.749887,1378.971896,740.205942,8660.409521
2697.750216,2068.457845,888.247130,8660.409521
2697.750545,1685.410096,814.226536,7772.162391
2697.750874,1149.143247,2146.597232,7772.162391
2697.751203,919.314598,1480.411884,8882.471304
2697.751532,0.000000,962.267725,8068.244768
2697.751861,153.219100,-74.020594,8808.450710
2697.752191,-1378.971896,-1258.350101,9252.574275
2697.752520,-1302.362347,-2146.597232,10584.944971
2697.752849,-1455.581446,-3034.844362,10881.027347
2697.753178,-1149.143247,-1924.535449,9992.780217
2697.753507,-1225.752797,-888.247130,10510.924376
2697.753836,-1532.190996,-888.247130,10362.883188
2697.754165,-383.047749,-222.061783,9696.697840
2697.754495,1455.581446,-0.000000,10140.821405
2697.754824,2987.772442,148.041188,7550.100608
2697.755153,4213.525239,1110.308913,8290.306550
2697.755482,4213.525239,1776.494261,6735.874072
2697.755811,3524.039291,2960.823768,7105.977043
2697.756140,2145.067394,1258.350101,8290.306550
2697.756469,1608.800546,-0.000000,7550.100608
2697.756799,842.705048,-740.205942,8586.388927
2697.757128,-153.219100,-2294.638420,9992.780217
2697.757457,-995.924147,-3256.906145,11769.274478
2697.757786,-1532.190996,-2886.803174,11029.068536
2697.758115,-459.657299,-2072.576638,10584.944971
2697.758444,-306.438199,-0.000000,10288.862594
2697.758773,919.314598,370.102971,9474.636058
2697.759102,1838.629195,962.267725,9030.512492
2697.759432,3830.477490,1184.329507,8068.244768
2697.759761,4979.620737,2590.720797,6513.812290
2697.760090,3907.087040,962.267725,7920.203579
2697.760419,3294.210641,2664.741391,7254.018232
2697.760748,1915.238745,1702.473667,7402.059420
2697.761077,0.000000,-666.185348,8216.285956
2697.761406,-1072.533697,-1406.391290,9104.533087
2697.761736,-1608.800546,-2664.741391,9474.636058
2697.762065,-2757.943793,-3627.009116,10584.944971
2697.762394,-1455.581446,-2886.803174,9918.759623
2697.762723,-1838.629195,-2516.700203,10214.842000
2697.763052,-1608.800546,-296.082377,9770.718434
2697.763381,-2068.457845,-0.000000,9696.697840
2697.763710,-1149.143247,814.226536,9326.594869
2697.764040,153.219100,-74.020594,10362.883188
2697.764369,1149.143247,148.041188,8290.306550
2697.764698,2987.772442,1110.308913,6365.771101
2697.765027,3447.429741,2220.617826,6365.771101
2697.765356,1838.629195,2146.597232,6439.791695
2697.765685,1149.143247,2220.617826,8068.244768
2697.766014,0.000000,814.226536,8290.306550
2697.766344,76.609550,-444.123565,8956.491898
2697.766673,-2451.505594,-2146.597232,10214.842000
2697.767002,-2681.334243,-3404.947333,11695.253884
2697.767331,-2298.286494,-2960.823768,10362.883188
2697.767660,-2834.553343,-1184.329507,11029.068536
2697.767989,-1225.752797,-1776.494261,11547.212695
2697.768318,-1532.190996,666.185348,9178.553681
2697.768648,-306.438199,518.144159,10214.842000
2697.768977,76.609550,-666.185348,10362.883188
2697.769306,3064.381992,-444.123565,9622.677246
2697.769635,3064.381992,1406.391290,7624.121203
2697.769964,3294.210641,2738.761985,6513.812290
2697.770293,1838.629195,1702.473667,7624.121203
2697.770622,2451.505594,2220.617826,7920.203579
2697.770952,2298.286494,740.205942,7772.162391
2697.771281,842.705048,-222.061783,8068.244768
2697.771610,306.438199,-1702.473667,9326.594869
2697.771939,-1149.143247,-2368.659014,10510.924376
2697.772268,-1608.800546,-2590.720797,11177.109724
2697.772597,-1838.629195,-518.144159,10140.821405
2697.772926,-1608.800546,-1480.411884,10066.800811
2697.773255,-995.924147,-1258.350101,10658.965565
2697.773585,76.609550,592.164754,8882.471304
2697.773914,1378.971896,592.164754,8586.388927
2697.774243,2681.334243,222.061783,8142.265362
2697.774572,2451.505594,2516.700203,6735.874072
2697.774901,1608.800546,2294.638420,8142.265362
2697.775230,842.705048,1036.288319,7846.182985
2697.775559,76.609550,592.164754,7179.997637
2697.775889,-306.438199,-962.267725,8586.388927
2697.776218,-612.876398,-3330.926739,10362.883188
2697.776547,-1762.019645,-2886.803174,10584.944971
2697.776876,-1302.362347,-2664.741391,10436.903782
2697.777205,-2145.067394,-1554.432478,9918.759623
2697.777534,-1915.238745,-814.226536,10436.903782
2697.777863,-1149.143247,-148.041188,9770.718434
2697.778193,76.609550,-148.041188,9252.574275
2697.778522,1685.410096,740.205942,9030.512492
2697.778851,3140.991542,1184.329507,7550.100608
2697.779180,2911.162892,1184.329507,6883.915261
2697.779509,3294.210641,1702.473667,8068.244768
2697.779838,1072.533697,2146.597232,7402.059420
2697.780167,1072.533697,1554.432478,8882.471304
2697.780497,842.705048,-666.185348,8808.450710
2697.780826,0.000000,-814.226536,8216.285956
2697.781155,-842.705048,-3404.947333,11473.192101
2697.781484,-1532.190996,-2960.823768,9918.759623
2697.781813,-1378.971896,-2072.576638,10436.903782
2697.782142,-1149.143247,-1480.411884,10955.047942
2697.782471,-919.314598,296.082377,9918.759623
2697.782801,1225.752797,592.164754,10140.821405
2697.783130,2911.162892,962.267725,8364.327145
2697.783459,3677.258390,1776.494261,7994.224174
2697.783788,4136.915689,2516.700203,7328.038826
2697.784117,3983.696590,2146.597232,6587.832884
2697.784446,2145.067394,2146.597232,7698.141797
2697.784775,995.924147,1702.473667,8216.285956
2697.785104,76.609550,-74.020594,8142.265362
2697.785434,-689.485948,-1332.370696,8808.450710
2697.785763,-1915.238745,-3330.926739,10658.965565
2697.786092,-2451.505594,-3108.864956,10658.965565
2697.786421,-2298.286494,-2886.803174,9992.780217
2697.786750,-2681.334243,-1258.350101,9844.739029
2697.787079,-2221.676944,-666.185348,10732.986159
2697.787408,-1608.800546,888.247130,9252.574275
2697.787738,-1455.581446,-0.000000,10510.924376
2697.788067,0.000000,-296.082377,11473.192101
2697.788396,1608.800546,222.061783,9030.512492
2697.788725,2145.067394,1110.308913,7624.121203
2697.789054,1685.410096,1776.494261,7550.100608
2697.789383,612.876398,1332.370696,8290.306550
2697.789712,766.095498,1628.453072,8734.430116
2697.790041,1072.533697,666.185348,9030.512492
2697.790370,-306.438199,-592.164754,9178.553681
2697.790699,-1685.410096,-1924.535449,9844.739029
2697.791028,-2145.067394,-2738.761985,10288.862594
2697.791357,-2298.286494,-2812.782580,10288.862594
2697.791686,-1608.800546,-1332.370696,9770.718434
2697.792015,-536.266849,-1036.288319,9918.759623
2697.792344,459.657299,370.102971,9918.759623
2697.792673,1991.848295,740.205942,7846.182985
2697.793002,3524.039291,592.164754,8290.306550
2697.793331,4673.182538,1924.535449,7402.059420
2697.793660,4519.963438,2516.700203,6365.771101
2697.793989,2834.553343,2516.700203,6513.812290
2697.794318,2451.505594,1554.432478,7920.203579
2697.794647,2145.067394,814.226536,7994.224174
2697.794976,995.924147,-962.267725,8586.388927
2697.795306,-842.705048,-2368.659014,9696.697840
2697.795635,-1685.410096,-3627.009116,10658.965565
2697.795964,-1915.238745,-3182.885551,10140.821405
2697.796293,-2604.724693,-1776.494261,9918.759623
2697.796622,-1608.800546,-1480.411884,10732.986159
2697.796951,-1149.143247,-962.267725,10140.821405
2697.797280,76.609550,-444.123565,10288.862594
2697.797609,2604.724693,592.164754,7994.224174
2697.797938,3983.696590,1110.308913,8660.409521
2697.798267,3677.258390,2368.659014,7105.977043
2697.798596,3753.867940,3849.070898,7031.956449
2697.798925,1915.238745,2738.761985,7476.080014
2697.799254,1838.629195,2812.782580,7550.100608
2697.799583,1532.190996,-518.144159,8808.450710
2697.799912,-459.657299,-1184.329507,9918.759623
2697.800241,-2374.896044,-3034.844362,11695.253884
2697.800570,-3217.601092,-3627.009116,11547.212695
2697.800899,-2757.943793,-3256.906145,11029.068536
2697.801228,-2068.457845,-888.247130,10658.965565
2697.801557,-1991.848295,-296.082377,10140.821405
2697.801886,-2374.896044,-296.082377,9918.759623
2697.802215,153.219100,-0.000000,10658.965565
2697.802544,2068.457845,962.267725,8512.368333
2697.802873,3600.648841,2072.576638,7846.182985
2697.803202,2987.772442,1850.514855,6809.894666
2697.803531,2221.676944,2664.741391,7105.977043
2697.803860,1072.533697,1998.556043,7846.182985
2697.804189,1225.752797,592.164754,7476.080014
2697.804518,536.266849,-592.164754,9474.636058
2697.804847,-995.924147,-2294.638420,10732.986159
2697.805176,-2221.676944,-3627.009116,10658.965565
2697.805505,-1915.238745,-3775.050304,10584.944971
2697.805834,-1762.019645,-1776.494261,9548.656652
2697.806163,-1608.800546,-888.247130,10436.903782
2697.806492,-1302.362347,-740.205942,9918.759623
2697.806821,536.266849,1110.308913,9770.718434
2697.807150,2298.286494,518.144159,7920.203579
2697.807479,3600.648841,1110.308913,7994.224174
2697.807808,2681.334243,1702.473667,5995.668130
2697.808137,2298.286494,2368.659014,6883.915261
2697.808466,536.266849,2812.782580,6809.894666
2697.808795,1532.190996,518.144159,7105.977043
2697.809124,0.000000,-518.144159,8438.347739
2697.809453,-2145.067394,-2294.638420,10066.800811
2697.809782,-2374.896044,-3775.050304,10584.944971
2697.810111,-2451.505594,-3701.029710,9992.780217
2697.810440,-2145.067394,-1924.535449,9992.780217
2697.810769,-1608.800546,-1258.350101,10807.006753
2697.811098,-2451.505594,-0.000000,9992.780217
2697.811427,-1302.362347,-0.000000,10066.800811
2697.811756,76.609550,222.061783,10584.944971
2697.812085,1455.581446,148.041188,8808.450710
2697.812414,2604.724693,1554.432478,8512.368333
2697.812743,2834.553343,1554.432478,7031.956449
2697.813072,1225.752797,2442.679609,7476.080014
2697.813401,1149.143247,1184.329507,8438.347739
2697.813730,1225.752797,518.144159,7624.121203
2697.814059,612.876398,-222.061783,8660.409521
2697.814388,-383.047749,-2146.597232,9992.780217
2697.814717,-1149.143247,-3108.864956,9770.718434
2697.815046,-1685.410096,-3256.906145,10510.924376
2697.815375,-1762.019645,-1702.473667,10362.883188
2697.815704,-919.314598,-1406.391290,11029.068536
2697.816033,0.000000,-888.247130,10584.944971
2697.816362,1378.971896,1110.308913,8734.430116
2697.816691,3140.991542,1036.288319,9326.594869
2697.817020,3294.210641,1332.370696,7994.224174
2697.817349,3830.477490,2294.638420,8216.285956
2697.817678,3370.820191,2960.823768,8068.244768
2697.818007,2068.457845,2368.659014,8068.244768
2697.818336,1915.238745,962.267725,8290.306550
2697.818665,919.314598,-0.000000,8364.327145
2697.818994,0.000000,-1554.432478,8438.347739
2697.819323,-1302.362347,-2294.638420,9622.677246
2697.819652,-1378.971896,-3775.050304,10881.027347
2697.819981,-842.705048,-1998.556043,9400.615463
2697.820310,-1455.581446,-1110.308913,9548.656652
2697.820639,-1532.190996,-1184.329507,11029.068536
2697.820968,842.705048,-740.205942,9548.656652
2697.821297,1455.581446,666.185348,8512.368333
2697.821626,3217.601092,1258.350101,7846.182985
2697.821955,3447.429741,888.247130,7994.224174
2697.822284,2757.943793,1628.453072,7920.203579
2697.822613,2451.505594,2368.659014,7550.100608
2697.822942,1455.581446,1332.370696,8364.327145
2697.823271,306.438199,444.123565,7550.100608
2697.823600,76.609550,-74.020594,8734.430116
2697.823929,-1608.800546,-2146.597232,9844.739029
2697.824259,-2221.676944,-3330.926739,10140.821405
2697.824588,-2374.896044,-3775.050304,9696.697840
2697.824917,-2451.505594,-2146.597232,10214.842000
2697.825246,-2911.162892,-1850.514855,10436.903782
2697.825575,-2374.896044,-814.226536,9696.697840
2697.825904,-153.219100,-74.020594,9474.636058
2697.826233,919.314598,740.205942,9104.533087
2697.826562,2374.896044,1480.411884,8142.265362
2697.826891,2834.553343,2294.638420,7624.121203
2697.827220,2604.724693,1036.288319,7846.182985
2697.827549,1838.629195,1924.535449,7772.162391
2697.827878,995.924147,666.185348,7550.100608
2697.828207,842.705048,148.041188,7624.121203
2697.828536,229.828649,-74.020594,9548.656652
2697.828865,-612.876398,-2220.617826,9622.677246
2697.829194,-1225.752797,-2664.741391,9400.615463
2697.829523,-766.095498,-2812.782580,10140.821405
2697.829852,-1685.410096,-1184.329507,9918.759623
2697.830181,-1072.533697,-1332.370696,10288.862594
2697.830510,-306.438199,-666.185348,9622.677246
2697.830839,1302.362347,-222.061783,9992.780217
2697.831168,2298.286494,444.123565,9400.615463
2697.831497,2451.505594,666.185348,7920.203579
2697.831826,2834.553343,1850.514855,8512.368333
2697.832155,2528.115143,2442.679609,7846.182985
2697.832484,1532.190996,1924.535449,8512.368333
2697.832813,1149.143247,1036.288319,7846.182985
2697.833142,383.047749,814.226536,8142.265362
2697.833471,-383.047749,-1258.350101,10288.862594
2697.833800,-1302.362347,-2294.638420,9326.594869
2697.834129,-1762.019645,-2442.679609,10288.862594
2697.834458,-2987.772442,-2368.659014,11695.253884
2697.834787,-2834.553343,-1702.473667,10066.800811
2697.835116,-1991.848295,-444.123565,9918.759623
2697.835445,-1072.533697,-740.205942,9548.656652
2697.835774,306.438199,-592.164754,10510.924376
2697.836103,1072.533697,962.267725,9104.533087
2697.836432,1532.190996,296.082377,8512.368333
2697.836761,2374.896044,1702.473667,7550.100608
2697.837090,1455.581446,2220.617826,7994.224174
2697.837419,1072.533697,2516.700203,7254.018232
2697.837748,2374.896044,1110.308913,7698.141797
2697.838077,1915.238745,148.041188,7994.224174
2697.838406,612.876398,-1184.329507,8512.368333
2697.838735,842.705048,-2294.638420,9474.636058
2697.839064,-1532.190996,-1480.411884,9104.533087
2697.839393,-1532.190996,-1036.288319,9918.759623
2697.839722,-1915.238745,-1628.453072,10436.903782
2697.840051,0.000000,-1110.308913,9178.553681
2697.840380,842.705048,-0.000000,9992.780217
2697.840709,1685.410096,-370.102971,9696.697840
2697.841038,1915.238745,370.102971,8216.285956
2697.841367,2374.896044,962.267725,8438.347739
2697.841696,2604.724693,1406.391290,8660.409521
2697.842025,2221.676944,1554.432478,7624.121203
2697.842354,2451.505594,1480.411884,7994.224174
2697.842683,2528.115143,814.226536,8142.265362
2697.843012,1762.019645,-592.164754,9030.512492
2697.843341,1072.533697,-1776.494261,9474.636058
2697.843670,459.657299,-1998.556043,8956.491898
2697.843999,-153.219100,-1258.350101,9326.594869
2697.844328,-536.266849,-1480.411884,9844.739029
2697.844657,-689.485948,-1110.308913,9770.718434
2697.844986,0.000000,-740.205942,9844.739029
2697.845315,459.657299,-444.123565,9474.636058
2697.845644,229.828649,-74.020594,8956.491898
2697.845973,76.609550,-0.000000,8956.491898
2697.846302,76.609550,888.247130,9326.594869
2697.846631,306.438199,1184.329507,9104.533087
2697.846960,-383.047749,962.267725,8660.409521
2697.847289,-536.266849,444.123565,8512.368333
2697.847618,-842.705048,-296.082377,8808.450710
2697.847947,-995.924147,-1480.411884,9474.636058
2697.848276,-536.266849,-518.144159,8956.491898
2697.848605,-1149.143247,-666.185348,9474.636058
2697.848934,-1838.629195,-518.144159,9474.636058
2697.849263,-1455.581446,-222.061783,9474.636058
2697.849592,-536.266849,-740.205942,8956.491898
2697.849921,153.219100,444.123565,9400.615463
2697.850250,689.485948,-0.000000,8882.471304
2697.850579,383.047749,-0.000000,8808.450710
2697.850908,-459.657299,-0.000000,9326.594869
2697.851237,-842.705048,518.144159,9030.512492
2697.851566,-1302.362347,-1036.288319,10066.800811
2697.851895,-689.485948,-0.000000,8290.306550
2697.852224,1072.533697,-370.102971,9326.594869
2697.852553,229.828649,-962.267725,7920.203579
2697.852882,919.314598,-1110.308913,8586.388927
2697.853212,1072.533697,-592.164754,8882.471304
2697.853541,842.705048,-0.000000,7476.080014
2697.853870,1455.581446,-222.061783,9474.636058
2697.854199,1838.629195,-0.000000,7846.182985
2697.854528,1532.190996,-296.082377,8734.430116
2697.854857,1608.800546,-74.020594,9474.636058
2697.855186,2145.067394,-0.000000,8364.327145
2697.855515,1378.971896,148.041188,8734.430116
2697.855844,0.000000,592.164754,9548.656652
2697.856173,0.000000,-0.000000,9844.739029
2697.856502,-1072.533697,-518.144159,9474.636058
2697.856831,-459.657299,-666.185348,9252.574275
2697.857160,-842.705048,-1110.308913,9548.656652
2697.857489,-383.047749,-1480.411884,10140.821405
2697.857818,0.000000,-962.267725,9992.780217
2697.858147,76.609550,-222.061783,8882.471304
2697.858476,-612.876398,-296.082377,8882.471304
2697.858805,1072.533697,1332.370696,7698.141797
2697.859134,2757.943793,-0.000000,9252.574275
2697.859463,2068.457845,962.267725,7846.182985
2697.859792,2145.067394,740.205942,8808.450710
2697.860121,1685.410096,740.205942,9104.533087
2697.860450,1072.533697,1406.391290,8586.388927
2697.860779,919.314598,666.185348,8808.450710
2697.861108,-612.876398,-0.000000,9030.512492
2697.861437,-1149.143247,-592.164754,9548.656652
2697.861766,-306.438199,-962.267725,9992.780217
2697.862095,-919.314598,-518.144159,10066.800811
2697.862424,-306.438199,-2072.576638,10436.903782
2697.862753,-842.705048,-1258.350101,9696.697840
2697.863082,-689.485948,-370.102971,9992.780217
2697.863411,0.000000,-444.123565,9178.553681
2697.863740,1915.238745,-0.000000,8882.471304
2697.864069,2757.943793,592.164754,8142.265362
2697.864398,2834.553343,-0.000000,8364.327145
2697.864727,3447.429741,444.123565,7772.162391
2697.865056,3447.429741,-0.000000,8142.265362
2697.865385,1302.362347,962.267725,7698.141797
2697.865714,689.485948,1258.350101,9474.636058
2697.866043,0.000000,-1036.288319,9474.636058
2697.866372,-689.485948,-1036.288319,9474.636058
2697.866701,-612.876398,-1924.535449,10140.821405
2697.867030,-995.924147,-2146.597232,10066.800811
2697.867359,-1915.238745,-1406.391290,9992.780217
2697.867688,-995.924147,-962.267725,10214.842000
2697.868017,-1072.533697,-814.226536,9326.594869
2697.868346,76.609550,-0.000000,8364.327145
2697.868675,1225.752797,-148.041188,8216.285956
2697.869004,1378.971896,740.205942,8142.265362
2697.869333,2145.067394,444.123565,8808.450710
2697.869662,2145.067394,814.226536,7624.121203
2697.869991,-153.219100,1184.329507,7550.100608
2697.870320,-306.438199,592.164754,9326.594869
2697.870649,-1225.752797,222.061783,8586.388927
2697.870978,-1608.800546,-1110.308913,9400.615463
2697.871307,-1685.410096,-1110.308913,9474.636058
2697.871636,-2145.067394,-2220.617826,10140.821405
2697.871965,-1838.629195,-1850.514855,10510.924376
2697.872294,-1685.410096,-666.185348,9548.656652
2697.872623,-1915.238745,-222.061783,9474.636058
2697.872952,-1762.019645,-444.123565,9326.594869
2697.873281,-536.266849,-222.061783,9252.574275
2697.873610,306.438199,-1258.350101,9178.553681
2697.873939,995.924147,-518.144159,9178.553681
2697.874268,1225.752797,-444.123565,9030.512492
2697.874597,1991.848295,148.041188,7179.997637
2697.874926,1455.581446,1702.473667,8882.471304
2697.875255,1149.143247,1628.453072,8290.306550
2697.875584,1762.019645,592.164754,7031.956449
2697.875913,1762.019645,740.205942,8808.450710
2697.876242,612.876398,-888.247130,10066.800811
2697.876571,-306.438199,-1998.556043,10066.800811
2697.876900,153.219100,-1850.514855,10288.862594
2697.877229,-229.828649,-444.123565,9474.636058
2697.877558,-153.219100,-148.041188,10732.986159
2697.877887,689.485948,-666.185348,9622.677246
2697.878216,2068.457845,444.123565,8290.306550
2697.878545,3140.991542,370.102971,8290.306550
2697.878874,2374.896044,518.144159,8660.409521
2697.879203,1991.848295,-0.000000,8438.347739
2697.879532,2451.505594,592.164754,7179.997637
2697.879861,766.095498,962.267725,9326.594869
2697.880190,153.219100,518.144159,8660.409521
2697.880519,306.438199,-1110.308913,9178.553681
2697.880848,-766.095498,-1258.350101,10214.842000
2697.881177,-306.438199,-1036.288319,10807.006753
2697.881506,-383.047749,-2072.576638,10658.965565
2697.881836,-306.438199,-592.164754,9770.718434
2697.882165,-383.047749,148.041188,9326.594869
2697.882494,689.485948,814.226536,9400.615463
2697.882823,2068.457845,740.205942,7920.203579
2697.883152,2834.553343,1036.288319,7846.182985
2697.883481,2604.724693,1850.514855,7994.224174
2697.883810,3677.258390,1258.350101,7624.121203
2697.884139,2068.457845,1184.329507,6587.832884
2697.884468,842.705048,2146.597232,8216.285956
2697.884797,-383.047749,-0.000000,9326.594869
2697.885126,-1991.848295,-1702.473667,8512.368333
2697.885455,-1838.629195,-2442.679609,10214.842000
2697.885784,-1685.410096,-2886.803174,10881.027347
2697.886113,-2451.505594,-3034.844362,10955.047942
2697.886442,-2145.067394,-2368.659014,9992.780217
2697.886771,-1915.238745,-814.226536,10066.800811
2697.887100,-1455.581446,666.185348,9844.739029
2697.887429,0.000000,-0.000000,9622.677246
2697.887758,2451.505594,-370.102971,9104.533087
2697.888087,3217.601092,-0.000000,8438.347739
2697.888416,4290.134789,1184.329507,6439.791695
2697.888745,3830.477490,1110.308913,6661.853478
2697.889074,2298.286494,2368.659014,7254.018232
2697.889403,2221.676944,2812.782580,8512.368333
2697.889732,1532.190996,-0.000000,7624.121203
2697.890061,-919.314598,-1184.329507,9030.512492
2697.890390,-1838.629195,-2294.638420,10732.986159
2697.890719,-2451.505594,-3849.070898,11473.192101
2697.891048,-2987.772442,-3701.029710,11695.253884
2697.891378,-2528.115143,-1554.432478,10214.842000
2697.891707,-2145.067394,-1110.308913,10510.924376
2697.892036,-1991.848295,518.144159,10881.027347
2697.892365,536.266849,444.123565,8808.450710
2697.892694,1302.362347,296.082377,8438.347739
2697.893023,2834.553343,1924.535449,7846.182985
2697.893352,2681.334243,1184.329507,7772.162391
2697.893681,2681.334243,3108.864956,6809.894666
2697.894010,1072.533697,1924.535449,7254.018232
2697.894339,919.314598,1776.494261,7994.224174
2697.894668,919.314598,-0.000000,8512.368333
2697.894997,-995.924147,-1184.329507,9104.533087
2697.895327,-1991.848295,-2738.761985,10584.944971
2697.895656,-2911.162892,-2442.679609,11029.068536
2697.895985,-2911.162892,-2886.803174,10584.944971
2697.896314,-2604.724693,-296.082377,9770.718434
2697.896643,-2681.334243,-148.041188,9696.697840
2697.896972,-1838.629195,-222.061783,8882.471304
2697.897301,-842.705048,592.164754,8882.471304
2697.897630,153.219100,-296.082377,10362.883188
2697.897959,459.657299,666.185348,7328.038826
2697.898288,1685.410096,1628.453072,7402.059420
2697.898617,-306.438199,1850.514855,6809.894666
2697.898946,-842.705048,1332.370696,8438.347739
2697.899275,-1149.143247,-0.000000,7994.224174
2697.899605,-1302.362347,-888.247130,8142.265362
2697.899934,-1762.019645,-1998.556043,9696.697840
2697.900263,-2834.553343,-2294.638420,10436.903782
2697.900592,-3907.087040,-2368.659014,9326.594869
2697.900921,-3370.820191,-1036.288319,10584.944971
2697.901250,-2681.334243,-814.226536,9548.656652
2697.901579,-3524.039291,-222.061783,9918.759623
2697.901908,-2298.286494,-888.247130,10732.986159
2697.902237,-1225.752797,-148.041188,8882.471304
2697.902566,-2068.457845,-1332.370696,9104.533087
2697.902895,-1532.190996,-444.123565,9622.677246
2697.903224,-995.924147,962.267725,8142.265362
2697.903554,0.000000,1850.514855,7179.997637
2697.903883,-306.438199,1332.370696,7254.018232
2697.904212,0.000000,296.082377,7476.080014
2697.904541,-1225.752797,-0.000000,7550.100608
2697.904870,-1378.971896,-0.000000,7994.224174
2697.905199,-2374.896044,-1850.514855,9474.636058
2697.905528,-3677.258390,-1850.514855,10955.047942
2697.905857,-3753.867940,-888.247130,9844.739029
2697.906186,-3677.258390,-592.164754,10362.883188
2697.906515,-3677.258390,-0.000000,9548.656652
2697.906844,-2374.896044,74.020594,9918.759623
2697.907173,-2145.067394,1258.350101,9178.553681
2697.907503,-1762.019645,1554.432478,7328.038826
2697.907832,-2298.286494,-0.000000,8290.306550
2697.908161,-3753.867940,814.226536,8660.409521
2697.908490,-4519.963438,1036.288319,8290.306550
2697.908819,-3294.210641,-0.000000,7179.997637
2697.909148,-3294.210641,-1036.288319,7994.224174
2697.909477,-3983.696590,-814.226536,9770.718434
2697.909806,-4290.134789,-518.144159,9178.553681
2697.910135,-4519.963438,-296.082377,7920.203579
2697.910464,-4903.011187,-1332.370696,9400.615463
2697.910793,-5745.716235,-1480.411884,11547.212695
2697.911122,-6128.763984,-2146.597232,12657.521608
2697.911452,-5898.935335,-2220.617826,11621.233289
2697.911781,-3753.867940,-1628.453072,10881.027347
2697.912110,-3064.381992,-0.000000,9474.636058
2697.912439,-2298.286494,296.082377,9696.697840
2697.912768,-1225.752797,1554.432478,8290.306550
2697.913097,-229.828649,1998.556043,9548.656652
2697.913426,995.924147,666.185348,7105.977043
2697.913755,1762.019645,1184.329507,5921.647536
2697.914084,1225.752797,148.041188,7254.018232
2697.914413,76.609550,962.267725,5699.585753
2697.914742,306.438199,518.144159,8290.306550
2697.915071,-1838.629195,-222.061783,8586.388927
2697.915400,-2374.896044,-1332.370696,10362.883188
2697.915730,-2604.724693,-1628.453072,10658.965565
2697.916059,-2987.772442,-1036.288319,9030.512492
2697.916388,-3217.601092,-444.123565,9992.780217
2697.916717,-3294.210641,-518.144159,10214.842000
2697.917046,-2451.505594,-1702.473667,10362.883188
2697.917375,-2681.334243,-1554.432478,9622.677246
2697.917704,-1838.629195,-148.041188,8956.491898
2697.918033,-2451.505594,296.082377,8142.265362
2697.918362,-1991.848295,592.164754,8216.285956
2697.918691,-1532.190996,1110.308913,8216.285956
2697.919020,-1455.581446,-74.020594,8068.244768
2697.919349,-1302.362347,-0.000000,8290.306550
2697.919679,-1378.971896,814.226536,7846.182985
2697.920008,-2068.457845,1258.350101,7254.018232
2697.920337,-2068.457845,-148.041188,8142.265362
2697.920666,-1838.629195,-740.205942,9252.574275
2697.920995,-2451.505594,-1480.411884,10436.903782
2697.921324,-3447.429741,-518.144159,9844.739029
2697.921653,-3600.648841,666.185348,9178.553681
2697.921982,-3294.210641,1036.288319,8586.388927
2697.922311,-3983.696590,666.185348,9104.533087
2697.922640,-3753.867940,-1850.514855,10288.862594
2697.922969,-3447.429741,-1406.391290,10658.965565
2697.923298,-4060.306139,-1480.411884,10066.800811
2697.923628,-3830.477490,-592.164754,9474.636058
2697.923957,-3753.867940,-740.205942,9400.615463
2697.924286,-2987.772442,-1036.288319,9696.697840
2697.924615,-2298.286494,-222.061783,9030.512492
2697.924944,-1838.629195,-0.000000,8512.368333
2697.925273,-2298.286494,296.082377,8290.306550
2697.925602,-1838.629195,-0.000000,8512.368333
2697.925931,-2834.553343,666.185348,8512.368333
2697.926260,-2911.162892,592.164754,8290.306550
2697.926589,-3140.991542,296.082377,8512.368333
2697.926918,-2911.162892,222.061783,8882.471304
2697.927247,-2911.162892,148.041188,8882.471304
2697.927577,-3140.991542,-0.000000,8882.471304
2697.927906,-3677.258390,-1110.308913,9474.636058
2697.928235,-3140.991542,-814.226536,9474.636058
2697.928564,-2757.943793,-740.205942,9030.512492
2697.928893,-2451.505594,-370.102971,8956.491898
2697.929222,-1838.629195,-444.123565,8364.327145
2697.929551,-1608.800546,296.082377,8364.327145
2697.929880,-1915.238745,-740.205942,8660.409521
2697.930209,-2374.896044,-1036.288319,9326.594869
2697.930538,-3294.210641,-1110.308913,9474.636058
2697.930867,-2911.162892,-148.041188,9252.574275
2697.931196,-3140.991542,592.164754,9252.574275
2697.931526,-3140.991542,962.267725,8956.491898
2697.931855,-3600.648841,814.226536,9030.512492
2697.932184,-3447.429741,-0.000000,9178.553681
2697.932513,-3753.867940,-1110.308913,9326.594869
2697.932842,-2911.162892,-1924.535449,9474.636058
2697.933171,-2528.115143,-1554.432478,9474.636058
2697.933500,-2374.896044,-1258.350101,8808.450710
2697.933829,-1532.190996,-0.000000,8512.368333
2697.934158,-1378.971896,592.164754,8586.388927
2697.934487,-1532.190996,518.144159,9104.533087
2697.934816,-1302.362347,-0.000000,9326.594869
2697.935145,-995.924147,-0.000000,8734.430116
2697.935474,-919.314598,-0.000000,7920.203579
2697.935804,-1685.410096,-0.000000,8438.347739
2697.936133,-2604.724693,-0.000000,9104.533087
2697.936462,-2681.334243,-888.247130,9918.759623
2697.936791,-2834.553343,-666.185348,9178.553681
2697.937120,-2221.676944,-518.144159,8882.471304
2697.937449,-2145.067394,-370.102971,9474.636058
2697.937778,-2911.162892,-74.020594,8956.491898
2697.938107,-2528.115143,-296.082377,9474.636058
2697.938436,-2145.067394,148.041188,8586.388927
2697.938765,-1302.362347,222.061783,8512.368333
2697.939094,-919.314598,518.144159,7994.224174
2697.939423,-1378.971896,370.102971,7624.121203
2697.939753,-1991.848295,-592.164754,9400.615463
2697.940082,-1149.143247,-814.226536,8882.471304
2697.940411,-1378.971896,-962.267725,9252.574275
2697.940740,-1915.238745,-740.205942,9474.636058
2697.941069,-2068.457845,-148.041188,9178.553681
2697.941398,-2145.067394,-296.082377,9474.636058
2697.941727,-2145.067394,-0.000000,8956.491898
2697.942056,-1762.019645,-0.000000,9252.574275
2697.942385,-2221.676944,666.185348,9178.553681
2697.942714,-2451.505594,888.247130,8660.409521
2697.943043,-2681.334243,962.267725,8364.327145
2697.943372,-2604.724693,666.185348,7772.162391
2697.943702,-2834.553343,-0.000000,8438.347739
2697.944031,-2911.162892,-518.144159,8438.347739
2697.944360,-3524.039291,-592.164754,9252.574275
2697.944689,-3830.477490,-2146.597232,9548.656652
2697.945018,-4749.792088,-2146.597232,10436.903782
2697.945347,-5439.278036,-2442.679609,10881.027347
2697.945676,-5515.887586,-2294.638420,11251.130318
2697.946005,-5745.716235,-1998.556043,11177.109724
2697.946334,-4826.401637,-1554.432478,11177.109724
2697.946663,-3907.087040,-74.020594,10288.862594
2697.946992,-2911.162892,814.226536,9326.594869
2697.947321,-1915.238745,1850.514855,8216.285956
2697.947651,-1225.752797,2368.659014,7624.121203
2697.947980,-995.924147,2886.803174,6217.729913
2697.948309,-1838.629195,2146.597232,7846.182985
2697.948638,-1225.752797,1258.350101,7550.100608
2697.948967,-1072.533697,888.247130,7402.059420
2697.949296,-2374.896044,-0.000000,7476.080014
2697.949625,-2451.505594,444.123565,6957.935855
2697.949954,-2528.115143,-0.000000,8808.450710
2697.950283,-3217.601092,814.226536,8290.306550
2697.950612,-2681.334243,1554.432478,9326.594869
2697.950941,-2604.724693,1480.411884,9400.615463
2697.951270,-2834.553343,2072.576638,9918.759623
2697.951599,-3677.258390,1554.432478,9474.636058
2697.951929,-4596.572988,-370.102971,11769.274478
2697.952258,-4366.744339,-0.000000,11251.130318
2697.952587,-2757.943793,-592.164754,11029.068536
2697.952916,-2068.457845,444.123565,10436.903782
2697.953245,-612.876398,592.164754,9178.553681
2697.953574,-919.314598,1110.308913,8068.244768
2697.953903,-842.705048,1110.308913,10362.883188
2697.954232,2221.676944,1702.473667,9918.759623
2697.954561,2604.724693,3701.029710,5699.585753
2697.954890,4366.744339,3923.091493,7698.141797
2697.955219,2757.943793,5255.462188,5625.565159
2697.955548,4136.915689,4441.235652,8290.306550
2697.955878,2221.676944,4071.132681,7920.203579
2697.956207,2374.896044,3256.906145,8882.471304
2697.956536,459.657299,2294.638420,11325.150913
2697.956865,-842.705048,2664.741391,9918.759623
2697.957194,-1608.800546,1110.308913,11473.192101
2697.957523,-2298.286494,1554.432478,10584.944971
2697.957852,-383.047749,1628.453072,11103.089130
2697.958181,76.609550,1258.350101,10362.883188
2697.958510,612.876398,3404.947333,8660.409521
2697.958839,1685.410096,3256.906145,7179.997637
2697.959168,2604.724693,3034.844362,7328.038826
2697.959497,2451.505594,5329.482782,5847.626942
2697.959827,2451.505594,4737.318029,7402.059420
2697.960156,1838.629195,4737.318029,7994.224174
2697.960485,0.000000,3849.070898,8364.327145
2697.960814,-1225.752797,3034.844362,9400.615463
2697.961143,-3370.820191,2294.638420,10140.821405
2697.961472,-3064.381992,592.164754,11843.295072
2697.961801,-3524.039291,1554.432478,9696.697840
2697.962130,-2911.162892,2072.576638,10288.862594
2697.962459,-2757.943793,2590.720797,10066.800811
2697.962788,-3294.210641,1702.473667,10658.965565
2697.963117,-2451.505594,1480.411884,10510.924376
2697.963446,-1685.410096,2220.617826,9548.656652
2697.963776,-1072.533697,2590.720797,8290.306550
2697.964105,-1225.752797,2368.659014,8512.368333
2697.964434,-1225.752797,1998.556043,9992.780217
2697.964763,1685.410096,2960.823768,10288.862594
2697.965092,1838.629195,5477.523971,5329.482782
2697.965421,4596.572988,4293.194464,8438.347739
2697.965750,2911.162892,5699.585753,6069.688724
2697.966079,3217.601092,6291.750507,7402.059420
2697.966408,1685.410096,6291.750507,7105.977043
2697.966737,1915.238745,6143.709319,7476.080014
2697.967066,842.705048,5181.441594,8512.368333
2697.967395,0.000000,4219.173869,9474.636058
2697.967724,-2834.553343,962.267725,11695.253884
2697.968054,-3064.381992,-370.102971,11473.192101
2697.968383,-1378.971896,1258.350101,11399.171507
2697.968712,-1072.533697,-518.144159,11399.171507
2697.969041,-1838.629195,2442.679609,9918.759623
2697.969370,-689.485948,2368.659014,9844.739029
2697.969699,919.314598,2294.638420,9918.759623
2697.970028,1838.629195,4959.379811,7476.080014
2697.970357,4060.306139,4145.153275,7920.203579
2697.970686,3830.477490,4441.235652,7254.018232
2697.971015,3140.991542,5921.647536,7254.018232
2697.971344,2221.676944,4811.338623,6809.894666
2697.971673,766.095498,3849.070898,7624.121203
2697.972003,689.485948,2886.803174,9474.636058
2697.972332,-1532.190996,444.123565,11399.171507
2697.972661,-2987.772442,-370.102971,11251.130318
2697.972990,-2911.162892,518.144159,11177.109724
2697.973319,-1762.019645,-1258.350101,10584.944971
2697.973648,-2528.115143,962.267725,9696.697840
2697.973977,-1225.752797,1110.308913,9622.677246
2697.974306,-612.876398,1628.453072,8882.471304
2697.974635,2374.896044,1184.329507,10584.944971
2697.974964,3677.258390,3256.906145,5773.606348
2697.975293,4060.306139,3034.844362,8438.347739
2697.975622,2987.772442,3552.988522,6587.832884
2697.975952,4290.134789,4663.297435,6513.812290
2697.976281,2681.334243,4219.173869,7402.059420
2697.976610,2298.286494,5477.523971,6069.688724
2697.976939,2145.067394,3478.967927,8882.471304
2697.977268,0.000000,2294.638420,8290.306550
2697.977597,-3294.210641,-2368.659014,12805.562797
2697.977926,-3983.696590,-1998.556043,11917.315666
2697.978255,-2911.162892,814.226536,11325.150913
2697.978584,-3294.210641,-1110.308913,11177.109724
2697.978913,-2757.943793,2664.741391,10066.800811
2697.979242,-766.095498,2738.761985,8882.471304
2697.979571,-153.219100,3182.885551,8142.265362
2697.979901,0.000000,2664.741391,9844.739029
2697.980230,3447.429741,1998.556043,9548.656652
2697.980559,2834.553343,3627.009116,5921.647536
2697.980888,3600.648841,5699.585753,7031.956449
2697.981217,2451.505594,5625.565159,3997.112087
2697.981546,4519.963438,3256.906145,9326.594869
2697.981875,1991.848295,5921.647536,5403.503377
2697.982204,3600.648841,4441.235652,8068.244768
2697.982533,153.219100,5033.400406,6587.832884
2697.982862,-1838.629195,2960.823768,9548.656652
2697.983191,-5286.058936,-2516.700203,15322.262999
2697.983520,-5132.839837,444.123565,11843.295072
2697.983849,-2604.724693,1406.391290,10955.047942
2697.984179,-2298.286494,-3775.050304,11547.212695
2697.984508,-3370.820191,2442.679609,11177.109724
2697.984837,0.000000,1776.494261,8586.388927
2697.985166,-2834.553343,3182.885551,7624.121203
2697.985495,-919.314598,2146.597232,12139.377449
2697.985824,3140.991542,2146.597232,8512.368333
2697.986153,3830.477490,5329.482782,5847.626942
2697.986482,2681.334243,3923.091493,8216.285956
2697.986811,2834.553343,3701.029710,5551.544565
2697.987140,3447.429741,5107.421000,9474.636058
2697.987469,229.828649,5551.544565,6439.791695
2697.987798,306.438199,6291.750507,8660.409521
2697.988128,-1149.143247,5403.503377,9918.759623
2697.988457,-306.438199,2886.803174,7994.224174
2697.988786,-3370.820191,1036.288319,13693.809927
2697.989115,-3524.039291,-962.267725,11029.068536
2697.989444,-1762.019645,666.185348,10658.965565
2697.989773,-1378.971896,-3256.906145,11843.295072
2697.990102,-2068.457845,2664.741391,7179.997637
2697.990431,0.000000,1924.535449,11991.336260
2697.990760,919.314598,4071.132681,8438.347739
2697.991089,2911.162892,7031.956449,8142.265362
2697.991418,3140.991542,6069.688724,6809.894666
2697.991747,2451.505594,5921.647536,8808.450710
2697.992076,0.000000,5551.544565,9844.739029
2697.992405,383.047749,5477.523971,7624.121203
2697.992734,76.609550,4367.215058,7846.182985
2697.993063,1608.800546,2738.761985,8882.471304
2697.993392,919.314598,1332.370696,10584.944971
2697.993721,-536.266849,-74.020594,11325.150913
2697.994050,-612.876398,1554.432478,9400.615463
2697.994379,153.219100,666.185348,9696.697840
2697.994709,229.828649,3478.967927,8142.265362
2697.995038,76.609550,5033.400406,9030.512492
2697.995367,229.828649,3627.009116,8216.285956
2697.995696,766.095498,2590.720797,7994.224174
2697.996025,3524.039291,3627.009116,7772.162391
2697.996354,3600.648841,3478.967927,7772.162391
2697.996683,1455.581446,3404.947333,8216.285956
2697.997012,766.095498,2664.741391,8364.327145
2697.997341,766.095498,3256.906145,7624.121203
2697.997670,842.705048,3404.947333,9918.759623
2697.997999,-383.047749,1184.329507,10436.903782
2697.998328,-1685.410096,3552.988522,10362.883188
2697.998657,-2221.676944,-0.000000,10807.006753
2697.998986,-1225.752797,-1480.411884,11029.068536
2697.999315,-995.924147,-296.082377,11177.109724
2697.999644,-842.705048,370.102971,10732.986159
2697.999973,0.000000,2664.741391,9474.636058
2698.000302,2068.457845,2442.679609,7402.059420
2698.000631,3983.696590,4293.194464,7105.977043
2698.000960,1532.190996,3849.070898,7772.162391
2698.001289,153.219100,3849.070898,8364.327145
2698.001618,842.705048,3330.926739,8142.265362
2698.001947,2604.724693,3404.947333,7994.224174
2698.002276,1608.800546,4071.132681,6439.791695
2698.002605,0.000000,1850.514855,9548.656652
2698.002934,-1378.971896,-1480.411884,11177.109724
2698.003263,-1149.143247,-0.000000,9918.759623
2698.003592,-2145.067394,740.205942,9622.677246
2698.003922,-4060.306139,444.123565,10066.800811
2698.004251,-3447.429741,518.144159,11917.315666
2698.004580,-1608.800546,1258.350101,8808.450710
2698.004909,-1225.752797,1110.308913,8216.285956
2698.005238,-536.266849,740.205942,9104.533087
2698.005567,1225.752797,222.061783,9400.615463
2698.005896,1915.238745,2220.617826,7254.018232
2698.006225,1915.238745,2294.638420,6439.791695
2698.006554,1455.581446,1184.329507,7846.182985
2698.006883,1838.629195,518.144159,9474.636058
2698.007212,2528.115143,1702.473667,8882.471304
2698.007541,1991.848295,1332.370696,8586.388927
2698.007870,0.000000,1480.411884,9030.512492
2698.008199,-306.438199,518.144159,11399.171507
2698.008528,-766.095498,1258.350101,9474.636058
2698.008857,-1915.238745,666.185348,9622.677246
2698.009186,-842.705048,-592.164754,10732.986159
2698.009515,0.000000,-222.061783,10214.842000
2698.009844,766.095498,-592.164754,9622.677246
2698.010173,1149.143247,-888.247130,8734.430116
2698.010502,536.266849,-592.164754,8512.368333
2698.010831,1302.362347,1554.432478,7994.224174
2698.011160,1762.019645,2664.741391,7402.059420
2698.011489,2068.457845,2368.659014,7698.141797
2698.011818,2374.896044,444.123565,8882.471304
2698.012147,2757.943793,962.267725,8808.450710
2698.012476,1608.800546,592.164754,9030.512492
2698.012805,1225.752797,-666.185348,9918.759623
2698.013134,0.000000,370.102971,10288.862594
2698.013464,-766.095498,740.205942,10584.944971
2698.013793,-1685.410096,1184.329507,9548.656652
2698.014122,-536.266849,-962.267725,10362.883188
2698.014451,0.000000,-0.000000,9400.615463
2698.014780,-1302.362347,370.102971,9326.594869
2698.015109,-536.266849,-1258.350101,9104.533087
2698.015438,0.000000,-1036.288319,9400.615463
2698.015767,383.047749,-74.020594,8438.347739
2698.016096,0.000000,-148.041188,7698.141797
2698.016425,306.438199,-740.205942,8882.471304
2698.016754,1378.971896,-1480.411884,9178.553681
2698.017083,1762.019645,518.144159,8142.265362
2698.017412,1072.533697,592.164754,8882.471304
2698.017741,689.485948,222.061783,9178.553681
2698.018070,383.047749,1702.473667,9326.594869
2698.018399,229.828649,2368.659014,8734.430116
2698.018728,-383.047749,-222.061783,8882.471304
2698.019057,0.000000,-1184.329507,9622.677246
2698.019386,76.609550,-1184.329507,9326.594869
2698.019715,-612.876398,-1628.453072,9178.553681
2698.020044,-689.485948,-1924.535449,9400.615463
2698.020373,0.000000,-2294.638420,9178.553681
2698.020702,-153.219100,444.123565,7624.121203
2698.021031,0.000000,444.123565,7550.100608
2698.021360,919.314598,-1184.329507,8512.368333
2698.021689,2221.676944,-592.164754,8586.388927
2698.022018,1685.410096,518.144159,8290.306550
2698.022347,1149.143247,-888.247130,8438.347739
2698.022676,612.876398,-666.185348,9326.594869
2698.023006,689.485948,592.164754,9104.533087
2698.023335,0.000000,1850.514855,8808.450710
2698.023664,459.657299,-0.000000,9548.656652
2698.023993,1225.752797,-296.082377,9474.636058
2698.024322,612.876398,888.247130,8734.430116
2698.024651,-383.047749,-592.164754,9326.594869
2698.024980,0.000000,-1406.391290,9474.636058
2698.025309,-153.219100,-962.267725,8956.491898
2698.025638,0.000000,-444.123565,9030.512492
2698.025967,-383.047749,-592.164754,8808.450710
2698.026296,-306.438199,-1258.350101,9030.512492
2698.026625,689.485948,296.082377,9104.533087
2698.026954,0.000000,-222.061783,9030.512492
2698.027283,0.000000,-1406.391290,9918.759623
2698.027612,306.438199,-148.041188,9622.677246
2698.027941,-459.657299,1628.453072,8734.430116
2698.028270,-1149.143247,296.082377,10140.821405
2698.028599,383.047749,-370.102971,9548.656652
2698.028928,612.876398,-518.144159,10066.800811
2698.029257,0.000000,222.061783,9178.553681
2698.029586,0.000000,-666.185348,9030.512492
2698.029915,153.219100,-222.061783,9178.553681
2698.030244,0.000000,1554.432478,7698.141797
2698.030573,229.828649,1110.308913,8364.327145
2698.030902,536.266849,-1036.288319,7920.203579
2698.031231,766.095498,-370.102971,8290.306550
2698.031560,766.095498,-518.144159,8882.471304
2698.031889,153.219100,-1628.453072,9252.574275
2698.032218,0.000000,-2220.617826,9474.636058
2698.032548,0.000000,-2072.576638,10066.800811
2698.032877,-153.219100,-74.020594,9548.656652
2698.033206,536.266849,-1406.391290,9622.677246
2698.033535,1455.581446,962.267725,9400.615463
2698.033864,1455.581446,1110.308913,9104.533087
2698.034193,766.095498,518.144159,8808.450710
2698.034522,1532.190996,-74.020594,8438.347739
2698.034851,1532.190996,888.247130,8142.265362
2698.035180,919.314598,222.061783,8216.285956
2698.035509,689.485948,-888.247130,8142.265362
2698.035838,1225.752797,-1998.556043,8882.471304
2698.036167,1072.533697,-740.205942,8512.368333
2698.036496,76.609550,-592.164754,9104.533087
2698.036825,-383.047749,-1776.494261,9400.615463
2698.037154,-306.438199,-74.020594,9548.656652
2698.037483,-612.876398,740.205942,9992.780217
2698.037812,-612.876398,-518.144159,9918.759623
2698.038141,229.828649,-592.164754,9474.636058
2698.038470,919.314598,-518.144159,9992.780217
2698.038799,536.266849,222.061783,9030.512492
2698.039128,689.485948,-222.061783,9548.656652
2698.039457,1378.971896,1110.308913,8290.306550
2698.039786,229.828649,1924.535449,7772.162391
2698.040115,0.000000,2072.576638,7698.141797
2698.040444,612.876398,-296.082377,7994.224174
2698.040773,612.876398,-370.102971,8882.471304
2698.041102,-612.876398,-370.102971,8734.430116
2698.041431,-1149.143247,-2368.659014,9178.553681
2698.041760,-1915.238745,-2960.823768,10362.883188
2698.042090,-1532.190996,-1184.329507,9696.697840
2698.042419,-1762.019645,-1184.329507,9622.677246
2698.042748,-1072.533697,-1258.350101,10362.883188
2698.043077,383.047749,-666.185348,9178.553681
2698.043406,536.266849,1036.288319,9474.636058
2698.043735,919.314598,296.082377,8808.450710
2698.044064,1685.410096,-1036.288319,8956.491898
2698.044393,2528.115143,1406.391290,7994.224174
2698.044722,1762.019645,1184.329507,7846.182985
2698.045051,1838.629195,-592.164754,9252.574275
2698.045380,1378.971896,-1036.288319,8068.244768
2698.045709,1302.362347,-888.247130,8438.347739
2698.046038,536.266849,-74.020594,9030.512492
2698.046367,76.609550,-1332.370696,8882.471304
2698.046696,-689.485948,-1036.288319,9178.553681
2698.047025,-1149.143247,740.205942,9992.780217
2698.047354,-1072.533697,-518.144159,9400.615463
2698.047683,0.000000,-1850.514855,10584.944971
2698.048012,383.047749,296.082377,9474.636058
2698.048341,612.876398,-518.144159,9844.739029
2698.048670,1072.533697,-370.102971,9622.677246
2698.048999,2451.505594,-222.061783,8438.347739
2698.049328,2221.676944,2220.617826,8142.265362
2698.049657,1455.581446,2368.659014,8364.327145
2698.049986,1991.848295,1480.411884,7698.141797
2698.050315,1991.848295,1628.453072,7920.203579
2698.050644,1225.752797,444.123565,8438.347739
2698.050973,0.000000,-1850.514855,9326.594869
2698.051302,-1149.143247,-2368.659014,9622.677246
2698.051632,-1225.752797,-814.226536,9696.697840
2698.051961,-1762.019645,-1110.308913,9548.656652
2698.052290,-1378.971896,-1480.411884,9696.697840
2698.052619,-689.485948,-814.226536,9844.739029
2698.052948,-766.095498,296.082377,9548.656652
2698.053277,-536.266849,962.267725,8956.491898
2698.053606,995.924147,-518.144159,8956.491898
2698.053935,1072.533697,740.205942,7994.224174
2698.054264,612.876398,1332.370696,8956.491898
2698.054593,1455.581446,222.061783,8512.368333
2698.054922,1991.848295,-888.247130,8364.327145
2698.055251,2374.896044,592.164754,8438.347739
2698.055580,919.314598,-0.000000,8438.347739
2698.055909,383.047749,-888.247130,9474.636058
2698.056238,0.000000,148.041188,8512.368333
2698.056567,-612.876398,814.226536,8956.491898
2698.056896,-1149.143247,-370.102971,9918.759623
2698.057225,-612.876398,-1924.535449,10214.842000
2698.057554,-536.266849,-740.205942,10140.821405
2698.057883,-536.266849,-1036.288319,10436.903782
2698.058212,76.609550,-1850.514855,9622.677246
2698.058541,919.314598,-0.000000,8882.471304
2698.058870,995.924147,2294.638420,8956.491898
2698.059199,1302.362347,1406.391290,9030.512492
2698.059528,2068.457845,1332.370696,7846.182985
2698.059857,2528.115143,1702.473667,7328.038826
2698.060186,1915.238745,1628.453072,8512.368333
2698.060515,766.095498,370.102971,8586.388927
2698.060844,229.828649,-1480.411884,9326.594869
2698.061174,-995.924147,-444.123565,8956.491898
2698.061503,-2068.457845,-1110.308913,9992.780217
2698.061832,-1225.752797,-2590.720797,9770.718434
2698.062161,-1225.752797,-2590.720797,9770.718434
2698.062490,-1685.410096,-0.000000,9178.553681
2698.062819,-995.924147,-666.185348,9474.636058
2698.063148,0.000000,-444.123565,9696.697840
2698.063477,1072.533697,1258.350101,8290.306550
2698.063806,1608.800546,2146.597232,8512.368333
2698.064135,1685.410096,-0.000000,8142.265362
2698.064464,3217.601092,-222.061783,8068.244768
2698.064793,2451.505594,740.205942,7328.038826
2698.065122,1378.971896,222.061783,8364.327145
2698.065451,1149.143247,-0.000000,8882.471304
2698.065780,-306.438199,-0.000000,7994.224174
2698.066109,-1302.362347,740.205942,9474.636058
2698.066438,-1762.019645,-962.267725,9622.677246
2698.066767,-2145.067394,-3182.885551,10510.924376
2698.067096,-2221.676944,-1924.535449,10510.924376
2698.067425,-1915.238745,-2664.741391,11029.068536
2698.067754,-1149.143247,-2294.638420,10807.006753
2698.068083,153.219100,-1480.411884,10140.821405
2698.068412,153.219100,740.205942,9030.512492
2698.068741,2145.067394,1628.453072,8734.430116
2698.069070,3370.820191,666.185348,8142.265362
2698.069399,3907.087040,2738.761985,7105.977043
2698.069728,3447.429741,2886.803174,7550.100608
2698.070057,2528.115143,592.164754,8290.306550
2698.070386,2145.067394,-0.000000,8142.265362
2698.070716,919.314598,222.061783,7550.100608
2698.071045,-689.485948,-1036.288319,9622.677246
2698.071374,-842.705048,-2960.823768,10955.047942
2698.071703,-1838.629195,-3182.885551,11029.068536
2698.072032,-2528.115143,-1850.514855,10288.862594
2698.072361,-1991.848295,-1924.535449,10584.944971
2698.072690,-995.924147,-2072.576638,9622.677246
2698.073019,-1072.533697,740.205942,8956.491898
2698.073348,1302.362347,2220.617826,8808.450710
2698.073677,2068.457845,666.185348,8512.368333
2698.074006,3600.648841,1850.514855,7254.018232
2698.074335,3600.648841,2368.659014,7031.956449
2698.074664,2451.505594,1258.350101,8216.285956
2698.074993,2145.067394,-74.020594,7550.100608
2698.075322,1378.971896,740.205942,8364.327145
2698.075651,-153.219100,1776.494261,8882.471304
2698.075980,-1608.800546,-962.267725,9918.759623
2698.076309,-1762.019645,-2442.679609,10732.986159
2698.076638,-2298.286494,-1998.556043,10436.903782
2698.076967,-2451.505594,-2146.597232,11325.150913
2698.077296,-2068.457845,-2812.782580,10658.965565
2698.077625,-1072.533697,-888.247130,9918.759623
2698.077954,-459.657299,814.226536,9696.697840
2698.078283,1149.143247,666.185348,8586.388927
2698.078612,1991.848295,518.144159,8068.244768
2698.078941,3294.210641,2442.679609,7105.977043
2698.079270,2987.772442,3108.864956,7476.080014
2698.079599,2604.724693,1332.370696,8290.306550
2698.079929,2451.505594,148.041188,8068.244768
2698.080258,1378.971896,666.185348,8142.265362
2698.080587,0.000000,-962.267725,9548.656652
2698.080916,-766.095498,-2368.659014,10066.800811
2698.081245,-1302.362347,-2516.700203,10807.006753
2698.081574,-2068.457845,-1332.370696,10214.842000
2698.081903,-1455.581446,-1998.556043,10362.883188
2698.082232,-842.705048,-1184.329507,10658.965565
2698.082561,-842.705048,518.144159,9400.615463
2698.082890,689.485948,2072.576638,8364.327145
2698.083219,1915.238745,-0.000000,8364.327145
2698.083548,3064.381992,592.164754,6957.935855
2698.083877,2987.772442,1628.453072,7402.059420
2698.084206,1838.629195,962.267725,8364.327145
2698.084535,1838.629195,-444.123565,7994.224174
2698.084864,1072.533697,-0.000000,7920.203579
2698.085193,-306.438199,222.061783,9474.636058
2698.085522,-1149.143247,-814.226536,9474.636058
2698.085851,-1532.190996,-2146.597232,10066.800811
2698.086180,-2145.067394,-1480.411884,10658.965565
2698.086509,-2451.505594,-1998.556043,10510.924376
2698.086838,-1762.019645,-2442.679609,10881.027347
2698.087167,-842.705048,-1480.411884,10140.821405
2698.087496,0.000000,1184.329507,8734.430116
2698.087825,842.705048,1406.391290,8364.327145
2698.088154,2451.505594,-0.000000,8660.409521
2698.088483,3217.601092,2294.638420,7179.997637
2698.088812,2911.162892,2294.638420,7550.100608
2698.089141,2374.896044,592.164754,7624.121203
2698.089471,1762.019645,444.123565,8068.244768
2698.089800,459.657299,1406.391290,8734.430116
2698.090129,-919.314598,-370.102971,8882.471304
2698.090458,-1302.362347,-1776.494261,10510.924376
2698.090787,-1302.362347,-1480.411884,10807.006753
2698.091116,-2221.676944,-1332.370696,10510.924376
2698.091445,-1915.238745,-1702.473667,10732.986159
2698.091774,-1915.238745,-2516.700203,11547.212695
2698.092103,0.000000,-0.000000,9622.677246
2698.092432,689.485948,1184.329507,9030.512492
2698.092761,2451.505594,888.247130,8142.265362
2698.093090,3370.820191,1258.350101,7624.121203
2698.093419,3447.429741,2368.659014,7254.018232
2698.093748,2528.115143,962.267725,7994.224174
2698.094077,2911.162892,296.082377,7254.018232
2698.094406,2221.676944,1628.453072,7179.997637
2698.094736,536.266849,592.164754,8512.368333
2698.095065,-919.314598,-1480.411884,9474.636058
2698.095394,-536.266849,-2294.638420,10288.862594
2698.095723,-1532.190996,-2294.638420,10140.821405
2698.096052,-1915.238745,-2516.700203,10584.944971
2698.096381,-1762.019645,-2368.659014,11325.150913
2698.096710,-689.485948,-1332.370696,9252.574275
2698.097039,-1149.143247,814.226536,10288.862594
2698.097368,229.828649,-0.000000,8364.327145
2698.097697,2374.896044,-592.164754,8216.285956
2698.098026,2757.943793,1924.535449,7402.059420
2698.098355,2834.553343,1184.329507,7105.977043
2698.098684,1991.848295,592.164754,7476.080014
2698.099013,1685.410096,370.102971,7698.141797
2698.099342,1302.362347,1406.391290,7772.162391
2698.099671,-995.924147,-0.000000,9178.553681
2698.100001,-1149.143247,-2368.659014,9400.615463
2698.100330,-1685.410096,-2220.617826,9400.615463
2698.100659,-2451.505594,-1184.329507,10436.903782
2698.100988,-2757.943793,-3256.906145,10881.027347
2698.101317,-1455.581446,-2516.700203,10881.027347
2698.101646,-1455.581446,-74.020594,10214.842000
2698.101975,0.000000,-370.102971,9770.718434
2698.102304,1149.143247,962.267725,8512.368333
2698.102633,2681.334243,370.102971,7550.100608
2698.102962,2987.772442,2442.679609,7105.977043
2698.103291,2604.724693,1702.473667,7920.203579
2698.103620,2834.553343,296.082377,7994.224174
2698.103949,1762.019645,1776.494261,7031.956449
2698.104278,1072.533697,2516.700203,7698.141797
2698.104607,153.219100,-888.247130,9104.533087
2698.104936,-612.876398,-2220.617826,10510.924376
2698.105266,-1149.143247,-1406.391290,10140.821405
2698.105595,-1608.800546,-2812.782580,11251.130318
2698.105924,-2528.115143,-2220.617826,10658.965565
2698.106253,-1378.971896,-1036.288319,11473.192101
2698.106582,-1455.581446,-0.000000,9770.718434
2698.106911,76.609550,-518.144159,9252.574275
2698.107240,2528.115143,-0.000000,9252.574275
2698.107569,2911.162892,1480.411884,7328.038826
2698.107898,3064.381992,2442.679609,8068.244768
2698.108227,3064.381992,740.205942,7846.182985
2698.108556,2145.067394,592.164754,7328.038826
2698.108885,1455.581446,2368.659014,7698.141797
2698.109214,1072.533697,370.102971,7920.203579
2698.109543,0.000000,-1258.350101,9844.739029
2698.109872,-919.314598,-1184.329507,9622.677246
2698.110201,-1685.410096,-1776.494261,9918.759623
2698.110531,-3064.381992,-3404.947333,11769.274478
2698.110860,-2298.286494,-2442.679609,11621.233289
2698.111189,-2528.115143,-814.226536,10362.883188
2698.111518,-1608.800546,296.082377,9918.759623
2698.111847,229.828649,-222.061783,9030.512492
2698.112176,2145.067394,962.267725,8882.471304
2698.112505,2451.505594,1850.514855,7402.059420
2698.112834,2374.896044,518.144159,8142.265362
2698.113163,2298.286494,888.247130,7550.100608
2698.113492,1838.629195,1332.370696,7179.997637
2698.113821,229.828649,2516.700203,8586.388927
2698.114150,306.438199,-592.164754,8882.471304
2698.114479,0.000000,-1628.453072,8734.430116
2698.114808,-1225.752797,-814.226536,9622.677246
2698.115137,-1302.362347,-2886.803174,11473.192101
2698.115466,-2451.505594,-3182.885551,10955.047942
2698.115796,-1685.410096,-1702.473667,10362.883188
2698.116125,-1302.362347,740.205942,9252.574275
2698.116454,76.609550,-0.000000,9696.697840
2698.116783,2298.286494,-0.000000,9326.594869
2698.117112,3294.210641,962.267725,7328.038826
2698.117441,2987.772442,1924.535449,7698.141797
2698.117770,2604.724693,888.247130,7624.121203
2698.118099,2451.505594,1110.308913,7031.956449
2698.118428,1072.533697,2960.823768,7920.203579
2698.118757,1532.190996,1554.432478,7550.100608
2698.119086,1762.019645,-814.226536,7994.224174
2698.119415,229.828649,-740.205942,9104.533087
2698.119744,-689.485948,-2072.576638,10214.842000
2698.120073,-1991.848295,-3404.947333,11177.109724
2698.120402,-2068.457845,-4589.276840,11843.295072
2698.120731,-2757.943793,-1258.350101,9844.739029
2698.121061,-1915.238745,-666.185348,10584.944971
2698.121390,-689.485948,-1258.350101,9474.636058
2698.121719,1302.362347,-74.020594,8660.409521
2698.122048,3064.381992,1036.288319,8364.327145
2698.122377,3447.429741,1554.432478,7994.224174
2698.122706,3294.210641,666.185348,8068.244768
2698.123035,1608.800546,2516.700203,6809.894666
2698.123364,1072.533697,1776.494261,7846.182985
2698.123693,1225.752797,-148.041188,7698.141797
2698.124022,383.047749,-1850.514855,9178.553681
2698.124351,-1225.752797,-1258.350101,9326.594869
2698.124680,-1991.848295,-2664.741391,10362.883188
2698.125009,-2221.676944,-3182.885551,10807.006753
2698.125338,-2911.162892,-2664.741391,10584.944971
2698.125667,-2221.676944,-148.041188,10066.800811
2698.125996,-1225.752797,-666.185348,9770.718434
2698.126326,612.876398,-888.247130,9474.636058
2698.126655,2068.457845,1332.370696,7920.203579
2698.126984,2451.505594,666.185348,8586.388927
2698.127313,2834.553343,-0.000000,8068.244768
2698.127642,2757.943793,1628.453072,7328.038826
2698.127971,1608.800546,2368.659014,7846.182985
2698.128300,1302.362347,1554.432478,7624.121203
2698.128629,1991.848295,666.185348,8364.327145
2698.128958,1072.533697,-444.123565,7920.203579
2698.129287,-995.924147,-962.267725,9918.759623
2698.129616,-1608.800546,-2664.741391,11029.068536
2698.129945,-2068.457845,-3627.009116,10288.862594
2698.130274,-2145.067394,-592.164754,9474.636058
2698.130603,-1149.143247,-592.164754,10955.047942
2698.130932,-306.438199,-1702.473667,9918.759623
2698.131261,1225.752797,-148.041188,9474.636058
2698.131591,2374.896044,962.267725,9030.512492
2698.131920,2451.505594,1332.370696,8438.347739
2698.132249,2451.505594,1702.473667,8438.347739
2698.132578,1532.190996,2812.782580,7698.141797
2698.132907,1149.143247,2368.659014,8068.244768
2698.133236,1378.971896,222.061783,9252.574275
2698.133565,842.705048,-1036.288319,8364.327145
2698.133894,0.000000,-740.205942,9326.594869
2698.134223,-919.314598,-1036.288319,10214.842000
2698.134552,-1225.752797,-2294.638420,9918.759623
2698.134881,-2298.286494,-222.061783,9474.636058
2698.135210,-2068.457845,444.123565,9400.615463
2698.135539,-1608.800546,-666.185348,10288.862594
2698.135868,-536.266849,-666.185348,9548.656652
2698.136197,459.657299,-370.102971,9400.615463
2698.136526,459.657299,370.102971,7994.224174
2698.136856,842.705048,-0.000000,9030.512492
2698.137185,1225.752797,740.205942,8512.368333
2698.137514,536.266849,1628.453072,8364.327145
2698.137843,689.485948,370.102971,8734.430116
2698.138172,1302.362347,-444.123565,8068.244768
2698.138501,1225.752797,444.123565,8290.306550
2698.138830,612.876398,-296.082377,9474.636058
2698.139159,0.000000,-2220.617826,9104.533087
2698.139488,-306.438199,-666.185348,9178.553681
2698.139817,0.000000,-370.102971,9400.615463
2698.140146,-306.438199,518.144159,8512.368333
2698.140475,612.876398,-1480.411884,9548.656652
2698.140804,1302.362347,-0.000000,9178.553681
2698.141133,919.314598,740.205942,8216.285956
2698.141462,1072.533697,-0.000000,8808.450710
2698.141791,1149.143247,-0.000000,9474.636058
2698.142121,229.828649,962.267725,8734.430116
2698.142450,0.000000,-0.000000,9252.574275
2698.142779,536.266849,-1036.288319,9400.615463
2698.143108,766.095498,-1554.432478,9696.697840
2698.143437,536.266849,-0.000000,9252.574275
2698.143766,76.609550,-1036.288319,9548.656652
2698.144095,383.047749,-1332.370696,9696.697840
2698.144424,306.438199,1110.308913,8660.409521
2698.144753,459.657299,962.267725,8808.450710
2698.145082,612.876398,-518.144159,8438.347739
2698.145411,766.095498,222.061783,8512.368333
2698.145740,1072.533697,-0.000000,9474.636058
2698.146069,153.219100,-148.041188,8586.388927
2698.146398,-536.266849,-1332.370696,9844.739029
2698.146727,-1149.143247,-740.205942,9474.636058
2698.147056,-1838.629195,444.123565,9696.697840
2698.147386,-1072.533697,-1258.350101,10288.862594
2698.147715,-229.828649,-1258.350101,9030.512492
2698.148044,-153.219100,-0.000000,9178.553681
2698.148373,-229.828649,-814.226536,10140.821405
2698.148702,459.657299,-1036.288319,9474.636058
2698.149031,1149.143247,-592.164754,8660.409521
2698.149360,842.705048,1554.432478,7624.121203
2698.149689,995.924147,1184.329507,7920.203579
2698.150018,1762.019645,-370.102971,9030.512492
2698.150347,1838.629195,-0.000000,7920.203579
2698.150676,1225.752797,222.061783,9104.533087
2698.151005,153.219100,-666.185348,8808.450710
2698.151334,306.438199,-592.164754,9326.594869
2698.151663,-995.924147,666.185348,9622.677246
2698.151992,-1225.752797,-666.185348,9992.780217
2698.152321,-536.266849,-1998.556043,10436.903782
2698.152651,306.438199,-1480.411884,9400.615463
2698.152980,383.047749,222.061783,8882.471304
2698.153309,229.828649,-518.144159,10214.842000
2698.153638,1302.362347,-444.123565,8808.450710
2698.153967,1149.143247,1554.432478,7698.141797
2698.154296,1455.581446,2516.700203,8808.450710
2698.154625,1991.848295,888.247130,8586.388927
2698.154954,2298.286494,592.164754,8142.265362
2698.155283,2068.457845,888.247130,8438.347739
2698.155612,842.705048,-148.041188,8956.491898
2698.155941,-459.657299,-1406.391290,9992.780217
2698.156270,-842.705048,-592.164754,9696.697840
2698.156599,-1838.629195,444.123565,9474.636058
2698.156928,-1608.800546,-1184.329507,10140.821405
2698.157257,-306.438199,-1184.329507,9474.636058
2698.157586,-229.828649,-740.205942,9770.718434
2698.157916,-689.485948,-74.020594,9400.615463
2698.158245,995.924147,-888.247130,9474.636058
2698.158574,1225.752797,148.041188,9104.533087
2698.158903,1149.143247,2146.597232,7476.080014
2698.159232,1378.971896,1184.329507,8216.285956
2698.159561,1608.800546,-296.082377,8142.265362
2698.159890,1991.848295,888.247130,8216.285956
2698.160219,689.485948,370.102971,8438.347739
2698.160548,0.000000,-666.185348,9178.553681
2698.160877,-536.266849,-666.185348,9104.533087
2698.161206,-1378.971896,-0.000000,8734.430116
2698.161535,-1608.800546,-518.144159,9696.697840
2698.161864,-995.924147,-1554.432478,9770.718434
2698.162193,0.000000,-1998.556043,9548.656652
2698.162522,-689.485948,-74.020594,9992.780217
2698.162851,0.000000,-1110.308913,9178.553681
2698.163181,1378.971896,-1110.308913,9104.533087
2698.163510,1225.752797,1850.514855,7624.121203
2698.163839,995.924147,1628.453072,8438.347739
2698.164168,1532.190996,740.205942,8364.327145
2698.164497,2374.896044,-0.000000,7920.203579
2698.164826,2145.067394,1258.350101,8808.450710
2698.165155,1532.190996,-222.061783,8586.388927
2698.165484,0.000000,-1628.453072,10140.821405
2698.165813,-229.828649,-74.020594,9474.636058
2698.166142,-1072.533697,666.185348,9622.677246
2698.166471,-1149.143247,-1184.329507,10584.944971
2698.166800,153.219100,-1110.308913,10214.842000
2698.167129,306.438199,-370.102971,9696.697840
2698.167458,-153.219100,222.061783,10288.862594
2698.167787,459.657299,-148.041188,9400.615463
2698.168116,1072.533697,1332.370696,8660.409521
2698.168446,689.485948,2516.700203,8586.388927
2698.168775,1225.752797,1110.308913,8512.368333
2698.169104,1838.629195,-740.205942,8734.430116
2698.169433,1532.190996,444.123565,7920.203579
2698.169762,612.876398,-0.000000,9030.512492
2698.170091,-689.485948,-1110.308913,9622.677246
2698.170420,-919.314598,-1554.432478,9548.656652
2698.170749,-1455.581446,296.082377,9548.656652
2698.171078,-1608.800546,-888.247130,9696.697840
2698.171407,-1532.190996,-1776.494261,9400.615463
2698.171736,229.828649,-1258.350101,9474.636058
2698.172065,-383.047749,-740.205942,9474.636058
2698.172394,459.657299,-1258.350101,9178.553681
2698.172723,995.924147,-518.144159,9104.533087
2698.173052,766.095498,1258.350101,7402.059420
2698.173381,1149.143247,2146.597232,7550.100608
2698.173711,1991.848295,444.123565,8290.306550
2698.174040,2145.067394,-370.102971,7920.203579
2698.174369,1302.362347,-222.061783,8512.368333
2698.174698,306.438199,-1554.432478,9030.512492
2698.175027,-306.438199,-2368.659014,9030.512492
2698.175356,-995.924147,-1036.288319,9474.636058
2698.175685,-1532.190996,-888.247130,9918.759623
2698.176014,-1072.533697,-1036.288319,9918.759623
2698.176343,0.000000,-1702.473667,9548.656652
2698.176672,229.828649,-0.000000,9696.697840
2698.177001,383.047749,-0.000000,9474.636058
2698.177330,1302.362347,-222.061783,9252.574275
2698.177659,1991.848295,962.267725,7920.203579
2698.177988,1991.848295,2368.659014,7994.224174
2698.178317,1149.143247,1184.329507,8364.327145
2698.178646,2834.553343,666.185348,7846.182985
2698.178976,2451.505594,1258.350101,7772.162391
2698.179305,1072.533697,1036.288319,9104.533087
2698.179634,76.609550,-222.061783,9178.553681
2698.179963,-612.876398,-592.164754,9400.615463
2698.180292,-1762.019645,296.082377,9474.636058
2698.180621,-2068.457845,-1258.350101,10214.842000
2698.180950,-1838.629195,-1554.432478,11103.089130
2698.181279,-689.485948,-1628.453072,10140.821405
2698.181608,-536.266849,-222.061783,9104.533087
2698.181937,0.000000,-222.061783,9474.636058
2698.182266,1225.752797,-0.000000,9844.739029
2698.182595,1532.190996,2072.576638,7550.100608
2698.182924,1532.190996,2442.679609,7550.100608
2698.183253,2068.457845,962.267725,7624.121203
2698.183582,2604.724693,1184.329507,7772.162391
2698.183911,2068.457845,1554.432478,7920.203579
2698.184241,459.657299,-296.082377,8586.388927
2698.184570,-1072.533697,-592.164754,9548.656652
2698.184899,-1455.581446,-814.226536,9474.636058
2698.185228,-2451.505594,-814.226536,9844.739029
2698.185557,-2451.505594,-2220.617826,10362.883188
2698.185886,-995.924147,-2220.617826,9696.697840
2698.186215,-1378.971896,-1184.329507,9992.780217
2698.186544,-1149.143247,-2220.617826,11399.171507
2698.186873,229.828649,-1776.494261,10288.862594
2698.187202,1225.752797,-518.144159,9030.512492
2698.187531,1685.410096,2146.597232,7550.100608
2698.187860,2451.505594,666.185348,8660.409521
2698.188189,3294.210641,296.082377,8216.285956
2698.188518,2757.943793,1850.514855,7254.018232
2698.188847,2298.286494,1480.411884,8216.285956
2698.189176,1532.190996,518.144159,8734.430116
2698.189506,689.485948,-0.000000,8808.450710
2698.189835,-1149.143247,-148.041188,9474.636058
2698.190164,-1838.629195,-962.267725,9918.759623
2698.190493,-1685.410096,-2886.803174,10288.862594
2698.190822,-2221.676944,-2368.659014,10362.883188
2698.191151,-1762.019645,-222.061783,11473.192101
2698.191480,-1149.143247,-2886.803174,10362.883188
2698.191809,-229.828649,-592.164754,8956.491898
2698.192138,612.876398,1628.453072,8660.409521
2698.192467,1455.581446,1776.494261,8290.306550
2698.192796,2911.162892,1258.350101,7550.100608
2698.193125,3447.429741,1036.288319,7105.977043
2698.193454,1915.238745,2072.576638,6809.894666
2698.193783,2451.505594,1110.308913,7772.162391
2698.194112,1762.019645,-518.144159,8364.327145
2698.194441,-153.219100,1036.288319,7698.141797
2698.194770,-1608.800546,-222.061783,9400.615463
2698.195100,-1685.410096,-2516.700203,9918.759623
2698.195429,-1915.238745,-2886.803174,10584.944971
2698.195758,-2451.505594,-2442.679609,10436.903782
2698.196087,-2298.286494,-2590.720797,9844.739029
2698.196416,-1532.190996,-2368.659014,9992.780217
2698.196745,-612.876398,-444.123565,9696.697840
2698.197074,383.047749,1406.391290,8068.244768
2698.197403,1378.971896,666.185348,7994.224174
2698.197732,2834.553343,444.123565,7105.977043
2698.198061,2987.772442,1628.453072,7179.997637
2698.198390,2068.457845,888.247130,8290.306550
2698.198719,2068.457845,-148.041188,8660.409521
2698.199048,1225.752797,592.164754,7772.162391
2698.199377,-383.047749,-0.000000,9104.533087
2698.199706,-1149.143247,-1184.329507,9844.739029
2698.200035,-1149.143247,-3108.864956,11177.109724
2698.200364,-1225.752797,-2738.761985,10362.883188
2698.200694,-2145.067394,-2072.576638,9918.759623
2698.201023,-1225.752797,-2072.576638,11103.089130
2698.201352,0.000000,-1258.350101,10288.862594
2698.201681,229.828649,888.247130,8734.430116
2698.202010,1302.362347,1776.494261,8438.347739
2698.202339,2987.772442,518.144159,8364.327145
2698.202668,2681.334243,1776.494261,7920.203579
2698.202997,3294.210641,2146.597232,8438.347739
2698.203326,2528.115143,518.144159,7920.203579
2698.203655,1685.410096,740.205942,7846.182985
2698.203984,919.314598,1702.473667,8290.306550
2698.204313,-1072.533697,518.144159,9178.553681
2698.204642,-1378.971896,-1850.514855,10807.006753
2698.204971,-995.924147,-2146.597232,10066.800811
2698.205300,-2145.067394,-1480.411884,10066.800811
2698.205629,-2451.505594,-2072.576638,10881.027347
2698.205958,-1532.190996,-2220.617826,10214.842000
2698.206288,-766.095498,-148.041188,9178.553681
2698.206617,-306.438199,1850.514855,8438.347739
2698.206946,1455.581446,592.164754,8586.388927
2698.207275,2221.676944,666.185348,8586.388927
2698.207604,3524.039291,1850.514855,7402.059420
2698.207933,2681.334243,1480.411884,7550.100608
2698.208262,2221.676944,-518.144159,7920.203579
2698.208591,1762.019645,814.226536,8068.244768
2698.208920,229.828649,814.226536,8364.327145
2698.209249,-1378.971896,-518.144159,9400.615463
2698.209578,-1302.362347,-2664.741391,9474.636058
2698.209907,-1685.410096,-1776.494261,9622.677246
2698.210236,-2298.286494,-1702.473667,10362.883188
2698.210565,-2068.457845,-2590.720797,10510.924376
2698.210894,-1915.238745,-1628.453072,9474.636058
2698.211223,-1302.362347,296.082377,9400.615463
2698.211552,153.219100,-74.020594,9844.739029
2698.211881,1838.629195,-370.102971,8808.450710
2698.212211,3753.867940,592.164754,7550.100608
2698.212540,2987.772442,1554.432478,7846.182985
2698.212869,2528.115143,444.123565,7920.203579
2698.213198,2451.505594,518.144159,8290.306550
2698.213527,1608.800546,2664.741391,7179.997637
2698.213856,153.219100,1924.535449,7994.224174
2698.214185,-306.438199,-370.102971,9548.656652
2698.214514,0.000000,-1406.391290,9696.697840
2698.214843,-1685.410096,-1628.453072,9696.697840
2698.215172,-2604.724693,-2590.720797,11325.150913
2698.215501,-2068.457845,-3182.885551,11029.068536
2698.215830,-2068.457845,-518.144159,9770.718434
2698.216159,-1149.143247,518.144159,9622.677246
2698.216488,1532.190996,-0.000000,9252.574275
2698.216817,2068.457845,592.164754,8808.450710
2698.217146,2757.943793,2294.638420,7920.203579
2698.217475,2451.505594,2220.617826,7402.059420
2698.217805,2374.896044,962.267725,8290.306550
2698.218134,1838.629195,1554.432478,7846.182985
2698.218463,1991.848295,2220.617826,8142.265362
2698.218792,536.266849,296.082377,8734.430116
2698.219121,306.438199,-1036.288319,9474.636058
2698.219450,-766.095498,-1480.411884,9992.780217
2698.219779,-1532.190996,-1628.453072,10436.903782
2698.220108,-2374.896044,-3108.864956,10881.027347
2698.220437,-2145.067394,-2294.638420,10955.047942
2698.220766,-1991.848295,-222.061783,9622.677246
2698.221095,-1149.143247,-0.000000,9400.615463
2698.221424,1302.362347,-444.123565,9696.697840
2698.221753,2068.457845,222.061783,7846.182985
2698.222082,2221.676944,888.247130,8216.285956
2698.222411,2834.553343,370.102971,7772.162391
2698.222740,2451.505594,296.082377,8438.347739
2698.223069,2221.676944,2072.576638,7772.162391
2698.223399,1378.971896,1554.432478,7550.100608
2698.223728,919.314598,-74.020594,9104.533087
2698.224057,1072.533697,-888.247130,9474.636058
2698.224386,76.609550,-1036.288319,9548.656652
2698.224715,-1302.362347,-2220.617826,9992.780217
2698.225044,-842.705048,-1924.535449,10066.800811
2698.225373,-383.047749,-814.226536,10362.883188
2698.225702,-842.705048,-0.000000,9770.718434
2698.226031,76.609550,-962.267725,9696.697840
2698.226360,1762.019645,222.061783,9548.656652
2698.226689,1838.629195,1776.494261,7254.018232
2698.227018,2221.676944,1110.308913,8586.388927
2698.227347,2528.115143,444.123565,8586.388927
2698.227676,1838.629195,1184.329507,7402.059420
2698.228005,995.924147,1702.473667,7772.162391
2698.228334,536.266849,-148.041188,8808.450710
2698.228663,919.314598,-814.226536,9178.553681
2698.228992,-229.828649,-370.102971,9474.636058
2698.229322,-1225.752797,-1332.370696,10362.883188
2698.229651,-1608.800546,-2590.720797,10807.006753
2698.229980,-1455.581446,-1924.535449,9696.697840
2698.230309,-1149.143247,-0.000000,9696.697840
2698.230638,-766.095498,-518.144159,10140.821405
2698.230967,536.266849,-1702.473667,9474.636058
2698.231296,1532.190996,-0.000000,8068.244768
2698.231625,1991.848295,814.226536,7994.224174
2698.231954,2145.067394,-592.164754,8882.471304
2698.232283,1532.190996,-0.000000,8068.244768
2698.232612,766.095498,962.267725,7328.038826
2698.232941,459.657299,666.185348,7994.224174
2698.233270,0.000000,-148.041188,9326.594869
2698.233599,-306.438199,-1554.432478,9844.739029
2698.233928,-1149.143247,-666.185348,9474.636058
2698.234257,-1915.238745,-2960.823768,10214.842000
2698.234586,-1378.971896,-2738.761985,10881.027347
2698.234916,-842.705048,-592.164754,9400.615463
2698.235245,-995.924147,-148.041188,9770.718434
2698.235574,153.219100,-1628.453072,9104.533087
2698.235903,1762.019645,-0.000000,8660.409521
2698.236232,2298.286494,1258.350101,8290.306550
2698.236561,2145.067394,1406.391290,7624.121203
2698.236890,2374.896044,666.185348,7920.203579
2698.237219,1378.971896,1776.494261,7698.141797
2698.237548,1378.971896,3108.864956,8734.430116
2698.237877,842.705048,-222.061783,8956.491898
2698.238206,229.828649,-222.061783,8660.409521
2698.238535,-459.657299,-148.041188,9474.636058
2698.238864,-1608.800546,-1184.329507,10288.862594
2698.239193,-2221.676944,-2368.659014,9992.780217
2698.239522,-1149.143247,-2220.617826,10584.944971
2698.239851,-1685.410096,370.102971,9918.759623
2698.240180,-1455.581446,-0.000000,9178.553681
2698.240510,229.828649,-518.144159,9400.615463
2698.240839,1455.581446,592.164754,8068.244768
2698.241168,1915.238745,962.267725,8660.409521
2698.241497,2068.457845,-0.000000,8364.327145
2698.241826,2145.067394,740.205942,8142.265362
2698.242155,1608.800546,1702.473667,8364.327145
2698.242484,766.095498,1332.370696,7846.182985
2698.242813,612.876398,-74.020594,8956.491898
2698.243142,306.438199,-148.041188,9474.636058
2698.243471,-689.485948,-518.144159,9474.636058
2698.243800,-1455.581446,-1480.411884,9918.759623
2698.244129,-1149.143247,-2368.659014,10436.903782
2698.244458,-1378.971896,-296.082377,9844.739029
2698.244787,-2298.286494,-592.164754,10510.924376
2698.245116,-689.485948,-0.000000,9474.636058
2698.245445,919.314598,-518.144159,9326.594869
2698.245774,1072.533697,962.267725,8660.409521
2698.246103,1378.971896,370.102971,9474.636058
2698.246433,2757.943793,-0.000000,9326.594869
2698.246762,2145.067394,962.267725,8068.244768
2698.247091,1302.362347,2960.823768,7994.224174
2698.247420,1532.190996,666.185348,8882.471304
2698.247749,1455.581446,444.123565,9104.533087
2698.248078,1302.362347,1184.329507,8882.471304
2698.248407,229.828649,-222.061783,9326.594869
2698.248736,-383.047749,-888.247130,9696.697840
2698.249065,-1455.581446,-592.164754,10066.800811
2698.249394,-1378.971896,-0.000000,9918.759623
2698.249723,-1378.971896,-666.185348,9696.697840
2698.250052,0.000000,-1776.494261,9474.636058
2698.250381,459.657299,-518.144159,8808.450710
2698.250710,842.705048,666.185348,9178.553681
2698.251039,1762.019645,-1036.288319,9992.780217
2698.251368,689.485948,666.185348,7698.141797
2698.251697,1072.533697,1554.432478,7846.182985
2698.252027,1225.752797,2072.576638,8216.285956
2698.252356,2145.067394,-296.082377,8808.450710
2698.252685,1455.581446,-222.061783,8882.471304
2698.253014,919.314598,-0.000000,8438.347739
2698.253343,306.438199,-1554.432478,9696.697840
2698.253672,-229.828649,-1554.432478,9030.512492
2698.254001,-612.876398,-0.000000,9104.533087
2698.254330,-1532.190996,-222.061783,9030.512492
2698.254659,-1072.533697,-1628.453072,9474.636058
2698.254988,-459.657299,-1554.432478,9548.656652
2698.255317,0.000000,-296.082377,8734.430116
2698.255646,76.609550,-1406.391290,9474.636058
2698.255975,842.705048,-1924.535449,9326.594869
2698.256304,229.828649,-370.102971,9030.512492
2698.256633,76.609550,592.164754,8512.368333
2698.256962,995.924147,-444.123565,8808.450710
2698.257291,1608.800546,-444.123565,8586.388927
2698.257620,1532.190996,518.144159,8586.388927
2698.257950,842.705048,444.123565,8216.285956
2698.258279,842.705048,-518.144159,8808.450710
2698.258608,153.219100,-0.000000,9104.533087
2698.258937,-612.876398,592.164754,9104.533087
2698.259266,-1072.533697,-518.144159,9104.533087
2698.259595,-689.485948,-1776.494261,9548.656652
2698.259924,229.828649,-814.226536,9104.533087
2698.260253,0.000000,296.082377,9178.553681
2698.260582,153.219100,-1184.329507,9696.697840
2698.260911,76.609550,-0.000000,9030.512492
2698.261240,76.609550,1184.329507,8512.368333
2698.261569,229.828649,1184.329507,8956.491898
2698.261898,1608.800546,-74.020594,8734.430116
2698.262227,1225.752797,592.164754,8734.430116
2698.262556,1072.533697,666.185348,9178.553681
2698.262885,1302.362347,-888.247130,8808.450710
2698.263214,1378.971896,-74.020594,8512.368333
2698.263544,383.047749,1924.535449,8660.409521
2698.263873,-153.219100,962.267725,9326.594869
2698.264202,0.000000,-296.082377,9548.656652
2698.264531,689.485948,-592.164754,8882.471304
2698.264860,383.047749,-296.082377,9918.759623
2698.265189,-153.219100,-814.226536,9992.780217
2698.265518,-306.438199,-1480.411884,9844.739029
2698.265847,-306.438199,-370.102971,8882.471304
2698.266176,-919.314598,666.185348,9400.615463
2698.266505,0.000000,-888.247130,9770.718434
2698.266834,536.266849,-148.041188,9104.533087
2698.267163,612.876398,1332.370696,9474.636058
2698.267492,995.924147,-148.041188,9696.697840
2698.267821,1302.362347,-296.082377,9030.512492
2698.268150,1225.752797,-222.061783,9400.615463
2698.268479,766.095498,1702.473667,8512.368333
2698.268808,919.314598,-444.123565,8956.491898
2698.269138,1225.752797,-740.205942,8586.388927
2698.269467,919.314598,-1110.308913,9178.553681
2698.269796,-383.047749,370.102971,9104.533087
2698.270125,0.000000,-1258.350101,8734.430116
2698.270454,-229.828649,-814.226536,8956.491898
2698.270783,-1225.752797,962.267725,9030.512492
2698.271112,-995.924147,-666.185348,9474.636058
2698.271441,-306.438199,-1998.556043,9474.636058
2698.271770,383.047749,-1110.308913,9474.636058
2698.272099,153.219100,-148.041188,8882.471304
2698.272428,153.219100,-814.226536,9326.594869
2698.272757,1762.019645,-0.000000,8734.430116
2698.273086,1149.143247,1480.411884,7476.080014
2698.273415,1608.800546,2146.597232,8586.388927
2698.273744,1838.629195,518.144159,8068.244768
2698.274073,2145.067394,518.144159,7105.977043
2698.274402,2451.505594,1184.329507,8586.388927
2698.274731,2221.676944,-814.226536,9104.533087
2698.275061,229.828649,-1850.514855,9326.594869
2698.275390,-995.924147,-370.102971,9474.636058
2698.275719,-1378.971896,-740.205942,9474.636058
2698.276048,-1225.752797,-1406.391290,9992.780217
2698.276377,-383.047749,-2072.576638,10288.862594
2698.276706,-842.705048,-666.185348,9474.636058
2698.277035,-689.485948,-518.144159,9622.677246
2698.277364,306.438199,-888.247130,9104.533087
2698.277693,842.705048,444.123565,8364.327145
2698.278022,459.657299,2072.576638,8364.327145
2698.278351,1225.752797,370.102971,8290.306550
2698.278680,1762.019645,-444.123565,8364.327145
2698.279009,2374.896044,296.082377,8660.409521
2698.279338,919.314598,-518.144159,7920.203579
2698.279667,0.000000,-1628.453072,10140.821405
2698.279996,-612.876398,-1332.370696,9918.759623
2698.280325,-1302.362347,-592.164754,8734.430116
2698.280655,-1455.581446,-1184.329507,9992.780217
2698.280984,-229.828649,-2072.576638,9918.759623
2698.281313,-306.438199,-1036.288319,10214.842000
2698.281642,0.000000,-666.185348,9696.697840
2698.281971,0.000000,-1036.288319,9844.739029
2698.282300,1072.533697,-222.061783,9178.553681
2698.282629,995.924147,1406.391290,7254.018232
2698.282958,459.657299,1998.556043,8290.306550
2698.283287,1455.581446,-148.041188,8956.491898
2698.283616,2068.457845,148.041188,7994.224174
2698.283945,1225.752797,888.247130,8734.430116
2698.284274,766.095498,-592.164754,8882.471304
2698.284603,76.609550,-1480.411884,9178.553681
2698.284932,-612.876398,-814.226536,9918.759623
2698.285261,-995.924147,-592.164754,10140.821405
2698.285590,-536.266849,-2442.679609,9918.759623
2698.285919,306.438199,-666.185348,9548.656652
2698.286249,76.609550,666.185348,9622.677246
2698.286578,0.000000,-0.000000,10066.800811
2698.286907,1378.971896,-0.000000,8364.327145
2698.287236,1608.800546,1776.494261,7328.038826
2698.287565,995.924147,1554.432478,9326.594869
2698.287894,766.095498,1554.432478,7920.203579
2698.288223,1608.800546,-888.247130,7994.224174
2698.288552,383.047749,296.082377,8438.347739
2698.288881,0.000000,-222.061783,8808.450710
2698.289210,-306.438199,-2442.679609,10362.883188
2698.289539,-1072.533697,-296.082377,8956.491898
2698.289868,-1149.143247,-0.000000,9844.739029
2698.290197,-1072.533697,-1554.432478,9696.697840
2698.290527,-153.219100,-962.267725,9474.636058
2698.290856,229.828649,-888.247130,10140.821405
2698.291185,459.657299,-0.000000,8586.388927
2698.291514,842.705048,592.164754,8882.471304
2698.291843,1838.629195,518.144159,8512.368333
2698.292173,919.314598,2738.761985,7179.997637
2698.292502,842.705048,1258.350101,8808.450710
2698.292831,1455.581446,740.205942,7402.059420
2698.293160,1149.143247,666.185348,7624.121203
2698.293489,536.266849,444.123565,8956.491898
2698.293819,-459.657299,-1184.329507,9104.533087
2698.294148,-842.705048,-1554.432478,9918.759623
2698.294477,-1532.190996,-592.164754,9918.759623
2698.294806,-1302.362347,-666.185348,9696.697840
2698.295135,-612.876398,-1702.473667,11251.130318
2698.295465,612.876398,370.102971,9474.636058
2698.295794,919.314598,962.267725,9622.677246
2698.296123,1072.533697,962.267725,10066.800811
2698.296452,2221.676944,740.205942,8882.471304
2698.296781,2451.505594,2442.679609,8216.285956
2698.297111,2068.457845,2368.659014,7920.203579
2698.297440,1991.848295,1036.288319,8512.368333
2698.297769,2451.505594,814.226536,8512.368333
2698.298098,2374.896044,2220.617826,7624.121203
2698.298427,995.924147,666.185348,8586.388927
2698.298757,76.609550,-1332.370696,9696.697840
2698.299086,-919.314598,-888.247130,9622.677246
2698.299415,-1302.362347,-740.205942,10732.986159
2698.299744,-1608.800546,-2442.679609,10436.903782
2698.300073,-1378.971896,-1702.473667,10140.821405
2698.300403,-1302.362347,-1110.308913,10362.883188
2698.300732,-1532.190996,-666.185348,11029.068536
2698.301061,0.000000,-1258.350101,10140.821405
2698.301390,1762.019645,-74.020594,8512.368333
2698.301719,1915.238745,2220.617826,8068.244768
2698.302049,1838.629195,1036.288319,8734.430116
2698.302378,2451.505594,-296.082377,8290.306550
2698.302707,2604.724693,222.061783,7105.977043
2698.303036,1915.238745,666.185348,7105.977043
2698.303365,689.485948,-888.247130,8586.388927
2698.303695,-689.485948,-1258.350101,8216.285956
2698.304024,-1225.752797,-1850.514855,9474.636058
2698.304353,-1991.848295,-1850.514855,9326.594869
2698.304682,-1378.971896,-4441.235652,9770.718434
2698.305011,-1838.629195,-3330.926739,10584.944971
2698.305341,-1915.238745,-2368.659014,10510.924376
2698.305670,-1532.190996,-3627.009116,10288.862594
2698.305999,153.219100,-2960.823768,9400.615463
2698.306328,1455.581446,-1406.391290,8734.430116
2698.306657,1762.019645,-0.000000,8290.306550
2698.306986,2681.334243,-518.144159,7698.141797
2698.307316,3907.087040,-74.020594,7105.977043
2698.307645,3907.087040,888.247130,6957.935855
2698.307974,2681.334243,296.082377,6957.935855
2698.308303,1608.800546,-2664.741391,9252.574275
2698.308632,612.876398,-2738.761985,8808.450710
2698.308962,-919.314598,-3108.864956,8956.491898
2698.309291,-2145.067394,-4071.132681,9326.594869
2698.309620,-2451.505594,-6291.750507,11251.130318
2698.309949,-1915.238745,-4663.297435,11325.150913
2698.310278,-1991.848295,-3108.864956,9770.718434
2698.310608,-1532.190996,-3330.926739,9918.759623
2698.310937,-153.219100,-3182.885551,10732.986159
2698.311266,1149.143247,-888.247130,8808.450710
2698.311595,2451.505594,-0.000000,8290.306550
2698.311924,2604.724693,-296.082377,7698.141797
2698.312254,3753.867940,-444.123565,7179.997637
2698.312583,4596.572988,-0.000000,7772.162391
2698.312912,2451.505594,-222.061783,6587.832884
2698.313241,1455.581446,-3256.906145,8956.491898
2698.313570,0.000000,-2738.761985,8956.491898
2698.313900,-689.485948,-3775.050304,8956.491898
2698.314229,-2298.286494,-4663.297435,9770.718434
2698.314558,-3600.648841,-5329.482782,10584.944971
2698.314887,-3447.429741,-5699.585753,12435.459826
2698.315216,-2604.724693,-4737.318029,10510.924376
2698.315546,-2068.457845,-4589.276840,9326.594869
2698.315875,-1685.410096,-4589.276840,11251.130318
2698.316204,459.657299,-3330.926739,10436.903782
2698.316533,2145.067394,-2738.761985,8734.430116
2698.316862,3524.039291,-962.267725,7105.977043
2698.317192,3370.820191,-0.000000,7476.080014
2698.317521,3140.991542,-222.061783,8216.285956
2698.317850,3830.477490,-666.185348,6661.853478
2698.318179,3830.477490,-444.123565,6069.688724
2698.318508,2221.676944,-2442.679609,7846.182985
2698.318838,-306.438199,-3923.091493,8956.491898
2698.319167,-919.314598,-4811.338623,11103.089130
2698.319496,-2145.067394,-5181.441594,10288.862594
2698.319825,-2911.162892,-5033.400406,10362.883188
2698.320154,-3830.477490,-4737.318029,11399.171507
2698.320484,-2987.772442,-5255.462188,10658.965565
2698.320813,-1302.362347,-3775.050304,9770.718434
2698.321142,842.705048,-3256.906145,9178.553681
2698.321471,1225.752797,-3034.844362,8882.471304
2698.321800,2145.067394,-1998.556043,9178.553681
2698.322130,3983.696590,-1702.473667,8586.388927
2698.322459,4290.134789,-148.041188,6365.771101
2698.322788,3524.039291,-444.123565,7254.018232
2698.323117,2221.676944,-1036.288319,7550.100608
2698.323446,3294.210641,-370.102971,7031.956449
2698.323776,3983.696590,-1998.556043,7698.141797
2698.324105,1149.143247,-3997.112087,8438.347739
2698.324434,-1072.533697,-5255.462188,9474.636058
2698.324763,-3064.381992,-5255.462188,11029.068536
2698.325092,-3217.601092,-6365.771101,11399.171507
2698.325421,-3524.039291,-5255.462188,10362.883188
2698.325751,-2221.676944,-4811.338623,11251.130318
2698.326080,-2221.676944,-4663.297435,10584.944971
2698.326409,-2221.676944,-3478.967927,10510.924376
2698.326738,-229.828649,-3256.906145,9104.533087
2698.327067,1991.848295,-1628.453072,7920.203579
2698.327397,2987.772442,-1628.453072,8142.265362
2698.327726,3294.210641,-2368.659014,7550.100608
2698.328055,3294.210641,-2812.782580,7920.203579
2698.328384,2834.553343,-2294.638420,7328.038826
