#time,accel_x,accel_y,accel_z
2446.278826,306.438199,-370.102971,9104.533087
2446.279155,76.609550,-296.082377,9178.553681
2446.279484,76.609550,-518.144159,8956.491898
2446.279814,383.047749,-222.061783,9030.512492
2446.280143,459.657299,-222.061783,9030.512492
2446.280472,689.485948,-74.020594,8882.471304
2446.280801,459.657299,-148.041188,8734.430116
2446.281130,536.266849,222.061783,8808.450710
2446.281460,459.657299,-0.000000,8660.409521
2446.281789,229.828649,-148.041188,8882.471304
2446.282118,536.266849,-296.082377,9104.533087
2446.282447,76.609550,-444.123565,9252.574275
2446.282777,306.438199,-666.185348,9326.594869
2446.283106,0.000000,-592.164754,8882.471304
2446.283435,0.000000,-370.102971,9252.574275
2446.283764,0.000000,-222.061783,9252.574275
2446.284093,459.657299,-74.020594,9178.553681
2446.284423,612.876398,-444.123565,9326.594869
2446.284752,842.705048,-0.000000,9252.574275
2446.285081,842.705048,-148.041188,8882.471304
2446.285410,995.924147,-0.000000,8882.471304
2446.285739,459.657299,-0.000000,9104.533087
2446.286069,459.657299,-0.000000,9104.533087
2446.286398,306.438199,-74.020594,9178.553681
2446.286727,536.266849,-444.123565,9104.533087
2446.287056,306.438199,-518.144159,9474.636058
2446.287386,76.609550,-222.061783,9474.636058
2446.287715,0.000000,-444.123565,9104.533087
2446.288044,306.438199,-222.061783,8882.471304
2446.288373,536.266849,-0.000000,8882.471304
2446.288702,459.657299,222.061783,8734.430116
2446.289032,536.266849,814.226536,9326.594869
2446.289361,612.876398,-0.000000,8956.491898
2446.289690,842.705048,-74.020594,8808.450710
2446.290019,459.657299,-296.082377,8734.430116
2446.290348,153.219100,-222.061783,8956.491898
2446.290678,153.219100,-370.102971,8882.471304
2446.291007,0.000000,-296.082377,9104.533087
2446.291336,0.000000,-444.123565,9030.512492
2446.291665,0.000000,-296.082377,8882.471304
2446.291995,383.047749,-148.041188,9178.553681
2446.292324,76.609550,-0.000000,9104.533087
2446.292653,459.657299,-0.000000,8956.491898
2446.292982,383.047749,-0.000000,9030.512492
2446.293311,536.266849,-0.000000,8808.450710
2446.293641,306.438199,-518.144159,8956.491898
2446.293970,612.876398,-222.061783,8956.491898
2446.294299,76.609550,-444.123565,9252.574275
2446.294628,383.047749,-370.102971,9178.553681
2446.294957,153.219100,-370.102971,9400.615463
2446.295287,153.219100,-444.123565,9326.594869
2446.295616,383.047749,-370.102971,9252.574275
2446.295945,459.657299,-222.061783,9252.574275
2446.296274,153.219100,-148.041188,9104.533087
2446.296604,536.266849,-148.041188,9104.533087
2446.296933,536.266849,-296.082377,9104.533087
2446.297262,536.266849,-0.000000,9252.574275
2446.297591,536.266849,-0.000000,9104.533087
2446.297920,229.828649,-148.041188,8882.471304
2446.298250,459.657299,-296.082377,9178.553681
2446.298579,306.438199,-148.041188,9400.615463
2446.298908,306.438199,-444.123565,9104.533087
2446.299237,536.266849,-222.061783,9474.636058
2446.299566,76.609550,-74.020594,8956.491898
2446.299896,229.828649,148.041188,8882.471304
2446.300225,76.609550,-74.020594,8882.471304
2446.300554,383.047749,-0.000000,8956.491898
2446.300883,612.876398,-0.000000,8808.450710
2446.301213,689.485948,-0.000000,8882.471304
2446.301542,536.266849,-148.041188,8882.471304
2446.301871,383.047749,-148.041188,8882.471304
2446.302200,459.657299,-148.041188,8660.409521
2446.302529,229.828649,-222.061783,8956.491898
2446.302859,76.609550,-296.082377,9252.574275
2446.303188,383.047749,-222.061783,9326.594869
2446.303517,459.657299,-666.185348,8808.450710
2446.303846,153.219100,-370.102971,9252.574275
2446.304175,306.438199,-148.041188,9030.512492
2446.304505,229.828649,-74.020594,9030.512492
2446.304834,383.047749,-296.082377,8956.491898
2446.305163,536.266849,-370.102971,9030.512492
2446.305492,459.657299,-296.082377,9104.533087
2446.305822,229.828649,-74.020594,9178.553681
2446.306151,306.438199,-296.082377,9104.533087
2446.306480,459.657299,-148.041188,9400.615463
2446.306809,153.219100,-370.102971,9474.636058
2446.307138,0.000000,-296.082377,9252.574275
2446.307468,229.828649,-222.061783,9178.553681
2446.307797,459.657299,-0.000000,9178.553681
2446.308126,306.438199,-0.000000,9104.533087
2446.308455,306.438199,-222.061783,9178.553681
2446.308784,0.000000,-222.061783,9548.656652
2446.309114,1455.581446,-1110.308913,9548.656652
2446.309443,1532.190996,-518.144159,9474.636058
2446.309772,1762.019645,-296.082377,9400.615463
2446.310101,1991.848295,-148.041188,9178.553681
2446.310430,2374.896044,222.061783,8734.430116
2446.310760,3370.820191,-0.000000,9178.553681
2446.311089,4519.963438,-370.102971,8586.388927
2446.311418,3983.696590,296.082377,8068.244768
2446.311747,3294.210641,666.185348,8512.368333
2446.312077,3064.381992,222.061783,8290.306550
2446.312406,3140.991542,-0.000000,9326.594869
2446.312735,2681.334243,-444.123565,8882.471304
2446.313064,1455.581446,-814.226536,9474.636058
2446.313393,842.705048,-1998.556043,10140.821405
2446.313723,1991.848295,-1628.453072,9474.636058
2446.314052,2221.676944,-0.000000,9400.615463
2446.314381,2528.115143,-1554.432478,9844.739029
2446.314710,2911.162892,-444.123565,8882.471304
2446.315039,3907.087040,518.144159,9474.636058
2446.315369,5362.668486,740.205942,7698.141797
2446.315698,3983.696590,1184.329507,8512.368333
2446.316027,5132.839837,962.267725,9252.574275
2446.316356,4903.011187,592.164754,6957.935855
2446.316686,4136.915689,666.185348,8512.368333
2446.317015,3524.039291,-0.000000,8956.491898
2446.317344,2451.505594,222.061783,8734.430116
2446.317673,1532.190996,-962.267725,9696.697840
2446.318002,1072.533697,-1406.391290,9326.594869
2446.318332,1302.362347,-1258.350101,10214.842000
2446.318661,229.828649,-1110.308913,9844.739029
2446.318990,1608.800546,-518.144159,9696.697840
2446.319319,1455.581446,-518.144159,10214.842000
2446.319648,2911.162892,740.205942,7846.182985
2446.319978,3370.820191,296.082377,9622.677246
2446.320307,4136.915689,1554.432478,8586.388927
2446.320636,4366.744339,666.185348,7624.121203
2446.320965,4213.525239,1258.350101,7994.224174
2446.321295,3907.087040,814.226536,8734.430116
2446.321624,2834.553343,222.061783,8586.388927
2446.321953,2068.457845,-888.247130,9030.512492
2446.322282,1532.190996,-1406.391290,9252.574275
2446.322611,689.485948,-1480.411884,10140.821405
2446.322941,229.828649,-1998.556043,9474.636058
2446.323270,0.000000,-1924.535449,9992.780217
2446.323599,-459.657299,-1036.288319,9622.677246
2446.323928,0.000000,-814.226536,9474.636058
2446.324257,0.000000,-444.123565,8512.368333
2446.324587,612.876398,-0.000000,9178.553681
2446.324916,2451.505594,888.247130,8142.265362
2446.325245,1915.238745,1184.329507,7624.121203
2446.325574,2145.067394,1702.473667,8142.265362
2446.325904,2068.457845,1924.535449,7772.162391
2446.326233,1915.238745,1554.432478,7550.100608
2446.326562,995.924147,1110.308913,8216.285956
2446.326891,766.095498,-0.000000,8882.471304
2446.327220,-1378.971896,-518.144159,9474.636058
2446.327550,-536.266849,-1628.453072,10140.821405
2446.327879,-1149.143247,-2072.576638,10214.842000
2446.328208,-1149.143247,-2146.597232,9992.780217
2446.328537,-766.095498,-2072.576638,10214.842000
2446.328866,0.000000,-1850.514855,10436.903782
2446.329196,0.000000,-1184.329507,10807.006753
2446.329525,1302.362347,-518.144159,11103.089130
2446.329854,2068.457845,-0.000000,9992.780217
2446.330183,3600.648841,1332.370696,8956.491898
2446.330513,4213.525239,2294.638420,7772.162391
2446.330842,4366.744339,3701.029710,7179.997637
2446.331171,4136.915689,3701.029710,7105.977043
2446.331500,3600.648841,2886.803174,6883.915261
2446.331829,1991.848295,2368.659014,7550.100608
2446.332159,306.438199,222.061783,8216.285956
2446.332488,-1532.190996,-1776.494261,9030.512492
2446.332817,-1991.848295,-3404.947333,11029.068536
2446.333146,-2298.286494,-3182.885551,8956.491898
2446.333475,-2374.896044,-3182.885551,9918.759623
2446.333805,-3217.601092,-3923.091493,10732.986159
2446.334134,-2834.553343,-2886.803174,11251.130318
2446.334463,-2681.334243,-2812.782580,12361.439231
2446.334792,-1762.019645,-1998.556043,10510.924376
2446.335122,0.000000,-518.144159,10510.924376
2446.335451,76.609550,1702.473667,8512.368333
2446.335780,-612.876398,2294.638420,8512.368333
2446.336109,536.266849,962.267725,10732.986159
2446.336438,2834.553343,2368.659014,7698.141797
2446.336768,4213.525239,3330.926739,4811.338623
2446.337097,3600.648841,3256.906145,4145.153275
2446.337426,3217.601092,3256.906145,4219.173869
2446.337755,1915.238745,888.247130,6957.935855
2446.338084,229.828649,-1258.350101,7550.100608
2446.338414,-766.095498,-3108.864956,9400.615463
2446.338743,-1302.362347,-5181.441594,11621.233289
2446.339072,-2298.286494,-4441.235652,9844.739029
2446.339401,-1838.629195,-4219.173869,11621.233289
2446.339731,-1532.190996,-3256.906145,11399.171507
2446.340060,0.000000,-1924.535449,11843.295072
2446.340389,383.047749,296.082377,11917.315666
2446.340718,229.828649,2590.720797,9844.739029
2446.341047,383.047749,1702.473667,10214.842000
2446.341377,766.095498,592.164754,10584.944971
2446.341706,1838.629195,3108.864956,7476.080014
2446.342035,3524.039291,3552.988522,5773.606348
2446.342364,3983.696590,2960.823768,4885.359217
2446.342693,2911.162892,2886.803174,5847.626942
2446.343023,1455.581446,222.061783,7328.038826
2446.343352,0.000000,-1480.411884,6365.771101
2446.343681,-995.924147,-4441.235652,9918.759623
2446.344010,-919.314598,-4663.297435,10658.965565
2446.344340,-2298.286494,-2516.700203,9252.574275
2446.344669,-2604.724693,-3997.112087,12065.356855
2446.344998,-2145.067394,-2960.823768,11695.253884
2446.345327,-536.266849,-1184.329507,12509.480420
2446.345656,-306.438199,-0.000000,11103.089130
2446.345986,689.485948,1850.514855,9622.677246
2446.346315,-229.828649,1628.453072,9770.718434
2446.346644,0.000000,2368.659014,10288.862594
2446.346973,0.000000,3182.885551,8734.430116
2446.347302,2528.115143,2368.659014,7402.059420
2446.347632,3140.991542,2516.700203,4589.276840
2446.347961,3064.381992,1480.411884,5403.503377
2446.348290,2528.115143,-0.000000,6513.812290
2446.348619,1455.581446,-1406.391290,7031.956449
2446.348949,306.438199,-3034.844362,8808.450710
2446.349278,306.438199,-2220.617826,9548.656652
2446.349607,-689.485948,-3478.967927,10436.903782
2446.349936,-995.924147,-2812.782580,11103.089130
2446.350265,-306.438199,-2516.700203,11695.253884
2446.350595,0.000000,-1332.370696,11547.212695
2446.350924,842.705048,-370.102971,11473.192101
2446.351253,2374.896044,2146.597232,11325.150913
2446.351582,2834.553343,2738.761985,8586.388927
2446.351911,3294.210641,3849.070898,8142.265362
2446.352241,2987.772442,4293.194464,5921.647536
2446.352570,3217.601092,4145.153275,5995.668130
2446.352899,1532.190996,2738.761985,6513.812290
2446.353228,1838.629195,370.102971,7254.018232
2446.353558,-766.095498,-2146.597232,8512.368333
2446.353887,-1608.800546,-4145.153275,9770.718434
2446.354216,-1991.848295,-4071.132681,8734.430116
2446.354545,-2451.505594,-4293.194464,10362.883188
2446.354874,-2604.724693,-3478.967927,10732.986159
2446.355203,-2681.334243,-3108.864956,12287.418637
2446.355532,-2451.505594,-1776.494261,12657.521608
2446.355861,-1225.752797,-444.123565,11103.089130
2446.356190,536.266849,148.041188,9992.780217
2446.356519,229.828649,2664.741391,7402.059420
2446.356848,229.828649,2516.700203,9770.718434
2446.357177,612.876398,1184.329507,9844.739029
2446.357506,1762.019645,2590.720797,7105.977043
2446.357835,2374.896044,2886.803174,5329.482782
2446.358164,2451.505594,2442.679609,3256.906145
2446.358493,1532.190996,1110.308913,5551.544565
2446.358822,612.876398,-1036.288319,7031.956449
2446.359151,0.000000,-1998.556043,7994.224174
2446.359480,-689.485948,-3552.988522,9992.780217
2446.359809,-689.485948,-3627.009116,9400.615463
2446.360138,-1685.410096,-3182.885551,10584.944971
2446.360467,-1532.190996,-2960.823768,11473.192101
2446.360796,-612.876398,-1184.329507,11325.150913
2446.361125,0.000000,-666.185348,12287.418637
2446.361454,612.876398,1776.494261,10881.027347
2446.361783,842.705048,2590.720797,10066.800811
2446.362112,0.000000,2072.576638,9696.697840
2446.362441,0.000000,888.247130,10510.924376
2446.362770,1302.362347,1480.411884,7846.182985
2446.363099,2374.896044,2516.700203,5847.626942
2446.363428,2451.505594,1776.494261,5773.606348
2446.363757,1608.800546,1406.391290,6143.709319
2446.364086,919.314598,-666.185348,8216.285956
2446.364415,-1378.971896,-2442.679609,8438.347739
2446.364744,0.000000,-3849.070898,10288.862594
2446.365073,-995.924147,-2886.803174,10288.862594
2446.365402,-1532.190996,-2442.679609,10510.924376
2446.365731,-2068.457845,-2516.700203,11917.315666
2446.366060,-1302.362347,-962.267725,11399.171507
2446.366389,0.000000,-148.041188,11769.274478
2446.366718,0.000000,1184.329507,9696.697840
2446.367047,842.705048,2294.638420,8956.491898
2446.367376,612.876398,1850.514855,9474.636058
2446.367705,0.000000,2294.638420,8956.491898
2446.368034,536.266849,1924.535449,8808.450710
2446.368363,1762.019645,1258.350101,6365.771101
2446.368692,2451.505594,1332.370696,5551.544565
2446.369021,2298.286494,444.123565,5625.565159
2446.369350,2068.457845,-370.102971,6587.832884
2446.369679,1072.533697,-1998.556043,7698.141797
2446.370008,766.095498,-2294.638420,9030.512492
2446.370337,153.219100,-2220.617826,9918.759623
2446.370666,-536.266849,-2664.741391,10436.903782
2446.370995,-536.266849,-1998.556043,11769.274478
2446.371324,-1532.190996,-888.247130,12065.356855
2446.371653,689.485948,-222.061783,11251.130318
2446.371982,1838.629195,1184.329507,10584.944971
2446.372311,2528.115143,2220.617826,9696.697840
2446.372640,2911.162892,2516.700203,8808.450710
2446.372969,2374.896044,3034.844362,7476.080014
2446.373298,2528.115143,3108.864956,7105.977043
2446.373627,2221.676944,2738.761985,6661.853478
2446.373956,919.314598,1924.535449,7105.977043
2446.374285,0.000000,-740.205942,7550.100608
2446.374614,-1378.971896,-3034.844362,8882.471304
2446.374943,-1915.238745,-3923.091493,9548.656652
2446.375272,-1838.629195,-3775.050304,8882.471304
2446.375601,-1762.019645,-3775.050304,10288.862594
2446.375930,-2068.457845,-3404.947333,11547.212695
2446.376259,-2145.067394,-1924.535449,11547.212695
2446.376588,-1838.629195,-814.226536,12065.356855
2446.376917,-842.705048,-0.000000,10584.944971
2446.377246,0.000000,1110.308913,9696.697840
2446.377575,229.828649,2368.659014,8808.450710
2446.377904,0.000000,1776.494261,8956.491898
2446.378233,995.924147,1702.473667,9326.594869
2446.378562,919.314598,1850.514855,7624.121203
2446.378891,995.924147,2442.679609,5551.544565
2446.379220,1991.848295,1850.514855,4885.359217
2446.379549,1762.019645,518.144159,5181.441594
2446.379878,1149.143247,-1184.329507,7179.997637
2446.380207,459.657299,-2442.679609,8068.244768
2446.380536,-689.485948,-2812.782580,9326.594869
2446.380865,-1302.362347,-3627.009116,10658.965565
2446.381194,-995.924147,-2516.700203,10140.821405
2446.381523,-842.705048,-2294.638420,11251.130318
2446.381852,-612.876398,-1258.350101,11251.130318
2446.382181,383.047749,-222.061783,11621.233289
2446.382510,689.485948,962.267725,10732.986159
2446.382839,0.000000,1998.556043,10066.800811
2446.383168,383.047749,1406.391290,10955.047942
2446.383497,1225.752797,1406.391290,8734.430116
2446.383826,2298.286494,2812.782580,7031.956449
2446.384155,2451.505594,2738.761985,6365.771101
2446.384484,2298.286494,1998.556043,5551.544565
2446.384813,1838.629195,592.164754,8142.265362
2446.385142,-383.047749,-962.267725,7698.141797
2446.385471,-919.314598,-3182.885551,8734.430116
2446.385800,-1455.581446,-4737.318029,10955.047942
2446.386129,-1838.629195,-3552.988522,9844.739029
2446.386458,-1838.629195,-3182.885551,11251.130318
2446.386787,-1991.848295,-2368.659014,11621.233289
2446.387116,-612.876398,-1110.308913,12065.356855
2446.387445,-306.438199,592.164754,11769.274478
2446.387774,459.657299,1702.473667,9696.697840
2446.388103,689.485948,1998.556043,9326.594869
2446.388432,0.000000,2072.576638,9844.739029
2446.388761,229.828649,2368.659014,9474.636058
2446.389090,1455.581446,2220.617826,7550.100608
2446.389419,2528.115143,2590.720797,4885.359217
2446.389748,3370.820191,1628.453072,4885.359217
2446.390077,2145.067394,888.247130,5403.503377
2446.390406,1915.238745,-814.226536,6883.915261
2446.390735,689.485948,-2072.576638,7402.059420
2446.391064,229.828649,-2738.761985,9252.574275
2446.391393,-689.485948,-3108.864956,10288.862594
2446.391722,-766.095498,-3182.885551,10140.821405
2446.392051,-766.095498,-2590.720797,11547.212695
2446.392380,153.219100,-1480.411884,11251.130318
2446.392709,0.000000,-74.020594,11399.171507
2446.393038,919.314598,1332.370696,11177.109724
2446.393367,1762.019645,1850.514855,10881.027347
2446.393696,2221.676944,2368.659014,8438.347739
2446.394025,3064.381992,3034.844362,7698.141797
2446.394354,2834.553343,3627.009116,6217.729913
2446.394683,2145.067394,2886.803174,6513.812290
2446.395012,1685.410096,1924.535449,6513.812290
2446.395341,919.314598,-0.000000,7031.956449
2446.395670,-612.876398,-2590.720797,8068.244768
2446.395999,-1302.362347,-4219.173869,10066.800811
2446.396328,-1532.190996,-4589.276840,9770.718434
2446.396657,-1455.581446,-3701.029710,10658.965565
2446.396986,-1991.848295,-3182.885551,11029.068536
2446.397315,-1838.629195,-1850.514855,11769.274478
2446.397644,-1532.190996,-814.226536,12657.521608
2446.397973,-612.876398,296.082377,10807.006753
2446.398302,459.657299,814.226536,9844.739029
2446.398631,306.438199,2072.576638,9326.594869
2446.398960,-306.438199,2368.659014,9178.553681
2446.399289,-689.485948,1702.473667,10807.006753
2446.399618,0.000000,1258.350101,7920.203579
2446.399947,919.314598,1702.473667,7179.997637
2446.400276,1225.752797,1036.288319,4737.318029
2446.400605,1838.629195,222.061783,5329.482782
2446.400934,1149.143247,-888.247130,6809.894666
2446.401263,842.705048,-1628.453072,7476.080014
2446.401592,-229.828649,-1776.494261,9474.636058
2446.401921,0.000000,-2664.741391,9400.615463
2446.402250,-459.657299,-2368.659014,10584.944971
2446.402579,-612.876398,-1702.473667,10881.027347
2446.402908,-229.828649,-1036.288319,10584.944971
2446.403237,0.000000,-148.041188,11251.130318
2446.403566,842.705048,1184.329507,11251.130318
2446.403895,1455.581446,1924.535449,10510.924376
2446.404224,995.924147,1406.391290,9326.594869
2446.404553,2145.067394,2368.659014,7846.182985
2446.404882,1838.629195,2886.803174,6587.832884
2446.405211,2374.896044,2812.782580,6291.750507
2446.405540,1685.410096,1628.453072,6291.750507
2446.405869,1378.971896,-148.041188,7105.977043
2446.406198,-383.047749,-2368.659014,7994.224174
2446.406527,-689.485948,-4219.173869,9326.594869
2446.406856,-1225.752797,-4441.235652,9696.697840
2446.407186,-1225.752797,-3849.070898,10288.862594
2446.407515,-1302.362347,-2960.823768,11029.068536
2446.407844,-919.314598,-1776.494261,11621.233289
2446.408173,-306.438199,-740.205942,11843.295072
2446.408502,76.609550,666.185348,10955.047942
2446.408831,766.095498,1406.391290,9770.718434
2446.409160,0.000000,1628.453072,8882.471304
2446.409489,-306.438199,1628.453072,9844.739029
2446.409818,0.000000,1258.350101,9400.615463
2446.410147,1838.629195,2368.659014,7772.162391
2446.410476,1991.848295,1998.556043,5847.626942
2446.410805,2757.943793,1480.411884,5329.482782
2446.411134,2451.505594,1184.329507,6217.729913
2446.411463,1838.629195,-0.000000,6957.935855
2446.411792,842.705048,-1184.329507,8068.244768
2446.412121,0.000000,-2294.638420,9548.656652
2446.412450,-689.485948,-2886.803174,10510.924376
2446.412779,-842.705048,-2516.700203,11177.109724
2446.413108,-612.876398,-1776.494261,11621.233289
2446.413437,-306.438199,-1110.308913,11325.150913
2446.413766,459.657299,-0.000000,11177.109724
2446.414095,536.266849,1406.391290,10955.047942
2446.414424,1149.143247,1480.411884,10732.986159
2446.414753,1762.019645,2146.597232,8586.388927
2446.415082,2681.334243,2664.741391,7179.997637
2446.415411,2374.896044,2886.803174,6365.771101
2446.415740,2757.943793,2294.638420,5847.626942
2446.416069,1302.362347,1554.432478,6735.874072
2446.416398,459.657299,-222.061783,7402.059420
2446.416727,-689.485948,-2442.679609,8586.388927
2446.417056,-1685.410096,-4811.338623,9844.739029
2446.417385,-1302.362347,-4589.276840,10214.842000
2446.417714,-1378.971896,-3552.988522,10140.821405
2446.418043,-1991.848295,-2738.761985,10955.047942
2446.418372,-1991.848295,-1628.453072,11843.295072
2446.418701,-1302.362347,-370.102971,12139.377449
2446.419030,-459.657299,518.144159,10362.883188
2446.419359,383.047749,1036.288319,9326.594869
2446.419688,229.828649,1480.411884,9104.533087
2446.420017,-689.485948,1480.411884,9770.718434
2446.420346,-919.314598,1258.350101,9548.656652
2446.420675,0.000000,1554.432478,7994.224174
2446.421004,1149.143247,1702.473667,6143.709319
2446.421333,1455.581446,1258.350101,4811.338623
2446.421662,1455.581446,-74.020594,5625.565159
2446.421991,1455.581446,-592.164754,6809.894666
2446.422320,1532.190996,-2146.597232,8142.265362
2446.422649,0.000000,-1702.473667,9104.533087
2446.422978,-306.438199,-2368.659014,9992.780217
2446.423307,-1072.533697,-2590.720797,10955.047942
2446.423636,-919.314598,-1776.494261,10732.986159
2446.423965,-229.828649,-1036.288319,10881.027347
2446.424294,459.657299,-518.144159,10955.047942
2446.424623,1302.362347,1110.308913,10140.821405
2446.424952,1991.848295,2516.700203,9696.697840
2446.425281,2451.505594,2442.679609,8512.368333
2446.425610,2068.457845,2368.659014,6735.874072
2446.425939,2374.896044,3034.844362,7402.059420
2446.426268,2221.676944,1554.432478,6809.894666
2446.426597,1225.752797,962.267725,6291.750507
2446.426926,459.657299,-1406.391290,8068.244768
2446.427255,-842.705048,-2738.761985,8956.491898
2446.427584,-1378.971896,-4441.235652,10066.800811
2446.427913,-1685.410096,-3923.091493,10140.821405
2446.428242,-1149.143247,-3404.947333,10658.965565
2446.428571,-1915.238745,-2368.659014,11177.109724
2446.428900,-1302.362347,-1184.329507,11843.295072
2446.429229,-306.438199,-0.000000,12065.356855
2446.429558,0.000000,-0.000000,10584.944971
2446.429887,306.438199,1554.432478,9474.636058
2446.430216,-306.438199,1258.350101,10066.800811
2446.430545,76.609550,1036.288319,10140.821405
2446.430874,842.705048,1924.535449,8364.327145
2446.431203,2528.115143,2590.720797,6143.709319
2446.431532,3140.991542,2960.823768,5921.647536
2446.431861,2221.676944,1480.411884,5625.565159
2446.432190,2298.286494,740.205942,6661.853478
2446.432519,842.705048,-962.267725,7105.977043
2446.432848,-153.219100,-2294.638420,8808.450710
2446.433177,-1455.581446,-2738.761985,10584.944971
2446.433506,-1378.971896,-3627.009116,11325.150913
2446.433835,-919.314598,-2886.803174,11473.192101
2446.434164,-383.047749,-1406.391290,11325.150913
2446.434493,0.000000,-888.247130,10807.006753
2446.434822,612.876398,814.226536,10881.027347
2446.435151,1072.533697,1406.391290,10658.965565
2446.435480,1762.019645,1258.350101,10510.924376
2446.435809,2604.724693,1998.556043,7920.203579
2446.436138,3370.820191,3256.906145,7105.977043
2446.436467,2221.676944,2590.720797,5847.626942
2446.436796,2987.772442,3034.844362,5403.503377
2446.437125,2298.286494,1554.432478,6291.750507
2446.437454,919.314598,-0.000000,6513.812290
2446.437783,-995.924147,-2738.761985,8512.368333
2446.438112,-1915.238745,-4515.256246,10436.903782
2446.438441,-2374.896044,-4293.194464,9696.697840
2446.438770,-2681.334243,-3108.864956,9548.656652
2446.439099,-2681.334243,-3182.885551,11769.274478
2446.439428,-2451.505594,-2294.638420,11843.295072
2446.439757,-1685.410096,-518.144159,12287.418637
2446.440086,-689.485948,370.102971,10362.883188
2446.440415,153.219100,444.123565,9474.636058
2446.440744,153.219100,1850.514855,8660.409521
2446.441073,-229.828649,1850.514855,9918.759623
2446.441402,-536.266849,1036.288319,9474.636058
2446.441731,995.924147,1776.494261,7994.224174
2446.442060,1991.848295,2146.597232,5255.462188
2446.442389,2374.896044,1628.453072,4737.318029
2446.442718,2068.457845,888.247130,5847.626942
2446.443047,1608.800546,-222.061783,7105.977043
2446.443376,766.095498,-1850.514855,8734.430116
2446.443705,0.000000,-1702.473667,9400.615463
2446.444034,-1072.533697,-2960.823768,11177.109724
2446.444363,-1608.800546,-2960.823768,11621.233289
2446.444692,-995.924147,-1406.391290,10658.965565
2446.445021,-306.438199,-888.247130,11029.068536
2446.445350,689.485948,-814.226536,10955.047942
2446.445679,1378.971896,1036.288319,10807.006753
2446.446008,766.095498,1480.411884,10436.903782
2446.446337,1762.019645,1480.411884,9178.553681
2446.446666,2298.286494,1850.514855,7476.080014
2446.446995,3217.601092,2886.803174,6365.771101
2446.447324,3064.381992,3256.906145,5255.462188
2446.447653,3064.381992,1406.391290,6291.750507
2446.447982,2068.457845,666.185348,7105.977043
2446.448311,766.095498,-1628.453072,7476.080014
2446.448640,-919.314598,-3108.864956,8808.450710
2446.448969,-1838.629195,-4367.215058,10732.986159
2446.449298,-1762.019645,-4441.235652,11251.130318
2446.449627,-1838.629195,-2738.761985,10881.027347
2446.449956,-1149.143247,-1776.494261,11547.212695
2446.450285,-995.924147,-1036.288319,11251.130318
2446.450614,153.219100,370.102971,10955.047942
2446.450943,0.000000,1406.391290,10140.821405
2446.451272,0.000000,962.267725,9548.656652
2446.451601,0.000000,962.267725,9844.739029
2446.451930,536.266849,1480.411884,9326.594869
2446.452259,1378.971896,2368.659014,7031.956449
2446.452588,1991.848295,1850.514855,6217.729913
2446.452917,3140.991542,814.226536,5033.400406
2446.453246,2681.334243,888.247130,6143.709319
2446.453575,1378.971896,-222.061783,7254.018232
2446.453904,536.266849,-1406.391290,7994.224174
2446.454233,0.000000,-2738.761985,9918.759623
2446.454562,-1072.533697,-2812.782580,10955.047942
2446.454891,-689.485948,-2886.803174,10732.986159
2446.455220,-689.485948,-2368.659014,11177.109724
2446.455549,0.000000,-888.247130,11177.109724
2446.455878,306.438199,296.082377,10510.924376
2446.456207,919.314598,1036.288319,10288.862594
2446.456537,1685.410096,1480.411884,9844.739029
2446.456866,2221.676944,1850.514855,8216.285956
2446.457195,2757.943793,2960.823768,6735.874072
2446.457524,2528.115143,3923.091493,5477.523971
2446.457853,2374.896044,2516.700203,6291.750507
2446.458182,1455.581446,1332.370696,6217.729913
2446.458512,536.266849,-148.041188,6957.935855
2446.458841,-1225.752797,-3034.844362,8438.347739
2446.459170,-1149.143247,-4367.215058,10288.862594
2446.459499,-2221.676944,-4663.297435,10140.821405
2446.459828,-1991.848295,-2886.803174,10288.862594
2446.460157,-1762.019645,-2738.761985,11251.130318
2446.460486,-1991.848295,-1776.494261,11843.295072
2446.460816,-1378.971896,-296.082377,11843.295072
2446.461145,-306.438199,370.102971,10807.006753
2446.461474,0.000000,444.123565,9548.656652
2446.461803,0.000000,1776.494261,8882.471304
2446.462132,-612.876398,1628.453072,10362.883188
2446.462461,-459.657299,1480.411884,8882.471304
2446.462791,689.485948,1776.494261,7624.121203
2446.463120,1532.190996,2220.617826,5699.585753
2446.463449,1685.410096,1332.370696,5181.441594
2446.463778,1762.019645,-0.000000,6439.791695
2446.464107,842.705048,-666.185348,7105.977043
2446.464436,459.657299,-1776.494261,9104.533087
2446.464766,-383.047749,-1924.535449,9770.718434
2446.465095,-766.095498,-2812.782580,10436.903782
2446.465424,-1225.752797,-2368.659014,11399.171507
2446.465753,-842.705048,-1406.391290,10807.006753
2446.466082,-306.438199,-814.226536,11547.212695
2446.466411,536.266849,740.205942,11399.171507
2446.466741,1302.362347,1332.370696,10881.027347
2446.467070,919.314598,1702.473667,10658.965565
2446.467399,1378.971896,1480.411884,9178.553681
2446.467728,2298.286494,2072.576638,7328.038826
2446.468057,2757.943793,2812.782580,6069.688724
2446.468386,3217.601092,2368.659014,5625.565159
2446.468716,2604.724693,1184.329507,5995.668130
2446.469045,1685.410096,-0.000000,6661.853478
2446.469374,229.828649,-1702.473667,7624.121203
2446.469703,-1225.752797,-3404.947333,9178.553681
2446.470032,-1455.581446,-4367.215058,10584.944971
2446.470361,-1762.019645,-3627.009116,10214.842000
2446.470691,-1302.362347,-2590.720797,11029.068536
2446.471020,-1532.190996,-2220.617826,11399.171507
2446.471349,-306.438199,-1036.288319,11029.068536
2446.471678,-306.438199,814.226536,11399.171507
2446.472007,76.609550,1258.350101,9400.615463
2446.472336,383.047749,1036.288319,9104.533087
2446.472666,-153.219100,1258.350101,9548.656652
2446.472995,0.000000,1406.391290,9474.636058
2446.473324,1225.752797,1554.432478,7402.059420
2446.473653,2221.676944,1924.535449,5403.503377
2446.473982,2451.505594,888.247130,5033.400406
2446.474311,2068.457845,296.082377,6217.729913
2446.474641,1225.752797,-740.205942,7550.100608
2446.474970,536.266849,-2072.576638,8142.265362
2446.475299,153.219100,-2590.720797,10140.821405
2446.475628,-1991.848295,-2590.720797,10955.047942
2446.475957,-1072.533697,-3034.844362,11547.212695
2446.476286,-612.876398,-2072.576638,11547.212695
2446.476616,-229.828649,-666.185348,11103.089130
2446.476945,536.266849,222.061783,10807.006753
2446.477274,995.924147,1258.350101,10732.986159
2446.477603,1455.581446,1702.473667,10510.924376
2446.477932,2221.676944,2220.617826,8290.306550
2446.478261,2298.286494,3108.864956,7328.038826
2446.478591,2068.457845,3330.926739,6143.709319
2446.478920,2298.286494,2442.679609,6069.688724
2446.479249,1149.143247,1480.411884,6365.771101
2446.479578,306.438199,-222.061783,6957.935855
2446.479907,-919.314598,-2516.700203,8882.471304
2446.480236,-2451.505594,-3775.050304,10362.883188
2446.480566,-1762.019645,-3775.050304,9622.677246
2446.480895,-2221.676944,-3256.906145,10214.842000
2446.481224,-2451.505594,-2516.700203,11251.130318
2446.481553,-2221.676944,-1406.391290,11769.274478
2446.481882,-1608.800546,-666.185348,12361.439231
2446.482211,-1072.533697,-0.000000,10362.883188
2446.482541,536.266849,888.247130,9770.718434
2446.482870,153.219100,2072.576638,8734.430116
2446.483199,-536.266849,1554.432478,9548.656652
2446.483528,-306.438199,1184.329507,9326.594869
2446.483857,1608.800546,2146.597232,7031.956449
2446.484186,2145.067394,2368.659014,4811.338623
2446.484516,2528.115143,1554.432478,4811.338623
2446.484845,1915.238745,296.082377,6365.771101
2446.485174,689.485948,-814.226536,7624.121203
2446.485503,0.000000,-2294.638420,8808.450710
2446.485832,-689.485948,-2368.659014,9548.656652
2446.486161,-1072.533697,-3182.885551,10658.965565
2446.486491,-1532.190996,-2368.659014,11177.109724
2446.486820,-995.924147,-2072.576638,11177.109724
2446.487149,-153.219100,-444.123565,11473.192101
2446.487478,766.095498,-370.102971,11399.171507
2446.487807,1149.143247,1258.350101,10955.047942
2446.488136,1302.362347,1258.350101,10584.944971
2446.488466,1838.629195,1702.473667,8438.347739
2446.488795,2911.162892,2442.679609,7254.018232
2446.489124,2911.162892,3108.864956,5699.585753
2446.489453,4290.134789,2960.823768,5403.503377
2446.489782,2834.553343,1776.494261,5995.668130
2446.490111,1915.238745,444.123565,6513.812290
2446.490441,-306.438199,-2220.617826,8290.306550
2446.490770,-1608.800546,-3997.112087,9474.636058
2446.491099,-2145.067394,-4515.256246,10881.027347
2446.491428,-2068.457845,-3923.091493,10807.006753
2446.491757,-2221.676944,-2516.700203,10436.903782
2446.492086,-1915.238745,-1850.514855,11843.295072
2446.492416,-995.924147,-888.247130,11769.274478
2446.492745,-229.828649,888.247130,10732.986159
2446.493074,612.876398,962.267725,9474.636058
2446.493403,229.828649,1554.432478,8660.409521
2446.493732,0.000000,962.267725,10732.986159
2446.494061,1072.533697,1406.391290,9474.636058
2446.494391,2451.505594,2664.741391,5773.606348
2446.494720,3370.820191,2294.638420,5551.544565
2446.495049,3217.601092,1998.556043,4145.153275
2446.495378,2834.553343,1036.288319,6661.853478
2446.495707,995.924147,-296.082377,7105.977043
2446.496036,689.485948,-2146.597232,8586.388927
2446.496366,-919.314598,-3404.947333,10955.047942
2446.496695,-1838.629195,-2960.823768,11621.233289
2446.497024,-2145.067394,-3404.947333,11917.315666
2446.497353,-1455.581446,-2368.659014,11991.336260
2446.497682,-383.047749,-1184.329507,11399.171507
2446.498011,459.657299,148.041188,11325.150913
2446.498341,766.095498,1258.350101,10807.006753
2446.498670,536.266849,1184.329507,10732.986159
2446.498999,2451.505594,1628.453072,8808.450710
2446.499328,2757.943793,3404.947333,6735.874072
2446.499657,3064.381992,3330.926739,5551.544565
2446.499986,2681.334243,3256.906145,5033.400406
2446.500316,2681.334243,2220.617826,6217.729913
2446.500645,536.266849,370.102971,6661.853478
2446.500974,-536.266849,-2146.597232,8290.306550
2446.501303,-1455.581446,-4145.153275,10066.800811
2446.501632,-2145.067394,-3701.029710,10066.800811
2446.501961,-2298.286494,-3256.906145,10436.903782
2446.502291,-2987.772442,-2886.803174,10881.027347
2446.502620,-2451.505594,-2664.741391,12509.480420
2446.502949,-1991.848295,-1110.308913,11917.315666
2446.503278,-536.266849,592.164754,11103.089130
2446.503607,459.657299,740.205942,9474.636058
2446.503936,229.828649,1480.411884,8364.327145
2446.504266,-153.219100,1998.556043,9992.780217
2446.504595,0.000000,1924.535449,9178.553681
2446.504924,1685.410096,2368.659014,6143.709319
2446.505253,2757.943793,2072.576638,5181.441594
2446.505582,2604.724693,1480.411884,3552.988522
2446.505911,2068.457845,666.185348,6069.688724
2446.506241,919.314598,-1258.350101,7105.977043
2446.506570,306.438199,-2072.576638,8734.430116
2446.506899,-536.266849,-2664.741391,10362.883188
2446.507228,-1455.581446,-2812.782580,10955.047942
2446.507557,-1762.019645,-2886.803174,11843.295072
2446.507886,-689.485948,-2368.659014,12065.356855
2446.508216,0.000000,-1110.308913,11399.171507
2446.508545,306.438199,-296.082377,11177.109724
2446.508874,459.657299,1184.329507,10955.047942
2446.509203,1455.581446,1332.370696,10955.047942
2446.509532,1915.238745,1554.432478,8512.368333
2446.509861,2681.334243,3034.844362,7328.038826
2446.510191,3064.381992,3404.947333,5847.626942
2446.510520,2451.505594,2886.803174,5995.668130
2446.510849,2451.505594,2072.576638,6513.812290
2446.511178,1149.143247,370.102971,6883.915261
2446.511507,0.000000,-2072.576638,8290.306550
2446.511836,-1455.581446,-3923.091493,10066.800811
2446.512166,-1532.190996,-3775.050304,10584.944971
2446.512495,-2145.067394,-3330.926739,10362.883188
2446.512824,-2145.067394,-2664.741391,11325.150913
2446.513153,-1915.238745,-1776.494261,11843.295072
2446.513482,-842.705048,-370.102971,11621.233289
2446.513811,0.000000,888.247130,10362.883188
2446.514141,536.266849,1184.329507,8956.491898
2446.514470,612.876398,1480.411884,9030.512492
2446.514799,-383.047749,1332.370696,10288.862594
2446.515128,153.219100,1554.432478,8882.471304
2446.515457,2145.067394,1702.473667,6439.791695
2446.515786,2528.115143,1702.473667,5033.400406
2446.516116,2528.115143,1480.411884,4959.379811
2446.516445,1915.238745,518.144159,6439.791695
2446.516774,612.876398,-814.226536,6957.935855
2446.517103,612.876398,-2368.659014,8882.471304
2446.517432,0.000000,-2368.659014,9770.718434
2446.517761,-1149.143247,-3108.864956,10658.965565
2446.518091,-1455.581446,-2812.782580,11473.192101
2446.518420,-919.314598,-2220.617826,11325.150913
2446.518749,0.000000,-1184.329507,11177.109724
2446.519078,459.657299,148.041188,11103.089130
2446.519407,1378.971896,592.164754,11473.192101
2446.519736,1915.238745,1184.329507,9622.677246
2446.520066,2145.067394,2146.597232,7994.224174
2446.520395,2451.505594,2960.823768,7179.997637
2446.520724,2374.896044,3182.885551,6069.688724
2446.521053,2451.505594,2590.720797,6365.771101
2446.521382,1762.019645,1406.391290,6069.688724
2446.521711,919.314598,-592.164754,6735.874072
2446.522041,-842.705048,-2960.823768,8734.430116
2446.522370,-995.924147,-3701.029710,10362.883188
2446.522699,-1378.971896,-3404.947333,9844.739029
2446.523028,-1532.190996,-2516.700203,10288.862594
2446.523357,-1915.238745,-2368.659014,11029.068536
2446.523686,-1762.019645,-1776.494261,11621.233289
2446.524016,-1072.533697,-444.123565,11991.336260
2446.524345,-306.438199,-0.000000,10436.903782
2446.524674,612.876398,888.247130,9474.636058
2446.525003,-229.828649,1776.494261,8808.450710
2446.525332,-536.266849,1554.432478,9400.615463
2446.525661,-536.266849,1554.432478,8660.409521
2446.525991,919.314598,1850.514855,7476.080014
2446.526320,1302.362347,1850.514855,5181.441594
2446.526649,2221.676944,1332.370696,5403.503377
2446.526978,1608.800546,222.061783,5921.647536
2446.527307,1302.362347,-592.164754,7254.018232
2446.527636,459.657299,-1554.432478,8808.450710
2446.527966,-229.828649,-1776.494261,9770.718434
2446.528295,-536.266849,-2368.659014,10658.965565
2446.528624,-1072.533697,-2738.761985,11473.192101
2446.528953,-842.705048,-2072.576638,11695.253884
2446.529282,-383.047749,-1480.411884,11547.212695
2446.529611,306.438199,-148.041188,11251.130318
2446.529941,842.705048,888.247130,11029.068536
2446.530270,1378.971896,1480.411884,10066.800811
2446.530599,1915.238745,2072.576638,8586.388927
2446.530928,2757.943793,2368.659014,7476.080014
2446.531257,2068.457845,2368.659014,6439.791695
2446.531586,2145.067394,2368.659014,6217.729913
2446.531915,1762.019645,1702.473667,6587.832884
2446.532245,919.314598,-222.061783,7254.018232
2446.532574,-536.266849,-2146.597232,8734.430116
2446.532903,-1378.971896,-3923.091493,9844.739029
2446.533232,-1225.752797,-3849.070898,10362.883188
2446.533561,-766.095498,-2960.823768,9622.677246
2446.533890,-612.876398,-2368.659014,10955.047942
2446.534220,-1225.752797,-1332.370696,11177.109724
2446.534549,-689.485948,-814.226536,11621.233289
2446.534878,-153.219100,-0.000000,10288.862594
2446.535207,383.047749,814.226536,9104.533087
2446.535536,0.000000,1332.370696,9030.512492
2446.535865,153.219100,1406.391290,8734.430116
2446.536195,-536.266849,1776.494261,8956.491898
2446.536524,995.924147,1702.473667,7550.100608
2446.536853,1838.629195,1850.514855,4885.359217
2446.537182,2298.286494,1110.308913,5477.523971
2446.537511,1532.190996,592.164754,5773.606348
2446.537840,842.705048,-592.164754,7476.080014
2446.538170,689.485948,-1628.453072,8882.471304
2446.538499,0.000000,-1850.514855,9474.636058
2446.538828,-766.095498,-2960.823768,10807.006753
2446.539157,-1149.143247,-2664.741391,11399.171507
2446.539486,-995.924147,-2146.597232,11399.171507
2446.539815,-612.876398,-1702.473667,11251.130318
2446.540145,-229.828649,-518.144159,11251.130318
2446.540474,1149.143247,1036.288319,11769.274478
2446.540803,1762.019645,1850.514855,9326.594869
2446.541132,1991.848295,2590.720797,7846.182985
2446.541461,2528.115143,3034.844362,6957.935855
2446.541790,2604.724693,3404.947333,5773.606348
2446.542120,1838.629195,2738.761985,6365.771101
2446.542449,1455.581446,1332.370696,6439.791695
2446.542778,0.000000,-814.226536,7994.224174
2446.543107,-1302.362347,-3182.885551,9474.636058
2446.543436,-1838.629195,-4441.235652,10214.842000
2446.543765,-2374.896044,-3701.029710,10214.842000
2446.544095,-1915.238745,-3034.844362,10732.986159
2446.544424,-1915.238745,-2368.659014,11251.130318
2446.544753,-919.314598,-962.267725,12065.356855
2446.545082,-919.314598,-222.061783,11473.192101
2446.545411,459.657299,-0.000000,9400.615463
2446.545740,153.219100,1628.453072,8956.491898
2446.546070,0.000000,1332.370696,9474.636058
2446.546399,612.876398,888.247130,10140.821405
2446.546728,1532.190996,2294.638420,6587.832884
2446.547057,3677.258390,3404.947333,6291.750507
2446.547386,2911.162892,2368.659014,4219.173869
2446.547715,2451.505594,1554.432478,5551.544565
2446.548045,1532.190996,592.164754,6883.915261
2446.548374,536.266849,-1110.308913,7550.100608
2446.548703,-459.657299,-2664.741391,9696.697840
2446.549032,-1532.190996,-2812.782580,10362.883188
2446.549361,-2221.676944,-3404.947333,11473.192101
2446.549690,-2221.676944,-3256.906145,11695.253884
2446.550020,-842.705048,-2442.679609,11695.253884
2446.550349,0.000000,-1110.308913,11621.233289
2446.550678,459.657299,222.061783,10881.027347
2446.551007,1072.533697,1184.329507,11103.089130
2446.551336,1991.848295,1332.370696,9030.512492
2446.551665,3524.039291,2516.700203,7328.038826
2446.551995,3447.429741,3997.112087,6957.935855
2446.552324,3294.210641,2886.803174,6143.709319
2446.552653,2681.334243,2590.720797,6661.853478
2446.552982,2068.457845,1406.391290,6069.688724
2446.553311,689.485948,-814.226536,7328.038826
2446.553640,-1149.143247,-3034.844362,9326.594869
2446.553970,-2604.724693,-4145.153275,10584.944971
2446.554299,-2451.505594,-4515.256246,11695.253884
2446.554628,-2145.067394,-3108.864956,10510.924376
2446.554957,-1838.629195,-2442.679609,11621.233289
2446.555286,-1915.238745,-1554.432478,11621.233289
2446.555615,-766.095498,296.082377,10955.047942
2446.555945,0.000000,370.102971,10066.800811
2446.556274,459.657299,1110.308913,8734.430116
2446.556603,-612.876398,1554.432478,9474.636058
2446.556932,0.000000,592.164754,9770.718434
2446.557261,1225.752797,1850.514855,7254.018232
2446.557590,2681.334243,2220.617826,6365.771101
2446.557920,2911.162892,2146.597232,4441.235652
2446.558249,2681.334243,1702.473667,5551.544565
2446.558578,1838.629195,888.247130,7105.977043
2446.558907,1225.752797,-1110.308913,7254.018232
2446.559236,459.657299,-2220.617826,9474.636058
2446.559566,-1072.533697,-2294.638420,10436.903782
2446.559895,-1608.800546,-3256.906145,11399.171507
2446.560224,-1378.971896,-3478.967927,12065.356855
2446.560553,-919.314598,-1924.535449,11103.089130
2446.560882,-306.438199,-1406.391290,11103.089130
2446.561211,76.609550,-148.041188,11251.130318
2446.561541,1149.143247,444.123565,10807.006753
2446.561870,1915.238745,962.267725,9474.636058
2446.562199,2451.505594,2146.597232,8364.327145
2446.562528,2298.286494,2960.823768,6883.915261
2446.562857,2681.334243,3034.844362,6143.709319
2446.563187,2298.286494,2590.720797,6439.791695
2446.563516,1455.581446,1258.350101,6809.894666
2446.563845,536.266849,-666.185348,7698.141797
2446.564174,-1608.800546,-2664.741391,9474.636058
2446.564503,-2221.676944,-3849.070898,11251.130318
2446.564833,-2298.286494,-3849.070898,10510.924376
2446.565162,-2145.067394,-3182.885551,11029.068536
2446.565491,-1991.848295,-2590.720797,11399.171507
2446.565820,-1532.190996,-1406.391290,11399.171507
2446.566149,-383.047749,-444.123565,11399.171507
2446.566478,153.219100,444.123565,9918.759623
2446.566808,612.876398,1406.391290,8660.409521
2446.567137,-306.438199,888.247130,9326.594869
2446.567466,-306.438199,962.267725,8882.471304
2446.567795,1149.143247,2146.597232,7624.121203
2446.568124,2221.676944,2442.679609,5403.503377
2446.568454,3294.210641,2368.659014,4737.318029
2446.568783,1991.848295,1554.432478,5403.503377
2446.569112,1838.629195,1110.308913,6291.750507
2446.569441,536.266849,-592.164754,7698.141797
2446.569770,-229.828649,-1628.453072,8956.491898
2446.570100,-1378.971896,-2442.679609,10436.903782
2446.570429,-1378.971896,-3182.885551,11547.212695
2446.570758,-1608.800546,-2590.720797,10955.047942
2446.571087,-766.095498,-2294.638420,11325.150913
2446.571416,-383.047749,-1332.370696,10807.006753
2446.571745,689.485948,370.102971,11251.130318
2446.572075,612.876398,740.205942,10955.047942
2446.572404,1915.238745,1110.308913,9548.656652
2446.572733,2681.334243,2146.597232,8142.265362
2446.573062,3140.991542,2886.803174,7179.997637
2446.573391,2681.334243,2516.700203,6143.709319
2446.573721,2757.943793,2516.700203,5995.668130
2446.574050,2221.676944,1998.556043,6957.935855
2446.574379,1225.752797,-0.000000,7328.038826
2446.574708,-689.485948,-2368.659014,9178.553681
2446.575037,-2145.067394,-3701.029710,10584.944971
2446.575367,-2068.457845,-4663.297435,11769.274478
2446.575696,-1608.800546,-3404.947333,10140.821405
2446.576025,-2068.457845,-2886.803174,11695.253884
2446.576354,-1378.971896,-1998.556043,11843.295072
2446.576683,-995.924147,-0.000000,11399.171507
2446.577013,-459.657299,518.144159,10362.883188
2446.577342,306.438199,888.247130,9178.553681
2446.577671,229.828649,1702.473667,9178.553681
2446.578000,-229.828649,1332.370696,10214.842000
2446.578329,-153.219100,740.205942,8586.388927
2446.578658,1838.629195,1258.350101,7402.059420
2446.578988,2757.943793,2368.659014,4663.297435
2446.579317,3294.210641,1776.494261,4959.379811
2446.579646,2528.115143,1332.370696,5847.626942
2446.579975,2068.457845,296.082377,6439.791695
2446.580304,1149.143247,-1406.391290,8438.347739
2446.580634,153.219100,-1554.432478,9474.636058
2446.580963,-766.095498,-2738.761985,10584.944971
2446.581292,-1608.800546,-3552.988522,11695.253884
2446.581621,-1455.581446,-2220.617826,10881.027347
2446.581950,-536.266849,-1258.350101,10807.006753
2446.582280,-229.828649,-592.164754,10584.944971
2446.582609,0.000000,1036.288319,10436.903782
2446.582938,229.828649,1628.453072,11177.109724
2446.583267,766.095498,1258.350101,9548.656652
2446.583596,1532.190996,2294.638420,7179.997637
2446.583925,2451.505594,2812.782580,6439.791695
2446.584255,1685.410096,2442.679609,5773.606348
2446.584584,1378.971896,1258.350101,6957.935855
2446.584913,919.314598,-296.082377,7550.100608
2446.585242,-229.828649,-2146.597232,8142.265362
2446.585571,-995.924147,-3997.112087,10066.800811
2446.585901,-1762.019645,-3775.050304,10288.862594
2446.586230,-1915.238745,-3404.947333,10214.842000
2446.586559,-2068.457845,-2960.823768,11547.212695
2446.586888,-1685.410096,-1702.473667,11251.130318
2446.587217,-536.266849,-1184.329507,11843.295072
2446.587547,-229.828649,148.041188,11029.068536
2446.587876,0.000000,1184.329507,9622.677246
2446.588205,0.000000,1258.350101,8956.491898
2446.588534,-536.266849,2146.597232,9104.533087
2446.588863,-536.266849,1850.514855,8882.471304
2446.589192,2145.067394,2146.597232,7846.182985
2446.589522,1762.019645,2294.638420,4737.318029
2446.589851,2451.505594,740.205942,5699.585753
2446.590180,1608.800546,-0.000000,5921.647536
2446.590509,1302.362347,-370.102971,7105.977043
2446.590838,0.000000,-2368.659014,8142.265362
2446.591168,0.000000,-1850.514855,9474.636058
2446.591497,-306.438199,-3108.864956,10732.986159
2446.591826,-612.876398,-2294.638420,10881.027347
2446.592155,-689.485948,-2294.638420,10881.027347
2446.592484,-766.095498,-1110.308913,10881.027347
2446.592814,459.657299,-0.000000,11103.089130
2446.593143,1455.581446,1258.350101,11621.233289
2446.593472,2221.676944,1850.514855,9474.636058
2446.593801,3064.381992,2960.823768,8290.306550
2446.594130,3217.601092,2886.803174,7105.977043
2446.594459,3370.820191,3404.947333,6217.729913
2446.594789,2757.943793,3330.926739,5995.668130
2446.595118,2221.676944,1554.432478,6291.750507
2446.595447,995.924147,-370.102971,7550.100608
2446.595776,-919.314598,-2812.782580,9104.533087
2446.596105,-1532.190996,-4589.276840,10732.986159
2446.596435,-1685.410096,-4589.276840,10214.842000
2446.596764,-2298.286494,-3552.988522,10288.862594
2446.597093,-2298.286494,-3552.988522,12139.377449
2446.597422,-2145.067394,-1184.329507,11325.150913
2446.597751,-766.095498,-0.000000,12065.356855
2446.598081,-612.876398,444.123565,10881.027347
2446.598410,919.314598,1924.535449,9400.615463
2446.598739,-229.828649,2072.576638,9696.697840
2446.599068,76.609550,1406.391290,10288.862594
2446.599397,383.047749,1332.370696,9622.677246
2446.599726,2911.162892,3108.864956,6143.709319
2446.600056,3524.039291,2664.741391,4959.379811
2446.600385,3140.991542,1850.514855,4441.235652
2446.600714,2834.553343,1480.411884,5921.647536
2446.601043,1915.238745,-444.123565,7031.956449
2446.601372,919.314598,-2146.597232,8438.347739
2446.601702,-689.485948,-2590.720797,9844.739029
2446.602031,-1532.190996,-4071.132681,10955.047942
2446.602360,-1915.238745,-3256.906145,11029.068536
2446.602689,-995.924147,-1998.556043,11251.130318
2446.603018,-612.876398,-1258.350101,10881.027347
2446.603348,383.047749,148.041188,11547.212695
2446.603677,0.000000,1776.494261,10807.006753
2446.604006,383.047749,1480.411884,9992.780217
2446.604335,612.876398,1110.308913,9992.780217
2446.604664,1455.581446,2516.700203,7402.059420
2446.604993,2374.896044,2664.741391,6217.729913
2446.605323,2298.286494,1776.494261,5551.544565
2446.605652,2374.896044,1406.391290,5847.626942
2446.605981,1455.581446,-296.082377,7031.956449
2446.606310,0.000000,-2516.700203,7550.100608
2446.606639,-842.705048,-4145.153275,9178.553681
2446.606969,-1762.019645,-4145.153275,11177.109724
2446.607298,-1915.238745,-3627.009116,9326.594869
2446.607627,-2068.457845,-2960.823768,11473.192101
2446.607956,-1915.238745,-2368.659014,11695.253884
2446.608285,-1225.752797,-518.144159,11399.171507
2446.608615,-995.924147,-0.000000,11843.295072
2446.608944,0.000000,1258.350101,9178.553681
2446.609273,0.000000,1480.411884,9326.594869
2446.609602,-995.924147,2368.659014,9474.636058
2446.609931,-919.314598,2368.659014,8882.471304
2446.610260,76.609550,1702.473667,8068.244768
2446.610590,1838.629195,1776.494261,5477.523971
2446.610919,1915.238745,1110.308913,4959.379811
2446.611248,1685.410096,-148.041188,6291.750507
2446.611577,153.219100,-888.247130,7105.977043
2446.611906,689.485948,-2072.576638,8364.327145
2446.612236,229.828649,-1924.535449,9622.677246
2446.612565,-612.876398,-2072.576638,10066.800811
2446.612894,-842.705048,-2590.720797,11251.130318
2446.613223,-689.485948,-1628.453072,11547.212695
2446.613552,0.000000,-592.164754,11695.253884
2446.613882,919.314598,-296.082377,11547.212695
2446.614211,2221.676944,1850.514855,10584.944971
2446.614540,2681.334243,2442.679609,9474.636058
2446.614869,2834.553343,2886.803174,7994.224174
2446.615198,2681.334243,3108.864956,7105.977043
2446.615527,2834.553343,2738.761985,6587.832884
2446.615857,2374.896044,2146.597232,6217.729913
2446.616186,1378.971896,1036.288319,6883.915261
2446.616515,0.000000,-1628.453072,7846.182985
2446.616844,-1378.971896,-3552.988522,9326.594869
2446.617173,-1991.848295,-4663.297435,10658.965565
2446.617503,-1991.848295,-4367.215058,10066.800811
2446.617832,-1685.410096,-3404.947333,11547.212695
2446.618161,-2298.286494,-2220.617826,11621.233289
2446.618490,-1225.752797,-814.226536,11251.130318
2446.618819,-766.095498,444.123565,11843.295072
2446.619149,0.000000,666.185348,10436.903782
2446.619478,0.000000,1702.473667,9252.574275
2446.619807,0.000000,1258.350101,10584.944971
2446.620136,1455.581446,888.247130,9474.636058
2446.620465,1608.800546,2442.679609,6809.894666
2446.620795,2987.772442,3108.864956,6365.771101
2446.621124,2834.553343,2812.782580,4293.194464
2446.621453,3217.601092,1554.432478,5625.565159
2446.621782,1532.190996,370.102971,5995.668130
2446.622111,536.266849,-1480.411884,7105.977043
2446.622440,-612.876398,-3034.844362,9918.759623
2446.622770,-1762.019645,-3256.906145,10510.924376
2446.623099,-2528.115143,-3552.988522,11399.171507
2446.623428,-1685.410096,-2442.679609,11251.130318
2446.623757,-536.266849,-1406.391290,10732.986159
2446.624086,-306.438199,-444.123565,11251.130318
2446.624416,306.438199,1406.391290,11029.068536
2446.624745,0.000000,1406.391290,10140.821405
2446.625074,1072.533697,592.164754,10658.965565
2446.625403,1838.629195,2072.576638,7772.162391
2446.625732,2604.724693,2664.741391,6661.853478
2446.626062,2604.724693,2368.659014,5921.647536
2446.626391,2451.505594,2664.741391,4959.379811
2446.626720,2681.334243,1258.350101,6217.729913
2446.627049,1072.533697,-666.185348,6957.935855
2446.627378,0.000000,-3182.885551,8512.368333
2446.627707,-1685.410096,-4737.318029,10658.965565
2446.628037,-2145.067394,-4293.194464,10436.903782
2446.628366,-2451.505594,-3256.906145,10362.883188
2446.628695,-2604.724693,-3034.844362,12361.439231
2446.629024,-2451.505594,-1776.494261,11843.295072
2446.629353,-995.924147,-74.020594,12509.480420
2446.629683,0.000000,370.102971,10140.821405
2446.630012,536.266849,1406.391290,9474.636058
2446.630341,306.438199,1628.453072,9104.533087
2446.630670,-459.657299,2664.741391,9326.594869
2446.630999,306.438199,1554.432478,9178.553681
2446.631329,1532.190996,2146.597232,6217.729913
2446.631658,2757.943793,1628.453072,5181.441594
2446.631987,1532.190996,1110.308913,5255.462188
2446.632316,1991.848295,-0.000000,6365.771101
2446.632645,766.095498,-1332.370696,7550.100608
2446.632974,536.266849,-2220.617826,8142.265362
2446.633304,-536.266849,-2072.576638,10140.821405
2446.633633,-1302.362347,-2664.741391,10807.006753
2446.633962,-1072.533697,-2516.700203,11695.253884
2446.634291,-689.485948,-1332.370696,11843.295072
2446.634620,229.828649,-666.185348,11029.068536
2446.634950,689.485948,-0.000000,10881.027347
2446.635279,1149.143247,1554.432478,11251.130318
2446.635608,1762.019645,2220.617826,9844.739029
2446.635937,2528.115143,2368.659014,8068.244768
2446.636266,3140.991542,2960.823768,6365.771101
2446.636596,3064.381992,2960.823768,5847.626942
2446.636925,2681.334243,1850.514855,6069.688724
2446.637254,2145.067394,1258.350101,6513.812290
2446.637583,919.314598,-666.185348,7105.977043
2446.637912,-612.876398,-3182.885551,8586.388927
2446.638241,-1685.410096,-4145.153275,10140.821405
2446.638571,-1991.848295,-4441.235652,11029.068536
2446.638900,-2145.067394,-3627.009116,10881.027347
2446.639229,-2145.067394,-2812.782580,11251.130318
2446.639558,-1991.848295,-1258.350101,12287.418637
2446.639887,-766.095498,-74.020594,11695.253884
2446.640217,0.000000,666.185348,10584.944971
2446.640546,383.047749,1184.329507,9178.553681
2446.640875,76.609550,1480.411884,9622.677246
2446.641204,-383.047749,370.102971,9992.780217
2446.641533,919.314598,1776.494261,8216.285956
2446.641863,2451.505594,2294.638420,6143.709319
2446.642192,2911.162892,1924.535449,4959.379811
2446.642521,2451.505594,1406.391290,4441.235652
2446.642850,1915.238745,222.061783,7031.956449
2446.643179,536.266849,-1110.308913,7698.141797
2446.643508,0.000000,-2738.761985,9252.574275
2446.643838,-995.924147,-3404.947333,10066.800811
2446.644167,-1608.800546,-2590.720797,10732.986159
2446.644496,-1608.800546,-2664.741391,11177.109724
2446.644825,-842.705048,-1628.453072,11251.130318
2446.645154,0.000000,-444.123565,10955.047942
2446.645484,689.485948,740.205942,11251.130318
2446.645813,1149.143247,1258.350101,10066.800811
2446.646142,1225.752797,888.247130,10214.842000
2446.646471,1532.190996,1850.514855,9030.512492
2446.646800,2374.896044,3108.864956,6735.874072
2446.647130,2451.505594,2590.720797,5847.626942
2446.647459,2451.505594,2442.679609,5329.482782
2446.647788,2451.505594,1480.411884,5847.626942
2446.648117,919.314598,-888.247130,6439.791695
2446.648446,-383.047749,-2516.700203,8068.244768
2446.648775,-1915.238745,-4293.194464,9844.739029
2446.649105,-2068.457845,-3997.112087,10362.883188
2446.649434,-1915.238745,-3552.988522,10066.800811
2446.649763,-2451.505594,-2960.823768,11547.212695
2446.650092,-1838.629195,-1924.535449,11917.315666
2446.650421,-1149.143247,-592.164754,12287.418637
2446.650751,-383.047749,740.205942,10658.965565
2446.651080,76.609550,1184.329507,9918.759623
2446.651409,-153.219100,1554.432478,9474.636058
2446.651738,-612.876398,2368.659014,9178.553681
2446.652067,0.000000,1480.411884,9548.656652
2446.652397,1149.143247,1850.514855,6809.894666
2446.652726,2681.334243,2220.617826,5403.503377
2446.653055,2681.334243,1258.350101,4811.338623
2446.653384,1532.190996,296.082377,5921.647536
2446.653713,1991.848295,-1036.288319,7698.141797
2446.654042,1149.143247,-1998.556043,8734.430116
2446.654372,-383.047749,-2072.576638,9696.697840
2446.654701,-1149.143247,-2368.659014,10881.027347
2446.655030,-1149.143247,-2368.659014,11621.233289
2446.655359,-1149.143247,-1554.432478,11843.295072
2446.655688,0.000000,-888.247130,11325.150913
2446.656018,229.828649,-222.061783,11177.109724
2446.656347,689.485948,888.247130,10955.047942
2446.656676,1762.019645,1924.535449,10658.965565
2446.657005,2298.286494,2294.638420,7698.141797
2446.657334,2987.772442,2664.741391,7105.977043
2446.657663,2911.162892,3552.988522,5255.462188
2446.657992,3524.039291,2590.720797,5329.482782
2446.658322,2451.505594,1924.535449,6143.709319
2446.658651,1378.971896,-0.000000,6587.832884
2446.658980,-306.438199,-2960.823768,8068.244768
2446.659309,-1991.848295,-4293.194464,9918.759623
2446.659638,-1915.238745,-4515.256246,10881.027347
2446.659967,-2451.505594,-3404.947333,10732.986159
2446.660296,-1991.848295,-2590.720797,11917.315666
2446.660625,-1838.629195,-1776.494261,11843.295072
2446.660955,-1378.971896,-148.041188,12139.377449
2446.661284,-306.438199,518.144159,10362.883188
2446.661613,383.047749,962.267725,9548.656652
2446.661942,0.000000,1480.411884,8956.491898
2446.662271,0.000000,1110.308913,10288.862594
2446.662600,1149.143247,1258.350101,8216.285956
2446.662929,2374.896044,2220.617826,5773.606348
2446.663258,3447.429741,1850.514855,4737.318029
2446.663587,2757.943793,1480.411884,4737.318029
2446.663917,1991.848295,148.041188,7031.956449
2446.664246,306.438199,-888.247130,7254.018232
2446.664575,-383.047749,-2664.741391,9326.594869
2446.664904,-1685.410096,-2812.782580,11103.089130
2446.665233,-2604.724693,-2812.782580,11399.171507
2446.665562,-2145.067394,-3256.906145,11843.295072
2446.665891,-1149.143247,-1480.411884,11325.150913
2446.666220,0.000000,-518.144159,11029.068536
2446.666550,383.047749,740.205942,10732.986159
2446.666879,689.485948,1554.432478,10584.944971
2446.667208,1838.629195,1258.350101,9400.615463
2446.667537,2068.457845,1850.514855,7994.224174
2446.667866,2987.772442,3256.906145,6143.709319
2446.668195,2528.115143,3034.844362,5477.523971
2446.668524,2298.286494,2294.638420,6069.688724
2446.668853,1378.971896,740.205942,6291.750507
2446.669182,383.047749,-888.247130,6883.915261
2446.669512,-1072.533697,-3552.988522,8956.491898
2446.669841,-2451.505594,-4293.194464,10362.883188
2446.670170,-2987.772442,-3923.091493,11177.109724
2446.670499,-2451.505594,-2812.782580,11103.089130
2446.670828,-2374.896044,-2664.741391,11621.233289
2446.671157,-1838.629195,-1406.391290,11917.315666
2446.671486,-536.266849,-0.000000,11621.233289
2446.671815,-229.828649,1258.350101,9844.739029
2446.672145,689.485948,1258.350101,8808.450710
2446.672474,766.095498,1258.350101,10362.883188
2446.672803,1762.019645,1702.473667,8734.430116
2446.673132,2451.505594,3108.864956,6143.709319
2446.673461,2987.772442,2664.741391,5773.606348
2446.673790,2298.286494,2072.576638,4515.256246
2446.674119,1762.019645,740.205942,6883.915261
2446.674448,1302.362347,-814.226536,7254.018232
2446.674777,-383.047749,-1628.453072,8216.285956
2446.675107,-2298.286494,-3108.864956,11547.212695
2446.675436,-2451.505594,-2442.679609,11029.068536
2446.675765,-2298.286494,-3256.906145,11843.295072
2446.676094,-1915.238745,-2368.659014,12213.398043
2446.676423,0.000000,-1850.514855,11695.253884
2446.676752,459.657299,-0.000000,11029.068536
2446.677081,612.876398,1258.350101,10807.006753
2446.677410,2145.067394,814.226536,11251.130318
2446.677740,3217.601092,1554.432478,8290.306550
2446.678069,4136.915689,3627.009116,7105.977043
2446.678398,3907.087040,2886.803174,5625.565159
2446.678727,4749.792088,3256.906145,5403.503377
2446.679056,3064.381992,2664.741391,5625.565159
2446.679385,1608.800546,1332.370696,5551.544565
2446.679714,153.219100,-1628.453072,7550.100608
2446.680043,-1838.629195,-3330.926739,9400.615463
2446.680373,-2911.162892,-4071.132681,11325.150913
2446.680702,-3217.601092,-3552.988522,11103.089130
2446.681031,-3064.381992,-2664.741391,11029.068536
2446.681360,-3140.991542,-2886.803174,12731.542202
2446.681689,-1762.019645,-962.267725,11843.295072
2446.682018,-612.876398,148.041188,11251.130318
2446.682347,76.609550,296.082377,9992.780217
2446.682676,842.705048,1406.391290,7920.203579
2446.683005,-229.828649,2072.576638,9474.636058
2446.683335,383.047749,-0.000000,10436.903782
2446.683664,1225.752797,1406.391290,6365.771101
2446.683993,4060.306139,2664.741391,6143.709319
2446.684322,3370.820191,2294.638420,3552.988522
2446.684651,3370.820191,1776.494261,5403.503377
2446.684980,1455.581446,518.144159,7328.038826
2446.685309,766.095498,-814.226536,7846.182985
2446.685638,-766.095498,-2812.782580,9992.780217
2446.685968,-1608.800546,-3404.947333,11325.150913
2446.686297,-1991.848295,-3923.091493,11325.150913
2446.686626,-2451.505594,-2960.823768,11917.315666
2446.686955,-1149.143247,-1776.494261,11473.192101
2446.687284,-536.266849,-888.247130,11103.089130
2446.687613,459.657299,592.164754,11325.150913
2446.687942,0.000000,1998.556043,9844.739029
2446.688271,153.219100,666.185348,9548.656652
2446.688600,995.924147,1258.350101,9918.759623
2446.688930,2068.457845,2738.761985,6069.688724
2446.689259,3370.820191,2442.679609,6365.771101
2446.689588,2604.724693,2590.720797,4663.297435
2446.689917,2834.553343,1998.556043,5921.647536
2446.690246,919.314598,-296.082377,6587.832884
2446.690575,-306.438199,-1776.494261,8068.244768
2446.690904,-1608.800546,-3330.926739,10584.944971
2446.691233,-1915.238745,-3997.112087,11917.315666
2446.691563,-2221.676944,-3108.864956,9992.780217
2446.691892,-2528.115143,-3552.988522,11917.315666
2446.692221,-1991.848295,-2442.679609,11695.253884
2446.692550,-995.924147,-592.164754,11399.171507
2446.692879,-153.219100,444.123565,10362.883188
2446.693208,306.438199,1258.350101,8956.491898
2446.693537,536.266849,814.226536,9104.533087
2446.693866,-459.657299,1924.535449,9326.594869
2446.694195,383.047749,1406.391290,9104.533087
2446.694525,1608.800546,2146.597232,5403.503377
2446.694854,3294.210641,2146.597232,5329.482782
2446.695183,2451.505594,1554.432478,4663.297435
2446.695512,1991.848295,444.123565,6809.894666
2446.695841,306.438199,-962.267725,7846.182985
2446.696170,0.000000,-2368.659014,9252.574275
2446.696499,-1225.752797,-2590.720797,11029.068536
2446.696828,-1608.800546,-2960.823768,11177.109724
2446.697158,-1762.019645,-3256.906145,11547.212695
2446.697487,-1149.143247,-2220.617826,12139.377449
2446.697816,229.828649,-888.247130,11251.130318
2446.698145,689.485948,-0.000000,10955.047942
2446.698474,1762.019645,444.123565,11547.212695
2446.698803,3140.991542,1776.494261,9030.512492
2446.699132,3524.039291,2368.659014,7846.182985
2446.699461,3370.820191,3775.050304,5921.647536
2446.699790,3524.039291,3997.112087,5477.523971
2446.700120,3753.867940,3478.967927,6069.688724
2446.700449,3064.381992,1850.514855,5847.626942
2446.700778,1455.581446,-74.020594,6735.874072
2446.701107,-995.924147,-3256.906145,8808.450710
2446.701436,-2145.067394,-3849.070898,10658.965565
2446.701765,-2298.286494,-4293.194464,11103.089130
2446.702094,-2068.457845,-2590.720797,10140.821405
2446.702423,-2145.067394,-2590.720797,11473.192101
2446.702753,-2451.505594,-1924.535449,11621.233289
2446.703082,-1378.971896,-518.144159,11769.274478
2446.703411,-536.266849,222.061783,10881.027347
2446.703740,919.314598,666.185348,9178.553681
2446.704069,153.219100,2072.576638,8734.430116
2446.704398,-612.876398,1332.370696,9696.697840
2446.704727,-459.657299,222.061783,9992.780217
2446.705056,1762.019645,1924.535449,6809.894666
2446.705385,3447.429741,1998.556043,4367.215058
2446.705715,3294.210641,1628.453072,4071.132681
2446.706044,2834.553343,962.267725,5773.606348
2446.706373,1762.019645,-222.061783,7846.182985
2446.706702,766.095498,-1406.391290,8364.327145
2446.707031,-229.828649,-2072.576638,9918.759623
2446.707360,-1991.848295,-3034.844362,11325.150913
2446.707689,-2451.505594,-3478.967927,12287.418637
2446.708018,-1608.800546,-2368.659014,12213.398043
2446.708348,-306.438199,-1110.308913,11251.130318
2446.708677,0.000000,-296.082377,11695.253884
2446.709006,536.266849,2072.576638,10807.006753
2446.709335,612.876398,2146.597232,10658.965565
2446.709664,1532.190996,1480.411884,8882.471304
2446.709993,2451.505594,2590.720797,7105.977043
2446.710322,2681.334243,2960.823768,5699.585753
2446.710651,2451.505594,2590.720797,5551.544565
2446.710981,2374.896044,1480.411884,6661.853478
2446.711310,1225.752797,-222.061783,6809.894666
2446.711639,0.000000,-2294.638420,7920.203579
2446.711968,-1762.019645,-4367.215058,10214.842000
2446.712297,-1608.800546,-5033.400406,10436.903782
2446.712626,-1915.238745,-3849.070898,10140.821405
2446.712955,-1685.410096,-2516.700203,11547.212695
2446.713284,-1608.800546,-1850.514855,11029.068536
2446.713613,-612.876398,-296.082377,11621.233289
2446.713943,-229.828649,1110.308913,10436.903782
2446.714272,536.266849,1184.329507,9252.574275
2446.714601,0.000000,962.267725,9326.594869
2446.714930,-766.095498,1998.556043,8808.450710
2446.715259,-383.047749,1258.350101,8956.491898
2446.715588,459.657299,1628.453072,7105.977043
2446.715917,1915.238745,1480.411884,4959.379811
2446.716246,1838.629195,592.164754,5181.441594
2446.716576,1838.629195,-0.000000,6217.729913
2446.716905,1072.533697,-1480.411884,7846.182985
2446.717234,229.828649,-2516.700203,8808.450710
2446.717563,-536.266849,-2442.679609,9696.697840
2446.717892,-995.924147,-2738.761985,10732.986159
2446.718221,-1149.143247,-2664.741391,11695.253884
2446.718550,-919.314598,-1998.556043,11843.295072
2446.718879,0.000000,-888.247130,11547.212695
2446.719208,306.438199,222.061783,11029.068536
2446.719538,2298.286494,1628.453072,10510.924376
2446.719867,2757.943793,2886.803174,9030.512492
2446.720196,3064.381992,3182.885551,7476.080014
2446.720525,3064.381992,3330.926739,6735.874072
2446.720854,2757.943793,3182.885551,5995.668130
2446.721183,1685.410096,2146.597232,6291.750507
2446.721512,1455.581446,-0.000000,6809.894666
2446.721841,-459.657299,-1480.411884,8216.285956
2446.722171,-1685.410096,-4293.194464,9918.759623
2446.722500,-1762.019645,-4367.215058,10362.883188
2446.722829,-1685.410096,-3182.885551,9844.739029
2446.723158,-1608.800546,-2960.823768,10955.047942
2446.723487,-2145.067394,-1332.370696,11325.150913
2446.723816,-1072.533697,-518.144159,11843.295072
2446.724145,-153.219100,148.041188,11547.212695
2446.724474,612.876398,1036.288319,10362.883188
2446.724803,306.438199,1850.514855,9622.677246
2446.725133,-536.266849,1628.453072,9474.636058
2446.725462,306.438199,370.102971,11251.130318
2446.725791,1685.410096,1628.453072,6883.915261
2446.726120,3907.087040,2812.782580,5847.626942
2446.726449,3753.867940,1998.556043,4145.153275
2446.726778,2911.162892,2220.617826,4737.318029
2446.727107,1991.848295,666.185348,6513.812290
2446.727436,842.705048,-1332.370696,7179.997637
2446.727766,-229.828649,-2220.617826,9104.533087
2446.728095,-2068.457845,-3849.070898,11399.171507
2446.728424,-2145.067394,-3404.947333,11843.295072
2446.728753,-1838.629195,-3034.844362,11695.253884
2446.729082,-766.095498,-2220.617826,11103.089130
2446.729411,-153.219100,-444.123565,11399.171507
2446.729740,76.609550,1554.432478,11769.274478
2446.730069,0.000000,2072.576638,10732.986159
2446.730398,0.000000,1258.350101,10510.924376
2446.730728,1685.410096,1480.411884,9326.594869
2446.731057,2145.067394,2960.823768,6143.709319
2446.731386,2451.505594,2368.659014,6513.812290
2446.731715,2528.115143,2368.659014,4589.276840
2446.732044,2757.943793,1406.391290,5995.668130
2446.732373,1378.971896,-666.185348,6735.874072
2446.732702,-306.438199,-2664.741391,7846.182985
2446.733031,-1608.800546,-4441.235652,10732.986159
2446.733361,-2834.553343,-4071.132681,10807.006753
2446.733690,-2374.896044,-3108.864956,9992.780217
2446.734019,-2451.505594,-2368.659014,11695.253884
2446.734348,-2068.457845,-1998.556043,11917.315666
2446.734677,-1225.752797,-0.000000,11991.336260
2446.735006,153.219100,1258.350101,10584.944971
2446.735335,229.828649,888.247130,9474.636058
2446.735664,153.219100,1332.370696,9474.636058
2446.735993,-612.876398,2590.720797,9178.553681
2446.736323,-766.095498,1184.329507,8882.471304
2446.736652,612.876398,1258.350101,7105.977043
2446.736981,2221.676944,1628.453072,4367.215058
2446.737310,2451.505594,814.226536,5033.400406
2446.737639,1378.971896,-444.123565,5847.626942
2446.737968,1072.533697,-1258.350101,7105.977043
2446.738297,689.485948,-2590.720797,8660.409521
2446.738626,-306.438199,-1924.535449,9696.697840
2446.738956,-1225.752797,-2664.741391,10955.047942
2446.739285,-1608.800546,-2960.823768,12065.356855
2446.739614,-1072.533697,-1998.556043,12065.356855
2446.739943,-995.924147,-1036.288319,11843.295072
2446.740272,459.657299,-148.041188,11251.130318
2446.740601,1991.848295,1702.473667,11547.212695
2446.740930,2298.286494,2516.700203,9252.574275
2446.741259,2681.334243,2960.823768,7624.121203
2446.741589,2604.724693,2738.761985,6513.812290
2446.741918,3524.039291,3256.906145,5847.626942
2446.742247,2604.724693,2368.659014,5847.626942
2446.742576,1532.190996,962.267725,6291.750507
2446.742905,0.000000,-1628.453072,7624.121203
2446.743234,-1532.190996,-3552.988522,9474.636058
2446.743563,-1991.848295,-4737.318029,10807.006753
2446.743892,-2145.067394,-3552.988522,9918.759623
2446.744221,-1532.190996,-3034.844362,11399.171507
2446.744551,-1455.581446,-1850.514855,11769.274478
2446.744880,-1608.800546,-74.020594,11769.274478
2446.745209,-459.657299,444.123565,11917.315666
2446.745538,-229.828649,1258.350101,10288.862594
2446.745867,459.657299,1554.432478,9474.636058
2446.746196,-306.438199,1776.494261,9474.636058
2446.746525,0.000000,-0.000000,10140.821405
2446.746854,1532.190996,962.267725,8216.285956
2446.747184,2911.162892,2664.741391,4885.359217
2446.747513,2528.115143,1998.556043,5181.441594
2446.747842,2834.553343,1628.453072,4589.276840
2446.748171,2604.724693,962.267725,6365.771101
2446.748500,1149.143247,-1110.308913,7179.997637
2446.748829,536.266849,-1702.473667,8512.368333
2446.749158,-1302.362347,-3034.844362,11251.130318
2446.749487,-2145.067394,-3478.967927,12139.377449
2446.749816,-1608.800546,-2886.803174,12213.398043
2446.750146,-842.705048,-1850.514855,11843.295072
2446.750475,0.000000,-814.226536,11621.233289
2446.750804,0.000000,814.226536,11843.295072
2446.751133,153.219100,2072.576638,11103.089130
2446.751462,1149.143247,1184.329507,9992.780217
2446.751791,2298.286494,1776.494261,7624.121203
2446.752120,2834.553343,2664.741391,6513.812290
2446.752449,2528.115143,2442.679609,5181.441594
2446.752779,2604.724693,1924.535449,5625.565159
2446.753108,1991.848295,814.226536,6069.688724
2446.753437,612.876398,-1110.308913,6735.874072
2446.753766,-919.314598,-3182.885551,9030.512492
2446.754095,-2068.457845,-4959.379811,11325.150913
2446.754424,-3370.820191,-4071.132681,10140.821405
2446.754753,-2145.067394,-2960.823768,11547.212695
2446.755082,-2221.676944,-2368.659014,11029.068536
2446.755411,-1685.410096,-888.247130,11917.315666
2446.755741,-612.876398,-0.000000,12213.398043
2446.756070,-229.828649,1480.411884,10140.821405
2446.756399,229.828649,1110.308913,9474.636058
2446.756728,-306.438199,1998.556043,8734.430116
2446.757057,-612.876398,2220.617826,8956.491898
2446.757386,-612.876398,1628.453072,8660.409521
2446.757715,842.705048,1332.370696,7179.997637
2446.758044,2451.505594,1554.432478,4663.297435
2446.758373,2681.334243,-0.000000,5033.400406
2446.758702,1685.410096,-222.061783,5625.565159
2446.759031,919.314598,-1110.308913,7550.100608
2446.759360,689.485948,-1628.453072,8586.388927
2446.759689,-306.438199,-1702.473667,9548.656652
2446.760018,-612.876398,-2590.720797,11251.130318
2446.760347,-1608.800546,-2220.617826,11695.253884
2446.760676,-153.219100,-1258.350101,11917.315666
2446.761005,0.000000,-962.267725,11843.295072
2446.761334,919.314598,-740.205942,11695.253884
2446.761663,1455.581446,1554.432478,10807.006753
2446.761992,2374.896044,2368.659014,9326.594869
2446.762321,2604.724693,2738.761985,7772.162391
2446.762650,2757.943793,2960.823768,6735.874072
2446.762979,2757.943793,2516.700203,6143.709319
2446.763308,2451.505594,1850.514855,5847.626942
2446.763637,1532.190996,-0.000000,6661.853478
2446.763966,0.000000,-1628.453072,7920.203579
2446.764295,-1608.800546,-3256.906145,9474.636058
2446.764624,-2068.457845,-4367.215058,11103.089130
2446.764953,-2298.286494,-3849.070898,10362.883188
2446.765282,-1455.581446,-2664.741391,10807.006753
2446.765611,-1608.800546,-1406.391290,12583.501014
2446.765941,-842.705048,-148.041188,11917.315666
2446.766270,-612.876398,296.082377,11695.253884
2446.766599,459.657299,1036.288319,10362.883188
2446.766928,536.266849,1776.494261,9104.533087
2446.767257,229.828649,962.267725,10362.883188
2446.767586,1225.752797,1184.329507,8734.430116
2446.767915,3294.210641,2664.741391,6069.688724
2446.768244,3524.039291,2664.741391,5107.421000
2446.768573,2911.162892,2442.679609,3923.091493
2446.768902,2987.772442,1628.453072,6069.688724
2446.769231,1455.581446,370.102971,6143.709319
2446.769560,689.485948,-1850.514855,7550.100608
2446.769889,-995.924147,-3108.864956,9918.759623
2446.770218,-919.314598,-2664.741391,11029.068536
2446.770547,-1225.752797,-3478.967927,11769.274478
2446.770876,-1225.752797,-2294.638420,11843.295072
2446.771205,-536.266849,-1480.411884,11695.253884
2446.771534,0.000000,-0.000000,11695.253884
2446.771863,306.438199,1332.370696,10881.027347
2446.772192,76.609550,888.247130,10288.862594
2446.772521,1915.238745,666.185348,10807.006753
2446.772850,2451.505594,2368.659014,7402.059420
2446.773179,2681.334243,2664.741391,6439.791695
2446.773508,2681.334243,2294.638420,5255.462188
2446.773837,2604.724693,2368.659014,5181.441594
2446.774166,2374.896044,740.205942,6291.750507
2446.774495,383.047749,-1036.288319,6735.874072
2446.774824,-689.485948,-3478.967927,9622.677246
2446.775153,-1532.190996,-4663.297435,11473.192101
2446.775482,-2528.115143,-3256.906145,10214.842000
2446.775811,-2604.724693,-3330.926739,11843.295072
2446.776141,-2757.943793,-2960.823768,11547.212695
2446.776470,-1685.410096,-1554.432478,12657.521608
2446.776799,-842.705048,-148.041188,11843.295072
2446.777128,-229.828649,1036.288319,8956.491898
2446.777457,842.705048,592.164754,9548.656652
2446.777786,-306.438199,2442.679609,8364.327145
2446.778115,-689.485948,2368.659014,9104.533087
2446.778444,-459.657299,1036.288319,8512.368333
2446.778773,1302.362347,1406.391290,6439.791695
2446.779102,2145.067394,1332.370696,4737.318029
2446.779431,2374.896044,222.061783,5107.421000
2446.779760,1455.581446,-74.020594,5699.585753
2446.780089,1302.362347,-888.247130,7772.162391
2446.780418,229.828649,-1480.411884,9252.574275
2446.780747,-689.485948,-1924.535449,9696.697840
2446.781076,-995.924147,-3034.844362,11399.171507
2446.781405,-1455.581446,-1998.556043,11621.233289
2446.781734,-842.705048,-1406.391290,11769.274478
2446.782063,-383.047749,-1110.308913,10955.047942
2446.782392,612.876398,-370.102971,11695.253884
2446.782721,1685.410096,1406.391290,11251.130318
2446.783050,2298.286494,2442.679609,8734.430116
2446.783379,2681.334243,2368.659014,7994.224174
2446.783708,2834.553343,2664.741391,6809.894666
2446.784037,3370.820191,3182.885551,5995.668130
2446.784366,2451.505594,1554.432478,6143.709319
2446.784695,2221.676944,962.267725,6587.832884
2446.785024,383.047749,-888.247130,7550.100608
2446.785353,-995.924147,-3108.864956,9104.533087
2446.785682,-2221.676944,-4219.173869,11103.089130
2446.786012,-1838.629195,-4071.132681,11103.089130
2446.786341,-1608.800546,-2886.803174,10955.047942
2446.786670,-1762.019645,-1850.514855,11473.192101
2446.786999,-1608.800546,-1110.308913,11843.295072
2446.787328,-766.095498,148.041188,12287.418637
2446.787657,383.047749,666.185348,10732.986159
2446.787986,306.438199,1850.514855,9178.553681
2446.788315,0.000000,1480.411884,9474.636058
2446.788644,689.485948,518.144159,10140.821405
2446.788973,1762.019645,2072.576638,7254.018232
2446.789302,2604.724693,2664.741391,6365.771101
2446.789631,3370.820191,1924.535449,4145.153275
2446.789960,3217.601092,1258.350101,5181.441594
2446.790289,2068.457845,592.164754,6809.894666
2446.790618,1072.533697,-888.247130,7031.956449
2446.790947,0.000000,-2664.741391,9474.636058
2446.791276,-1455.581446,-2664.741391,10510.924376
2446.791605,-1838.629195,-3552.988522,11399.171507
2446.791934,-1991.848295,-2812.782580,11917.315666
2446.792263,-1378.971896,-1702.473667,11547.212695
2446.792592,-383.047749,-666.185348,11177.109724
2446.792921,153.219100,1036.288319,10955.047942
2446.793250,995.924147,1850.514855,10436.903782
2446.793579,2145.067394,1554.432478,9252.574275
2446.793908,2681.334243,2442.679609,7402.059420
2446.794237,3064.381992,2960.823768,6143.709319
2446.794566,2374.896044,1998.556043,5625.565159
2446.794895,2374.896044,1702.473667,6439.791695
2446.795224,1455.581446,296.082377,6587.832884
2446.795553,-306.438199,-1628.453072,7698.141797
2446.795882,-2145.067394,-3775.050304,9696.697840
2446.796212,-2374.896044,-4663.297435,11325.150913
2446.796541,-2681.334243,-3849.070898,11177.109724
2446.796870,-2451.505594,-2886.803174,11251.130318
2446.797199,-2451.505594,-2812.782580,12139.377449
2446.797528,-1915.238745,-1258.350101,12139.377449
2446.797857,-919.314598,148.041188,11547.212695
2446.798186,153.219100,518.144159,9400.615463
2446.798515,76.609550,1406.391290,8882.471304
2446.798844,0.000000,1850.514855,9178.553681
2446.799173,1072.533697,1554.432478,9622.677246
2446.799502,1225.752797,2664.741391,5477.523971
2446.799831,3064.381992,2368.659014,6069.688724
2446.800160,2374.896044,1998.556043,3997.112087
2446.800489,2374.896044,888.247130,5847.626942
2446.800818,842.705048,-592.164754,7328.038826
2446.801147,-536.266849,-1998.556043,8364.327145
2446.801476,-689.485948,-2960.823768,10066.800811
2446.801805,-1762.019645,-2442.679609,10732.986159
2446.802134,-1838.629195,-3256.906145,11177.109724
2446.802463,-1685.410096,-2220.617826,11843.295072
2446.802792,153.219100,-1184.329507,11325.150913
2446.803121,-229.828649,-370.102971,11473.192101
2446.803450,1149.143247,-0.000000,11695.253884
2446.803779,1991.848295,2072.576638,9770.718434
2446.804108,3370.820191,2072.576638,8512.368333
2446.804437,3753.867940,2886.803174,6957.935855
2446.804766,3600.648841,3404.947333,5403.503377
2446.805095,3830.477490,3108.864956,6587.832884
2446.805424,2834.553343,2294.638420,5921.647536
2446.805753,2298.286494,666.185348,7105.977043
2446.806082,0.000000,-2072.576638,7772.162391
2446.806412,-2068.457845,-3478.967927,9400.615463
2446.806741,-2528.115143,-4515.256246,12065.356855
2446.807070,-2834.553343,-3701.029710,11251.130318
2446.807399,-2528.115143,-2960.823768,11843.295072
2446.807728,-2298.286494,-2590.720797,12361.439231
2446.808057,-612.876398,-592.164754,11991.336260
2446.808386,0.000000,148.041188,11399.171507
2446.808715,383.047749,1110.308913,9474.636058
2446.809044,383.047749,1628.453072,9252.574275
2446.809373,766.095498,592.164754,11251.130318
2446.809702,1378.971896,1776.494261,7402.059420
2446.810031,3447.429741,2664.741391,6439.791695
2446.810360,3983.696590,2516.700203,4367.215058
2446.810689,3600.648841,2220.617826,4367.215058
2446.811018,2604.724693,1628.453072,6735.874072
2446.811347,1455.581446,370.102971,6439.791695
2446.811676,76.609550,-1924.535449,8512.368333
2446.812005,-1378.971896,-3256.906145,10732.986159
2446.812334,-1991.848295,-3182.885551,10732.986159
2446.812663,-2068.457845,-4071.132681,11843.295072
2446.812992,-1532.190996,-2368.659014,11103.089130
2446.813321,-612.876398,-1406.391290,11547.212695
2446.813650,0.000000,148.041188,11399.171507
2446.813979,459.657299,1776.494261,10436.903782
2446.814308,383.047749,666.185348,10510.924376
2446.814637,2298.286494,1184.329507,9104.533087
2446.814966,2528.115143,2738.761985,7179.997637
2446.815295,3294.210641,2294.638420,6513.812290
2446.815624,2834.553343,2442.679609,5699.585753
2446.815953,2834.553343,1998.556043,6291.750507
2446.816283,1685.410096,518.144159,6365.771101
2446.816612,536.266849,-1628.453072,7772.162391
2446.816941,-1608.800546,-2738.761985,9844.739029
2446.817270,-2068.457845,-3849.070898,11251.130318
2446.817599,-2757.943793,-3923.091493,11177.109724
2446.817928,-2681.334243,-2886.803174,11103.089130
2446.818257,-2451.505594,-2664.741391,11843.295072
2446.818586,-2068.457845,-1184.329507,11621.233289
2446.818915,-995.924147,-0.000000,11251.130318
2446.819244,-766.095498,814.226536,9622.677246
2446.819573,229.828649,1628.453072,9400.615463
2446.819902,-459.657299,1924.535449,9474.636058
2446.820231,-459.657299,1628.453072,9178.553681
2446.820560,306.438199,1184.329507,8364.327145
2446.820889,1455.581446,1850.514855,5847.626942
2446.821218,2834.553343,1702.473667,5329.482782
2446.821547,2374.896044,518.144159,5773.606348
2446.821876,1838.629195,370.102971,6587.832884
2446.822205,766.095498,-1554.432478,7550.100608
2446.822534,229.828649,-1924.535449,9178.553681
2446.822863,-612.876398,-1850.514855,10288.862594
2446.823192,-1302.362347,-2812.782580,11325.150913
2446.823521,-766.095498,-2294.638420,12065.356855
2446.823850,-766.095498,-1998.556043,11399.171507
2446.824179,536.266849,-1110.308913,11399.171507
2446.824508,1149.143247,-296.082377,10955.047942
2446.824837,1991.848295,1480.411884,10288.862594
2446.825166,2681.334243,2072.576638,8290.306550
2446.825495,3217.601092,2294.638420,7698.141797
2446.825824,3524.039291,3034.844362,5699.585753
2446.826153,3524.039291,2886.803174,6143.709319
2446.826483,2451.505594,1776.494261,6217.729913
2446.826812,1991.848295,740.205942,6069.688724
2446.827141,229.828649,-1258.350101,7550.100608
2446.827470,-1455.581446,-3404.947333,9326.594869
2446.827799,-2145.067394,-4219.173869,11251.130318
2446.828128,-1762.019645,-4071.132681,11325.150913
2446.828457,-1991.848295,-3404.947333,10584.944971
2446.828786,-1225.752797,-2442.679609,11769.274478
2446.829115,-1838.629195,-1036.288319,11621.233289
2446.829444,-306.438199,-0.000000,11399.171507
2446.829773,0.000000,444.123565,10584.944971
2446.830102,76.609550,1184.329507,9474.636058
2446.830431,0.000000,888.247130,10214.842000
2446.830760,1149.143247,1480.411884,9474.636058
2446.831089,842.705048,2146.597232,6143.709319
2446.831418,3217.601092,2368.659014,6217.729913
2446.831747,3064.381992,2368.659014,4219.173869
2446.832076,3217.601092,1998.556043,5847.626942
2446.832405,1685.410096,518.144159,6809.894666
2446.832734,919.314598,-740.205942,7550.100608
2446.833063,-536.266849,-2664.741391,10066.800811
2446.833392,-1915.238745,-2442.679609,11103.089130
2446.833721,-1915.238745,-3256.906145,11843.295072
2446.834050,-1532.190996,-2368.659014,11251.130318
2446.834379,-459.657299,-1258.350101,11473.192101
2446.834708,-306.438199,-74.020594,11399.171507
2446.835037,612.876398,1258.350101,10955.047942
2446.835366,536.266849,1554.432478,10658.965565
2446.835695,1302.362347,518.144159,10510.924376
2446.836024,2298.286494,1850.514855,8068.244768
2446.836353,2757.943793,2516.700203,6513.812290
2446.836683,2834.553343,2516.700203,5255.462188
2446.837012,3064.381992,2442.679609,5033.400406
2446.837341,2757.943793,888.247130,6069.688724
2446.837670,1072.533697,-888.247130,6809.894666
2446.837999,0.000000,-2960.823768,8586.388927
2446.838328,-1685.410096,-3627.009116,10436.903782
2446.838657,-2451.505594,-3775.050304,11399.171507
2446.838986,-2757.943793,-3034.844362,10510.924376
2446.839315,-2528.115143,-2812.782580,11843.295072
2446.839644,-2221.676944,-2072.576638,11843.295072
2446.839973,-1149.143247,-0.000000,11917.315666
2446.840302,-459.657299,1036.288319,10732.986159
2446.840631,0.000000,1036.288319,9474.636058
2446.840960,-306.438199,1776.494261,9030.512492
2446.841289,-766.095498,1998.556043,9696.697840
2446.841618,-536.266849,1258.350101,8734.430116
2446.841947,995.924147,1110.308913,7476.080014
2446.842276,2145.067394,1184.329507,5329.482782
2446.842605,2604.724693,518.144159,5255.462188
2446.842934,1991.848295,-0.000000,5847.626942
2446.843263,1455.581446,-666.185348,7402.059420
2446.843592,766.095498,-1850.514855,8956.491898
2446.843921,-229.828649,-1480.411884,10066.800811
2446.844250,-1072.533697,-2368.659014,10807.006753
2446.844579,-919.314598,-2516.700203,11843.295072
2446.844908,-1225.752797,-1480.411884,11547.212695
2446.845237,-229.828649,-592.164754,11399.171507
2446.845566,306.438199,-74.020594,11103.089130
2446.845895,1072.533697,1480.411884,11029.068536
2446.846224,1685.410096,2368.659014,9326.594869
2446.846554,2834.553343,2516.700203,7994.224174
2446.846883,2681.334243,2442.679609,6439.791695
2446.847212,2834.553343,2664.741391,5921.647536
2446.847541,1915.238745,1480.411884,6291.750507
2446.847870,1378.971896,296.082377,6143.709319
2446.848199,0.000000,-1480.411884,7254.018232
2446.848528,-1149.143247,-3108.864956,8956.491898
2446.848857,-1685.410096,-4441.235652,10732.986159
2446.849186,-1762.019645,-3552.988522,10214.842000
2446.849515,-1608.800546,-3256.906145,11251.130318
2446.849844,-1149.143247,-2072.576638,11917.315666
2446.850173,-1072.533697,-592.164754,11843.295072
2446.850502,-689.485948,222.061783,11917.315666
2446.850831,-229.828649,962.267725,10658.965565
2446.851160,306.438199,1184.329507,9918.759623
2446.851489,76.609550,518.144159,10140.821405
2446.851818,2068.457845,1480.411884,8438.347739
2446.852147,2451.505594,2664.741391,6439.791695
2446.852476,3064.381992,2812.782580,5699.585753
2446.852805,3064.381992,2220.617826,4589.276840
2446.853134,2681.334243,1110.308913,5995.668130
2446.853463,1685.410096,-148.041188,6365.771101
2446.853792,383.047749,-2294.638420,7994.224174
2446.854121,-1378.971896,-3108.864956,9992.780217
2446.854450,-1455.581446,-2590.720797,11325.150913
2446.854779,-1838.629195,-3034.844362,11399.171507
2446.855108,-1378.971896,-1998.556043,11769.274478
2446.855437,-306.438199,-1036.288319,11769.274478
2446.855766,0.000000,370.102971,11325.150913
2446.856095,306.438199,1184.329507,11399.171507
2446.856424,0.000000,1110.308913,10066.800811
2446.856754,1149.143247,888.247130,10584.944971
2446.857083,2221.676944,2960.823768,7031.956449
2446.857412,2987.772442,2664.741391,6365.771101
2446.857741,2911.162892,2368.659014,4885.359217
2446.858070,3370.820191,2812.782580,4885.359217
2446.858399,2834.553343,1184.329507,5921.647536
2446.858728,842.705048,-1036.288319,6735.874072
2446.859057,-689.485948,-3256.906145,8956.491898
2446.859386,-1915.238745,-4515.256246,11103.089130
2446.859715,-2528.115143,-3478.967927,10288.862594
2446.860044,-2681.334243,-2960.823768,11177.109724
2446.860373,-2528.115143,-3182.885551,12361.439231
2446.860702,-2451.505594,-962.267725,12287.418637
2446.861031,0.000000,222.061783,12879.583391
2446.861360,-919.314598,444.123565,10658.965565
2446.861689,536.266849,1110.308913,9696.697840
2446.862018,-536.266849,1998.556043,9178.553681
2446.862347,-842.705048,1480.411884,9326.594869
2446.862676,-153.219100,444.123565,9178.553681
2446.863005,1838.629195,1184.329507,6217.729913
2446.863334,3064.381992,1110.308913,4367.215058
2446.863663,2604.724693,370.102971,4663.297435
2446.863992,1838.629195,-0.000000,5403.503377
2446.864321,1302.362347,-1184.329507,7402.059420
2446.864650,459.657299,-1776.494261,9104.533087
2446.864979,-766.095498,-1850.514855,10140.821405
2446.865308,-1149.143247,-3256.906145,12065.356855
2446.865637,-1762.019645,-2442.679609,12139.377449
2446.865966,-766.095498,-1554.432478,11843.295072
2446.866295,-383.047749,-1036.288319,11621.233289
2446.866624,383.047749,-0.000000,11399.171507
2446.866953,612.876398,1628.453072,11325.150913
2446.867282,1455.581446,2072.576638,9622.677246
2446.867611,1991.848295,2368.659014,7179.997637
2446.867940,3830.477490,2590.720797,6513.812290
2446.868269,3294.210641,3330.926739,4885.359217
2446.868598,3140.991542,2516.700203,5329.482782
2446.868927,2298.286494,592.164754,5921.647536
2446.869256,1149.143247,-1036.288319,7105.977043
2446.869585,-612.876398,-3182.885551,9030.512492
2446.869914,-1685.410096,-3923.091493,10214.842000
2446.870243,-1838.629195,-3627.009116,11843.295072
2446.870572,-1915.238745,-2886.803174,11251.130318
2446.870901,-1532.190996,-1628.453072,11843.295072
2446.871230,-1532.190996,-888.247130,12213.398043
2446.871559,-459.657299,222.061783,11843.295072
2446.871888,0.000000,1184.329507,10510.924376
2446.872218,0.000000,1628.453072,9400.615463
2446.872547,-536.266849,592.164754,10732.986159
2446.872876,153.219100,444.123565,9696.697840
2446.873205,1455.581446,2220.617826,7105.977043
2446.873534,2451.505594,2368.659014,5847.626942
2446.873863,3370.820191,1702.473667,4367.215058
2446.874192,3140.991542,1554.432478,4811.338623
2446.874521,2911.162892,296.082377,6661.853478
2446.874850,842.705048,-1480.411884,7254.018232
2446.875179,229.828649,-2664.741391,9918.759623
2446.875508,-1378.971896,-2664.741391,11029.068536
2446.875837,-1685.410096,-2960.823768,12065.356855
2446.876166,-1762.019645,-2738.761985,11917.315666
2446.876495,-459.657299,-1258.350101,11991.336260
2446.876824,0.000000,-0.000000,11695.253884
2446.877153,383.047749,518.144159,10881.027347
2446.877482,919.314598,1258.350101,11251.130318
2446.877811,1608.800546,1850.514855,9326.594869
2446.878140,2681.334243,3108.864956,7476.080014
2446.878469,2604.724693,2960.823768,5847.626942
2446.878798,2604.724693,2368.659014,4959.379811
2446.879127,2834.553343,1924.535449,5995.668130
2446.879456,2068.457845,296.082377,6217.729913
2446.879785,612.876398,-1850.514855,6735.874072
2446.880114,-1149.143247,-3404.947333,9400.615463
2446.880443,-1991.848295,-4071.132681,10807.006753
2446.880772,-2145.067394,-3552.988522,10436.903782
2446.881101,-1762.019645,-2368.659014,11177.109724
2446.881430,-2145.067394,-2368.659014,11547.212695
2446.881759,-1532.190996,-814.226536,12287.418637
2446.882088,-612.876398,-0.000000,12139.377449
2446.882417,-459.657299,814.226536,10362.883188
2446.882746,153.219100,1554.432478,8808.450710
2446.883075,-459.657299,1776.494261,9622.677246
2446.883404,-919.314598,1332.370696,9178.553681
2446.883733,0.000000,1036.288319,8142.265362
2446.884062,2221.676944,1628.453072,5699.585753
2446.884391,3064.381992,1036.288319,4737.318029
2446.884720,2145.067394,370.102971,4737.318029
2446.885049,1762.019645,-148.041188,6217.729913
2446.885378,536.266849,-2072.576638,7698.141797
2446.885707,76.609550,-2442.679609,9104.533087
2446.886036,-612.876398,-2590.720797,10288.862594
2446.886365,-1072.533697,-3330.926739,11843.295072
2446.886694,-1608.800546,-2442.679609,11769.274478
2446.887023,-766.095498,-1554.432478,11917.315666
2446.887352,0.000000,-444.123565,11399.171507
2446.887681,383.047749,1036.288319,11547.212695
2446.888011,1302.362347,2072.576638,11399.171507
2446.888340,1991.848295,2590.720797,8512.368333
2446.888669,2451.505594,2738.761985,7846.182985
2446.888998,2834.553343,3256.906145,6143.709319
2446.889327,2911.162892,3034.844362,5625.565159
2446.889656,2451.505594,1406.391290,5847.626942
2446.889985,842.705048,740.205942,6217.729913
2446.890314,459.657299,-2294.638420,7328.038826
2446.890643,-1302.362347,-3701.029710,8364.327145
2446.890972,-1302.362347,-4293.194464,10214.842000
2446.891301,-2145.067394,-3330.926739,9696.697840
2446.891630,-1838.629195,-2960.823768,11621.233289
2446.891959,-2451.505594,-1924.535449,11991.336260
2446.892288,-1072.533697,-666.185348,12139.377449
2446.892617,-919.314598,222.061783,11843.295072
2446.892946,0.000000,1332.370696,10288.862594
2446.893275,153.219100,1776.494261,9474.636058
2446.893604,0.000000,1406.391290,10658.965565
2446.893933,612.876398,962.267725,9474.636058
2446.894262,1991.848295,2738.761985,6439.791695
2446.894591,3907.087040,2146.597232,5551.544565
2446.894920,3294.210641,2146.597232,3478.967927
2446.895249,3600.648841,1184.329507,5921.647536
2446.895578,1838.629195,148.041188,6883.915261
2446.895907,306.438199,-2072.576638,7994.224174
2446.896236,0.000000,-2368.659014,9400.615463
2446.896565,-1378.971896,-2960.823768,10658.965565
2446.896894,-1532.190996,-3034.844362,12065.356855
2446.897223,-1532.190996,-2294.638420,11695.253884
2446.897552,-76.609550,-1258.350101,11843.295072
2446.897881,0.000000,444.123565,11991.336260
2446.898210,766.095498,1258.350101,11251.130318
2446.898539,153.219100,1776.494261,10881.027347
2446.898868,842.705048,1110.308913,10584.944971
2446.899197,1532.190996,2368.659014,8364.327145
2446.899526,2528.115143,3034.844362,6513.812290
2446.899855,2911.162892,1850.514855,5551.544565
2446.900184,3370.820191,2146.597232,5107.421000
2446.900513,2528.115143,518.144159,5995.668130
2446.900842,689.485948,-1110.308913,6439.791695
2446.901171,-306.438199,-2738.761985,8438.347739
2446.901500,-1532.190996,-3849.070898,10510.924376
2446.901829,-1762.019645,-3552.988522,10140.821405
2446.902158,-2145.067394,-2664.741391,10362.883188
2446.902487,-2145.067394,-2886.803174,12065.356855
2446.902816,-2451.505594,-1702.473667,11991.336260
2446.903145,-1225.752797,-148.041188,11917.315666
2446.903474,-766.095498,1036.288319,10510.924376
2446.903804,76.609550,1332.370696,9622.677246
2446.904133,-459.657299,1850.514855,9178.553681
2446.904462,-842.705048,1998.556043,9622.677246
2446.904791,-919.314598,1258.350101,8882.471304
2446.905120,1072.533697,1406.391290,5921.647536
2446.905449,2374.896044,666.185348,4737.318029
2446.905778,2221.676944,-222.061783,5181.441594
2446.906107,1378.971896,-888.247130,6439.791695
2446.906436,612.876398,-2220.617826,7550.100608
2446.906765,153.219100,-2590.720797,9178.553681
2446.907094,-383.047749,-2442.679609,9992.780217
2446.907423,-919.314598,-2664.741391,11251.130318
2446.907752,-1762.019645,-2368.659014,11695.253884
2446.908081,-995.924147,-1480.411884,11843.295072
2446.908410,-306.438199,-740.205942,11325.150913
2446.908739,306.438199,-0.000000,11547.212695
2446.909068,1302.362347,1184.329507,11695.253884
2446.909397,2145.067394,2368.659014,9326.594869
2446.909726,2987.772442,2442.679609,7994.224174
2446.910055,3140.991542,3108.864956,5995.668130
2446.910384,3370.820191,3923.091493,5255.462188
2446.910713,2987.772442,2294.638420,5477.523971
2446.911042,1685.410096,962.267725,5773.606348
2446.911371,306.438199,-1850.514855,7179.997637
2446.911700,-1072.533697,-3849.070898,8734.430116
2446.912029,-2068.457845,-4663.297435,10732.986159
2446.912358,-2604.724693,-3627.009116,10288.862594
2446.912687,-1685.410096,-2664.741391,11769.274478
2446.913016,-1991.848295,-2368.659014,12139.377449
2446.913345,-1302.362347,-444.123565,12213.398043
2446.913674,-919.314598,-0.000000,12287.418637
2446.914003,306.438199,740.205942,10140.821405
2446.914332,306.438199,1702.473667,9548.656652
2446.914661,-306.438199,1258.350101,10807.006753
2446.914990,842.705048,1110.308913,9548.656652
2446.915319,2068.457845,3108.864956,5551.544565
2446.915648,4519.963438,2960.823768,5329.482782
2446.915977,4060.306139,2738.761985,3404.947333
2446.916306,3447.429741,1332.370696,5773.606348
2446.916635,1608.800546,-222.061783,6069.688724
2446.916964,153.219100,-2738.761985,7920.203579
2446.917293,-689.485948,-3182.885551,10732.986159
2446.917622,-2221.676944,-3330.926739,11029.068536
2446.917951,-2911.162892,-3627.009116,12361.439231
2446.918280,-2451.505594,-2368.659014,12509.480420
2446.918609,-536.266849,-1702.473667,12065.356855
2446.918938,-306.438199,-444.123565,11991.336260
2446.919267,153.219100,1776.494261,11547.212695
2446.919597,1838.629195,2220.617826,11251.130318
2446.919926,3064.381992,2368.659014,7920.203579
2446.920255,4060.306139,4071.132681,6957.935855
2446.920584,3447.429741,3849.070898,4663.297435
2446.920913,3753.867940,2664.741391,5477.523971
2446.921242,2834.553343,1924.535449,5625.565159
2446.921571,1838.629195,592.164754,5921.647536
2446.921900,-995.924147,-2590.720797,8734.430116
2446.922229,-2451.505594,-4515.256246,9474.636058
2446.922558,-2987.772442,-5329.482782,11547.212695
2446.922887,-3677.258390,-4219.173869,10658.965565
2446.923216,-2757.943793,-3108.864956,11547.212695
2446.923545,-2911.162892,-2812.782580,12879.583391
2446.923874,-2068.457845,-740.205942,12065.356855
2446.924203,-919.314598,1036.288319,11251.130318
2446.924532,229.828649,1480.411884,9252.574275
2446.924861,0.000000,2368.659014,8512.368333
2446.925190,536.266849,1406.391290,11695.253884
2446.925519,1532.190996,2146.597232,7031.956449
2446.925848,3294.210641,2516.700203,6217.729913
2446.926177,3447.429741,2146.597232,3478.967927
2446.926506,2911.162892,1702.473667,4071.132681
2446.926835,1991.848295,-0.000000,6883.915261
2446.927164,383.047749,-1110.308913,6365.771101
2446.927493,76.609550,-3256.906145,9030.512492
2446.927822,-2221.676944,-3849.070898,10658.965565
2446.928151,-2528.115143,-4071.132681,11473.192101
2446.928480,-2221.676944,-3997.112087,12731.542202
2446.928809,-1455.581446,-2664.741391,12139.377449
2446.929138,-536.266849,-1406.391290,11547.212695
2446.929467,0.000000,296.082377,11769.274478
2446.929796,689.485948,1480.411884,11695.253884
2446.930125,2528.115143,962.267725,9548.656652
2446.930454,3294.210641,2146.597232,8512.368333
2446.930783,3524.039291,3997.112087,6513.812290
2446.931112,2911.162892,2812.782580,6143.709319
2446.931441,3140.991542,3034.844362,6143.709319
2446.931770,2681.334243,1924.535449,5699.585753
2446.932099,1225.752797,-0.000000,6291.750507
2446.932428,-383.047749,-2738.761985,8586.388927
2446.932757,-2221.676944,-4219.173869,9622.677246
2446.933086,-3524.039291,-4293.194464,12065.356855
2446.933415,-2911.162892,-3256.906145,10658.965565
2446.933744,-2451.505594,-2886.803174,11843.295072
2446.934073,-2068.457845,-1998.556043,12139.377449
2446.934402,-1149.143247,296.082377,11695.253884
2446.934731,0.000000,1258.350101,11547.212695
2446.935060,76.609550,1776.494261,9474.636058
2446.935389,995.924147,1184.329507,10288.862594
2446.935719,1915.238745,1554.432478,9474.636058
2446.936048,2451.505594,2960.823768,5625.565159
2446.936377,3600.648841,2664.741391,5995.668130
2446.936706,3140.991542,2368.659014,3923.091493
2446.937035,3983.696590,1924.535449,5995.668130
2446.937364,2145.067394,-74.020594,5995.668130
2446.937693,612.876398,-888.247130,6809.894666
2446.938022,-1149.143247,-3849.070898,9696.697840
2446.938351,-2451.505594,-3034.844362,9992.780217
2446.938680,-2374.896044,-3923.091493,12139.377449
2446.939009,-2528.115143,-2812.782580,11769.274478
2446.939338,-1072.533697,-2368.659014,12213.398043
2446.939667,-689.485948,-1184.329507,11843.295072
2446.939996,536.266849,592.164754,10881.027347
2446.940325,1378.971896,962.267725,12065.356855
2446.940654,2451.505594,1480.411884,9474.636058
2446.940983,3600.648841,2960.823768,7920.203579
2446.941312,3524.039291,3256.906145,6217.729913
2446.941641,3983.696590,2812.782580,5847.626942
2446.941970,3524.039291,2368.659014,5773.606348
2446.942299,2681.334243,2146.597232,5255.462188
2446.942628,1072.533697,-148.041188,6291.750507
2446.942957,-1302.362347,-2590.720797,8882.471304
2446.943286,-2604.724693,-3849.070898,10658.965565
2446.943615,-2987.772442,-4293.194464,11325.150913
2446.943944,-3217.601092,-3330.926739,10362.883188
2446.944273,-3217.601092,-3256.906145,12509.480420
2446.944602,-2834.553343,-1998.556043,11991.336260
2446.944931,-1302.362347,148.041188,11843.295072
2446.945260,-766.095498,666.185348,10510.924376
2446.945589,229.828649,1184.329507,9474.636058
2446.945918,0.000000,2442.679609,9030.512492
2446.946247,0.000000,1480.411884,10584.944971
2446.946576,1302.362347,814.226536,7846.182985
2446.946905,2834.553343,2220.617826,5477.523971
2446.947234,3447.429741,1924.535449,4293.194464
2446.947563,2681.334243,1702.473667,4219.173869
2446.947892,2834.553343,814.226536,6439.791695
2446.948221,1225.752797,-74.020594,6143.709319
2446.948550,766.095498,-1776.494261,8216.285956
2446.948879,-995.924147,-2664.741391,10510.924376
2446.949208,-2451.505594,-3330.926739,10807.006753
2446.949537,-2681.334243,-3256.906145,12879.583391
2446.949866,-1915.238745,-2220.617826,11695.253884
2446.950195,-842.705048,-1850.514855,11473.192101
2446.950524,-766.095498,-0.000000,11917.315666
2446.950853,459.657299,1258.350101,11251.130318
2446.951182,1455.581446,962.267725,10658.965565
2446.951512,1225.752797,1332.370696,8364.327145
2446.951841,3447.429741,2590.720797,7624.121203
2446.952170,3447.429741,2590.720797,6069.688724
2446.952499,3294.210641,2368.659014,5847.626942
2446.952828,2451.505594,1702.473667,5995.668130
2446.953157,1991.848295,666.185348,6513.812290
2446.953486,536.266849,-1776.494261,8068.244768
2446.953815,-1532.190996,-3256.906145,9622.677246
2446.954144,-2604.724693,-3478.967927,11325.150913
2446.954473,-2757.943793,-3701.029710,11843.295072
2446.954802,-2374.896044,-2442.679609,10881.027347
2446.955131,-1838.629195,-2220.617826,12361.439231
2446.955460,-1838.629195,-518.144159,11103.089130
2446.955789,-383.047749,814.226536,10881.027347
2446.956118,-536.266849,1406.391290,10584.944971
2446.956447,153.219100,1184.329507,9326.594869
2446.956776,306.438199,518.144159,10658.965565
2446.957105,1225.752797,1702.473667,7550.100608
2446.957434,2528.115143,2146.597232,6143.709319
2446.957763,3217.601092,1702.473667,4885.359217
2446.958092,2911.162892,2220.617826,4071.132681
2446.958421,2834.553343,888.247130,6809.894666
2446.958750,1685.410096,-0.000000,6439.791695
2446.959079,536.266849,-1406.391290,8216.285956
2446.959408,-842.705048,-3034.844362,10288.862594
2446.959737,-2068.457845,-2664.741391,10510.924376
2446.960066,-2068.457845,-3775.050304,12953.603985
2446.960396,-1991.848295,-2294.638420,11325.150913
2446.960725,-1072.533697,-1702.473667,12139.377449
2446.961054,-383.047749,-296.082377,11769.274478
2446.961383,0.000000,1332.370696,11103.089130
2446.961712,1302.362347,370.102971,11769.274478
2446.962041,2145.067394,1480.411884,8512.368333
2446.962370,3294.210641,3034.844362,7402.059420
2446.962700,2987.772442,2664.741391,5477.523971
2446.963029,3753.867940,2664.741391,5403.503377
2446.963358,2604.724693,1480.411884,6365.771101
2446.963687,2145.067394,518.144159,5773.606348
2446.964016,459.657299,-1776.494261,7772.162391
2446.964345,-1762.019645,-3182.885551,9770.718434
2446.964674,-2681.334243,-4071.132681,11843.295072
2446.965004,-2834.553343,-3701.029710,11251.130318
2446.965333,-2681.334243,-2590.720797,11325.150913
2446.965662,-2604.724693,-2886.803174,11843.295072
2446.965991,-1991.848295,-888.247130,11917.315666
2446.966320,-1072.533697,592.164754,11621.233289
2446.966649,-229.828649,666.185348,9992.780217
2446.966978,459.657299,1850.514855,8882.471304
2446.967308,-459.657299,2220.617826,8956.491898
2446.967637,153.219100,1036.288319,9474.636058
2446.967966,1302.362347,1184.329507,7254.018232
2446.968295,3217.601092,2590.720797,4737.318029
2446.968624,3600.648841,1406.391290,4441.235652
2446.968953,2757.943793,1184.329507,4589.276840
2446.969282,2374.896044,518.144159,6957.935855
2446.969611,995.924147,-1036.288319,7402.059420
2446.969941,995.924147,-1702.473667,9178.553681
2446.970270,-1149.143247,-2368.659014,10510.924376
2446.970599,-1838.629195,-3404.947333,11547.212695
2446.970928,-2145.067394,-2886.803174,12879.583391
2446.971257,-919.314598,-1332.370696,11473.192101
2446.971586,0.000000,-888.247130,11547.212695
2446.971915,76.609550,592.164754,11473.192101
2446.972245,995.924147,1628.453072,11251.130318
2446.972574,1991.848295,1924.535449,9474.636058
2446.972903,2681.334243,1850.514855,7550.100608
2446.973232,3217.601092,2886.803174,6069.688724
2446.973561,3140.991542,2442.679609,5625.565159
2446.973890,2604.724693,1850.514855,5921.647536
2446.974219,2221.676944,592.164754,6365.771101
2446.974549,1072.533697,-888.247130,7550.100608
2446.974878,-536.266849,-3552.988522,9252.574275
2446.975207,-1991.848295,-4219.173869,10807.006753
2446.975536,-2604.724693,-4293.194464,11991.336260
2446.975865,-2374.896044,-2590.720797,10732.986159
2446.976194,-1991.848295,-1924.535449,11843.295072
2446.976523,-1915.238745,-1184.329507,12435.459826
2446.976853,-689.485948,296.082377,11695.253884
2446.977182,76.609550,592.164754,10140.821405
2446.977511,0.000000,1480.411884,9030.512492
2446.977840,0.000000,518.144159,9474.636058
2446.978169,995.924147,1480.411884,9104.533087
2446.978498,1838.629195,2738.761985,5403.503377
2446.978827,3447.429741,2220.617826,5921.647536
2446.979157,3600.648841,1258.350101,3552.988522
2446.979486,3370.820191,1184.329507,5699.585753
2446.979815,1991.848295,-666.185348,6735.874072
2446.980144,536.266849,-1406.391290,7476.080014
2446.980473,-536.266849,-2886.803174,10066.800811
2446.980802,-1838.629195,-2516.700203,10807.006753
2446.981131,-1915.238745,-3404.947333,12139.377449
2446.981460,-2221.676944,-2072.576638,12065.356855
2446.981790,-919.314598,-1406.391290,12065.356855
2446.982119,0.000000,-0.000000,11473.192101
2446.982448,306.438199,1036.288319,11177.109724
2446.982777,1225.752797,1110.308913,11325.150913
2446.983106,2145.067394,2072.576638,7846.182985
2446.983435,3370.820191,3256.906145,7179.997637
2446.983764,2681.334243,2886.803174,4959.379811
2446.984094,3064.381992,2442.679609,5551.544565
2446.984423,2451.505594,1850.514855,6291.750507
2446.984752,1608.800546,-0.000000,6143.709319
2446.985081,-306.438199,-2294.638420,7772.162391
2446.985410,-1608.800546,-3627.009116,9622.677246
2446.985739,-2451.505594,-4071.132681,11769.274478
2446.986068,-2528.115143,-3330.926739,11621.233289
2446.986398,-2145.067394,-1998.556043,10955.047942
2446.986727,-2298.286494,-2294.638420,12361.439231
2446.987056,-1915.238745,-592.164754,12361.439231
2446.987385,-919.314598,1036.288319,11843.295072
2446.987714,0.000000,888.247130,10362.883188
2446.988043,0.000000,1924.535449,8808.450710
2446.988372,-536.266849,1480.411884,9622.677246
2446.988702,-153.219100,1036.288319,9104.533087
2446.989031,1225.752797,1480.411884,7105.977043
2446.989360,2911.162892,1776.494261,5403.503377
2446.989689,2681.334243,1480.411884,4071.132681
2446.990018,2451.505594,1036.288319,5329.482782
2446.990347,1838.629195,222.061783,6661.853478
2446.990676,842.705048,-1184.329507,7624.121203
2446.991006,459.657299,-2072.576638,9696.697840
2446.991335,-1378.971896,-2220.617826,10955.047942
2446.991664,-2528.115143,-2738.761985,12361.439231
2446.991993,-1762.019645,-2590.720797,12657.521608
2446.992322,-1072.533697,-1184.329507,11769.274478
2446.992651,0.000000,-518.144159,11473.192101
2446.992980,536.266849,740.205942,11547.212695
2446.993309,1455.581446,1702.473667,10288.862594
2446.993639,2068.457845,1924.535449,8142.265362
2446.993968,3217.601092,2516.700203,7105.977043
2446.994297,3140.991542,3182.885551,5995.668130
2446.994626,3064.381992,2146.597232,6365.771101
2446.994955,2604.724693,1776.494261,5625.565159
2446.995284,1762.019645,222.061783,6513.812290
2446.995613,76.609550,-2072.576638,7920.203579
2446.995943,-1532.190996,-3552.988522,9696.697840
2446.996272,-2374.896044,-4515.256246,11695.253884
2446.996601,-2528.115143,-3404.947333,11917.315666
2446.996930,-1991.848295,-2738.761985,11103.089130
2446.997259,-2221.676944,-1480.411884,11769.274478
2446.997588,-1608.800546,-592.164754,12139.377449
2446.997917,-459.657299,592.164754,11473.192101
2446.998247,229.828649,888.247130,9696.697840
2446.998576,-229.828649,1406.391290,9326.594869
2446.998905,0.000000,222.061783,10288.862594
2446.999234,1149.143247,1332.370696,7476.080014
2446.999563,2374.896044,2368.659014,5773.606348
2446.999892,3294.210641,2072.576638,4811.338623
2447.000221,3217.601092,1924.535449,4071.132681
2447.000551,3140.991542,1110.308913,6291.750507
2447.000880,1838.629195,-0.000000,6661.853478
2447.001209,459.657299,-2072.576638,7920.203579
2447.001538,-1072.533697,-2960.823768,10140.821405
2447.001867,-1991.848295,-2664.741391,10881.027347
2447.002196,-1915.238745,-3256.906145,12435.459826
2447.002525,-1455.581446,-2368.659014,11473.192101
2447.002855,76.609550,-1184.329507,11473.192101
2447.003184,0.000000,-74.020594,11547.212695
2447.003513,76.609550,814.226536,11177.109724
2447.003842,1225.752797,1184.329507,10288.862594
2447.004171,2374.896044,2146.597232,7994.224174
2447.004500,3370.820191,3404.947333,6661.853478
2447.004829,2911.162892,2886.803174,5403.503377
2447.005158,3217.601092,2516.700203,5995.668130
2447.005488,2987.772442,1554.432478,5699.585753
2447.005817,2068.457845,296.082377,6143.709319
2447.006146,-306.438199,-1776.494261,8068.244768
2447.006475,-2068.457845,-3849.070898,10066.800811
2447.006804,-2681.334243,-4515.256246,12213.398043
2447.007133,-2604.724693,-3478.967927,11251.130318
2447.007462,-1762.019645,-3256.906145,11177.109724
2447.007792,-2221.676944,-2442.679609,12065.356855
2447.008121,-1378.971896,-148.041188,12213.398043
2447.008450,-995.924147,666.185348,11695.253884
2447.008779,-383.047749,888.247130,10436.903782
2447.009108,0.000000,1628.453072,9252.574275
2447.009437,-383.047749,1554.432478,9770.718434
2447.009766,-536.266849,370.102971,9474.636058
2447.010096,0.000000,1110.308913,7624.121203
2447.010425,1991.848295,1480.411884,4811.338623
2447.010754,2911.162892,1184.329507,4441.235652
2447.011083,2068.457845,592.164754,5329.482782
2447.011412,2145.067394,-0.000000,6587.832884
2447.011741,459.657299,-1258.350101,7254.018232
2447.012070,229.828649,-2072.576638,9178.553681
2447.012400,-1149.143247,-2220.617826,10658.965565
2447.012729,-1991.848295,-2294.638420,11991.336260
2447.013058,-2298.286494,-2516.700203,12435.459826
2447.013387,-766.095498,-1258.350101,11547.212695
2447.013716,0.000000,-814.226536,11399.171507
2447.014045,612.876398,518.144159,10881.027347
2447.014374,1915.238745,1480.411884,10510.924376
2447.014704,1991.848295,1998.556043,8216.285956
2447.015033,3294.210641,2960.823768,6957.935855
2447.015362,3370.820191,3330.926739,5995.668130
2447.015691,3140.991542,2960.823768,5625.565159
2447.016020,2604.724693,1998.556043,5847.626942
2447.016349,1608.800546,518.144159,6365.771101
2447.016678,383.047749,-1998.556043,7624.121203
2447.017007,-1608.800546,-3330.926739,9770.718434
2447.017337,-2528.115143,-4737.318029,11991.336260
2447.017666,-2911.162892,-3923.091493,11843.295072
2447.017995,-2221.676944,-2738.761985,11399.171507
2447.018324,-1685.410096,-1850.514855,11843.295072
2447.018653,-1455.581446,-444.123565,11991.336260
2447.018982,-536.266849,592.164754,12361.439231
2447.019311,-153.219100,962.267725,9992.780217
2447.019641,383.047749,1332.370696,10214.842000
2447.019970,383.047749,-0.000000,10955.047942
2447.020299,1532.190996,1850.514855,7624.121203
2447.020628,2987.772442,2960.823768,5921.647536
2447.020957,3677.258390,2812.782580,4441.235652
2447.021286,3370.820191,2294.638420,4293.194464
2447.021615,2757.943793,1184.329507,5699.585753
2447.021945,1762.019645,-0.000000,6143.709319
2447.022274,306.438199,-2294.638420,8290.306550
2447.022603,-1225.752797,-3330.926739,10732.986159
2447.022932,-2145.067394,-3182.885551,11251.130318
2447.023261,-1838.629195,-3701.029710,12361.439231
2447.023590,-1608.800546,-2072.576638,11547.212695
2447.023919,76.609550,-1480.411884,11917.315666
2447.024249,-229.828649,444.123565,11917.315666
2447.024578,153.219100,1480.411884,10881.027347
2447.024907,306.438199,962.267725,10658.965565
2447.025236,1915.238745,1702.473667,9696.697840
2447.025565,2451.505594,3478.967927,6587.832884
2447.025894,3140.991542,2368.659014,5773.606348
2447.026223,3753.867940,2368.659014,4663.297435
2447.026553,3447.429741,1998.556043,5551.544565
2447.026882,2068.457845,370.102971,5847.626942
2447.027211,306.438199,-1406.391290,6809.894666
2447.027540,-1225.752797,-3552.988522,9474.636058
2447.027869,-2451.505594,-4071.132681,11177.109724
2447.028198,-2987.772442,-3552.988522,11103.089130
2447.028527,-2834.553343,-3034.844362,11103.089130
2447.028856,-2451.505594,-2738.761985,12509.480420
2447.029186,-2221.676944,-740.205942,13027.624579
2447.029515,-919.314598,592.164754,12065.356855
2447.029844,-306.438199,962.267725,10362.883188
2447.030173,0.000000,1184.329507,9178.553681
2447.030502,-766.095498,2072.576638,9474.636058
2447.030831,-766.095498,1406.391290,9474.636058
2447.031160,919.314598,444.123565,7328.038826
2447.031490,2374.896044,1776.494261,5255.462188
2447.031819,3140.991542,1554.432478,4441.235652
2447.032148,2451.505594,814.226536,4959.379811
2447.032477,1991.848295,-148.041188,6291.750507
2447.032806,766.095498,-1332.370696,7254.018232
2447.033135,0.000000,-2368.659014,9770.718434
2447.033464,-1149.143247,-2442.679609,10881.027347
2447.033794,-1838.629195,-3478.967927,11843.295072
2447.034123,-2145.067394,-2812.782580,12361.439231
2447.034452,-612.876398,-1184.329507,11695.253884
2447.034781,-153.219100,-592.164754,11547.212695
2447.035110,459.657299,962.267725,11103.089130
2447.035439,2221.676944,1776.494261,11177.109724
2447.035768,2451.505594,2368.659014,8142.265362
2447.036098,3294.210641,2590.720797,7031.956449
2447.036427,3140.991542,3478.967927,4959.379811
2447.036756,3600.648841,2738.761985,5329.482782
2447.037085,2604.724693,1998.556043,5255.462188
2447.037414,1838.629195,296.082377,6069.688724
2447.037743,229.828649,-2072.576638,8142.265362
2447.038072,-1455.581446,-4441.235652,9474.636058
2447.038402,-2298.286494,-4737.318029,11769.274478
2447.038731,-2451.505594,-3997.112087,11325.150913
2447.039060,-1991.848295,-2812.782580,11621.233289
2447.039389,-1838.629195,-1924.535449,12139.377449
2447.039718,-1455.581446,-296.082377,12065.356855
2447.040047,-689.485948,740.205942,11843.295072
2447.040376,-995.924147,1184.329507,10066.800811
2447.040706,306.438199,1702.473667,9844.739029
2447.041035,612.876398,444.123565,10881.027347
2447.041364,1455.581446,2146.597232,6735.874072
2447.041693,2911.162892,2886.803174,6439.791695
2447.042022,3294.210641,2368.659014,4441.235652
2447.042351,3600.648841,2146.597232,4589.276840
2447.042680,2528.115143,-148.041188,6365.771101
2447.043009,995.924147,-888.247130,6365.771101
2447.043339,-459.657299,-3034.844362,9178.553681
2447.043668,-1838.629195,-3775.050304,10881.027347
2447.043997,-2604.724693,-2960.823768,11325.150913
2447.044326,-2374.896044,-3404.947333,11843.295072
2447.044655,-1225.752797,-1776.494261,11547.212695
2447.044984,0.000000,-592.164754,11917.315666
2447.045313,229.828649,1036.288319,10881.027347
2447.045643,919.314598,1406.391290,11547.212695
2447.045972,2145.067394,1480.411884,9770.718434
2447.046301,3524.039291,3182.885551,7254.018232
2447.046630,3600.648841,3627.009116,5995.668130
2447.046959,2834.553343,2886.803174,5329.482782
2447.047288,3600.648841,2220.617826,6069.688724
2447.047617,2221.676944,1480.411884,5921.647536
2447.047947,1149.143247,-1036.288319,6439.791695
2447.048276,-1225.752797,-2886.803174,8438.347739
2447.048605,-2757.943793,-4145.153275,10362.883188
2447.048934,-2834.553343,-4515.256246,11843.295072
2447.049263,-3064.381992,-1998.556043,10066.800811
2447.049592,-2298.286494,-2590.720797,12509.480420
2447.049921,-2528.115143,-2146.597232,12139.377449
2447.050251,-1378.971896,592.164754,11917.315666
2447.050580,-383.047749,666.185348,11029.068536
2447.050909,-153.219100,1332.370696,9400.615463
2447.051238,76.609550,1480.411884,10510.924376
2447.051567,1378.971896,1702.473667,9844.739029
2447.051896,1838.629195,3627.009116,6217.729913
2447.052225,3524.039291,2294.638420,6439.791695
2447.052555,3524.039291,2368.659014,3627.009116
2447.052884,3524.039291,2146.597232,5551.544565
2447.053213,1685.410096,296.082377,6587.832884
2447.053542,689.485948,-1184.329507,7031.956449
2447.053871,-842.705048,-3478.967927,10140.821405
2447.054200,-2298.286494,-2664.741391,10214.842000
2447.054529,-2374.896044,-3849.070898,12361.439231
2447.054858,-2681.334243,-2664.741391,11991.336260
2447.055188,-689.485948,-1998.556043,11843.295072
2447.055517,-383.047749,-518.144159,11843.295072
2447.055846,0.000000,740.205942,10584.944971
2447.056175,1225.752797,592.164754,11547.212695
2447.056504,2451.505594,1480.411884,9622.677246
2447.056833,3294.210641,3108.864956,7328.038826
2447.057162,3983.696590,2960.823768,5773.606348
2447.057492,3677.258390,2886.803174,5477.523971
2447.057821,3677.258390,2738.761985,5255.462188
2447.058150,3217.601092,1998.556043,4885.359217
2447.058479,842.705048,-666.185348,6809.894666
2447.058808,-306.438199,-2812.782580,9178.553681
2447.059137,-2221.676944,-3552.988522,10066.800811
2447.059466,-3370.820191,-4663.297435,12657.521608
2447.059795,-3447.429741,-3182.885551,10510.924376
2447.060124,-2681.334243,-2590.720797,12361.439231
2447.060453,-2451.505594,-1998.556043,12509.480420
2447.060782,-1302.362347,-74.020594,11621.233289
2447.061112,-153.219100,1036.288319,11621.233289
2447.061441,0.000000,740.205942,9252.574275
2447.061770,383.047749,1332.370696,10584.944971
2447.062099,1378.971896,1184.329507,9844.739029
2447.062428,1991.848295,2516.700203,5329.482782
2447.062757,3370.820191,2220.617826,6439.791695
2447.063086,2987.772442,3034.844362,3775.050304
2447.063415,3600.648841,1702.473667,5773.606348
2447.063744,1762.019645,518.144159,6439.791695
2447.064073,842.705048,-1110.308913,7402.059420
2447.064402,-995.924147,-3108.864956,9696.697840
2447.064731,-2451.505594,-3108.864956,10584.944971
2447.065060,-2911.162892,-3627.009116,12879.583391
2447.065389,-2757.943793,-2960.823768,12213.398043
2447.065719,-1378.971896,-2368.659014,11917.315666
2447.066048,-1149.143247,-888.247130,11991.336260
2447.066377,76.609550,666.185348,10955.047942
2447.066706,766.095498,592.164754,11325.150913
2447.067035,2145.067394,962.267725,9474.636058
2447.067364,3600.648841,2960.823768,7179.997637
2447.067693,3600.648841,3108.864956,6069.688724
2447.068022,3370.820191,3182.885551,5181.441594
2447.068351,3753.867940,2368.659014,5699.585753
2447.068680,2604.724693,1924.535449,5255.462188
2447.069009,1225.752797,-74.020594,5847.626942
2447.069338,-1072.533697,-2442.679609,8808.450710
2447.069667,-2681.334243,-3627.009116,9992.780217
2447.069996,-3140.991542,-4515.256246,12139.377449
2447.070326,-2911.162892,-3552.988522,10732.986159
2447.070655,-3064.381992,-3182.885551,12065.356855
2447.070984,-2451.505594,-2220.617826,12287.418637
2447.071313,-1378.971896,-0.000000,10955.047942
2447.071642,-612.876398,666.185348,10955.047942
2447.071971,-383.047749,888.247130,9178.553681
2447.072300,383.047749,1184.329507,10362.883188
2447.072629,766.095498,888.247130,10658.965565
2447.072958,1915.238745,2146.597232,5921.647536
2447.073287,3907.087040,1702.473667,6513.812290
2447.073616,3370.820191,2738.761985,3552.988522
2447.073945,3294.210641,2146.597232,4959.379811
2447.074274,2068.457845,1406.391290,6661.853478
2447.074604,459.657299,-296.082377,7105.977043
2447.074933,0.000000,-2368.659014,9992.780217
2447.075262,-2068.457845,-3182.885551,10955.047942
2447.075591,-3140.991542,-3552.988522,11917.315666
2447.075920,-2757.943793,-3552.988522,13027.624579
2447.076249,-1378.971896,-1776.494261,11843.295072
2447.076578,-689.485948,-1184.329507,11695.253884
2447.076907,-306.438199,222.061783,11325.150913
2447.077236,1378.971896,888.247130,11325.150913
2447.077565,2374.896044,1332.370696,9696.697840
2447.077894,3907.087040,2960.823768,6587.832884
2447.078223,3983.696590,3330.926739,6291.750507
2447.078552,3217.601092,3108.864956,5329.482782
2447.078881,3447.429741,2886.803174,5773.606348
2447.079211,2451.505594,2294.638420,5551.544565
2447.079540,1838.629195,-74.020594,5995.668130
2447.079869,-1302.362347,-2516.700203,8882.471304
2447.080198,-2604.724693,-3627.009116,10510.924376
2447.080527,-3140.991542,-4441.235652,12361.439231
2447.080856,-2911.162892,-3701.029710,11177.109724
2447.081185,-2068.457845,-2368.659014,11399.171507
2447.081514,-1608.800546,-2220.617826,12139.377449
2447.081843,-1225.752797,-0.000000,11177.109724
2447.082172,-459.657299,148.041188,11103.089130
2447.082501,-229.828649,592.164754,9696.697840
2447.082830,306.438199,1258.350101,9992.780217
2447.083159,153.219100,444.123565,10362.883188
2447.083488,1072.533697,1332.370696,6883.915261
2447.083818,3140.991542,1850.514855,6143.709319
2447.084147,3753.867940,2368.659014,3701.029710
2447.084476,2834.553343,2146.597232,4293.194464
2447.084805,2911.162892,1406.391290,6735.874072
2447.085134,1608.800546,-370.102971,6365.771101
2447.085463,383.047749,-2072.576638,8586.388927
2447.085792,-1685.410096,-3330.926739,10807.006753
2447.086121,-2528.115143,-3552.988522,11695.253884
2447.086450,-1991.848295,-4441.235652,13471.748144
2447.086779,-1532.190996,-2294.638420,11621.233289
2447.087108,-536.266849,-1776.494261,11843.295072
2447.087437,-459.657299,-0.000000,11029.068536
2447.087766,536.266849,962.267725,11103.089130
2447.088095,1991.848295,1332.370696,9992.780217
2447.088425,3370.820191,2368.659014,7402.059420
2447.088754,3524.039291,3404.947333,6513.812290
2447.089083,2987.772442,3108.864956,5033.400406
2447.089412,3370.820191,2960.823768,5773.606348
2447.089741,2604.724693,1924.535449,4959.379811
2447.090070,1685.410096,222.061783,5847.626942
2447.090399,-842.705048,-2516.700203,8438.347739
2447.090728,-2451.505594,-3849.070898,10362.883188
2447.091057,-2528.115143,-4367.215058,12065.356855
2447.091386,-3447.429741,-3478.967927,10584.944971
2447.091715,-2604.724693,-2886.803174,12657.521608
2447.092044,-2451.505594,-2146.597232,11843.295072
2447.092373,-766.095498,-148.041188,11177.109724
2447.092703,-689.485948,592.164754,10658.965565
2447.093032,0.000000,1184.329507,9326.594869
2447.093361,0.000000,1554.432478,10140.821405
2447.093690,766.095498,1036.288319,10881.027347
