#time,accel_x,accel_y,accel_z
2467.312658,459.657299,-148.041188,9104.533087
2467.312987,229.828649,-222.061783,8734.430116
2467.313316,76.609550,-0.000000,9030.512492
2467.313645,842.705048,-518.144159,9252.574275
2467.313975,536.266849,-444.123565,8956.491898
2467.314304,229.828649,-222.061783,9030.512492
2467.314633,306.438199,-148.041188,8882.471304
2467.314962,0.000000,-0.000000,9030.512492
2467.315291,229.828649,-296.082377,8808.450710
2467.315620,76.609550,-222.061783,9178.553681
2467.315949,229.828649,-0.000000,9104.533087
2467.316278,536.266849,-296.082377,9030.512492
2467.316607,306.438199,-0.000000,8956.491898
2467.316936,0.000000,-74.020594,9178.553681
2467.317265,229.828649,-148.041188,9104.533087
2467.317594,459.657299,-0.000000,9326.594869
2467.317923,229.828649,-222.061783,9474.636058
2467.318252,0.000000,-0.000000,9400.615463
2467.318581,536.266849,-148.041188,8882.471304
2467.318910,76.609550,-222.061783,9474.636058
2467.319239,383.047749,-0.000000,9178.553681
2467.319568,459.657299,-74.020594,9178.553681
2467.319897,306.438199,-74.020594,9400.615463
2467.320226,229.828649,-222.061783,9252.574275
2467.320555,612.876398,-370.102971,9252.574275
2467.320884,459.657299,-0.000000,9326.594869
2467.321213,229.828649,-296.082377,9178.553681
2467.321542,383.047749,-222.061783,8882.471304
2467.321871,306.438199,-0.000000,8956.491898
2467.322200,383.047749,-0.000000,9178.553681
2467.322529,306.438199,-0.000000,8808.450710
2467.322858,229.828649,-222.061783,9104.533087
2467.323187,229.828649,-370.102971,8882.471304
2467.323516,229.828649,-222.061783,8956.491898
2467.323845,229.828649,-74.020594,9030.512492
2467.324174,306.438199,-222.061783,8956.491898
2467.324503,229.828649,-0.000000,9030.512492
2467.324832,229.828649,-518.144159,9030.512492
2467.325161,-229.828649,-74.020594,9252.574275
2467.325490,306.438199,-222.061783,8956.491898
2467.325819,459.657299,-148.041188,8882.471304
2467.326148,153.219100,-222.061783,8734.430116
2467.326477,306.438199,-0.000000,9030.512492
2467.326806,306.438199,-222.061783,8956.491898
2467.327135,1072.533697,-0.000000,9030.512492
2467.327464,153.219100,-740.205942,9030.512492
2467.327793,229.828649,-592.164754,9252.574275
2467.328122,-383.047749,-222.061783,9474.636058
2467.328451,153.219100,-74.020594,9326.594869
2467.328780,306.438199,-296.082377,8956.491898
2467.329109,229.828649,-296.082377,9178.553681
2467.329438,536.266849,-148.041188,9030.512492
2467.329767,0.000000,-222.061783,9252.574275
2467.330096,536.266849,-518.144159,9400.615463
2467.330425,612.876398,-0.000000,9178.553681
2467.330754,459.657299,-0.000000,9326.594869
2467.331083,612.876398,-222.061783,9030.512492
2467.331412,76.609550,-148.041188,9104.533087
2467.331741,689.485948,-296.082377,9400.615463
2467.332070,689.485948,-518.144159,8956.491898
2467.332399,689.485948,-296.082377,9104.533087
2467.332728,153.219100,-296.082377,8956.491898
2467.333057,0.000000,-0.000000,8882.471304
2467.333386,306.438199,-0.000000,8882.471304
2467.333715,153.219100,-0.000000,8956.491898
2467.334044,383.047749,-222.061783,8956.491898
2467.334373,459.657299,-222.061783,9030.512492
2467.334702,-536.266849,148.041188,9178.553681
2467.335031,306.438199,-74.020594,9030.512492
2467.335360,536.266849,-74.020594,8882.471304
2467.335689,229.828649,-74.020594,8808.450710
2467.336018,229.828649,-0.000000,8882.471304
2467.336347,229.828649,-148.041188,9030.512492
2467.336676,536.266849,-740.205942,8956.491898
2467.337005,766.095498,-148.041188,9178.553681
2467.337334,383.047749,-148.041188,9104.533087
2467.337663,76.609550,-222.061783,8882.471304
2467.337992,229.828649,-222.061783,8882.471304
2467.338321,306.438199,-74.020594,9030.512492
2467.338650,383.047749,-222.061783,9104.533087
2467.338979,306.438199,-666.185348,9400.615463
2467.339309,536.266849,-222.061783,9326.594869
2467.339638,383.047749,-444.123565,9030.512492
2467.339967,306.438199,-444.123565,9178.553681
2467.340296,536.266849,-74.020594,9252.574275
2467.340625,76.609550,-222.061783,9178.553681
2467.340954,229.828649,-370.102971,8882.471304
2467.341283,306.438199,-370.102971,9178.553681
2467.341612,536.266849,74.020594,9104.533087
2467.341941,383.047749,-0.000000,9400.615463
2467.342270,306.438199,-222.061783,9178.553681
2467.342599,306.438199,-0.000000,9178.553681
2467.342928,76.609550,-74.020594,9178.553681
2467.343257,842.705048,-74.020594,9252.574275
2467.343586,229.828649,-222.061783,9400.615463
2467.343915,383.047749,296.082377,9252.574275
2467.344244,459.657299,-74.020594,9030.512492
2467.344573,153.219100,-0.000000,9178.553681
2467.344902,536.266849,-444.123565,9104.533087
2467.345231,536.266849,-0.000000,8956.491898
2467.345560,229.828649,-370.102971,8956.491898
2467.345889,383.047749,-0.000000,8956.491898
2467.346218,306.438199,-0.000000,8956.491898
2467.346547,612.876398,-74.020594,9104.533087
2467.346876,612.876398,-444.123565,9030.512492
2467.347205,76.609550,-444.123565,9030.512492
2467.347534,229.828649,-0.000000,9030.512492
2467.347863,229.828649,-222.061783,9030.512492
2467.348192,919.314598,-814.226536,9696.697840
2467.348521,1378.971896,-962.267725,9178.553681
2467.348850,1532.190996,-518.144159,9326.594869
2467.349179,2374.896044,-148.041188,9548.656652
2467.349508,1225.752797,-74.020594,8734.430116
2467.349837,2911.162892,518.144159,8808.450710
2467.350166,3753.867940,-222.061783,8808.450710
2467.350495,4136.915689,-74.020594,8586.388927
2467.350824,3217.601092,370.102971,8660.409521
2467.351153,2911.162892,592.164754,8438.347739
2467.351482,2911.162892,-666.185348,9252.574275
2467.351811,3447.429741,-444.123565,9252.574275
2467.352140,1685.410096,-592.164754,9178.553681
2467.352469,1685.410096,-1406.391290,10288.862594
2467.352798,2451.505594,-2072.576638,9622.677246
2467.353127,2528.115143,-518.144159,9400.615463
2467.353456,2374.896044,-888.247130,10066.800811
2467.353785,4060.306139,-1332.370696,9696.697840
2467.354114,3370.820191,-0.000000,9696.697840
2467.354443,4903.011187,666.185348,8364.327145
2467.354772,4979.620737,666.185348,7550.100608
2467.355101,4366.744339,1406.391290,9252.574275
2467.355430,4979.620737,1110.308913,7994.224174
2467.355759,4136.915689,740.205942,7476.080014
2467.356088,4060.306139,814.226536,9326.594869
2467.356417,2604.724693,-0.000000,8290.306550
2467.356746,2298.286494,-0.000000,9474.636058
2467.357075,766.095498,-1184.329507,9696.697840
2467.357404,1762.019645,-814.226536,9622.677246
2467.357733,1072.533697,-1406.391290,9474.636058
2467.358062,1378.971896,-1036.288319,9474.636058
2467.358391,1149.143247,-666.185348,9696.697840
2467.358720,2987.772442,370.102971,9474.636058
2467.359049,3064.381992,-0.000000,8068.244768
2467.359378,4290.134789,1332.370696,9622.677246
2467.359707,4443.353888,740.205942,7698.141797
2467.360036,4366.744339,888.247130,7920.203579
2467.360365,4596.572988,518.144159,9104.533087
2467.360694,3294.210641,-0.000000,8586.388927
2467.361023,3217.601092,-592.164754,9104.533087
2467.361352,2451.505594,-1554.432478,9770.718434
2467.361681,2145.067394,-1110.308913,10140.821405
2467.362010,1378.971896,-1776.494261,9548.656652
2467.362339,1608.800546,-1776.494261,9622.677246
2467.362668,1302.362347,-1258.350101,9400.615463
2467.362997,919.314598,-222.061783,9400.615463
2467.363326,1685.410096,370.102971,8808.450710
2467.363655,2298.286494,1184.329507,8734.430116
2467.363984,2068.457845,1850.514855,8438.347739
2467.364313,1685.410096,2146.597232,7624.121203
2467.364643,1072.533697,1850.514855,7920.203579
2467.364972,1455.581446,1332.370696,8512.368333
2467.365301,612.876398,444.123565,7624.121203
2467.365630,-383.047749,-0.000000,8882.471304
2467.365959,-383.047749,-1258.350101,9474.636058
2467.366288,-689.485948,-1924.535449,9622.677246
2467.366617,-689.485948,-2220.617826,9918.759623
2467.366946,-306.438199,-2072.576638,9844.739029
2467.367275,-306.438199,-1776.494261,10362.883188
2467.367604,612.876398,-1776.494261,10658.965565
2467.367933,1302.362347,-1036.288319,9844.739029
2467.368262,2528.115143,-74.020594,9474.636058
2467.368591,3447.429741,1406.391290,8142.265362
2467.368920,3907.087040,2664.741391,7328.038826
2467.369249,3753.867940,3701.029710,7402.059420
2467.369578,3140.991542,3478.967927,6809.894666
2467.369907,2451.505594,3034.844362,7328.038826
2467.370236,766.095498,1850.514855,7402.059420
2467.370565,-1149.143247,-148.041188,8956.491898
2467.370894,-2145.067394,-2442.679609,10510.924376
2467.371223,-1915.238745,-3182.885551,9992.780217
2467.371552,-1608.800546,-3404.947333,9104.533087
2467.371881,-2298.286494,-3552.988522,9992.780217
2467.372210,-2221.676944,-2590.720797,11103.089130
2467.372539,-1915.238745,-2886.803174,12139.377449
2467.372868,-1685.410096,-2220.617826,11177.109724
2467.373197,0.000000,-962.267725,10362.883188
2467.373526,229.828649,814.226536,9696.697840
2467.373855,-536.266849,1998.556043,8734.430116
2467.374184,229.828649,1776.494261,10881.027347
2467.374513,919.314598,1850.514855,9400.615463
2467.374842,3524.039291,3849.070898,5847.626942
2467.375171,4213.525239,3182.885551,5699.585753
2467.375500,3217.601092,3256.906145,4071.132681
2467.375829,2451.505594,1480.411884,6957.935855
2467.376158,1302.362347,-1184.329507,7994.224174
2467.376487,306.438199,-2590.720797,8586.388927
2467.376816,-689.485948,-4737.318029,10510.924376
2467.377145,-1378.971896,-4811.338623,11103.089130
2467.377474,-2451.505594,-3701.029710,10881.027347
2467.377803,-1378.971896,-2886.803174,11473.192101
2467.378132,0.000000,-1184.329507,10436.903782
2467.378461,459.657299,1036.288319,11029.068536
2467.378790,383.047749,2886.803174,10436.903782
2467.379119,612.876398,2960.823768,9844.739029
2467.379448,1378.971896,3034.844362,7698.141797
2467.379777,2528.115143,3404.947333,6735.874072
2467.380106,1685.410096,2812.782580,6291.750507
2467.380435,1302.362347,740.205942,7105.977043
2467.380764,383.047749,-1110.308913,8068.244768
2467.381093,-459.657299,-3034.844362,8808.450710
2467.381422,-766.095498,-4811.338623,9770.718434
2467.381751,-1225.752797,-4737.318029,8438.347739
2467.382080,-1225.752797,-4293.194464,10140.821405
2467.382409,-1302.362347,-2220.617826,9992.780217
2467.382738,-536.266849,-222.061783,10288.862594
2467.383067,-306.438199,-0.000000,11177.109724
2467.383396,153.219100,2220.617826,9844.739029
2467.383725,0.000000,2664.741391,9474.636058
2467.384054,0.000000,1776.494261,9622.677246
2467.384383,1532.190996,2960.823768,8512.368333
2467.384712,2528.115143,3256.906145,7624.121203
2467.385041,3217.601092,2516.700203,6957.935855
2467.385370,2834.553343,1184.329507,7105.977043
2467.385699,2451.505594,-1258.350101,8068.244768
2467.386028,1608.800546,-1850.514855,8068.244768
2467.386357,1302.362347,-3775.050304,8882.471304
2467.386686,689.485948,-3997.112087,10140.821405
2467.387015,-689.485948,-2590.720797,10807.006753
2467.387344,-383.047749,-2590.720797,11029.068536
2467.387673,0.000000,-0.000000,10362.883188
2467.388002,1149.143247,1110.308913,10066.800811
2467.388331,1225.752797,2516.700203,9178.553681
2467.388660,1455.581446,3627.009116,7994.224174
2467.388989,1225.752797,3256.906145,8438.347739
2467.389318,306.438199,2368.659014,8142.265362
2467.389648,0.000000,2146.597232,8364.327145
2467.389977,-1149.143247,-1332.370696,9030.512492
2467.390306,-1685.410096,-3108.864956,9770.718434
2467.390635,-1532.190996,-3552.988522,8882.471304
2467.390964,-842.705048,-3849.070898,9474.636058
2467.391293,-689.485948,-4219.173869,9104.533087
2467.391622,-459.657299,-2886.803174,9400.615463
2467.391951,0.000000,-1110.308913,9992.780217
2467.392280,229.828649,1036.288319,9104.533087
2467.392609,229.828649,2294.638420,9030.512492
2467.392938,0.000000,3034.844362,8734.430116
2467.393267,-842.705048,2442.679609,9400.615463
2467.393596,229.828649,1184.329507,9696.697840
2467.393925,1532.190996,1998.556043,7698.141797
2467.394254,1455.581446,740.205942,7624.121203
2467.394583,1302.362347,-0.000000,7476.080014
2467.394912,612.876398,-666.185348,8068.244768
2467.395241,0.000000,-2442.679609,8660.409521
2467.395570,153.219100,-3404.947333,9030.512492
2467.395899,0.000000,-3923.091493,9622.677246
2467.396228,-306.438199,-3182.885551,9104.533087
2467.396557,0.000000,-2072.576638,9622.677246
2467.396886,229.828649,-592.164754,9992.780217
2467.397216,842.705048,666.185348,9474.636058
2467.397545,1608.800546,2072.576638,9326.594869
2467.397874,1532.190996,3256.906145,8364.327145
2467.398203,1149.143247,3775.050304,8438.347739
2467.398532,766.095498,2368.659014,8142.265362
2467.398862,0.000000,1184.329507,8586.388927
2467.399191,-995.924147,-666.185348,9474.636058
2467.399520,-995.924147,-2368.659014,10214.842000
2467.399849,-1685.410096,-2812.782580,8882.471304
2467.400178,-1685.410096,-3701.029710,9770.718434
2467.400508,-1455.581446,-3775.050304,9400.615463
2467.400837,-919.314598,-1924.535449,10510.924376
2467.401166,-536.266849,-1702.473667,10362.883188
2467.401495,383.047749,444.123565,9548.656652
2467.401824,689.485948,1702.473667,9178.553681
2467.402154,306.438199,2738.761985,8438.347739
2467.402483,0.000000,2738.761985,8956.491898
2467.402812,76.609550,1480.411884,9992.780217
2467.403141,1532.190996,1406.391290,9474.636058
2467.403470,2911.162892,1184.329507,7698.141797
2467.403799,2911.162892,592.164754,7179.997637
2467.404129,2298.286494,444.123565,7254.018232
2467.404458,2451.505594,-518.144159,8512.368333
2467.404787,2145.067394,-1702.473667,8216.285956
2467.405116,1532.190996,-1702.473667,8660.409521
2467.405445,1072.533697,-2220.617826,9178.553681
2467.405775,0.000000,-1332.370696,9844.739029
2467.406104,-306.438199,-296.082377,9696.697840
2467.406433,229.828649,370.102971,9622.677246
2467.406762,459.657299,962.267725,9622.677246
2467.407091,459.657299,1924.535449,9696.697840
2467.407421,459.657299,1776.494261,9030.512492
2467.407750,-689.485948,666.185348,9474.636058
2467.408079,-612.876398,-222.061783,9548.656652
2467.408408,-919.314598,-962.267725,9326.594869
2467.408737,-995.924147,-1924.535449,9548.656652
2467.409066,-919.314598,-2738.761985,9400.615463
2467.409396,-689.485948,-2294.638420,9326.594869
2467.409725,-229.828649,-2146.597232,9178.553681
2467.410054,0.000000,-1332.370696,9030.512492
2467.410383,0.000000,-814.226536,9400.615463
2467.410712,536.266849,740.205942,9104.533087
2467.411042,229.828649,1332.370696,8512.368333
2467.411371,0.000000,1998.556043,8882.471304
2467.411700,0.000000,1332.370696,8956.491898
2467.412029,689.485948,1406.391290,8734.430116
2467.412358,1378.971896,888.247130,8290.306550
2467.412688,1302.362347,-666.185348,8142.265362
2467.413017,1072.533697,-814.226536,8438.347739
2467.413346,689.485948,-1184.329507,8956.491898
2467.413675,459.657299,-1850.514855,8956.491898
2467.414004,153.219100,-2294.638420,8956.491898
2467.414334,536.266849,-1776.494261,9252.574275
2467.414663,0.000000,-1332.370696,9474.636058
2467.414992,842.705048,-814.226536,9400.615463
2467.415321,153.219100,370.102971,9178.553681
2467.415650,612.876398,1628.453072,8586.388927
2467.415979,919.314598,2294.638420,8216.285956
2467.416309,689.485948,2220.617826,7624.121203
2467.416638,229.828649,1554.432478,8216.285956
2467.416967,0.000000,444.123565,8882.471304
2467.417296,-612.876398,-814.226536,9474.636058
2467.417625,-1225.752797,-2368.659014,9992.780217
2467.417955,-1455.581446,-3182.885551,9696.697840
2467.418284,-995.924147,-3108.864956,9770.718434
2467.418613,-1072.533697,-2886.803174,10140.821405
2467.418942,-536.266849,-2368.659014,10066.800811
2467.419271,0.000000,-1406.391290,9770.718434
2467.419601,0.000000,222.061783,10066.800811
2467.419930,612.876398,1554.432478,9104.533087
2467.420259,459.657299,1850.514855,9030.512492
2467.420588,459.657299,2146.597232,9400.615463
2467.420917,1455.581446,1702.473667,8512.368333
2467.421247,2374.896044,2220.617826,7402.059420
2467.421576,2987.772442,1628.453072,7624.121203
2467.421905,2834.553343,518.144159,7920.203579
2467.422234,2298.286494,-592.164754,8882.471304
2467.422563,1455.581446,-1406.391290,8512.368333
2467.422892,995.924147,-2294.638420,9326.594869
2467.423222,1225.752797,-2368.659014,9918.759623
2467.423551,0.000000,-1924.535449,9770.718434
2467.423880,383.047749,-1332.370696,10881.027347
2467.424209,766.095498,74.020594,9992.780217
2467.424538,919.314598,888.247130,9400.615463
2467.424868,919.314598,1924.535449,8808.450710
2467.425197,1225.752797,2812.782580,8290.306550
2467.425526,1302.362347,2442.679609,8364.327145
2467.425855,536.266849,1702.473667,8142.265362
2467.426184,0.000000,222.061783,8808.450710
2467.426514,-766.095498,-1480.411884,9400.615463
2467.426843,-766.095498,-2368.659014,9474.636058
2467.427172,-995.924147,-2886.803174,9104.533087
2467.427501,-689.485948,-2886.803174,9474.636058
2467.427830,-995.924147,-2368.659014,9474.636058
2467.428159,-536.266849,-1628.453072,10140.821405
2467.428489,0.000000,-296.082377,9918.759623
2467.428818,153.219100,592.164754,8956.491898
2467.429147,76.609550,1554.432478,8512.368333
2467.429476,-153.219100,1776.494261,8586.388927
2467.429805,0.000000,1850.514855,9326.594869
2467.430135,-383.047749,962.267725,9178.553681
2467.430464,995.924147,-0.000000,8808.450710
2467.430793,1149.143247,-148.041188,8290.306550
2467.431122,1149.143247,-666.185348,8512.368333
2467.431451,842.705048,-1480.411884,8882.471304
2467.431781,612.876398,-1924.535449,9326.594869
2467.432110,229.828649,-2220.617826,9474.636058
2467.432439,153.219100,-1850.514855,9400.615463
2467.432768,76.609550,-1628.453072,9474.636058
2467.433097,536.266849,-296.082377,9696.697840
2467.433427,612.876398,222.061783,8882.471304
2467.433756,1072.533697,1332.370696,8734.430116
2467.434085,995.924147,2220.617826,8438.347739
2467.434414,995.924147,2960.823768,8216.285956
2467.434743,383.047749,2146.597232,7920.203579
2467.435072,0.000000,1184.329507,8734.430116
2467.435402,-689.485948,-814.226536,9474.636058
2467.435731,-1915.238745,-2072.576638,9918.759623
2467.436060,-1072.533697,-2812.782580,9400.615463
2467.436389,-919.314598,-2960.823768,9622.677246
2467.436718,-1072.533697,-2812.782580,9770.718434
2467.437048,-459.657299,-2368.659014,9622.677246
2467.437377,0.000000,-1332.370696,9548.656652
2467.437706,459.657299,-222.061783,9622.677246
2467.438035,766.095498,740.205942,8882.471304
2467.438364,612.876398,2072.576638,8512.368333
2467.438694,0.000000,2294.638420,9104.533087
2467.439023,612.876398,1628.453072,9474.636058
2467.439352,1455.581446,1702.473667,7920.203579
2467.439681,2757.943793,1036.288319,7772.162391
2467.440010,2757.943793,296.082377,7846.182985
2467.440339,2604.724693,-666.185348,8216.285956
2467.440669,1762.019645,-1258.350101,8882.471304
2467.440998,1302.362347,-2072.576638,9326.594869
2467.441327,766.095498,-2294.638420,9474.636058
2467.441656,383.047749,-2146.597232,10066.800811
2467.441985,0.000000,-1406.391290,10288.862594
2467.442315,306.438199,-222.061783,10510.924376
2467.442644,1378.971896,592.164754,9696.697840
2467.442973,995.924147,1332.370696,9178.553681
2467.443302,1149.143247,2738.761985,8882.471304
2467.443631,612.876398,2960.823768,8290.306550
2467.443961,76.609550,1924.535449,8290.306550
2467.444290,-383.047749,962.267725,8808.450710
2467.444619,-995.924147,-1110.308913,9178.553681
2467.444948,-1378.971896,-2516.700203,9918.759623
2467.445277,-1302.362347,-2812.782580,9400.615463
2467.445607,-1072.533697,-2442.679609,9326.594869
2467.445936,-1149.143247,-2368.659014,9474.636058
2467.446265,-919.314598,-1924.535449,9400.615463
2467.446594,0.000000,-518.144159,9622.677246
2467.446923,766.095498,518.144159,8808.450710
2467.447252,229.828649,2072.576638,8364.327145
2467.447582,153.219100,1998.556043,8290.306550
2467.447911,153.219100,1702.473667,9252.574275
2467.448240,1225.752797,1924.535449,8068.244768
2467.448569,1915.238745,2146.597232,7254.018232
2467.448898,2068.457845,888.247130,7476.080014
2467.449228,1378.971896,148.041188,8216.285956
2467.449557,842.705048,-888.247130,8660.409521
2467.449886,0.000000,-2368.659014,8438.347739
2467.450215,0.000000,-2738.761985,9696.697840
2467.450544,-536.266849,-2442.679609,9844.739029
2467.450874,-919.314598,-1998.556043,9844.739029
2467.451203,-689.485948,-1850.514855,10658.965565
2467.451532,153.219100,-0.000000,9770.718434
2467.451861,612.876398,740.205942,9548.656652
2467.452190,995.924147,2072.576638,8956.491898
2467.452519,1378.971896,2812.782580,7994.224174
2467.452849,842.705048,2368.659014,7920.203579
2467.453178,536.266849,1406.391290,8290.306550
2467.453507,-383.047749,-0.000000,8586.388927
2467.453836,-995.924147,-1776.494261,9622.677246
2467.454165,-1149.143247,-3034.844362,9918.759623
2467.454495,-1302.362347,-3478.967927,9696.697840
2467.454824,-1378.971896,-2960.823768,9474.636058
2467.455153,-919.314598,-2590.720797,9770.718434
2467.455482,-766.095498,-1258.350101,9474.636058
2467.455811,-153.219100,-0.000000,9844.739029
2467.456141,306.438199,1554.432478,9400.615463
2467.456470,306.438199,1924.535449,8956.491898
2467.456799,0.000000,1924.535449,9104.533087
2467.457128,229.828649,1924.535449,9474.636058
2467.457457,1378.971896,1702.473667,8364.327145
2467.457787,2374.896044,1554.432478,7624.121203
2467.458116,2987.772442,444.123565,8068.244768
2467.458445,2451.505594,148.041188,8142.265362
2467.458774,2834.553343,-740.205942,8364.327145
2467.459103,1608.800546,-1776.494261,8808.450710
2467.459432,1378.971896,-2368.659014,9474.636058
2467.459762,689.485948,-1776.494261,9622.677246
2467.460091,153.219100,-1184.329507,9474.636058
2467.460420,229.828649,-1110.308913,9992.780217
2467.460749,689.485948,222.061783,9474.636058
2467.461078,1072.533697,1406.391290,8660.409521
2467.461408,766.095498,2072.576638,8364.327145
2467.461737,612.876398,2516.700203,8290.306550
2467.462066,76.609550,1776.494261,8660.409521
2467.462395,-919.314598,444.123565,8882.471304
2467.462724,-1225.752797,-888.247130,9178.553681
2467.463054,-1378.971896,-2590.720797,9992.780217
2467.463383,-1378.971896,-3182.885551,9770.718434
2467.463712,-1455.581446,-3034.844362,9622.677246
2467.464041,-1302.362347,-2812.782580,9622.677246
2467.464370,-689.485948,-1998.556043,9696.697840
2467.464699,0.000000,-1036.288319,9696.697840
2467.465029,306.438199,592.164754,9400.615463
2467.465358,383.047749,1332.370696,9326.594869
2467.465687,-229.828649,1702.473667,9252.574275
2467.466016,919.314598,2294.638420,7994.224174
2467.466345,1762.019645,2590.720797,7328.038826
2467.466675,2145.067394,2368.659014,6883.915261
2467.467004,1991.848295,1184.329507,7402.059420
2467.467333,1608.800546,-0.000000,8882.471304
2467.467662,536.266849,-1110.308913,8882.471304
2467.467991,0.000000,-2590.720797,9030.512492
2467.468321,-766.095498,-2812.782580,10214.842000
2467.468650,-919.314598,-2442.679609,9844.739029
2467.468979,-612.876398,-1998.556043,9844.739029
2467.469308,-306.438199,-1110.308913,9696.697840
2467.469637,612.876398,-0.000000,9918.759623
2467.469967,842.705048,1110.308913,9696.697840
2467.470296,1608.800546,2442.679609,8216.285956
2467.470625,1685.410096,2812.782580,7846.182985
2467.470954,1838.629195,3034.844362,7698.141797
2467.471283,842.705048,2294.638420,7402.059420
2467.471612,153.219100,296.082377,8586.388927
2467.471942,-383.047749,-1110.308913,9252.574275
2467.472271,-995.924147,-2664.741391,9992.780217
2467.472600,-1455.581446,-3997.112087,10436.903782
2467.472929,-1378.971896,-3552.988522,9474.636058
2467.473258,-1378.971896,-3256.906145,10288.862594
2467.473588,-842.705048,-2442.679609,9918.759623
2467.473917,-383.047749,-0.000000,9770.718434
2467.474246,76.609550,518.144159,9696.697840
2467.474575,229.828649,1628.453072,9030.512492
2467.474904,766.095498,1702.473667,9696.697840
2467.475234,842.705048,1850.514855,9474.636058
2467.475563,1608.800546,1850.514855,8216.285956
2467.475892,2911.162892,1406.391290,8290.306550
2467.476221,2911.162892,1110.308913,7105.977043
2467.476550,2451.505594,-0.000000,8290.306550
2467.476879,1685.410096,-888.247130,8512.368333
2467.477209,1225.752797,-1998.556043,8586.388927
2467.477538,1302.362347,-2812.782580,9696.697840
2467.477867,383.047749,-2442.679609,9474.636058
2467.478196,-459.657299,-1702.473667,10140.821405
2467.478525,0.000000,-888.247130,10066.800811
2467.478855,842.705048,370.102971,9400.615463
2467.479184,1149.143247,1776.494261,8660.409521
2467.479513,1149.143247,2368.659014,8512.368333
2467.479842,1762.019645,2368.659014,7920.203579
2467.480171,1378.971896,2368.659014,7994.224174
2467.480501,459.657299,1406.391290,8438.347739
2467.480830,-459.657299,-0.000000,8290.306550
2467.481159,-919.314598,-1850.514855,9474.636058
2467.481488,-1149.143247,-3256.906145,9548.656652
2467.481817,-1149.143247,-3108.864956,9400.615463
2467.482147,-1225.752797,-3627.009116,9622.677246
2467.482476,-766.095498,-2664.741391,9474.636058
2467.482805,76.609550,-1406.391290,9548.656652
2467.483134,0.000000,-0.000000,9400.615463
2467.483463,153.219100,1628.453072,8586.388927
2467.483792,459.657299,2072.576638,9104.533087
2467.484122,459.657299,2146.597232,8956.491898
2467.484451,1455.581446,2368.659014,7624.121203
2467.484780,2145.067394,1924.535449,7994.224174
2467.485109,1225.752797,1258.350101,7624.121203
2467.485438,1608.800546,-0.000000,7772.162391
2467.485768,306.438199,-1036.288319,8956.491898
2467.486097,76.609550,-1850.514855,9252.574275
2467.486426,0.000000,-3034.844362,9844.739029
2467.486755,-536.266849,-3404.947333,10214.842000
2467.487084,-689.485948,-2664.741391,10510.924376
2467.487414,0.000000,-2072.576638,10732.986159
2467.487743,536.266849,-592.164754,10066.800811
2467.488072,1149.143247,1184.329507,9696.697840
2467.488401,1455.581446,2664.741391,8882.471304
2467.488730,2068.457845,3330.926739,7994.224174
2467.489060,2145.067394,2960.823768,7550.100608
2467.489389,1072.533697,2516.700203,7698.141797
2467.489718,383.047749,666.185348,8216.285956
2467.490047,-689.485948,-1110.308913,8956.491898
2467.490376,-1532.190996,-2516.700203,9992.780217
2467.490705,-1685.410096,-3627.009116,9696.697840
2467.491035,-2145.067394,-3552.988522,9474.636058
2467.491364,-1378.971896,-3849.070898,10658.965565
2467.491693,-842.705048,-2664.741391,9326.594869
2467.492022,-459.657299,-814.226536,9918.759623
2467.492351,0.000000,666.185348,9474.636058
2467.492681,766.095498,1924.535449,8808.450710
2467.493010,153.219100,2368.659014,9030.512492
2467.493339,0.000000,2146.597232,9622.677246
2467.493668,1685.410096,1776.494261,9548.656652
2467.493997,2374.896044,2368.659014,7105.977043
2467.494327,3294.210641,1332.370696,7476.080014
2467.494656,2987.772442,740.205942,6957.935855
2467.494985,2298.286494,-148.041188,8290.306550
2467.495314,1532.190996,-1406.391290,8216.285956
2467.495643,1149.143247,-2590.720797,9030.512492
2467.495973,383.047749,-2368.659014,9252.574275
2467.496302,-383.047749,-2442.679609,10066.800811
2467.496631,-689.485948,-2072.576638,10732.986159
2467.496960,-383.047749,-592.164754,10140.821405
2467.497290,229.828649,370.102971,9622.677246
2467.497619,383.047749,1702.473667,9474.636058
2467.497948,536.266849,3108.864956,8808.450710
2467.498277,229.828649,2516.700203,8438.347739
2467.498607,842.705048,1850.514855,8586.388927
2467.498936,0.000000,888.247130,8956.491898
2467.499265,-459.657299,-740.205942,9104.533087
2467.499594,-1149.143247,-2072.576638,9474.636058
2467.499923,-1225.752797,-3108.864956,9696.697840
2467.500253,-1072.533697,-2960.823768,9474.636058
2467.500582,-1072.533697,-2516.700203,9400.615463
2467.500911,-153.219100,-1406.391290,9696.697840
2467.501240,153.219100,-518.144159,9252.574275
2467.501570,306.438199,1110.308913,9252.574275
2467.501899,229.828649,2220.617826,8734.430116
2467.502228,0.000000,2220.617826,8660.409521
2467.502557,76.609550,1702.473667,9178.553681
2467.502887,1455.581446,1776.494261,8586.388927
2467.503216,1072.533697,814.226536,7624.121203
2467.503545,1608.800546,-0.000000,8586.388927
2467.503874,1608.800546,-444.123565,8586.388927
2467.504203,995.924147,-1036.288319,8586.388927
2467.504533,689.485948,-1406.391290,8882.471304
2467.504862,689.485948,-2294.638420,9400.615463
2467.505191,842.705048,-2960.823768,9918.759623
2467.505520,459.657299,-1998.556043,9548.656652
2467.505850,612.876398,-1480.411884,10140.821405
2467.506179,536.266849,-0.000000,9622.677246
2467.506508,1378.971896,1258.350101,8882.471304
2467.506837,1378.971896,2442.679609,8808.450710
2467.507166,1302.362347,2664.741391,8290.306550
2467.507496,612.876398,1924.535449,8364.327145
2467.507825,-153.219100,962.267725,8882.471304
2467.508154,-459.657299,-370.102971,9326.594869
2467.508483,-1149.143247,-1776.494261,9696.697840
2467.508813,-1378.971896,-3034.844362,10140.821405
2467.509142,-1608.800546,-3256.906145,9918.759623
2467.509471,-1608.800546,-2960.823768,9696.697840
2467.509800,-536.266849,-2442.679609,9622.677246
2467.510130,-459.657299,-1480.411884,9474.636058
2467.510459,229.828649,-0.000000,10066.800811
2467.510788,536.266849,888.247130,9178.553681
2467.511117,306.438199,1776.494261,8586.388927
2467.511446,153.219100,1850.514855,9770.718434
2467.511776,919.314598,2072.576638,8956.491898
2467.512105,1532.190996,1850.514855,7476.080014
2467.512434,2757.943793,1628.453072,7846.182985
2467.512763,3600.648841,814.226536,7031.956449
2467.513093,2374.896044,-0.000000,7772.162391
2467.513422,1838.629195,-814.226536,8142.265362
2467.513751,1608.800546,-1480.411884,8512.368333
2467.514080,919.314598,-2146.597232,9326.594869
2467.514410,153.219100,-2146.597232,9622.677246
2467.514739,-306.438199,-1702.473667,10140.821405
2467.515068,-306.438199,-888.247130,9844.739029
2467.515397,306.438199,74.020594,9252.574275
2467.515726,383.047749,1184.329507,9030.512492
2467.516056,459.657299,2368.659014,8734.430116
2467.516385,383.047749,2368.659014,8586.388927
2467.516714,76.609550,962.267725,8438.347739
2467.517043,0.000000,444.123565,8586.388927
2467.517373,-383.047749,-888.247130,8956.491898
2467.517702,-919.314598,-2220.617826,9622.677246
2467.518031,-1225.752797,-2738.761985,9696.697840
2467.518360,-995.924147,-3330.926739,9622.677246
2467.518690,-1072.533697,-2590.720797,9844.739029
2467.519019,-689.485948,-2072.576638,9622.677246
2467.519348,-229.828649,-666.185348,9178.553681
2467.519677,0.000000,518.144159,9326.594869
2467.520006,766.095498,1702.473667,9104.533087
2467.520336,612.876398,1850.514855,9178.553681
2467.520665,1072.533697,2368.659014,8290.306550
2467.520994,1455.581446,2294.638420,7846.182985
2467.521323,1378.971896,1480.411884,7624.121203
2467.521653,1608.800546,444.123565,8216.285956
2467.521982,1225.752797,-740.205942,9252.574275
2467.522311,0.000000,-1258.350101,9030.512492
2467.522640,0.000000,-2368.659014,9474.636058
2467.522970,0.000000,-2664.741391,9918.759623
2467.523299,-459.657299,-2368.659014,9696.697840
2467.523628,0.000000,-1406.391290,10066.800811
2467.523957,76.609550,-444.123565,9992.780217
2467.524286,689.485948,222.061783,9548.656652
2467.524616,1378.971896,1702.473667,8512.368333
2467.524945,1685.410096,2812.782580,7920.203579
2467.525274,1608.800546,2590.720797,7698.141797
2467.525603,1378.971896,2516.700203,7698.141797
2467.525933,766.095498,1406.391290,8438.347739
2467.526262,0.000000,-518.144159,8734.430116
2467.526591,-1532.190996,-2146.597232,9770.718434
2467.526920,-995.924147,-3182.885551,9770.718434
2467.527250,-1455.581446,-3330.926739,9400.615463
2467.527579,-1608.800546,-3256.906145,10362.883188
2467.527908,-1455.581446,-2442.679609,9992.780217
2467.528237,-995.924147,-666.185348,10214.842000
2467.528566,0.000000,-222.061783,10362.883188
2467.528896,76.609550,592.164754,8956.491898
2467.529225,536.266849,1998.556043,8956.491898
2467.529554,0.000000,1702.473667,9474.636058
2467.529883,919.314598,1850.514855,9030.512492
2467.530213,1915.238745,1776.494261,7920.203579
2467.530542,2911.162892,1480.411884,7476.080014
2467.530871,2604.724693,666.185348,7994.224174
2467.531200,1915.238745,-296.082377,8512.368333
2467.531529,1455.581446,-1406.391290,8512.368333
2467.531859,919.314598,-2220.617826,9252.574275
2467.532188,459.657299,-2368.659014,9696.697840
2467.532517,0.000000,-2220.617826,9918.759623
2467.532846,0.000000,-1850.514855,10807.006753
2467.533176,-459.657299,-0.000000,10362.883188
2467.533505,1072.533697,370.102971,9474.636058
2467.533834,995.924147,1628.453072,8660.409521
2467.534163,919.314598,2738.761985,8290.306550
2467.534493,995.924147,2664.741391,7772.162391
2467.534822,383.047749,1776.494261,7772.162391
2467.535151,-153.219100,962.267725,8142.265362
2467.535480,-383.047749,-962.267725,8660.409521
2467.535809,-1072.533697,-2294.638420,9252.574275
2467.536139,-919.314598,-2590.720797,9696.697840
2467.536468,-766.095498,-2812.782580,9178.553681
2467.536797,-1072.533697,-2738.761985,9548.656652
2467.537126,-842.705048,-1924.535449,9696.697840
2467.537456,0.000000,-888.247130,9696.697840
2467.537785,153.219100,518.144159,9400.615463
2467.538114,153.219100,1998.556043,9104.533087
2467.538443,0.000000,2442.679609,9178.553681
2467.538773,-229.828649,1924.535449,9326.594869
2467.539102,306.438199,1554.432478,9252.574275
2467.539431,1225.752797,1406.391290,7698.141797
2467.539760,1838.629195,370.102971,7772.162391
2467.540089,2068.457845,-592.164754,7846.182985
2467.540419,1685.410096,-666.185348,8882.471304
2467.540748,766.095498,-1998.556043,9178.553681
2467.541077,689.485948,-2442.679609,9474.636058
2467.541406,153.219100,-2220.617826,9696.697840
2467.541736,0.000000,-1924.535449,9992.780217
2467.542065,0.000000,-1480.411884,10436.903782
2467.542394,612.876398,-444.123565,9918.759623
2467.542723,842.705048,1480.411884,9918.759623
2467.543053,1225.752797,2220.617826,9178.553681
2467.543382,1072.533697,2738.761985,8216.285956
2467.543711,919.314598,2664.741391,8290.306550
2467.544040,229.828649,1480.411884,8512.368333
2467.544369,0.000000,-0.000000,8956.491898
2467.544699,-995.924147,-1406.391290,9252.574275
2467.545028,-1072.533697,-2664.741391,9770.718434
2467.545357,-1149.143247,-3256.906145,9474.636058
2467.545686,-995.924147,-2886.803174,9400.615463
2467.546016,-919.314598,-2664.741391,9474.636058
2467.546345,-612.876398,-1850.514855,9548.656652
2467.546674,-383.047749,-444.123565,9918.759623
2467.547003,229.828649,666.185348,9474.636058
2467.547333,0.000000,1702.473667,8660.409521
2467.547662,-229.828649,1998.556043,8808.450710
2467.547991,-153.219100,1776.494261,9178.553681
2467.548320,1302.362347,1850.514855,8438.347739
2467.548649,2298.286494,1628.453072,7031.956449
2467.548979,2911.162892,370.102971,7328.038826
2467.549308,2145.067394,-0.000000,7698.141797
2467.549637,1838.629195,-1036.288319,8512.368333
2467.549966,1685.410096,-2072.576638,8438.347739
2467.550296,919.314598,-2294.638420,9178.553681
2467.550625,0.000000,-2516.700203,9622.677246
2467.550954,-306.438199,-1850.514855,9992.780217
2467.551283,-306.438199,-1332.370696,9992.780217
2467.551613,612.876398,-0.000000,9696.697840
2467.551942,153.219100,1110.308913,9474.636058
2467.552271,612.876398,2664.741391,9252.574275
2467.552600,995.924147,2738.761985,8660.409521
2467.552929,459.657299,1998.556043,8364.327145
2467.553259,-229.828649,740.205942,8512.368333
2467.553588,-919.314598,-518.144159,9252.574275
2467.553917,-1302.362347,-1924.535449,9770.718434
2467.554246,-1302.362347,-2738.761985,9696.697840
2467.554576,-1991.848295,-3627.009116,9844.739029
2467.554905,-1149.143247,-2812.782580,9770.718434
2467.555234,-919.314598,-2294.638420,9474.636058
2467.555563,-306.438199,-888.247130,9474.636058
2467.555892,383.047749,-0.000000,9474.636058
2467.556222,689.485948,1406.391290,9696.697840
2467.556551,919.314598,2516.700203,8586.388927
2467.556880,2221.676944,2886.803174,7624.121203
2467.557209,2374.896044,3701.029710,7254.018232
2467.557539,2528.115143,2738.761985,7254.018232
2467.557868,2068.457845,1628.453072,7772.162391
2467.558197,1685.410096,-0.000000,8882.471304
2467.558526,0.000000,-1332.370696,9548.656652
2467.558856,0.000000,-2664.741391,9770.718434
2467.559185,-842.705048,-3256.906145,10140.821405
2467.559514,-1149.143247,-3108.864956,10436.903782
2467.559843,-612.876398,-2590.720797,10140.821405
2467.560172,0.000000,-1258.350101,10140.821405
2467.560502,1302.362347,-222.061783,10214.842000
2467.560831,1762.019645,1628.453072,9104.533087
2467.561160,2451.505594,2516.700203,8290.306550
2467.561489,2757.943793,3182.885551,7550.100608
2467.561819,3064.381992,3330.926739,7328.038826
2467.562148,2068.457845,2146.597232,7698.141797
2467.562477,459.657299,814.226536,8290.306550
2467.562806,-689.485948,-1184.329507,9252.574275
2467.563136,-1608.800546,-2886.803174,9992.780217
2467.563465,-1991.848295,-3997.112087,10584.944971
2467.563794,-2145.067394,-4219.173869,10288.862594
2467.564123,-2451.505594,-2738.761985,9770.718434
2467.564452,-1532.190996,-1554.432478,10584.944971
2467.564782,-995.924147,-444.123565,9622.677246
2467.565111,76.609550,1036.288319,9844.739029
2467.565440,0.000000,1776.494261,8660.409521
2467.565769,306.438199,1702.473667,9178.553681
2467.566099,459.657299,1776.494261,9696.697840
2467.566428,919.314598,1776.494261,7846.182985
2467.566757,2757.943793,1628.453072,7772.162391
2467.567086,2911.162892,888.247130,7105.977043
2467.567416,2757.943793,296.082377,7402.059420
2467.567745,1838.629195,-666.185348,7994.224174
2467.568074,1225.752797,-888.247130,8512.368333
2467.568403,766.095498,-2294.638420,9326.594869
2467.568732,0.000000,-2220.617826,9992.780217
2467.569062,-229.828649,-1258.350101,9918.759623
2467.569391,-689.485948,-1036.288319,10510.924376
2467.569720,-383.047749,-0.000000,9844.739029
2467.570049,76.609550,888.247130,9326.594869
2467.570379,0.000000,1998.556043,8956.491898
2467.570708,229.828649,2368.659014,8364.327145
2467.571037,229.828649,1480.411884,8660.409521
2467.571366,76.609550,962.267725,8290.306550
2467.571696,-689.485948,-148.041188,8734.430116
2467.572025,-1072.533697,-2220.617826,9030.512492
2467.572354,-1378.971896,-2812.782580,9696.697840
2467.572683,-1302.362347,-3330.926739,9622.677246
2467.573012,-1072.533697,-2960.823768,9770.718434
2467.573342,-842.705048,-2886.803174,9918.759623
2467.573671,-383.047749,-1628.453072,9918.759623
2467.574000,306.438199,-0.000000,9474.636058
2467.574329,612.876398,1850.514855,8882.471304
2467.574659,1532.190996,2368.659014,8364.327145
2467.574988,1532.190996,3182.885551,7624.121203
2467.575317,1532.190996,2664.741391,7105.977043
2467.575646,1455.581446,2516.700203,7698.141797
2467.575975,1532.190996,1110.308913,7624.121203
2467.576305,766.095498,-518.144159,8808.450710
2467.576634,-153.219100,-1850.514855,9474.636058
2467.576963,-842.705048,-3034.844362,9918.759623
2467.577292,-919.314598,-3404.947333,10288.862594
2467.577622,-995.924147,-3182.885551,10955.047942
2467.577951,0.000000,-1776.494261,10881.027347
2467.578280,612.876398,-1036.288319,10214.842000
2467.578609,1608.800546,296.082377,9696.697840
2467.578939,2604.724693,2072.576638,9030.512492
2467.579268,3064.381992,3330.926739,7846.182985
2467.579597,3064.381992,3997.112087,7179.997637
2467.579926,2604.724693,3552.988522,7179.997637
2467.580255,1532.190996,2886.803174,7328.038826
2467.580585,459.657299,888.247130,7846.182985
2467.580914,-1149.143247,-1480.411884,9474.636058
2467.581243,-1915.238745,-3256.906145,10807.006753
2467.581572,-2068.457845,-3923.091493,9622.677246
2467.581902,-2145.067394,-3849.070898,9844.739029
2467.582231,-1149.143247,-3849.070898,10140.821405
2467.582560,-1378.971896,-2294.638420,10140.821405
2467.582889,-766.095498,-370.102971,10732.986159
2467.583219,0.000000,518.144159,9770.718434
2467.583548,153.219100,1850.514855,8882.471304
2467.583877,153.219100,1998.556043,9400.615463
2467.584206,153.219100,1776.494261,10066.800811
2467.584535,1608.800546,1702.473667,8660.409521
2467.584865,2987.772442,2072.576638,7254.018232
2467.585194,3524.039291,1184.329507,6513.812290
2467.585523,2757.943793,888.247130,7254.018232
2467.585852,2068.457845,-74.020594,8364.327145
2467.586182,1072.533697,-1554.432478,8364.327145
2467.586511,612.876398,-2442.679609,9474.636058
2467.586840,-536.266849,-2664.741391,9918.759623
2467.587169,-1302.362347,-2886.803174,10436.903782
2467.587499,-1302.362347,-1998.556043,10881.027347
2467.587828,-612.876398,-592.164754,10288.862594
2467.588157,0.000000,444.123565,9696.697840
2467.588486,0.000000,1924.535449,9548.656652
2467.588815,76.609550,2738.761985,8956.491898
2467.589145,76.609550,2146.597232,8364.327145
2467.589474,459.657299,2146.597232,8660.409521
2467.589803,76.609550,444.123565,8512.368333
2467.590132,-306.438199,-1110.308913,8660.409521
2467.590462,-1225.752797,-2516.700203,9178.553681
2467.590791,-1225.752797,-3330.926739,8956.491898
2467.591120,-766.095498,-3404.947333,9178.553681
2467.591449,-919.314598,-2812.782580,8734.430116
2467.591779,-306.438199,-1628.453072,9326.594869
2467.592108,0.000000,-296.082377,8956.491898
2467.592437,0.000000,1036.288319,9178.553681
2467.592766,76.609550,1924.535449,9030.512492
2467.593095,153.219100,2072.576638,9104.533087
2467.593425,459.657299,2294.638420,8438.347739
2467.593754,1838.629195,1776.494261,7846.182985
2467.594083,1838.629195,1258.350101,7624.121203
2467.594412,1608.800546,222.061783,8290.306550
2467.594741,1225.752797,-666.185348,8882.471304
2467.595070,612.876398,-1628.453072,9030.512492
2467.595399,229.828649,-2442.679609,9326.594869
2467.595728,76.609550,-3034.844362,9696.697840
2467.596057,0.000000,-2368.659014,9844.739029
2467.596386,919.314598,-2072.576638,10288.862594
2467.596716,1762.019645,-518.144159,9844.739029
2467.597045,2221.676944,962.267725,9474.636058
2467.597374,2451.505594,2442.679609,8882.471304
2467.597703,2451.505594,3182.885551,8068.244768
2467.598032,1838.629195,3330.926739,8142.265362
2467.598361,689.485948,2590.720797,8438.347739
2467.598690,536.266849,962.267725,8586.388927
2467.599019,-995.924147,-814.226536,9696.697840
2467.599348,-1302.362347,-2590.720797,10584.944971
2467.599677,-1532.190996,-3182.885551,9548.656652
2467.600007,-1532.190996,-3330.926739,9474.636058
2467.600336,-1762.019645,-3404.947333,10066.800811
2467.600665,-1149.143247,-2368.659014,10436.903782
2467.600994,-612.876398,-888.247130,10510.924376
2467.601323,-383.047749,-0.000000,9696.697840
2467.601652,842.705048,1406.391290,8216.285956
2467.601981,306.438199,2072.576638,10288.862594
2467.602310,995.924147,1850.514855,10066.800811
2467.602639,2528.115143,3404.947333,6735.874072
2467.602968,4060.306139,2738.761985,7624.121203
2467.603298,4213.525239,1924.535449,6365.771101
2467.603627,3600.648841,2368.659014,6587.832884
2467.603956,1915.238745,-518.144159,8068.244768
2467.604285,1225.752797,-1628.453072,7698.141797
2467.604614,612.876398,-3182.885551,10584.944971
2467.604943,-1378.971896,-3404.947333,10288.862594
2467.605272,-1072.533697,-3404.947333,10214.842000
2467.605601,-2604.724693,-3182.885551,10436.903782
2467.605930,229.828649,-370.102971,9696.697840
2467.606259,306.438199,-148.041188,9918.759623
2467.606589,0.000000,1998.556043,9178.553681
2467.606918,-536.266849,2368.659014,9548.656652
2467.607247,306.438199,1702.473667,9178.553681
2467.607576,306.438199,1850.514855,7624.121203
2467.607905,919.314598,962.267725,7920.203579
2467.608234,-459.657299,-444.123565,8734.430116
2467.608563,-766.095498,-1110.308913,9400.615463
2467.608892,-612.876398,-2516.700203,9252.574275
2467.609221,-995.924147,-3108.864956,9474.636058
2467.609550,-1149.143247,-2738.761985,9252.574275
2467.609879,-919.314598,-2220.617826,9474.636058
2467.610209,-689.485948,-1110.308913,9992.780217
2467.610538,76.609550,592.164754,9252.574275
2467.610867,0.000000,1480.411884,9548.656652
2467.611196,0.000000,1998.556043,8956.491898
2467.611525,-229.828649,2368.659014,9104.533087
2467.611854,153.219100,1628.453072,8734.430116
2467.612183,919.314598,1406.391290,7698.141797
2467.612512,2221.676944,518.144159,8142.265362
2467.612841,1838.629195,148.041188,7994.224174
2467.613170,1378.971896,-740.205942,8808.450710
2467.613500,1149.143247,-1628.453072,8808.450710
2467.613829,1149.143247,-1998.556043,8512.368333
2467.614158,842.705048,-2590.720797,9400.615463
2467.614487,1225.752797,-2146.597232,9474.636058
2467.614816,842.705048,-296.082377,9918.759623
2467.615145,995.924147,222.061783,9770.718434
2467.615474,1685.410096,1406.391290,8734.430116
2467.615803,1532.190996,2294.638420,8734.430116
2467.616132,1378.971896,2738.761985,8142.265362
2467.616461,842.705048,2442.679609,8216.285956
2467.616791,383.047749,1480.411884,8512.368333
2467.617120,-536.266849,-222.061783,8808.450710
2467.617449,-1302.362347,-1554.432478,9992.780217
2467.617778,-1225.752797,-2812.782580,10584.944971
2467.618107,-1762.019645,-3478.967927,9770.718434
2467.618436,-1608.800546,-3478.967927,10140.821405
2467.618765,-1225.752797,-2812.782580,10436.903782
2467.619094,-153.219100,-1702.473667,9770.718434
2467.619423,383.047749,-444.123565,9992.780217
2467.619752,153.219100,740.205942,9400.615463
2467.620082,1072.533697,1258.350101,9770.718434
2467.620411,1762.019645,2294.638420,8882.471304
2467.620740,2757.943793,3404.947333,7476.080014
2467.621069,3064.381992,3478.967927,7179.997637
2467.621398,3830.477490,2590.720797,7031.956449
2467.621727,3370.820191,1110.308913,7698.141797
2467.622056,1149.143247,962.267725,8216.285956
2467.622385,919.314598,-1702.473667,8438.347739
2467.622714,-306.438199,-2960.823768,9918.759623
2467.623043,-1302.362347,-3404.947333,10288.862594
2467.623373,-1455.581446,-3330.926739,10955.047942
2467.623702,-1149.143247,-2590.720797,10362.883188
2467.624031,-306.438199,-1850.514855,9918.759623
2467.624360,-306.438199,370.102971,9474.636058
2467.624689,842.705048,1998.556043,9400.615463
2467.625018,766.095498,1998.556043,8660.409521
2467.625347,766.095498,2812.782580,8068.244768
2467.625676,1302.362347,2442.679609,7698.141797
2467.626005,536.266849,1184.329507,7105.977043
2467.626334,306.438199,-0.000000,8142.265362
2467.626664,-612.876398,-1924.535449,9178.553681
2467.626993,-995.924147,-3108.864956,9104.533087
2467.627322,-1532.190996,-3775.050304,9548.656652
2467.627651,-1685.410096,-3552.988522,9474.636058
2467.627980,-1838.629195,-2590.720797,9474.636058
2467.628309,-1225.752797,-1258.350101,9474.636058
2467.628638,-383.047749,592.164754,9178.553681
2467.628967,0.000000,666.185348,9474.636058
2467.629296,0.000000,1924.535449,8512.368333
2467.629625,-306.438199,2368.659014,8660.409521
2467.629955,0.000000,1406.391290,9178.553681
2467.630284,459.657299,1184.329507,8438.347739
2467.630613,1685.410096,1036.288319,8290.306550
2467.630942,1149.143247,296.082377,8438.347739
2467.631271,1149.143247,-444.123565,8512.368333
2467.631600,995.924147,-1332.370696,9104.533087
2467.631929,842.705048,-1554.432478,9178.553681
2467.632258,766.095498,-1924.535449,9474.636058
2467.632587,766.095498,-1850.514855,9770.718434
2467.632916,766.095498,-888.247130,9918.759623
2467.633246,-153.219100,222.061783,10214.842000
2467.633575,1302.362347,1332.370696,9622.677246
2467.633904,1455.581446,2516.700203,9474.636058
2467.634233,1225.752797,2812.782580,8512.368333
2467.634562,995.924147,2960.823768,8216.285956
2467.634891,383.047749,1702.473667,8364.327145
2467.635220,0.000000,592.164754,9104.533087
2467.635549,-689.485948,-666.185348,9474.636058
2467.635878,-1762.019645,-1702.473667,10584.944971
2467.636207,-1608.800546,-2960.823768,9696.697840
2467.636537,-1302.362347,-2812.782580,9992.780217
2467.636866,-1302.362347,-2812.782580,9992.780217
2467.637195,-383.047749,-1554.432478,9844.739029
2467.637524,383.047749,-740.205942,10214.842000
2467.637853,842.705048,666.185348,9474.636058
2467.638182,1378.971896,1480.411884,9178.553681
2467.638511,995.924147,1702.473667,9770.718434
2467.638840,1915.238745,2516.700203,7772.162391
2467.639169,3217.601092,2368.659014,7328.038826
2467.639498,2987.772442,1924.535449,6439.791695
2467.639827,3064.381992,1184.329507,7105.977043
2467.640157,3217.601092,-592.164754,8660.409521
2467.640486,1149.143247,-1110.308913,8290.306550
2467.640815,766.095498,-2886.803174,9400.615463
2467.641144,-459.657299,-3256.906145,9992.780217
2467.641473,-1149.143247,-2886.803174,9918.759623
2467.641802,-995.924147,-2738.761985,10436.903782
2467.642131,-229.828649,-1702.473667,9992.780217
2467.642460,459.657299,-0.000000,9770.718434
2467.642789,842.705048,518.144159,9400.615463
2467.643118,995.924147,2590.720797,7994.224174
2467.643448,1378.971896,2294.638420,8068.244768
2467.643777,1378.971896,2590.720797,7402.059420
2467.644106,842.705048,1776.494261,7476.080014
2467.644435,0.000000,-74.020594,8142.265362
2467.644764,-1072.533697,-1702.473667,8660.409521
2467.645093,-1608.800546,-2812.782580,9770.718434
2467.645422,-1302.362347,-3478.967927,9400.615463
2467.645751,-1608.800546,-3182.885551,9252.574275
2467.646080,-1608.800546,-2738.761985,9844.739029
2467.646409,-995.924147,-1184.329507,9548.656652
2467.646739,-383.047749,-0.000000,9474.636058
2467.647068,-229.828649,962.267725,9400.615463
2467.647397,-153.219100,1850.514855,8808.450710
2467.647726,-536.266849,1776.494261,8808.450710
2467.648055,0.000000,1776.494261,8512.368333
2467.648384,612.876398,1850.514855,8512.368333
2467.648713,1532.190996,1184.329507,7846.182985
2467.649042,1838.629195,666.185348,7994.224174
2467.649371,1302.362347,-222.061783,8142.265362
2467.649700,1225.752797,-1332.370696,8808.450710
2467.650030,842.705048,-1628.453072,8882.471304
2467.650359,1302.362347,-2442.679609,9400.615463
2467.650688,689.485948,-1998.556043,10214.842000
2467.651017,383.047749,-1184.329507,10066.800811
2467.651346,536.266849,-370.102971,10362.883188
2467.651675,995.924147,666.185348,9622.677246
2467.652004,1455.581446,1850.514855,9400.615463
2467.652333,2298.286494,2368.659014,9326.594869
2467.652662,1455.581446,2960.823768,8734.430116
2467.652991,766.095498,1850.514855,8512.368333
2467.653321,76.609550,962.267725,8956.491898
2467.653650,-689.485948,-370.102971,9178.553681
2467.653979,-1149.143247,-2072.576638,9770.718434
2467.654308,-919.314598,-3330.926739,10362.883188
2467.654637,-1838.629195,-2738.761985,9696.697840
2467.654966,-1302.362347,-3034.844362,10066.800811
2467.655295,-612.876398,-2220.617826,10214.842000
2467.655624,-459.657299,-1184.329507,9770.718434
2467.655953,153.219100,-0.000000,9918.759623
2467.656282,306.438199,1554.432478,8734.430116
2467.656612,919.314598,1776.494261,9696.697840
2467.656941,1762.019645,2368.659014,8364.327145
2467.657270,2068.457845,3182.885551,7031.956449
2467.657599,3217.601092,2442.679609,6439.791695
2467.657928,3370.820191,1998.556043,6957.935855
2467.658257,2604.724693,666.185348,7846.182985
2467.658586,1302.362347,-740.205942,8068.244768
2467.658915,689.485948,-1850.514855,8808.450710
2467.659244,-306.438199,-3182.885551,9992.780217
2467.659573,-1149.143247,-2738.761985,10140.821405
2467.659903,-1225.752797,-3108.864956,10732.986159
2467.660232,-995.924147,-1998.556043,9696.697840
2467.660561,0.000000,-444.123565,9770.718434
2467.660890,612.876398,814.226536,9696.697840
2467.661219,1149.143247,2516.700203,8512.368333
2467.661548,766.095498,2368.659014,8142.265362
2467.661877,1838.629195,2294.638420,7772.162391
2467.662206,1149.143247,2664.741391,7846.182985
2467.662535,536.266849,370.102971,8068.244768
2467.662864,-383.047749,-1406.391290,8882.471304
2467.663194,-1149.143247,-2960.823768,9696.697840
2467.663523,-1991.848295,-3627.009116,9622.677246
2467.663852,-2604.724693,-4145.153275,10288.862594
2467.664181,-2221.676944,-3627.009116,10362.883188
2467.664510,-1225.752797,-1776.494261,9844.739029
2467.664839,-766.095498,-222.061783,9992.780217
2467.665168,-612.876398,1110.308913,9252.574275
2467.665497,0.000000,1702.473667,9104.533087
2467.665826,229.828649,2146.597232,9252.574275
2467.666155,995.924147,2516.700203,8216.285956
2467.666485,1455.581446,2294.638420,7624.121203
2467.666814,1378.971896,1998.556043,7550.100608
2467.667143,1225.752797,962.267725,8290.306550
2467.667472,1149.143247,-592.164754,8882.471304
2467.667801,766.095498,-1850.514855,9252.574275
2467.668130,229.828649,-2516.700203,9474.636058
2467.668459,-383.047749,-2886.803174,9918.759623
2467.668788,229.828649,-2886.803174,10066.800811
2467.669117,459.657299,-1850.514855,10288.862594
2467.669446,1225.752797,-222.061783,9696.697840
2467.669776,1838.629195,888.247130,8956.491898
2467.670105,2221.676944,2368.659014,8438.347739
2467.670434,2068.457845,2960.823768,7698.141797
2467.670763,1225.752797,2516.700203,7550.100608
2467.671092,1378.971896,2146.597232,7772.162391
2467.671421,383.047749,888.247130,8290.306550
2467.671750,-689.485948,-962.267725,9178.553681
2467.672079,-2068.457845,-2516.700203,10066.800811
2467.672408,-2221.676944,-3849.070898,10288.862594
2467.672737,-2145.067394,-3849.070898,9696.697840
2467.673066,-1532.190996,-3701.029710,10140.821405
2467.673396,-1149.143247,-2590.720797,9696.697840
2467.673725,0.000000,-740.205942,10436.903782
2467.674054,0.000000,444.123565,9696.697840
2467.674383,229.828649,1332.370696,9400.615463
2467.674712,1685.410096,1776.494261,9622.677246
2467.675041,2451.505594,3108.864956,7031.956449
2467.675370,4213.525239,3627.009116,7476.080014
2467.675699,3447.429741,2516.700203,6291.750507
2467.676028,3983.696590,2072.576638,6809.894666
2467.676357,1838.629195,666.185348,7846.182985
2467.676687,689.485948,-666.185348,8438.347739
2467.677016,-383.047749,-2368.659014,9622.677246
2467.677345,-1225.752797,-3552.988522,9992.780217
2467.677674,-2068.457845,-3701.029710,10807.006753
2467.678003,-1838.629195,-3034.844362,10658.965565
2467.678332,-842.705048,-1998.556043,10288.862594
2467.678661,76.609550,-222.061783,9770.718434
2467.678990,383.047749,1184.329507,9770.718434
2467.679319,1072.533697,2590.720797,8956.491898
2467.679648,1532.190996,2442.679609,7698.141797
2467.679978,2145.067394,3330.926739,7846.182985
2467.680307,1302.362347,2442.679609,6883.915261
2467.680636,536.266849,962.267725,7994.224174
2467.680965,-766.095498,-592.164754,8808.450710
2467.681294,-995.924147,-1850.514855,9030.512492
2467.681623,-1838.629195,-3701.029710,9696.697840
2467.681952,-1991.848295,-3923.091493,9992.780217
2467.682281,-1991.848295,-3330.926739,9770.718434
2467.682610,-1838.629195,-2442.679609,9918.759623
2467.682939,-1302.362347,-1036.288319,9178.553681
2467.683269,-766.095498,518.144159,9474.636058
2467.683598,-383.047749,1702.473667,9474.636058
2467.683927,-536.266849,2442.679609,8364.327145
2467.684256,-306.438199,1924.535449,9252.574275
2467.684585,919.314598,1776.494261,9400.615463
2467.684914,995.924147,1110.308913,7772.162391
2467.685243,2068.457845,592.164754,8364.327145
2467.685572,1532.190996,-370.102971,8216.285956
2467.685901,1608.800546,-1184.329507,8808.450710
2467.686230,1072.533697,-1998.556043,9178.553681
2467.686560,766.095498,-2220.617826,9326.594869
2467.686889,612.876398,-2812.782580,10140.821405
2467.687218,766.095498,-1554.432478,9918.759623
2467.687547,689.485948,-518.144159,9918.759623
2467.687876,1455.581446,592.164754,9844.739029
2467.688205,1685.410096,1628.453072,9030.512492
2467.688534,1608.800546,2516.700203,8512.368333
2467.688863,1225.752797,3108.864956,7846.182985
2467.689192,766.095498,2516.700203,8142.265362
2467.689521,229.828649,1332.370696,8364.327145
2467.689851,-766.095498,-0.000000,8808.450710
2467.690180,-1455.581446,-1554.432478,9400.615463
2467.690509,-1225.752797,-3182.885551,9992.780217
2467.690838,-1302.362347,-3404.947333,9178.553681
2467.691167,-1225.752797,-2960.823768,9770.718434
2467.691496,-842.705048,-2442.679609,9548.656652
2467.691825,0.000000,-1332.370696,9548.656652
2467.692154,76.609550,-0.000000,9696.697840
2467.692483,612.876398,962.267725,9178.553681
2467.692812,1762.019645,1702.473667,9992.780217
2467.693142,2145.067394,2294.638420,8660.409521
2467.693471,3294.210641,3330.926739,7402.059420
2467.693800,3600.648841,3034.844362,6957.935855
2467.694129,3677.258390,2368.659014,6587.832884
2467.694458,3294.210641,962.267725,7624.121203
2467.694787,1915.238745,-222.061783,8068.244768
2467.695116,995.924147,-1480.411884,8882.471304
2467.695445,-383.047749,-3478.967927,9992.780217
2467.695774,-1455.581446,-3330.926739,10584.944971
2467.696103,-1378.971896,-3552.988522,10955.047942
2467.696433,-995.924147,-2294.638420,10436.903782
2467.696762,0.000000,-814.226536,10510.924376
2467.697091,536.266849,370.102971,10066.800811
2467.697420,766.095498,1776.494261,9548.656652
2467.697749,1762.019645,2516.700203,8882.471304
2467.698078,1991.848295,2812.782580,7698.141797
2467.698407,1991.848295,2960.823768,7624.121203
2467.698736,1225.752797,1776.494261,7772.162391
2467.699065,306.438199,-296.082377,8290.306550
2467.699395,-383.047749,-2368.659014,9178.553681
2467.699724,-995.924147,-3775.050304,9548.656652
2467.700053,-1455.581446,-4071.132681,10140.821405
2467.700382,-2068.457845,-2812.782580,9178.553681
2467.700711,-1455.581446,-1776.494261,9474.636058
2467.701040,-1149.143247,-962.267725,9400.615463
2467.701369,-383.047749,592.164754,9178.553681
2467.701698,-383.047749,962.267725,9474.636058
2467.702028,-1302.362347,1850.514855,8734.430116
2467.702357,-153.219100,2146.597232,8734.430116
2467.702686,-689.485948,1776.494261,8586.388927
2467.703015,-689.485948,814.226536,8660.409521
2467.703344,-383.047749,-370.102971,9030.512492
2467.703673,229.828649,-962.267725,8956.491898
2467.704002,842.705048,-1406.391290,8808.450710
2467.704331,1532.190996,-1776.494261,7624.121203
2467.704660,1455.581446,-1850.514855,8068.244768
2467.704990,1838.629195,-1702.473667,8882.471304
2467.705319,1838.629195,-370.102971,8808.450710
2467.705648,1991.848295,296.082377,8660.409521
2467.705977,1991.848295,740.205942,8882.471304
2467.706306,1532.190996,1480.411884,9104.533087
2467.706635,1225.752797,2294.638420,8808.450710
2467.706964,383.047749,1628.453072,8882.471304
2467.707293,-306.438199,1332.370696,8734.430116
2467.707622,-689.485948,592.164754,9474.636058
2467.707952,-1378.971896,-666.185348,9770.718434
2467.708281,-1532.190996,-1850.514855,9918.759623
2467.708610,-1225.752797,-2812.782580,9844.739029
2467.708939,-842.705048,-3108.864956,9918.759623
2467.709268,-919.314598,-3034.844362,9474.636058
2467.709597,-536.266849,-2368.659014,9844.739029
2467.709926,0.000000,-1480.411884,9696.697840
2467.710255,76.609550,-592.164754,9400.615463
2467.710585,689.485948,296.082377,9992.780217
2467.710914,1915.238745,1628.453072,9622.677246
2467.711243,2757.943793,2886.803174,7624.121203
2467.711572,3294.210641,3478.967927,7698.141797
2467.711901,3294.210641,3478.967927,6809.894666
2467.712230,3294.210641,3034.844362,7328.038826
2467.712559,2374.896044,1850.514855,7624.121203
2467.712888,1685.410096,222.061783,7994.224174
2467.713217,153.219100,-1924.535449,9770.718434
2467.713547,-612.876398,-2886.803174,9474.636058
2467.713876,-1302.362347,-3849.070898,11251.130318
2467.714205,-1225.752797,-2960.823768,10362.883188
2467.714534,-153.219100,-2220.617826,10066.800811
2467.714863,0.000000,-1036.288319,9844.739029
2467.715192,153.219100,222.061783,9548.656652
2467.715521,1302.362347,1332.370696,9992.780217
2467.715850,1915.238745,2146.597232,7402.059420
2467.716179,2528.115143,3701.029710,7994.224174
2467.716509,2298.286494,2960.823768,7550.100608
2467.716838,1225.752797,1998.556043,7550.100608
2467.717167,536.266849,-0.000000,8586.388927
2467.717496,-689.485948,-1406.391290,8882.471304
2467.717825,-2374.896044,-3552.988522,10140.821405
2467.718154,-1762.019645,-3997.112087,10881.027347
2467.718483,-2145.067394,-3552.988522,9474.636058
2467.718812,-2068.457845,-2886.803174,10658.965565
2467.719141,-1915.238745,-1776.494261,9474.636058
2467.719471,-842.705048,148.041188,9548.656652
2467.719800,-536.266849,888.247130,9844.739029
2467.720129,-153.219100,2146.597232,8142.265362
2467.720458,-383.047749,2368.659014,9252.574275
2467.720787,-689.485948,1850.514855,9326.594869
2467.721116,-383.047749,740.205942,9030.512492
2467.721445,995.924147,666.185348,8512.368333
2467.721774,1608.800546,-0.000000,7476.080014
2467.722104,1378.971896,-148.041188,7920.203579
2467.722433,1608.800546,-1184.329507,8512.368333
2467.722762,766.095498,-1480.411884,8438.347739
2467.723091,842.705048,-1998.556043,9474.636058
2467.723420,1072.533697,-962.267725,9030.512492
2467.723749,306.438199,-518.144159,9104.533087
2467.724078,0.000000,-222.061783,9770.718434
2467.724407,229.828649,962.267725,9400.615463
2467.724736,842.705048,1480.411884,9104.533087
2467.725066,306.438199,2294.638420,9030.512492
2467.725395,536.266849,1776.494261,8364.327145
2467.725724,0.000000,1702.473667,8808.450710
2467.726053,-766.095498,592.164754,8808.450710
2467.726382,-1225.752797,-888.247130,9178.553681
2467.726711,-1225.752797,-1924.535449,9474.636058
2467.727040,-1149.143247,-2886.803174,9400.615463
2467.727369,-842.705048,-3182.885551,9326.594869
2467.727698,-459.657299,-2886.803174,9918.759623
2467.728028,-536.266849,-1998.556043,9844.739029
2467.728357,-229.828649,-962.267725,9770.718434
2467.728686,76.609550,222.061783,9992.780217
2467.729015,689.485948,1184.329507,9770.718434
2467.729344,1608.800546,1850.514855,8586.388927
2467.729673,2451.505594,2812.782580,8438.347739
2467.730002,2987.772442,2516.700203,7179.997637
2467.730331,3064.381992,2516.700203,7179.997637
2467.730660,2528.115143,1554.432478,7920.203579
2467.730990,2374.896044,222.061783,7920.203579
2467.731319,1455.581446,-740.205942,8364.327145
2467.731648,229.828649,-2146.597232,9844.739029
2467.731977,0.000000,-3478.967927,10510.924376
2467.732306,-1072.533697,-3552.988522,10436.903782
2467.732635,-306.438199,-3404.947333,10881.027347
2467.732964,0.000000,-2146.597232,10140.821405
2467.733293,76.609550,444.123565,10584.944971
2467.733623,1072.533697,1554.432478,9326.594869
2467.733952,2068.457845,2886.803174,8660.409521
2467.734281,2068.457845,2738.761985,7846.182985
2467.734610,2528.115143,3330.926739,7179.997637
2467.734939,1838.629195,1702.473667,7624.121203
2467.735268,536.266849,370.102971,8364.327145
2467.735597,-612.876398,-1702.473667,8512.368333
2467.735926,-1378.971896,-3034.844362,9992.780217
2467.736255,-1762.019645,-4219.173869,10362.883188
2467.736585,-1455.581446,-3108.864956,8734.430116
2467.736914,-1608.800546,-2516.700203,9622.677246
2467.737243,-1455.581446,-1776.494261,9696.697840
2467.737572,-766.095498,-0.000000,9548.656652
2467.737901,-459.657299,518.144159,9992.780217
2467.738230,0.000000,1480.411884,8882.471304
2467.738559,-306.438199,2294.638420,7994.224174
2467.738888,-689.485948,1776.494261,9474.636058
2467.739217,0.000000,740.205942,8808.450710
2467.739547,1149.143247,370.102971,7698.141797
2467.739876,1685.410096,296.082377,7698.141797
2467.740205,1532.190996,-592.164754,7846.182985
2467.740534,1149.143247,-1258.350101,8586.388927
2467.740863,842.705048,-1332.370696,8808.450710
2467.741192,842.705048,-2590.720797,9252.574275
2467.741521,383.047749,-1850.514855,9770.718434
2467.741850,0.000000,-1110.308913,9844.739029
2467.742180,0.000000,-1110.308913,10214.842000
2467.742509,0.000000,666.185348,10362.883188
2467.742838,995.924147,1776.494261,9474.636058
2467.743167,995.924147,2294.638420,8734.430116
2467.743496,612.876398,2960.823768,8512.368333
2467.743825,229.828649,2368.659014,8290.306550
2467.744154,-383.047749,1258.350101,9104.533087
2467.744483,-2068.457845,-148.041188,9474.636058
2467.744812,-1378.971896,-1924.535449,9622.677246
2467.745142,-1302.362347,-2886.803174,9844.739029
2467.745471,-1149.143247,-3256.906145,9474.636058
2467.745800,-995.924147,-2886.803174,9622.677246
2467.746129,-766.095498,-2368.659014,10066.800811
2467.746458,0.000000,-1702.473667,9770.718434
2467.746787,76.609550,370.102971,9844.739029
2467.747116,153.219100,888.247130,9474.636058
2467.747445,1532.190996,1850.514855,9696.697840
2467.747774,2374.896044,2886.803174,7476.080014
2467.748104,2987.772442,2960.823768,7550.100608
2467.748433,3447.429741,3182.885551,6883.915261
2467.748762,3677.258390,2368.659014,6957.935855
2467.749091,3064.381992,1110.308913,7624.121203
2467.749420,1685.410096,-592.164754,7846.182985
2467.749749,995.924147,-2294.638420,9178.553681
2467.750078,-612.876398,-3330.926739,9844.739029
2467.750407,-1072.533697,-3701.029710,10362.883188
2467.750736,-766.095498,-3256.906145,10881.027347
2467.751066,-689.485948,-2294.638420,10288.862594
2467.751395,153.219100,-592.164754,10658.965565
2467.751724,766.095498,740.205942,9770.718434
2467.752053,1302.362347,2294.638420,9030.512492
2467.752382,1915.238745,2442.679609,8512.368333
2467.752711,2145.067394,3404.947333,7550.100608
2467.753040,2145.067394,2442.679609,7476.080014
2467.753369,1225.752797,1036.288319,7994.224174
2467.753699,0.000000,-518.144159,8734.430116
2467.754028,-842.705048,-2590.720797,9474.636058
2467.754357,-1378.971896,-3701.029710,9696.697840
2467.754686,-1685.410096,-4293.194464,9992.780217
2467.755015,-2068.457845,-3034.844362,9474.636058
2467.755344,-1378.971896,-2738.761985,10214.842000
2467.755673,-1532.190996,-814.226536,9548.656652
2467.756002,-229.828649,592.164754,9474.636058
2467.756331,-459.657299,1110.308913,9178.553681
2467.756661,0.000000,2294.638420,8142.265362
2467.756990,-459.657299,1850.514855,9400.615463
2467.757319,0.000000,1480.411884,8734.430116
2467.757648,766.095498,888.247130,7846.182985
2467.757977,1455.581446,444.123565,8068.244768
2467.758306,1455.581446,-370.102971,7402.059420
2467.758635,1608.800546,-666.185348,8364.327145
2467.758964,1149.143247,-1480.411884,8586.388927
2467.759293,995.924147,-1924.535449,8512.368333
2467.759623,536.266849,-2072.576638,9474.636058
2467.759952,536.266849,-1258.350101,9326.594869
2467.760281,383.047749,-962.267725,9696.697840
2467.760610,689.485948,-0.000000,9770.718434
2467.760939,689.485948,1554.432478,8734.430116
2467.761268,842.705048,1998.556043,8956.491898
2467.761597,842.705048,2516.700203,8660.409521
2467.761926,459.657299,2590.720797,8290.306550
2467.762255,0.000000,1480.411884,9030.512492
2467.762585,-766.095498,-0.000000,9104.533087
2467.762914,-1838.629195,-1554.432478,9548.656652
2467.763243,-1762.019645,-3108.864956,9992.780217
2467.763572,-1685.410096,-3552.988522,9918.759623
2467.763901,-1532.190996,-3478.967927,10066.800811
2467.764230,-1149.143247,-2812.782580,9992.780217
2467.764559,-306.438199,-1776.494261,9844.739029
2467.764888,0.000000,-962.267725,9992.780217
2467.765218,0.000000,592.164754,9400.615463
2467.765547,229.828649,2294.638420,10140.821405
2467.765876,1685.410096,2146.597232,8882.471304
2467.766205,2681.334243,3182.885551,7476.080014
2467.766534,3447.429741,3108.864956,7328.038826
2467.766863,3140.991542,2664.741391,6587.832884
2467.767192,3140.991542,2072.576638,8290.306550
2467.767521,995.924147,-0.000000,8660.409521
2467.767850,1455.581446,-888.247130,8438.347739
2467.768180,0.000000,-2590.720797,9548.656652
2467.768509,-766.095498,-2812.782580,9696.697840
2467.768838,-1149.143247,-3108.864956,10436.903782
2467.769167,-995.924147,-2220.617826,10584.944971
2467.769496,-383.047749,-1110.308913,10066.800811
2467.769825,612.876398,148.041188,9992.780217
2467.770154,919.314598,1776.494261,9252.574275
2467.770483,1532.190996,2516.700203,8290.306550
2467.770812,1915.238745,2738.761985,7698.141797
2467.771142,1762.019645,2516.700203,7402.059420
2467.771471,1149.143247,1332.370696,7920.203579
2467.771800,689.485948,-518.144159,8660.409521
2467.772129,-383.047749,-2442.679609,8882.471304
2467.772458,-1532.190996,-3701.029710,9474.636058
2467.772787,-2145.067394,-3849.070898,10214.842000
2467.773116,-2145.067394,-3330.926739,9770.718434
2467.773445,-1838.629195,-2368.659014,10140.821405
2467.773774,-1302.362347,-1036.288319,9474.636058
2467.774104,-919.314598,592.164754,9178.553681
2467.774433,-306.438199,1110.308913,9252.574275
2467.774762,0.000000,1628.453072,8438.347739
2467.775091,459.657299,1554.432478,9696.697840
2467.775420,842.705048,2294.638420,7550.100608
2467.775749,1838.629195,1850.514855,7772.162391
2467.776078,1685.410096,1110.308913,8068.244768
2467.776407,1685.410096,-148.041188,8216.285956
2467.776737,1455.581446,-1480.411884,8808.450710
2467.777066,536.266849,-1850.514855,9178.553681
2467.777395,76.609550,-2664.741391,9474.636058
2467.777724,-766.095498,-2590.720797,10140.821405
2467.778053,-536.266849,-1776.494261,10288.862594
2467.778382,-306.438199,-814.226536,9918.759623
2467.778711,689.485948,518.144159,9696.697840
2467.779040,919.314598,1184.329507,9400.615463
2467.779369,1838.629195,2294.638420,8512.368333
2467.779699,1378.971896,3182.885551,7846.182985
2467.780028,995.924147,2368.659014,8142.265362
2467.780357,459.657299,1924.535449,8068.244768
2467.780686,-229.828649,444.123565,8438.347739
2467.781015,-612.876398,-1332.370696,9474.636058
2467.781344,-1225.752797,-2812.782580,9622.677246
2467.781673,-1532.190996,-3404.947333,10140.821405
2467.782002,-1762.019645,-3404.947333,9918.759623
2467.782331,-1378.971896,-2886.803174,10362.883188
2467.782661,-383.047749,-1776.494261,10066.800811
2467.782990,76.609550,-222.061783,9844.739029
2467.783319,1302.362347,740.205942,10214.842000
2467.783648,2221.676944,1554.432478,9104.533087
2467.783977,2604.724693,2590.720797,7920.203579
2467.784306,3447.429741,3478.967927,7179.997637
2467.784635,3447.429741,3478.967927,6735.874072
2467.784964,3600.648841,2368.659014,7328.038826
2467.785294,2451.505594,1184.329507,7772.162391
2467.785623,1838.629195,-888.247130,8586.388927
2467.785952,306.438199,-2368.659014,9770.718434
2467.786281,-383.047749,-3256.906145,10140.821405
2467.786610,-1149.143247,-3849.070898,11177.109724
2467.786939,-1378.971896,-3034.844362,11029.068536
2467.787268,-689.485948,-2220.617826,10658.965565
2467.787597,153.219100,-666.185348,10584.944971
2467.787926,1532.190996,740.205942,9622.677246
2467.788256,1915.238745,2368.659014,8882.471304
2467.788585,2681.334243,2886.803174,7994.224174
2467.788914,3217.601092,3775.050304,7254.018232
2467.789243,2604.724693,3330.926739,7105.977043
2467.789572,1685.410096,1924.535449,7328.038826
2467.789901,153.219100,-148.041188,8438.347739
2467.790230,-1302.362347,-1850.514855,9474.636058
2467.790559,-2757.943793,-3552.988522,9770.718434
2467.790888,-2681.334243,-4885.359217,10732.986159
2467.791218,-2757.943793,-3849.070898,9918.759623
2467.791547,-2221.676944,-2368.659014,9992.780217
2467.791876,-1838.629195,-1258.350101,9622.677246
2467.792205,-1072.533697,518.144159,9548.656652
2467.792534,-536.266849,1332.370696,9400.615463
2467.792863,153.219100,2294.638420,8512.368333
2467.793192,76.609550,2442.679609,8364.327145
2467.793521,0.000000,1776.494261,9400.615463
2467.793850,536.266849,962.267725,8512.368333
2467.794180,1302.362347,888.247130,7476.080014
2467.794509,2068.457845,-148.041188,7550.100608
2467.794838,2145.067394,-1036.288319,7550.100608
2467.795167,2221.676944,-1332.370696,8068.244768
2467.795496,1149.143247,-2294.638420,8660.409521
2467.795825,612.876398,-2442.679609,9326.594869
2467.796154,76.609550,-1924.535449,9548.656652
2467.796483,-459.657299,-962.267725,9622.677246
2467.796813,-383.047749,-370.102971,10214.842000
2467.797142,-842.705048,740.205942,9844.739029
2467.797471,536.266849,1184.329507,9474.636058
2467.797800,76.609550,1924.535449,9326.594869
2467.798129,0.000000,2442.679609,8438.347739
2467.798458,0.000000,1702.473667,8438.347739
2467.798787,-459.657299,74.020594,9178.553681
2467.799116,-1072.533697,-666.185348,9030.512492
2467.799446,-1608.800546,-2590.720797,9770.718434
2467.799775,-995.924147,-3330.926739,9992.780217
2467.800104,-842.705048,-3552.988522,9474.636058
2467.800433,-612.876398,-2960.823768,9548.656652
2467.800762,-536.266849,-2220.617826,9474.636058
2467.801091,229.828649,-814.226536,9770.718434
2467.801420,1225.752797,592.164754,9474.636058
2467.801750,1685.410096,2294.638420,8512.368333
2467.802079,2987.772442,3182.885551,7920.203579
2467.802408,3140.991542,3478.967927,7846.182985
2467.802737,2681.334243,3478.967927,7698.141797
2467.803066,2757.943793,2368.659014,7402.059420
2467.803395,2298.286494,1258.350101,7476.080014
2467.803724,1685.410096,-592.164754,8586.388927
2467.804054,153.219100,-1998.556043,9474.636058
2467.804383,-842.705048,-3182.885551,10510.924376
2467.804712,-306.438199,-3849.070898,10658.965565
2467.805041,-536.266849,-3108.864956,10436.903782
2467.805370,0.000000,-2146.597232,10436.903782
2467.805699,536.266849,-814.226536,10066.800811
2467.806028,1838.629195,370.102971,9474.636058
2467.806358,2757.943793,1850.514855,9178.553681
2467.806687,3140.991542,3330.926739,7772.162391
2467.807016,3217.601092,3775.050304,7846.182985
2467.807345,2221.676944,3256.906145,7476.080014
2467.807674,1532.190996,1998.556043,7476.080014
2467.808003,0.000000,-148.041188,8734.430116
2467.808332,-1455.581446,-2294.638420,9548.656652
2467.808662,-1762.019645,-3701.029710,10288.862594
2467.808991,-1532.190996,-3997.112087,10140.821405
2467.809320,-1225.752797,-3701.029710,9474.636058
2467.809649,-1838.629195,-2442.679609,10362.883188
2467.809978,-1532.190996,-1480.411884,9622.677246
2467.810307,-612.876398,-0.000000,9770.718434
2467.810636,-306.438199,814.226536,9474.636058
2467.810966,-306.438199,1850.514855,8438.347739
2467.811295,153.219100,2072.576638,9178.553681
2467.811624,-689.485948,1776.494261,9326.594869
2467.811953,306.438199,1036.288319,8882.471304
2467.812282,1072.533697,962.267725,7772.162391
2467.812611,1991.848295,296.082377,7624.121203
2467.812940,1225.752797,-222.061783,7179.997637
2467.813270,1302.362347,-740.205942,7550.100608
2467.813599,1072.533697,-1480.411884,7994.224174
2467.813928,689.485948,-1628.453072,9030.512492
2467.814257,306.438199,-1480.411884,9104.533087
2467.814586,-306.438199,-1184.329507,9326.594869
2467.814915,-612.876398,-814.226536,9844.739029
2467.815244,-229.828649,-0.000000,9770.718434
2467.815573,76.609550,1036.288319,9252.574275
2467.815903,76.609550,1480.411884,9400.615463
2467.816232,-612.876398,2072.576638,8660.409521
2467.816561,-383.047749,1850.514855,8734.430116
2467.816890,-995.924147,444.123565,8882.471304
2467.817219,-1225.752797,-740.205942,9104.533087
2467.817548,-1455.581446,-1924.535449,9548.656652
2467.817877,-1685.410096,-3330.926739,9696.697840
2467.818207,-153.219100,-3182.885551,10140.821405
2467.818536,-995.924147,-3034.844362,9844.739029
2467.818865,-1072.533697,-1998.556043,9844.739029
2467.819194,-306.438199,-814.226536,9992.780217
2467.819523,76.609550,-0.000000,10066.800811
2467.819852,995.924147,1406.391290,9622.677246
2467.820181,1915.238745,2590.720797,9104.533087
2467.820511,2528.115143,3034.844362,7920.203579
2467.820840,2374.896044,2886.803174,7698.141797
2467.821169,2911.162892,2664.741391,7772.162391
2467.821498,2451.505594,1628.453072,7698.141797
2467.821827,1762.019645,-0.000000,8290.306550
2467.822156,995.924147,-1406.391290,9178.553681
2467.822485,-306.438199,-2516.700203,9918.759623
2467.822815,-612.876398,-3256.906145,10140.821405
2467.823144,-766.095498,-3256.906145,10510.924376
2467.823473,0.000000,-2590.720797,10288.862594
2467.823802,306.438199,-1480.411884,10436.903782
2467.824131,1225.752797,-0.000000,9918.759623
2467.824460,2221.676944,1850.514855,8956.491898
2467.824789,3217.601092,2294.638420,7994.224174
2467.825119,3217.601092,3627.009116,7105.977043
2467.825448,3140.991542,3330.926739,7179.997637
2467.825777,2145.067394,2368.659014,6661.853478
2467.826106,995.924147,1036.288319,8142.265362
2467.826435,-612.876398,-1110.308913,8956.491898
2467.826764,-1685.410096,-2812.782580,9844.739029
2467.827093,-1915.238745,-4219.173869,10732.986159
2467.827423,-1685.410096,-3775.050304,9548.656652
2467.827752,-1378.971896,-3034.844362,9992.780217
2467.828081,-1378.971896,-2072.576638,9918.759623
2467.828410,-766.095498,-222.061783,9622.677246
2467.828739,0.000000,592.164754,9992.780217
2467.829068,0.000000,1406.391290,8882.471304
2467.829397,-383.047749,1850.514855,9548.656652
2467.829727,-1302.362347,1628.453072,9548.656652
2467.830056,1072.533697,1628.453072,8660.409521
2467.830385,1915.238745,1702.473667,7254.018232
2467.830714,2451.505594,888.247130,7179.997637
2467.831043,2451.505594,-0.000000,7179.997637
2467.831372,2145.067394,-592.164754,8142.265362
2467.831701,459.657299,-1258.350101,8290.306550
2467.832030,612.876398,-2664.741391,8956.491898
2467.832360,0.000000,-2886.803174,9770.718434
2467.832689,-842.705048,-1628.453072,9992.780217
2467.833018,-1072.533697,-1554.432478,10584.944971
2467.833347,-919.314598,-74.020594,10510.924376
2467.833676,0.000000,1036.288319,9474.636058
2467.834005,0.000000,1924.535449,9474.636058
2467.834334,306.438199,2590.720797,8808.450710
2467.834664,536.266849,2516.700203,8142.265362
2467.834993,306.438199,1702.473667,8216.285956
2467.835322,-153.219100,666.185348,8068.244768
2467.835651,-612.876398,-1184.329507,8512.368333
2467.835980,-1072.533697,-2664.741391,9178.553681
2467.836309,-1532.190996,-3552.988522,9770.718434
2467.836638,-842.705048,-4367.215058,9770.718434
2467.836968,-766.095498,-3404.947333,9474.636058
2467.837297,-766.095498,-1998.556043,9696.697840
2467.837626,-306.438199,-74.020594,9770.718434
2467.837955,76.609550,1184.329507,9326.594869
2467.838284,459.657299,1776.494261,9474.636058
2467.838613,1072.533697,1924.535449,8956.491898
2467.838942,2298.286494,2516.700203,7624.121203
2467.839272,2987.772442,2590.720797,7476.080014
2467.839601,2374.896044,2812.782580,7105.977043
2467.839930,3140.991542,1110.308913,8068.244768
2467.840259,2068.457845,-222.061783,8512.368333
2467.840588,1225.752797,-1332.370696,8808.450710
2467.840917,919.314598,-2516.700203,9918.759623
2467.841246,-459.657299,-2738.761985,9770.718434
2467.841576,-459.657299,-3478.967927,10881.027347
2467.841905,-919.314598,-2442.679609,10807.006753
2467.842234,306.438199,-814.226536,10362.883188
2467.842563,842.705048,296.082377,10140.821405
2467.842892,1532.190996,2072.576638,9104.533087
2467.843221,2221.676944,3182.885551,8734.430116
2467.843550,2221.676944,2886.803174,8290.306550
2467.843880,2528.115143,2664.741391,7994.224174
2467.844209,1302.362347,1924.535449,8068.244768
2467.844538,383.047749,-0.000000,8808.450710
2467.844867,-459.657299,-1776.494261,9252.574275
2467.845196,-1302.362347,-3108.864956,9918.759623
2467.845525,-1762.019645,-4145.153275,10214.842000
2467.845854,-1608.800546,-3775.050304,9918.759623
2467.846184,-1225.752797,-2442.679609,9696.697840
2467.846513,-689.485948,-962.267725,9548.656652
2467.846842,0.000000,444.123565,9178.553681
2467.847171,0.000000,1702.473667,8734.430116
2467.847500,306.438199,1850.514855,9252.574275
2467.847829,842.705048,2368.659014,8290.306550
2467.848158,1378.971896,2368.659014,7476.080014
2467.848488,1915.238745,1776.494261,7402.059420
2467.848817,1378.971896,1110.308913,7328.038826
2467.849146,1455.581446,-0.000000,8438.347739
2467.849475,383.047749,-1036.288319,8586.388927
2467.849804,0.000000,-2294.638420,8512.368333
2467.850133,-306.438199,-2812.782580,9770.718434
2467.850462,-995.924147,-3404.947333,9770.718434
2467.850791,-1838.629195,-2442.679609,10732.986159
2467.851121,-766.095498,-1480.411884,9992.780217
2467.851450,0.000000,-444.123565,9770.718434
2467.851779,383.047749,962.267725,9474.636058
2467.852108,919.314598,2442.679609,8660.409521
2467.852437,1762.019645,2960.823768,8364.327145
2467.852766,1225.752797,2072.576638,8068.244768
2467.853095,1302.362347,1998.556043,8142.265362
2467.853425,0.000000,814.226536,8142.265362
2467.853754,-995.924147,-1110.308913,9178.553681
2467.854083,-1608.800546,-2516.700203,9696.697840
2467.854412,-1608.800546,-3404.947333,9770.718434
2467.854741,-1991.848295,-3404.947333,9992.780217
2467.855070,-1762.019645,-3108.864956,10955.047942
2467.855399,-842.705048,-1776.494261,10362.883188
2467.855729,-459.657299,-666.185348,9622.677246
2467.856058,229.828649,962.267725,9474.636058
2467.856387,229.828649,2146.597232,8882.471304
2467.856716,0.000000,1998.556043,9474.636058
2467.857045,842.705048,2368.659014,9400.615463
2467.857374,1378.971896,2664.741391,7105.977043
2467.857703,2757.943793,1924.535449,7328.038826
2467.858033,2604.724693,2072.576638,7105.977043
2467.858362,2757.943793,740.205942,8142.265362
2467.858691,1762.019645,-592.164754,7920.203579
2467.859020,1149.143247,-1628.453072,8364.327145
2467.859349,689.485948,-2442.679609,9770.718434
2467.859678,-306.438199,-2368.659014,9622.677246
2467.860007,-383.047749,-1628.453072,10362.883188
2467.860337,-536.266849,-1184.329507,10732.986159
2467.860666,536.266849,-0.000000,9918.759623
2467.860995,612.876398,1036.288319,9696.697840
2467.861324,1225.752797,2368.659014,8808.450710
2467.861653,1225.752797,2590.720797,8438.347739
2467.861982,1378.971896,1702.473667,7994.224174
2467.862311,1072.533697,1554.432478,8142.265362
2467.862641,612.876398,-0.000000,8734.430116
2467.862970,0.000000,-1258.350101,9178.553681
2467.863299,-1378.971896,-2886.803174,9474.636058
2467.863628,-1608.800546,-3478.967927,9844.739029
2467.863957,-1302.362347,-3330.926739,9548.656652
2467.864286,-1072.533697,-2590.720797,9992.780217
2467.864615,-536.266849,-1406.391290,9770.718434
2467.864945,-306.438199,-0.000000,9474.636058
2467.865274,0.000000,1332.370696,9400.615463
2467.865603,229.828649,1628.453072,8956.491898
2467.865932,229.828649,1998.556043,9548.656652
2467.866261,995.924147,2220.617826,8216.285956
2467.866590,1608.800546,2146.597232,7846.182985
2467.866919,1685.410096,814.226536,7624.121203
2467.867249,1302.362347,370.102971,7772.162391
2467.867578,1455.581446,-888.247130,8808.450710
2467.867907,229.828649,-1406.391290,8956.491898
2467.868236,0.000000,-2368.659014,9178.553681
2467.868565,-459.657299,-2664.741391,9474.636058
2467.868894,-383.047749,-2294.638420,9844.739029
2467.869223,-459.657299,-1480.411884,10066.800811
2467.869552,229.828649,-296.082377,9770.718434
2467.869882,995.924147,370.102971,9104.533087
2467.870211,1225.752797,1924.535449,8660.409521
2467.870540,1225.752797,2886.803174,7994.224174
2467.870869,1225.752797,2590.720797,7624.121203
2467.871198,766.095498,2072.576638,7772.162391
2467.871527,-229.828649,814.226536,7994.224174
2467.871856,-459.657299,-962.267725,9030.512492
2467.872186,-1378.971896,-2516.700203,9770.718434
2467.872515,-2145.067394,-3478.967927,10436.903782
2467.872844,-2451.505594,-3552.988522,9844.739029
2467.873173,-1915.238745,-3552.988522,10436.903782
2467.873502,-1225.752797,-2294.638420,10214.842000
2467.873831,-383.047749,-740.205942,9992.780217
2467.874160,-306.438199,592.164754,9622.677246
2467.874490,229.828649,1184.329507,10362.883188
2467.874819,1991.848295,2294.638420,8734.430116
2467.875148,2681.334243,3404.947333,7772.162391
2467.875477,2987.772442,3478.967927,7105.977043
2467.875806,3524.039291,2960.823768,7105.977043
2467.876135,3294.210641,1628.453072,7698.141797
2467.876464,2068.457845,370.102971,7920.203579
2467.876794,1532.190996,-1184.329507,8734.430116
2467.877123,306.438199,-2812.782580,9918.759623
2467.877452,-995.924147,-3330.926739,10066.800811
2467.877781,-1685.410096,-3404.947333,11177.109724
2467.878110,-1149.143247,-2664.741391,10658.965565
2467.878439,0.000000,-1406.391290,10288.862594
2467.878768,766.095498,370.102971,10658.965565
2467.879098,1455.581446,1850.514855,9252.574275
2467.879427,2911.162892,2886.803174,8290.306550
2467.879756,2911.162892,3330.926739,7698.141797
2467.880085,2987.772442,3997.112087,7105.977043
2467.880414,2068.457845,2368.659014,7179.997637
2467.880743,995.924147,814.226536,7920.203579
2467.881072,-459.657299,-1036.288319,9326.594869
2467.881402,-1455.581446,-2960.823768,10436.903782
2467.881731,-1915.238745,-3701.029710,9992.780217
2467.882060,-2374.896044,-4219.173869,10510.924376
2467.882389,-2374.896044,-2738.761985,9770.718434
2467.882718,-1685.410096,-1480.411884,10066.800811
2467.883047,-995.924147,-444.123565,9474.636058
2467.883376,-306.438199,962.267725,8808.450710
2467.883706,76.609550,1480.411884,9400.615463
2467.884035,1685.410096,1332.370696,8734.430116
2467.884364,1532.190996,2812.782580,6735.874072
2467.884693,2145.067394,1702.473667,7624.121203
2467.885022,2145.067394,1406.391290,6883.915261
2467.885351,2298.286494,518.144159,8364.327145
2467.885680,919.314598,-1110.308913,8734.430116
2467.886010,1225.752797,-1628.453072,8882.471304
2467.886339,-229.828649,-3478.967927,9696.697840
2467.886668,-919.314598,-2516.700203,9770.718434
2467.886997,-1302.362347,-2960.823768,10658.965565
2467.887326,-1302.362347,-1702.473667,10362.883188
2467.887655,-229.828649,-296.082377,9696.697840
2467.887984,459.657299,888.247130,9770.718434
2467.888313,995.924147,2368.659014,8734.430116
2467.888643,1685.410096,2960.823768,7698.141797
2467.888972,1149.143247,2146.597232,7994.224174
2467.889301,766.095498,2368.659014,8142.265362
2467.889630,306.438199,1110.308913,8142.265362
2467.889959,-383.047749,-666.185348,8956.491898
2467.890288,-1455.581446,-2294.638420,9696.697840
2467.890617,-1608.800546,-3256.906145,10288.862594
2467.890947,-2145.067394,-4219.173869,10288.862594
2467.891276,-1915.238745,-3701.029710,9770.718434
2467.891605,-995.924147,-2368.659014,9992.780217
2467.891934,-612.876398,-592.164754,9548.656652
2467.892263,76.609550,592.164754,9622.677246
2467.892592,1532.190996,1924.535449,9252.574275
2467.892921,2374.896044,3182.885551,7698.141797
2467.893251,3064.381992,3701.029710,7179.997637
2467.893580,2757.943793,3701.029710,7179.997637
2467.893909,2451.505594,2590.720797,7402.059420
2467.894238,1838.629195,1110.308913,7994.224174
2467.894567,1072.533697,-296.082377,8364.327145
2467.894896,0.000000,-2368.659014,9548.656652
2467.895225,-1302.362347,-3627.009116,10436.903782
2467.895555,-1302.362347,-3923.091493,11103.089130
2467.895884,-1455.581446,-3849.070898,10881.027347
2467.896213,-689.485948,-2590.720797,10658.965565
2467.896542,459.657299,-1258.350101,10362.883188
2467.896871,1608.800546,518.144159,9622.677246
2467.897200,2911.162892,2368.659014,8808.450710
2467.897529,3370.820191,2812.782580,7698.141797
2467.897859,2987.772442,4071.132681,7031.956449
2467.898188,2604.724693,4071.132681,7254.018232
2467.898517,2145.067394,2886.803174,7179.997637
2467.898846,383.047749,592.164754,8142.265362
2467.899175,-1225.752797,-2072.576638,9548.656652
2467.899504,-1991.848295,-4145.153275,10436.903782
2467.899833,-2451.505594,-4737.318029,10658.965565
2467.900163,-2834.553343,-4293.194464,9992.780217
2467.900492,-2221.676944,-3330.926739,10510.924376
2467.900821,-1608.800546,-2738.761985,10362.883188
2467.901150,-383.047749,-518.144159,10066.800811
2467.901479,0.000000,1332.370696,9400.615463
2467.901808,0.000000,2738.761985,8290.306550
2467.902137,766.095498,2072.576638,10214.842000
2467.902467,1532.190996,2886.803174,7624.121203
2467.902796,3140.991542,2960.823768,6809.894666
2467.903125,2987.772442,1628.453072,6365.771101
2467.903454,3064.381992,814.226536,6365.771101
2467.903783,1762.019645,222.061783,8586.388927
2467.904112,306.438199,-1184.329507,8290.306550
2467.904441,-76.609550,-2664.741391,9178.553681
2467.904771,-1685.410096,-3775.050304,10510.924376
2467.905100,-1838.629195,-3330.926739,10214.842000
2467.905429,-1838.629195,-2072.576638,11177.109724
2467.905758,-1225.752797,-1406.391290,10066.800811
2467.906087,306.438199,-74.020594,10066.800811
2467.906416,995.924147,1702.473667,9548.656652
2467.906745,1455.581446,3034.844362,7846.182985
2467.907075,1532.190996,3034.844362,7328.038826
2467.907404,2221.676944,3182.885551,7994.224174
2467.907733,1838.629195,1924.535449,7550.100608
2467.908062,1149.143247,-74.020594,8882.471304
2467.908391,-766.095498,-1998.556043,9400.615463
2467.908720,-1608.800546,-3552.988522,10140.821405
2467.909049,-2451.505594,-3775.050304,10584.944971
2467.909379,-2451.505594,-4219.173869,9918.759623
2467.909708,-1149.143247,-3182.885551,10362.883188
2467.910037,-1302.362347,-1702.473667,10732.986159
2467.910366,-536.266849,-0.000000,9992.780217
2467.910695,-612.876398,1554.432478,9770.718434
2467.911024,0.000000,1554.432478,9622.677246
2467.911353,1378.971896,2072.576638,9474.636058
2467.911683,1915.238745,3330.926739,7105.977043
2467.912012,3447.429741,2294.638420,7402.059420
2467.912341,2834.553343,1554.432478,6883.915261
2467.912670,3294.210641,1110.308913,7772.162391
2467.912999,2068.457845,-222.061783,8068.244768
2467.913328,1378.971896,-1628.453072,8364.327145
2467.913657,459.657299,-2886.803174,9474.636058
2467.913987,-459.657299,-3034.844362,9770.718434
2467.914316,-766.095498,-3330.926739,10732.986159
2467.914645,-919.314598,-2220.617826,11029.068536
2467.914974,612.876398,-962.267725,10214.842000
2467.915303,1302.362347,740.205942,9622.677246
2467.915632,2145.067394,2960.823768,8512.368333
2467.915961,1915.238745,3627.009116,7698.141797
2467.916291,2451.505594,3108.864956,7402.059420
2467.916620,1685.410096,3182.885551,7402.059420
2467.916949,1378.971896,1554.432478,8068.244768
2467.917278,-229.828649,-1036.288319,8586.388927
2467.917607,-1762.019645,-2664.741391,9696.697840
2467.917936,-1991.848295,-4071.132681,10658.965565
2467.918265,-2221.676944,-4219.173869,9622.677246
2467.918595,-1838.629195,-3478.967927,10066.800811
2467.918924,-1532.190996,-2516.700203,10436.903782
2467.919253,-536.266849,-814.226536,10288.862594
2467.919582,0.000000,444.123565,10140.821405
2467.919911,0.000000,1554.432478,9400.615463
2467.920240,689.485948,1998.556043,9918.759623
2467.920569,1685.410096,2590.720797,7846.182985
2467.920899,2451.505594,3182.885551,7105.977043
2467.921228,2451.505594,2294.638420,6809.894666
2467.921557,3524.039291,2072.576638,7031.956449
2467.921886,2145.067394,-0.000000,7846.182985
2467.922215,995.924147,-888.247130,8512.368333
2467.922544,0.000000,-2072.576638,9178.553681
2467.922873,-1302.362347,-3330.926739,10066.800811
2467.923203,-1608.800546,-3627.009116,10658.965565
2467.923532,-1378.971896,-2590.720797,10732.986159
2467.923861,-689.485948,-1554.432478,10140.821405
2467.924190,-306.438199,-370.102971,9992.780217
2467.924519,536.266849,1258.350101,9992.780217
2467.924848,1149.143247,2738.761985,8586.388927
2467.925177,1991.848295,2812.782580,7994.224174
2467.925507,2145.067394,3034.844362,7179.997637
2467.925836,2068.457845,3108.864956,7031.956449
2467.926165,1532.190996,888.247130,7920.203579
2467.926494,0.000000,-1036.288319,8882.471304
2467.926823,-766.095498,-2812.782580,9474.636058
2467.927152,-2298.286494,-3627.009116,9696.697840
2467.927481,-2374.896044,-4367.215058,10288.862594
2467.927811,-2221.676944,-3552.988522,10140.821405
2467.928140,-1455.581446,-2220.617826,10658.965565
2467.928469,-919.314598,-296.082377,9844.739029
2467.928798,153.219100,-0.000000,9770.718434
2467.929127,0.000000,1554.432478,9622.677246
2467.929456,0.000000,1628.453072,9696.697840
2467.929785,1072.533697,1850.514855,9252.574275
2467.930115,2221.676944,2664.741391,7105.977043
2467.930444,2834.553343,1998.556043,7624.121203
2467.930773,2681.334243,1480.411884,7179.997637
2467.931102,2834.553343,666.185348,8364.327145
2467.931431,1991.848295,-518.144159,8216.285956
2467.931760,1685.410096,-1702.473667,8660.409521
2467.932089,536.266849,-2738.761985,9844.739029
2467.932419,-612.876398,-3034.844362,9918.759623
2467.932748,-612.876398,-2664.741391,10584.944971
2467.933077,-383.047749,-1554.432478,10288.862594
2467.933406,536.266849,-0.000000,9770.718434
2467.933735,612.876398,1258.350101,9622.677246
2467.934064,1072.533697,2516.700203,8882.471304
2467.934393,995.924147,2664.741391,8142.265362
2467.934723,1302.362347,2368.659014,7772.162391
2467.935052,919.314598,1850.514855,7624.121203
2467.935381,1225.752797,-0.000000,8364.327145
2467.935710,-153.219100,-1554.432478,8808.450710
2467.936039,-842.705048,-2664.741391,9326.594869
2467.936368,-1455.581446,-3478.967927,9400.615463
2467.936697,-1532.190996,-3701.029710,9918.759623
2467.937027,-1225.752797,-3034.844362,9770.718434
2467.937356,-766.095498,-1554.432478,9622.677246
2467.937685,0.000000,518.144159,9474.636058
2467.938014,153.219100,1184.329507,8882.471304
2467.938343,1072.533697,1924.535449,9104.533087
2467.938672,1225.752797,2812.782580,7846.182985
2467.939001,1838.629195,3182.885551,7179.997637
2467.939331,2145.067394,2516.700203,7254.018232
2467.939660,2145.067394,1332.370696,7772.162391
2467.939989,1532.190996,592.164754,8438.347739
2467.940318,766.095498,-1332.370696,8734.430116
2467.940647,0.000000,-2442.679609,9030.512492
2467.940976,-766.095498,-2960.823768,9918.759623
2467.941305,-1149.143247,-3256.906145,10510.924376
2467.941635,-1302.362347,-2886.803174,10807.006753
2467.941964,-612.876398,-1776.494261,11177.109724
2467.942293,383.047749,-296.082377,10510.924376
2467.942622,1455.581446,1480.411884,9474.636058
2467.942951,1608.800546,2960.823768,8956.491898
2467.943280,2145.067394,3552.988522,8216.285956
2467.943609,1915.238745,3627.009116,7920.203579
2467.943939,1378.971896,2590.720797,7550.100608
2467.944268,0.000000,592.164754,7920.203579
2467.944597,-689.485948,-1184.329507,8882.471304
2467.944926,-1532.190996,-2590.720797,9992.780217
2467.945255,-1991.848295,-4441.235652,10584.944971
2467.945584,-2451.505594,-4219.173869,10140.821405
2467.945913,-2145.067394,-3849.070898,10362.883188
2467.946243,-1838.629195,-2072.576638,9770.718434
2467.946572,-689.485948,-666.185348,10066.800811
2467.946901,229.828649,962.267725,9918.759623
2467.947230,-306.438199,2368.659014,9104.533087
2467.947559,1608.800546,1850.514855,10288.862594
2467.947888,1991.848295,2960.823768,6957.935855
2467.948217,3600.648841,3182.885551,7179.997637
2467.948547,2681.334243,2368.659014,6365.771101
2467.948876,3600.648841,1850.514855,6735.874072
2467.949205,2374.896044,370.102971,8216.285956
2467.949534,1608.800546,-888.247130,7550.100608
2467.949863,689.485948,-2664.741391,9178.553681
2467.950192,-383.047749,-3552.988522,9992.780217
2467.950521,-1072.533697,-3775.050304,9844.739029
2467.950851,-1608.800546,-3034.844362,11029.068536
2467.951180,-842.705048,-1924.535449,10510.924376
2467.951509,-306.438199,-296.082377,10288.862594
2467.951838,689.485948,962.267725,9474.636058
2467.952167,1072.533697,2368.659014,8290.306550
2467.952496,842.705048,2146.597232,8068.244768
2467.952825,1838.629195,2886.803174,7698.141797
2467.953155,1455.581446,2664.741391,7105.977043
2467.953484,536.266849,740.205942,7994.224174
2467.953813,0.000000,-1184.329507,8586.388927
2467.954142,-842.705048,-2738.761985,9474.636058
2467.954471,-1608.800546,-3552.988522,9918.759623
2467.954800,-1991.848295,-3849.070898,10510.924376
2467.955130,-1608.800546,-3330.926739,9548.656652
2467.955459,-1225.752797,-2072.576638,10658.965565
2467.955788,-1072.533697,-222.061783,9696.697840
2467.956117,-76.609550,814.226536,9548.656652
2467.956446,-689.485948,1924.535449,9400.615463
2467.956775,-536.266849,1480.411884,9696.697840
2467.957104,612.876398,2220.617826,8364.327145
2467.957434,1685.410096,2516.700203,7624.121203
2467.957763,2145.067394,1776.494261,7328.038826
2467.958092,1991.848295,962.267725,7328.038826
2467.958421,1915.238745,-0.000000,8512.368333
2467.958750,1225.752797,-1628.453072,8438.347739
2467.959079,536.266849,-2368.659014,8660.409521
2467.959408,76.609550,-2738.761985,10140.821405
2467.959738,-306.438199,-2960.823768,10140.821405
2467.960067,-612.876398,-1924.535449,10584.944971
2467.960396,0.000000,-666.185348,10362.883188
2467.960725,1072.533697,592.164754,9844.739029
2467.961054,1302.362347,1924.535449,9400.615463
2467.961383,1149.143247,2812.782580,8438.347739
2467.961712,1225.752797,2590.720797,7846.182985
2467.962042,1072.533697,2220.617826,7994.224174
2467.962371,459.657299,1850.514855,8216.285956
2467.962700,-153.219100,-370.102971,9178.553681
2467.963029,-1378.971896,-2146.597232,9548.656652
2467.963358,-1532.190996,-3627.009116,10140.821405
2467.963687,-1685.410096,-4293.194464,10066.800811
2467.964016,-1072.533697,-3849.070898,9326.594869
2467.964346,-842.705048,-2738.761985,10584.944971
2467.964675,-612.876398,-1406.391290,9918.759623
2467.965004,0.000000,296.082377,9696.697840
2467.965333,76.609550,1036.288319,9474.636058
2467.965662,1685.410096,1850.514855,9844.739029
2467.965991,1991.848295,3108.864956,7920.203579
2467.966320,2987.772442,3478.967927,7698.141797
2467.966650,2757.943793,2664.741391,6439.791695
2467.966979,3447.429741,2146.597232,7105.977043
2467.967308,2145.067394,592.164754,7698.141797
2467.967637,1455.581446,-740.205942,7698.141797
2467.967966,229.828649,-2368.659014,9400.615463
2467.968295,-536.266849,-3478.967927,9622.677246
2467.968624,-766.095498,-3923.091493,10584.944971
2467.968954,-995.924147,-3256.906145,10584.944971
2467.969283,-536.266849,-2072.576638,9992.780217
2467.969612,229.828649,-444.123565,10214.842000
2467.969941,842.705048,1184.329507,9474.636058
2467.970270,1762.019645,2590.720797,8290.306550
2467.970599,1762.019645,2886.803174,8142.265362
2467.970928,2298.286494,3627.009116,6957.935855
2467.971258,2145.067394,3108.864956,7105.977043
2467.971587,1072.533697,1776.494261,7624.121203
2467.971916,0.000000,-518.144159,8734.430116
2467.972245,-842.705048,-2442.679609,9474.636058
2467.972574,-1838.629195,-3997.112087,9696.697840
2467.972903,-1915.238745,-4367.215058,10807.006753
2467.973232,-2068.457845,-3478.967927,10214.842000
2467.973562,-1302.362347,-2886.803174,10955.047942
2467.973891,-995.924147,-1184.329507,9548.656652
2467.974220,-306.438199,370.102971,9918.759623
2467.974549,-383.047749,1628.453072,9178.553681
2467.974878,-153.219100,1850.514855,9844.739029
2467.975207,766.095498,1850.514855,9474.636058
2467.975536,1455.581446,2368.659014,7698.141797
2467.975866,2604.724693,2146.597232,8142.265362
2467.976195,2145.067394,1406.391290,7179.997637
2467.976524,2528.115143,740.205942,7772.162391
2467.976853,1608.800546,-296.082377,8364.327145
2467.977182,1149.143247,-1702.473667,8438.347739
2467.977511,766.095498,-3182.885551,9918.759623
2467.977840,0.000000,-3330.926739,10066.800811
2467.978170,-1378.971896,-2442.679609,10214.842000
2467.978499,-766.095498,-1480.411884,10436.903782
2467.978828,229.828649,-74.020594,9844.739029
2467.979157,229.828649,1258.350101,9474.636058
2467.979486,1225.752797,2738.761985,9104.533087
2467.979815,1072.533697,2738.761985,8068.244768
2467.980144,1149.143247,1850.514855,8068.244768
2467.980474,766.095498,2294.638420,7920.203579
2467.980803,0.000000,592.164754,8290.306550
2467.981132,-1149.143247,-1702.473667,9326.594869
2467.981461,-1685.410096,-3108.864956,9918.759623
2467.981790,-1608.800546,-4293.194464,10140.821405
2467.982119,-1915.238745,-4589.276840,9326.594869
2467.982448,-1225.752797,-3552.988522,9918.759623
2467.982778,-612.876398,-2072.576638,9548.656652
2467.983107,-306.438199,-148.041188,9400.615463
2467.983436,689.485948,1184.329507,9474.636058
2467.983765,1685.410096,2146.597232,8512.368333
2467.984094,2604.724693,3404.947333,7254.018232
2467.984423,3370.820191,3478.967927,6883.915261
2467.984752,3140.991542,2960.823768,6439.791695
2467.985082,2681.334243,2220.617826,7698.141797
2467.985411,2221.676944,740.205942,8142.265362
2467.985740,766.095498,-888.247130,8808.450710
2467.986069,-459.657299,-2664.741391,9992.780217
2467.986398,-1072.533697,-4071.132681,10362.883188
2467.986727,-1838.629195,-4367.215058,10955.047942
2467.987056,-1915.238745,-3775.050304,10807.006753
2467.987386,-612.876398,-2516.700203,10436.903782
2467.987715,153.219100,-666.185348,10510.924376
2467.988044,1532.190996,1184.329507,9104.533087
2467.988373,2528.115143,2886.803174,8142.265362
2467.988702,2911.162892,3552.988522,7254.018232
2467.989031,2987.772442,4589.276840,7179.997637
2467.989360,2604.724693,3552.988522,7624.121203
2467.989690,1685.410096,1776.494261,7550.100608
2467.990019,-383.047749,-222.061783,8956.491898
2467.990348,-1455.581446,-2368.659014,9992.780217
2467.990677,-2604.724693,-3701.029710,10881.027347
2467.991006,-2834.553343,-4515.256246,10584.944971
2467.991335,-2451.505594,-4145.153275,10214.842000
2467.991664,-1072.533697,-2368.659014,10362.883188
2467.991994,-1378.971896,-888.247130,9770.718434
2467.992323,-536.266849,666.185348,9548.656652
2467.992652,0.000000,2220.617826,8660.409521
2467.992981,0.000000,2220.617826,9252.574275
2467.993310,1532.190996,2368.659014,8660.409521
2467.993639,1915.238745,2738.761985,7105.977043
2467.993968,2681.334243,2664.741391,7698.141797
2467.994298,2681.334243,1332.370696,6735.874072
2467.994627,2604.724693,666.185348,8290.306550
2467.994956,1302.362347,-370.102971,8956.491898
2467.995285,766.095498,-1406.391290,8882.471304
2467.995614,-306.438199,-2590.720797,10510.924376
2467.995943,-689.485948,-3034.844362,10214.842000
2467.996272,-1149.143247,-2886.803174,10807.006753
2467.996602,-995.924147,-1258.350101,10510.924376
2467.996931,0.000000,-444.123565,9918.759623
2467.997260,76.609550,740.205942,9548.656652
2467.997589,842.705048,2294.638420,8660.409521
2467.997918,1072.533697,2516.700203,7920.203579
2467.998248,1302.362347,1924.535449,7920.203579
2467.998577,919.314598,1776.494261,7698.141797
2467.998906,229.828649,296.082377,8364.327145
2467.999235,-459.657299,-1258.350101,9178.553681
2467.999564,-1378.971896,-2516.700203,9474.636058
2467.999893,-2298.286494,-3478.967927,9696.697840
2468.000222,-1762.019645,-4071.132681,9918.759623
2468.000551,-1302.362347,-2886.803174,9696.697840
2468.000880,-2068.457845,-1480.411884,10214.842000
2468.001209,0.000000,-0.000000,10066.800811
2468.001539,229.828649,1480.411884,9178.553681
2468.001868,1149.143247,2368.659014,8216.285956
2468.002197,2374.896044,3330.926739,7698.141797
2468.002526,2374.896044,2812.782580,6587.832884
2468.002855,2145.067394,3108.864956,6809.894666
2468.003184,2604.724693,1332.370696,6883.915261
2468.003513,1762.019645,444.123565,7550.100608
2468.003842,612.876398,-1110.308913,8364.327145
2468.004171,-229.828649,-2442.679609,9474.636058
2468.004500,-919.314598,-3775.050304,9918.759623
2468.004829,-1225.752797,-3701.029710,10436.903782
2468.005158,-536.266849,-3701.029710,10362.883188
2468.005487,0.000000,-2368.659014,10510.924376
2468.005816,1762.019645,-222.061783,9918.759623
2468.006146,1991.848295,1332.370696,9696.697840
2468.006475,2451.505594,2664.741391,8512.368333
2468.006804,2987.772442,3701.029710,7550.100608
2468.007133,2757.943793,3923.091493,7105.977043
2468.007462,1762.019645,2960.823768,7846.182985
2468.007791,1762.019645,1406.391290,8216.285956
2468.008120,536.266849,-1332.370696,9178.553681
2468.008449,-1915.238745,-2516.700203,10066.800811
2468.008778,-2681.334243,-4367.215058,11029.068536
2468.009107,-2757.943793,-4737.318029,10658.965565
2468.009436,-2451.505594,-3627.009116,10066.800811
2468.009765,-1915.238745,-2886.803174,10881.027347
2468.010094,-1455.581446,-740.205942,10066.800811
2468.010424,0.000000,-74.020594,9696.697840
2468.010753,-536.266849,1702.473667,9400.615463
2468.011082,995.924147,2072.576638,10362.883188
2468.011411,1685.410096,2960.823768,7994.224174
2468.011740,3064.381992,3701.029710,7105.977043
2468.012069,2528.115143,2812.782580,6365.771101
2468.012398,3064.381992,2886.803174,7402.059420
2468.012727,2757.943793,666.185348,7846.182985
2468.013056,1072.533697,-518.144159,7550.100608
2468.013385,229.828649,-2072.576638,8734.430116
2468.013714,-1302.362347,-3108.864956,9844.739029
2468.014043,-1685.410096,-3923.091493,10732.986159
2468.014372,-1685.410096,-2960.823768,11473.192101
2468.014702,-689.485948,-1924.535449,10362.883188
2468.015031,306.438199,-962.267725,10214.842000
2468.015360,842.705048,1110.308913,9992.780217
2468.015689,2221.676944,3182.885551,7994.224174
2468.016018,2451.505594,2960.823768,7846.182985
2468.016347,2528.115143,3627.009116,7031.956449
2468.016676,2374.896044,3404.947333,7254.018232
2468.017005,1302.362347,1406.391290,7624.121203
2468.017334,0.000000,-740.205942,8660.409521
2468.017663,-1149.143247,-2664.741391,10066.800811
2468.017992,-2374.896044,-4071.132681,10362.883188
2468.018321,-2145.067394,-4737.318029,10732.986159
2468.018650,-2145.067394,-3775.050304,10140.821405
2468.018980,-842.705048,-2664.741391,10584.944971
2468.019309,-1378.971896,-1184.329507,9992.780217
2468.019638,-229.828649,740.205942,9622.677246
2468.019967,-459.657299,1776.494261,9548.656652
2468.020296,1149.143247,1258.350101,10658.965565
2468.020625,1915.238745,2516.700203,7550.100608
2468.020954,2604.724693,3404.947333,7328.038826
2468.021283,3447.429741,1480.411884,6957.935855
2468.021612,3217.601092,1850.514855,6809.894666
2468.021941,2681.334243,148.041188,8216.285956
2468.022270,1455.581446,-1406.391290,7846.182985
2468.022599,766.095498,-2368.659014,8808.450710
2468.022928,-766.095498,-3552.988522,10140.821405
2468.023257,-1608.800546,-3775.050304,10510.924376
2468.023587,-1685.410096,-3404.947333,11473.192101
2468.023916,-536.266849,-1998.556043,10436.903782
2468.024245,766.095498,-370.102971,9992.780217
2468.024574,1225.752797,1332.370696,9178.553681
2468.024903,1608.800546,3330.926739,8068.244768
2468.025232,2068.457845,3182.885551,7698.141797
2468.025561,2451.505594,3552.988522,7105.977043
2468.025890,1685.410096,2590.720797,7031.956449
2468.026219,919.314598,444.123565,7994.224174
2468.026548,-1072.533697,-1554.432478,8956.491898
2468.026877,-1915.238745,-3478.967927,9696.697840
2468.027206,-2298.286494,-4663.297435,10288.862594
2468.027535,-2068.457845,-4737.318029,10066.800811
2468.027865,-1915.238745,-3552.988522,9992.780217
2468.028194,-1762.019645,-2368.659014,10066.800811
2468.028523,-919.314598,-296.082377,9474.636058
2468.028852,76.609550,1110.308913,9326.594869
2468.029181,612.876398,1776.494261,9918.759623
2468.029510,1762.019645,2664.741391,7920.203579
2468.029839,2604.724693,3182.885551,7179.997637
2468.030168,2681.334243,3034.844362,6661.853478
2468.030497,2911.162892,2220.617826,7179.997637
2468.030826,2604.724693,1332.370696,8512.368333
2468.031155,1149.143247,-74.020594,8660.409521
2468.031484,536.266849,-2146.597232,9326.594869
2468.031813,-383.047749,-2960.823768,10214.842000
2468.032143,-1532.190996,-3552.988522,10732.986159
2468.032472,-1608.800546,-3997.112087,11325.150913
2468.032801,-1532.190996,-2146.597232,10658.965565
2468.033130,76.609550,-666.185348,10510.924376
2468.033459,1072.533697,888.247130,9696.697840
2468.033788,1225.752797,3330.926739,8586.388927
2468.034117,2374.896044,2886.803174,7994.224174
2468.034446,2604.724693,3849.070898,6809.894666
2468.034775,2068.457845,3701.029710,7031.956449
2468.035104,1685.410096,2072.576638,7698.141797
2468.035433,0.000000,592.164754,8808.450710
2468.035762,-919.314598,-2220.617826,9696.697840
2468.036091,-2145.067394,-3701.029710,9844.739029
2468.036420,-2451.505594,-5107.421000,10881.027347
2468.036750,-2298.286494,-3849.070898,10140.821405
2468.037079,-1455.581446,-2590.720797,10288.862594
2468.037408,-1302.362347,-1332.370696,10214.842000
2468.037737,-153.219100,222.061783,9622.677246
2468.038066,383.047749,1702.473667,9622.677246
2468.038395,1762.019645,2072.576638,9326.594869
2468.038724,2451.505594,3404.947333,6883.915261
2468.039053,3217.601092,3256.906145,7179.997637
2468.039382,2604.724693,2738.761985,6291.750507
2468.039711,3217.601092,1850.514855,7550.100608
2468.040040,2604.724693,296.082377,7846.182985
2468.040369,1302.362347,-888.247130,8438.347739
2468.040698,76.609550,-2220.617826,9770.718434
2468.041028,-1225.752797,-3404.947333,10140.821405
2468.041357,-2068.457845,-4515.256246,11177.109724
2468.041686,-1838.629195,-3478.967927,11325.150913
2468.042015,-306.438199,-2368.659014,10510.924376
2468.042344,-229.828649,-814.226536,10881.027347
2468.042673,842.705048,1036.288319,9400.615463
2468.043002,1762.019645,3108.864956,8660.409521
2468.043331,1991.848295,2886.803174,7772.162391
2468.043660,2145.067394,3701.029710,7105.977043
2468.043989,1915.238745,2960.823768,6957.935855
2468.044318,919.314598,1036.288319,7550.100608
2468.044647,-612.876398,-1110.308913,8364.327145
2468.044976,-1608.800546,-2738.761985,10066.800811
2468.045306,-2451.505594,-4663.297435,9844.739029
2468.045635,-2298.286494,-4219.173869,10066.800811
2468.045964,-2145.067394,-3256.906145,9918.759623
2468.046293,-1915.238745,-2146.597232,10140.821405
2468.046622,-1532.190996,-518.144159,9918.759623
2468.046951,-383.047749,814.226536,9770.718434
2468.047280,-153.219100,1850.514855,8808.450710
2468.047609,153.219100,1776.494261,9326.594869
2468.047938,1302.362347,2368.659014,8364.327145
2468.048267,2068.457845,2738.761985,6735.874072
2468.048596,2451.505594,1924.535449,7105.977043
2468.048925,2298.286494,1480.411884,6883.915261
2468.049254,2451.505594,-0.000000,8364.327145
2468.049583,1455.581446,-1332.370696,8216.285956
2468.049913,612.876398,-2146.597232,8808.450710
2468.050242,-306.438199,-3256.906145,10214.842000
2468.050571,-1072.533697,-3256.906145,10214.842000
2468.050900,-1225.752797,-2442.679609,10807.006753
2468.051229,-153.219100,-1480.411884,10955.047942
2468.051558,-306.438199,-0.000000,10584.944971
2468.051887,1378.971896,1850.514855,9844.739029
2468.052216,1838.629195,3552.988522,8882.471304
2468.052545,1608.800546,3478.967927,7772.162391
2468.052874,1762.019645,2812.782580,8068.244768
2468.053203,1225.752797,2664.741391,7550.100608
2468.053532,689.485948,-0.000000,8512.368333
2468.053861,-766.095498,-1480.411884,9326.594869
2468.054191,-1762.019645,-2516.700203,10140.821405
2468.054520,-2221.676944,-4071.132681,10436.903782
2468.054849,-2145.067394,-4293.194464,10140.821405
2468.055178,-1532.190996,-3404.947333,10214.842000
2468.055507,-995.924147,-1628.453072,10362.883188
2468.055836,-459.657299,-148.041188,10214.842000
2468.056165,689.485948,962.267725,9770.718434
2468.056494,2374.896044,2146.597232,9696.697840
2468.056823,2604.724693,3108.864956,7920.203579
2468.057152,3677.258390,3997.112087,6883.915261
2468.057481,3677.258390,3627.009116,6291.750507
2468.057810,3524.039291,2664.741391,6883.915261
2468.058139,2681.334243,1110.308913,7328.038826
2468.058469,1762.019645,-444.123565,7772.162391
2468.058798,612.876398,-1924.535449,9326.594869
2468.059127,-766.095498,-3923.091493,10066.800811
2468.059456,-1838.629195,-4441.235652,10955.047942
2468.059785,-2145.067394,-3775.050304,10955.047942
2468.060114,-1455.581446,-2886.803174,10658.965565
2468.060443,-689.485948,-1332.370696,10214.842000
2468.060772,383.047749,666.185348,10288.862594
2468.061101,842.705048,2220.617826,9474.636058
2468.061430,2145.067394,2738.761985,8142.265362
2468.061759,2911.162892,3627.009116,7179.997637
2468.062088,2987.772442,3404.947333,6439.791695
2468.062417,2068.457845,2072.576638,7179.997637
2468.062747,995.924147,-0.000000,8068.244768
2468.063076,-383.047749,-1850.514855,9326.594869
2468.063405,-2221.676944,-3478.967927,9844.739029
2468.063734,-2528.115143,-4737.318029,10584.944971
2468.064063,-2757.943793,-4293.194464,10658.965565
2468.064392,-2221.676944,-2960.823768,10214.842000
2468.064721,-1991.848295,-1406.391290,9844.739029
2468.065050,-1225.752797,-222.061783,9844.739029
2468.065379,-1149.143247,1406.391290,9696.697840
2468.065708,-612.876398,2294.638420,9030.512492
2468.066037,0.000000,1554.432478,9918.759623
2468.066366,689.485948,1998.556043,8660.409521
2468.066695,1685.410096,2146.597232,7254.018232
2468.067024,2298.286494,1258.350101,7402.059420
2468.067354,2757.943793,370.102971,7105.977043
2468.067683,2911.162892,-296.082377,8142.265362
2468.068012,1991.848295,-1110.308913,8142.265362
2468.068341,1455.581446,-2368.659014,8586.388927
2468.068670,459.657299,-2516.700203,9992.780217
2468.068999,0.000000,-1998.556043,9696.697840
2468.069328,-612.876398,-1258.350101,10362.883188
2468.069657,0.000000,-148.041188,9992.780217
2468.069986,689.485948,740.205942,9844.739029
2468.070315,842.705048,1702.473667,9252.574275
2468.070644,919.314598,2960.823768,8512.368333
2468.070973,842.705048,2442.679609,8142.265362
2468.071302,536.266849,1776.494261,8290.306550
2468.071632,229.828649,1258.350101,8364.327145
2468.071961,0.000000,-1036.288319,9178.553681
2468.072290,-995.924147,-2442.679609,9548.656652
2468.072619,-1532.190996,-3404.947333,9770.718434
2468.072948,-1532.190996,-4145.153275,9548.656652
2468.073277,-1149.143247,-3404.947333,9770.718434
2468.073606,-459.657299,-2590.720797,9992.780217
2468.073935,0.000000,-666.185348,9918.759623
2468.074264,842.705048,1332.370696,9770.718434
2468.074593,1838.629195,2368.659014,8956.491898
2468.074922,2451.505594,2960.823768,8068.244768
2468.075251,2451.505594,4071.132681,7846.182985
2468.075580,2681.334243,3330.926739,7550.100608
2468.075910,2451.505594,2294.638420,7624.121203
2468.076239,1838.629195,518.144159,8142.265362
2468.076568,766.095498,-1480.411884,8734.430116
2468.076897,-306.438199,-2368.659014,9474.636058
2468.077226,-995.924147,-3404.947333,10288.862594
2468.077555,-1302.362347,-3849.070898,10881.027347
2468.077884,-1149.143247,-3256.906145,10288.862594
2468.078213,-766.095498,-2368.659014,10362.883188
2468.078542,153.219100,-888.247130,10362.883188
2468.078871,1378.971896,370.102971,9696.697840
2468.079200,2221.676944,2072.576638,8660.409521
2468.079529,2374.896044,2886.803174,7402.059420
2468.079858,2834.553343,3478.967927,6957.935855
2468.080187,2374.896044,3478.967927,6957.935855
2468.080517,1302.362347,2368.659014,7328.038826
2468.080846,153.219100,-148.041188,8290.306550
2468.081175,-1302.362347,-1776.494261,9030.512492
2468.081504,-2068.457845,-3552.988522,9696.697840
2468.081833,-1915.238745,-4219.173869,9918.759623
2468.082162,-2298.286494,-3552.988522,9400.615463
2468.082491,-1991.848295,-3997.112087,10881.027347
2468.082820,-1991.848295,-1554.432478,9844.739029
2468.083149,-766.095498,-0.000000,10140.821405
2468.083478,-766.095498,1036.288319,9474.636058
2468.083807,-306.438199,2368.659014,8586.388927
2468.084136,-689.485948,2294.638420,9770.718434
2468.084465,459.657299,2072.576638,10066.800811
2468.084795,1149.143247,1332.370696,8216.285956
2468.085124,2221.676944,1480.411884,7920.203579
2468.085453,2681.334243,962.267725,6809.894666
2468.085782,2298.286494,296.082377,7476.080014
2468.086111,2145.067394,-1036.288319,8142.265362
2468.086440,1149.143247,-1480.411884,7846.182985
2468.086769,1378.971896,-2516.700203,9548.656652
2468.087098,0.000000,-1850.514855,9770.718434
2468.087427,-306.438199,-1776.494261,10288.862594
2468.087756,-612.876398,-1110.308913,10732.986159
2468.088085,0.000000,296.082377,9918.759623
2468.088414,229.828649,1184.329507,10140.821405
2468.088743,76.609550,2220.617826,9474.636058
2468.089073,689.485948,2738.761985,8882.471304
2468.089402,0.000000,1554.432478,8956.491898
2468.089731,306.438199,888.247130,8216.285956
2468.090060,-306.438199,-222.061783,8586.388927
2468.090389,-766.095498,-1776.494261,9400.615463
2468.090718,-1072.533697,-2738.761985,9252.574275
2468.091047,-1225.752797,-3182.885551,9548.656652
2468.091376,-995.924147,-2960.823768,9696.697840
2468.091705,-689.485948,-2960.823768,9622.677246
2468.092034,0.000000,-1258.350101,9548.656652
2468.092363,842.705048,962.267725,9326.594869
2468.092692,1532.190996,2220.617826,8586.388927
2468.093021,2145.067394,2960.823768,8364.327145
2468.093351,2221.676944,3256.906145,7550.100608
2468.093680,2757.943793,2960.823768,7698.141797
2468.094009,2145.067394,1850.514855,7846.182985
2468.094338,1532.190996,370.102971,8290.306550
2468.094667,1149.143247,-1184.329507,8586.388927
2468.094996,0.000000,-2072.576638,9548.656652
2468.095325,-689.485948,-3182.885551,9918.759623
2468.095654,-919.314598,-3849.070898,10362.883188
2468.095983,-766.095498,-3404.947333,10362.883188
2468.096312,-153.219100,-2590.720797,10436.903782
2468.096641,919.314598,-1702.473667,9844.739029
2468.096970,1685.410096,296.082377,9400.615463
2468.097299,2528.115143,2146.597232,8734.430116
2468.097628,2757.943793,3256.906145,7772.162391
2468.097958,2528.115143,3627.009116,7328.038826
2468.098287,1991.848295,2886.803174,7402.059420
2468.098616,536.266849,2146.597232,7994.224174
2468.098945,229.828649,-0.000000,8364.327145
2468.099274,-1685.410096,-2146.597232,9622.677246
2468.099603,-2757.943793,-3775.050304,10436.903782
2468.099932,-2911.162892,-4589.276840,10881.027347
2468.100261,-2681.334243,-4071.132681,9696.697840
2468.100590,-2451.505594,-3330.926739,9992.780217
2468.100919,-1608.800546,-1776.494261,9844.739029
2468.101248,-919.314598,-0.000000,9400.615463
2468.101577,-612.876398,1184.329507,9030.512492
2468.101906,0.000000,1480.411884,9474.636058
2468.102236,995.924147,2146.597232,8956.491898
2468.102565,1991.848295,3330.926739,6883.915261
2468.102894,2911.162892,2812.782580,6661.853478
2468.103223,2757.943793,1924.535449,6957.935855
2468.103552,2834.553343,1554.432478,7698.141797
2468.103881,1532.190996,-0.000000,7698.141797
2468.104210,1378.971896,-1110.308913,8364.327145
2468.104539,0.000000,-2442.679609,9400.615463
2468.104868,-995.924147,-2886.803174,9992.780217
2468.105197,-1149.143247,-3627.009116,11325.150913
2468.105526,-1378.971896,-2368.659014,10732.986159
2468.105855,0.000000,-1776.494261,10436.903782
2468.106184,229.828649,296.082377,9696.697840
2468.106514,995.924147,1998.556043,9104.533087
2468.106843,1149.143247,2664.741391,8364.327145
2468.107172,2068.457845,2960.823768,8142.265362
2468.107501,1455.581446,3330.926739,7772.162391
2468.107830,1378.971896,2294.638420,7994.224174
2468.108159,-459.657299,296.082377,8956.491898
2468.108488,0.000000,-1554.432478,9622.677246
2468.108817,-1455.581446,-2960.823768,10066.800811
2468.109146,-2068.457845,-3627.009116,10362.883188
2468.109475,-2604.724693,-4219.173869,10955.047942
2468.109804,-1991.848295,-3034.844362,10807.006753
2468.110133,-1072.533697,-1480.411884,10362.883188
2468.110462,-229.828649,296.082377,10362.883188
2468.110791,689.485948,1258.350101,9548.656652
2468.111120,2145.067394,2368.659014,8660.409521
2468.111449,2757.943793,3552.988522,7476.080014
2468.111778,3217.601092,3478.967927,7031.956449
2468.112107,3294.210641,3256.906145,7698.141797
2468.112436,1915.238745,1628.453072,7402.059420
2468.112765,2298.286494,74.020594,8290.306550
2468.113094,1149.143247,-1702.473667,8882.471304
2468.113423,0.000000,-2664.741391,9474.636058
2468.113752,-842.705048,-3849.070898,10288.862594
2468.114081,-1149.143247,-3627.009116,10584.944971
2468.114410,-1762.019645,-3108.864956,10881.027347
2468.114739,0.000000,-1628.453072,10214.842000
2468.115068,995.924147,592.164754,9696.697840
2468.115397,1608.800546,2146.597232,8808.450710
2468.115726,2145.067394,3034.844362,7624.121203
2468.116055,2451.505594,3627.009116,7179.997637
2468.116384,2374.896044,3404.947333,6661.853478
2468.116713,2221.676944,2072.576638,7550.100608
2468.117042,229.828649,148.041188,7920.203579
2468.117371,-1532.190996,-1628.453072,9104.533087
2468.117700,-2604.724693,-3552.988522,9992.780217
2468.118029,-2834.553343,-4959.379811,11177.109724
2468.118358,-2987.772442,-4663.297435,10658.965565
2468.118687,-2451.505594,-3701.029710,10362.883188
2468.119016,-2068.457845,-2368.659014,9770.718434
2468.119345,-689.485948,-592.164754,10214.842000
2468.119674,-306.438199,1184.329507,9474.636058
2468.120003,766.095498,1702.473667,10288.862594
2468.120332,1608.800546,3034.844362,7402.059420
2468.120661,2604.724693,3849.070898,7031.956449
2468.120990,2451.505594,3404.947333,6661.853478
2468.121319,2451.505594,1702.473667,7105.977043
2468.121648,1685.410096,1332.370696,7846.182985
2468.121977,306.438199,-814.226536,9178.553681
2468.122306,306.438199,-2368.659014,9474.636058
2468.122635,-995.924147,-3404.947333,10288.862594
2468.122964,-1991.848295,-4219.173869,10510.924376
2468.123293,-1608.800546,-3849.070898,11251.130318
2468.123622,-919.314598,-2294.638420,10955.047942
2468.123951,536.266849,-814.226536,10140.821405
2468.124280,1685.410096,740.205942,9918.759623
2468.124609,2298.286494,3108.864956,8512.368333
2468.124938,2757.943793,3775.050304,7624.121203
2468.125267,2911.162892,4441.235652,6883.915261
2468.125596,2374.896044,4071.132681,6809.894666
2468.125925,1685.410096,2664.741391,7254.018232
2468.126254,76.609550,-74.020594,8216.285956
2468.126583,-842.705048,-2072.576638,9622.677246
2468.126912,-2221.676944,-3997.112087,9622.677246
2468.127241,-2451.505594,-5107.421000,10955.047942
2468.127570,-2757.943793,-4663.297435,10881.027347
2468.127899,-2221.676944,-3182.885551,10658.965565
2468.128228,-1149.143247,-1702.473667,10807.006753
2468.128557,-689.485948,444.123565,10362.883188
2468.128886,-153.219100,1554.432478,9696.697840
2468.129215,1302.362347,1554.432478,10807.006753
2468.129544,2374.896044,3108.864956,6883.915261
2468.129873,3677.258390,3701.029710,7624.121203
2468.130202,3370.820191,2960.823768,6217.729913
2468.130531,4136.915689,2442.679609,6735.874072
2468.130860,3064.381992,1332.370696,8438.347739
2468.131189,1838.629195,-148.041188,7328.038826
2468.131518,612.876398,-1702.473667,9696.697840
2468.131847,-536.266849,-2960.823768,9844.739029
2468.132176,-1838.629195,-4071.132681,10362.883188
2468.132505,-2374.896044,-3997.112087,11843.295072
2468.132834,-1302.362347,-2664.741391,10807.006753
2468.133163,-383.047749,-962.267725,10584.944971
2468.133492,459.657299,666.185348,9918.759623
2468.133821,1302.362347,2886.803174,8364.327145
2468.134150,1608.800546,2664.741391,8438.347739
