#time,accel_x,accel_y,accel_z
2632.601317,76.609550,-0.000000,8882.471304
2632.601646,229.828649,-148.041188,8956.491898
2632.601976,536.266849,-370.102971,8882.471304
2632.602305,229.828649,-444.123565,9104.533087
2632.602634,76.609550,-222.061783,9252.574275
2632.602964,0.000000,-0.000000,9178.553681
2632.603293,229.828649,-148.041188,8882.471304
2632.603622,306.438199,-148.041188,8956.491898
2632.603952,153.219100,-0.000000,9104.533087
2632.604281,766.095498,-370.102971,9104.533087
2632.604610,612.876398,-74.020594,9178.553681
2632.604940,0.000000,-74.020594,9400.615463
2632.605269,306.438199,-222.061783,9178.553681
2632.605598,306.438199,-222.061783,9178.553681
2632.605928,153.219100,-296.082377,9252.574275
2632.606257,306.438199,-296.082377,9326.594869
2632.606587,306.438199,-444.123565,9326.594869
2632.606916,612.876398,-296.082377,9474.636058
2632.607245,536.266849,-444.123565,9104.533087
2632.607575,306.438199,-296.082377,9326.594869
2632.607904,536.266849,-296.082377,9178.553681
2632.608233,536.266849,-0.000000,9326.594869
2632.608563,383.047749,-74.020594,9326.594869
2632.608892,919.314598,-222.061783,9178.553681
2632.609221,689.485948,-370.102971,9030.512492
2632.609551,153.219100,-444.123565,8956.491898
2632.609880,153.219100,-0.000000,9104.533087
2632.610209,459.657299,-222.061783,8882.471304
2632.610539,229.828649,-0.000000,8956.491898
2632.610868,153.219100,-222.061783,9030.512492
2632.611198,536.266849,-0.000000,9178.553681
2632.611527,306.438199,-740.205942,9030.512492
2632.611856,0.000000,-518.144159,9104.533087
2632.612186,76.609550,-74.020594,8882.471304
2632.612515,153.219100,-0.000000,8956.491898
2632.612844,383.047749,-0.000000,8734.430116
2632.613174,383.047749,-0.000000,8882.471304
2632.613503,689.485948,-0.000000,8734.430116
2632.613832,536.266849,222.061783,8956.491898
2632.614162,995.924147,-74.020594,8734.430116
2632.614491,306.438199,-0.000000,8660.409521
2632.614821,229.828649,-148.041188,8956.491898
2632.615150,306.438199,-222.061783,9178.553681
2632.615479,76.609550,-296.082377,9104.533087
2632.615809,229.828649,-666.185348,9326.594869
2632.616138,153.219100,-518.144159,9326.594869
2632.616467,0.000000,-222.061783,9474.636058
2632.616797,229.828649,-296.082377,9326.594869
2632.617126,229.828649,-0.000000,9178.553681
2632.617455,306.438199,-148.041188,9178.553681
2632.617785,536.266849,-0.000000,9030.512492
2632.618114,689.485948,-74.020594,9252.574275
2632.618443,612.876398,-370.102971,9252.574275
2632.618773,459.657299,-370.102971,9400.615463
2632.619102,229.828649,-370.102971,9178.553681
2632.619432,383.047749,-222.061783,9326.594869
2632.619761,0.000000,-222.061783,9400.615463
2632.620090,229.828649,-370.102971,9326.594869
2632.620420,229.828649,74.020594,9474.636058
2632.620749,536.266849,-370.102971,9178.553681
2632.621078,612.876398,-0.000000,9178.553681
2632.621408,612.876398,222.061783,9030.512492
2632.621737,459.657299,148.041188,8882.471304
2632.622066,536.266849,-0.000000,9104.533087
2632.622396,383.047749,-0.000000,8808.450710
2632.622725,-229.828649,-0.000000,9400.615463
2632.623054,306.438199,-222.061783,9326.594869
2632.623384,76.609550,-0.000000,8660.409521
2632.623713,459.657299,-444.123565,8734.430116
2632.624043,153.219100,-148.041188,9030.512492
2632.624372,153.219100,-74.020594,8882.471304
2632.624701,76.609550,-0.000000,8882.471304
2632.625031,76.609550,-222.061783,9104.533087
2632.625360,689.485948,-222.061783,8956.491898
2632.625689,536.266849,-148.041188,8882.471304
2632.626019,536.266849,-148.041188,8808.450710
2632.626348,536.266849,-0.000000,9104.533087
2632.626677,306.438199,-222.061783,9030.512492
2632.627007,459.657299,-296.082377,8956.491898
2632.627336,153.219100,-296.082377,9400.615463
2632.627665,383.047749,-296.082377,9104.533087
2632.627995,383.047749,-518.144159,9030.512492
2632.628324,459.657299,-444.123565,9104.533087
2632.628654,383.047749,-148.041188,9104.533087
2632.628983,383.047749,-148.041188,9326.594869
2632.629312,612.876398,-148.041188,9400.615463
2632.629642,229.828649,-296.082377,9178.553681
2632.629971,306.438199,-444.123565,9178.553681
2632.630300,76.609550,-444.123565,9474.636058
2632.630630,459.657299,-740.205942,9918.759623
2632.630959,1608.800546,-888.247130,9474.636058
2632.631288,1532.190996,-444.123565,9548.656652
2632.631618,1991.848295,-222.061783,9400.615463
2632.631947,2451.505594,-74.020594,8882.471304
2632.632276,3294.210641,-0.000000,8734.430116
2632.632606,3830.477490,148.041188,8956.491898
2632.632935,4213.525239,-0.000000,8438.347739
2632.633265,2911.162892,518.144159,8512.368333
2632.633594,3140.991542,740.205942,8216.285956
2632.633923,2451.505594,-74.020594,8512.368333
2632.634253,3140.991542,-296.082377,9252.574275
2632.634582,1608.800546,-814.226536,9326.594869
2632.634911,1225.752797,-814.226536,10362.883188
2632.635241,1762.019645,-2368.659014,9474.636058
2632.635570,2528.115143,-518.144159,9326.594869
2632.635899,2221.676944,-518.144159,9474.636058
2632.636229,3370.820191,-814.226536,9474.636058
2632.636558,3217.601092,-222.061783,9178.553681
2632.636887,5056.230287,962.267725,8734.430116
2632.637217,4979.620737,666.185348,6957.935855
2632.637546,4596.572988,1110.308913,8956.491898
2632.637876,4979.620737,814.226536,8512.368333
2632.638205,3907.087040,962.267725,7402.059420
2632.638534,3524.039291,222.061783,9178.553681
2632.638864,2604.724693,-222.061783,8734.430116
2632.639193,1991.848295,-370.102971,9474.636058
2632.639522,1072.533697,-1406.391290,10066.800811
2632.639852,1991.848295,-1110.308913,9622.677246
2632.640181,1072.533697,-1480.411884,10288.862594
2632.640510,1072.533697,-888.247130,9622.677246
2632.640840,1838.629195,-370.102971,9696.697840
2632.641169,3140.991542,444.123565,10066.800811
2632.641498,2681.334243,-0.000000,7846.182985
2632.641828,4290.134789,1036.288319,10140.821405
2632.642157,4519.963438,1480.411884,8364.327145
2632.642487,4596.572988,1036.288319,8216.285956
2632.642816,4290.134789,962.267725,8808.450710
2632.643145,3907.087040,-0.000000,8808.450710
2632.643475,3753.867940,-148.041188,9030.512492
2632.643804,2834.553343,-2368.659014,9474.636058
2632.644133,1838.629195,-1702.473667,9992.780217
2632.644463,1915.238745,-2442.679609,10214.842000
2632.644792,2221.676944,-1776.494261,9770.718434
2632.645121,2451.505594,-1406.391290,9844.739029
2632.645451,3294.210641,-296.082377,9474.636058
2632.645780,3677.258390,-0.000000,8808.450710
2632.646109,4213.525239,666.185348,8512.368333
2632.646439,4290.134789,1776.494261,7698.141797
2632.646768,4903.011187,2072.576638,7328.038826
2632.647098,4213.525239,2738.761985,7105.977043
2632.647427,4060.306139,2294.638420,7698.141797
2632.647756,3907.087040,1776.494261,7698.141797
2632.648086,3294.210641,-0.000000,8068.244768
2632.648415,2604.724693,-1480.411884,9326.594869
2632.648744,1991.848295,-2442.679609,9918.759623
2632.649074,1762.019645,-3775.050304,10807.006753
2632.649403,1838.629195,-3552.988522,10807.006753
2632.649732,2528.115143,-2664.741391,10955.047942
2632.650062,3447.429741,-1332.370696,10584.944971
2632.650391,4673.182538,-0.000000,9548.656652
2632.650720,5669.106685,1258.350101,9104.533087
2632.651050,5669.106685,1554.432478,8586.388927
2632.651379,5286.058936,2516.700203,8216.285956
2632.651709,4596.572988,3404.947333,7328.038826
2632.652038,4366.744339,3552.988522,7031.956449
2632.652367,3830.477490,2220.617826,7031.956449
2632.652697,3140.991542,592.164754,7920.203579
2632.653026,1072.533697,-2072.576638,10140.821405
2632.653355,0.000000,-4515.256246,10807.006753
2632.653685,-995.924147,-4071.132681,11251.130318
2632.654014,-536.266849,-5181.441594,11769.274478
2632.654343,-842.705048,-1850.514855,10510.924376
2632.654673,459.657299,-1258.350101,11399.171507
2632.655002,766.095498,370.102971,10140.821405
2632.655331,4596.572988,962.267725,11177.109724
2632.655661,6128.763984,1554.432478,8216.285956
2632.655990,7354.516781,1850.514855,8956.491898
2632.656320,5745.716235,592.164754,8290.306550
2632.656649,5745.716235,1332.370696,6365.771101
2632.656978,5669.106685,2886.803174,7105.977043
2632.657308,5209.449386,2146.597232,6587.832884
2632.657637,4979.620737,2590.720797,5255.462188
2632.657966,4826.401637,2368.659014,6661.853478
2632.658296,4519.963438,1036.288319,5921.647536
2632.658625,3294.210641,-2442.679609,9178.553681
2632.658954,383.047749,-6513.812290,12435.459826
2632.659284,-919.314598,-4959.379811,11769.274478
2632.659613,-1532.190996,-4589.276840,13545.768739
2632.659943,-689.485948,-6143.709319,13175.665768
2632.660272,-842.705048,592.164754,10140.821405
2632.660601,2834.553343,-222.061783,12287.418637
2632.660931,4136.915689,1702.473667,9252.574275
2632.661260,6511.811733,1924.535449,9474.636058
2632.661589,7124.688131,1406.391290,9252.574275
2632.661919,7507.735880,3330.926739,6513.812290
2632.662248,8580.269578,3997.112087,5847.626942
2632.662577,7277.907231,296.082377,5403.503377
2632.662907,7048.078582,1776.494261,5033.400406
2632.663236,6588.421283,1480.411884,7402.059420
2632.663565,4596.572988,1036.288319,6735.874072
2632.663895,3830.477490,2146.597232,5995.668130
2632.664224,2681.334243,-2220.617826,9770.718434
2632.664554,-1149.143247,-5033.400406,12657.521608
2632.664883,-2604.724693,-2220.617826,11399.171507
2632.665212,-1149.143247,-4959.379811,14434.015869
2632.665542,-1608.800546,-3997.112087,10955.047942
2632.665871,0.000000,1850.514855,12065.356855
2632.666200,1532.190996,-296.082377,10066.800811
2632.666530,0.000000,1850.514855,11399.171507
2632.666859,5592.497135,-1036.288319,11177.109724
2632.667188,9116.536426,1332.370696,6217.729913
2632.667518,7584.345430,1480.411884,7328.038826
2632.667847,5592.497135,1332.370696,6291.750507
2632.668176,7048.078582,2294.638420,5773.606348
2632.668506,6205.373534,592.164754,7624.121203
2632.668835,5898.935335,2368.659014,3849.070898
2632.669165,4673.182538,2220.617826,8364.327145
2632.669494,2604.724693,1850.514855,6809.894666
2632.669823,3677.258390,1036.288319,9178.553681
2632.670153,536.266849,-1406.391290,10436.903782
2632.670482,229.828649,-3701.029710,11695.253884
2632.670811,-1378.971896,-888.247130,9992.780217
2632.671141,-842.705048,-6809.894666,12879.583391
2632.671470,-2451.505594,-888.247130,9326.594869
2632.671799,1838.629195,-222.061783,11547.212695
2632.672129,0.000000,962.267725,9548.656652
2632.672458,2374.896044,592.164754,9400.615463
2632.672787,2528.115143,-74.020594,7328.038826
2632.673117,2911.162892,2220.617826,6809.894666
2632.673446,2221.676944,1406.391290,7402.059420
2632.673776,1532.190996,-740.205942,7920.203579
2632.674105,1225.752797,-1110.308913,8290.306550
2632.674434,919.314598,-1850.514855,9104.533087
2632.674764,-229.828649,-1998.556043,9400.615463
2632.675093,-1532.190996,-1332.370696,9474.636058
2632.675422,-1378.971896,-148.041188,10584.944971
2632.675752,-612.876398,1702.473667,9178.553681
2632.676081,-766.095498,296.082377,8734.430116
2632.676410,-536.266849,-74.020594,10214.842000
2632.676740,229.828649,-74.020594,8808.450710
2632.677069,459.657299,1110.308913,8364.327145
2632.677398,995.924147,370.102971,8586.388927
2632.677728,919.314598,-370.102971,8734.430116
2632.678057,842.705048,-1776.494261,9252.574275
2632.678387,383.047749,-1332.370696,8512.368333
2632.678716,-459.657299,-0.000000,8734.430116
2632.679045,229.828649,148.041188,9770.718434
2632.679375,-153.219100,-0.000000,9622.677246
2632.679704,0.000000,-1036.288319,10214.842000
2632.680033,-229.828649,-962.267725,9622.677246
2632.680363,383.047749,-0.000000,9030.512492
2632.680692,1225.752797,888.247130,9622.677246
2632.681021,1455.581446,370.102971,8882.471304
2632.681351,1838.629195,814.226536,9030.512492
2632.681680,2528.115143,666.185348,8290.306550
2632.682009,3294.210641,1480.411884,7846.182985
2632.682338,2604.724693,740.205942,8364.327145
2632.682668,1762.019645,444.123565,8512.368333
2632.682997,1302.362347,-740.205942,9252.574275
2632.683326,919.314598,-666.185348,9770.718434
2632.683656,1149.143247,-0.000000,9326.594869
2632.683985,229.828649,-370.102971,9252.574275
2632.684314,-536.266849,-666.185348,9400.615463
2632.684644,-919.314598,-1406.391290,10288.862594
2632.684973,-612.876398,-1332.370696,10140.821405
2632.685302,-536.266849,370.102971,9696.697840
2632.685631,-689.485948,888.247130,9474.636058
2632.685961,-459.657299,888.247130,9474.636058
2632.686290,-306.438199,-518.144159,9474.636058
2632.686619,536.266849,-0.000000,8956.491898
2632.686949,842.705048,962.267725,7920.203579
2632.687278,689.485948,962.267725,8290.306550
2632.687607,689.485948,-370.102971,8956.491898
2632.687936,306.438199,-1036.288319,9400.615463
2632.688266,229.828649,-1554.432478,9030.512492
2632.688595,0.000000,-740.205942,8660.409521
2632.688924,0.000000,444.123565,9104.533087
2632.689254,-383.047749,444.123565,8364.327145
2632.689583,0.000000,-296.082377,9030.512492
2632.689912,-229.828649,-444.123565,9474.636058
2632.690241,-306.438199,592.164754,7994.224174
2632.690571,-1378.971896,222.061783,9770.718434
2632.690900,229.828649,-0.000000,9474.636058
2632.691229,-995.924147,-1110.308913,9252.574275
2632.691559,-919.314598,-1036.288319,9622.677246
2632.691888,-1072.533697,-296.082377,7920.203579
2632.692217,-766.095498,370.102971,9474.636058
2632.692547,-1072.533697,-370.102971,8586.388927
2632.692876,-306.438199,-592.164754,9474.636058
2632.693205,0.000000,-1258.350101,8956.491898
2632.693534,536.266849,-0.000000,8068.244768
2632.693864,919.314598,-444.123565,9030.512492
2632.694193,306.438199,-518.144159,9104.533087
2632.694522,153.219100,-370.102971,9696.697840
2632.694852,1378.971896,-740.205942,9844.739029
2632.695181,1072.533697,-148.041188,8512.368333
2632.695510,766.095498,518.144159,8734.430116
2632.695839,612.876398,-0.000000,9474.636058
2632.696169,0.000000,-0.000000,9252.574275
2632.696498,383.047749,-296.082377,9252.574275
2632.696827,919.314598,518.144159,8882.471304
2632.697157,-459.657299,148.041188,8660.409521
2632.697486,0.000000,-1184.329507,9104.533087
2632.697815,0.000000,-1850.514855,8512.368333
2632.698144,229.828649,-1332.370696,9474.636058
2632.698474,153.219100,-0.000000,8956.491898
2632.698803,0.000000,-0.000000,8956.491898
2632.699132,-536.266849,296.082377,10436.903782
2632.699462,689.485948,666.185348,9918.759623
2632.699791,1455.581446,-222.061783,8734.430116
2632.700120,1302.362347,1184.329507,8660.409521
2632.700449,1762.019645,1776.494261,7994.224174
2632.700779,1532.190996,-222.061783,9030.512492
2632.701108,1149.143247,-148.041188,9030.512492
2632.701437,1149.143247,-888.247130,8956.491898
2632.701767,1302.362347,222.061783,8956.491898
2632.702096,995.924147,666.185348,8364.327145
2632.702425,0.000000,-370.102971,9104.533087
2632.702755,0.000000,-962.267725,9548.656652
2632.703084,536.266849,-222.061783,9474.636058
2632.703413,383.047749,296.082377,8216.285956
2632.703742,383.047749,444.123565,9252.574275
2632.704072,153.219100,-1036.288319,9178.553681
2632.704401,383.047749,-740.205942,9474.636058
2632.704730,766.095498,-592.164754,9548.656652
2632.705060,459.657299,814.226536,8660.409521
2632.705389,306.438199,1332.370696,9178.553681
2632.705718,0.000000,666.185348,9178.553681
2632.706047,-306.438199,-740.205942,9548.656652
2632.706377,-306.438199,-814.226536,9622.677246
2632.706706,0.000000,-0.000000,8808.450710
2632.707035,0.000000,-222.061783,8808.450710
2632.707365,-1072.533697,-1110.308913,9400.615463
2632.707694,-1225.752797,-2294.638420,10066.800811
2632.708023,-536.266849,-1702.473667,9400.615463
2632.708352,76.609550,-0.000000,9104.533087
2632.708682,-229.828649,-0.000000,8882.471304
2632.709011,-306.438199,-296.082377,9178.553681
2632.709340,-153.219100,-666.185348,9770.718434
2632.709670,229.828649,-148.041188,9400.615463
2632.709999,459.657299,370.102971,8216.285956
2632.710328,766.095498,592.164754,8512.368333
2632.710658,536.266849,444.123565,8660.409521
2632.710987,383.047749,-814.226536,9474.636058
2632.711316,536.266849,-814.226536,8882.471304
2632.711645,612.876398,296.082377,8438.347739
2632.711975,0.000000,296.082377,8734.430116
2632.712304,-229.828649,-148.041188,8808.450710
2632.712633,-153.219100,-888.247130,8882.471304
2632.712963,76.609550,-222.061783,9326.594869
2632.713292,1225.752797,-0.000000,8808.450710
2632.713621,612.876398,-0.000000,8660.409521
2632.713950,-383.047749,-296.082377,8956.491898
2632.714280,842.705048,-1184.329507,9844.739029
2632.714609,995.924147,-962.267725,8808.450710
2632.714938,842.705048,370.102971,8586.388927
2632.715268,1455.581446,222.061783,8808.450710
2632.715597,842.705048,-0.000000,8364.327145
2632.715926,1225.752797,-888.247130,9104.533087
2632.716255,2374.896044,-296.082377,8660.409521
2632.716585,1762.019645,-0.000000,7550.100608
2632.716914,1302.362347,-0.000000,8438.347739
2632.717243,919.314598,-666.185348,8956.491898
2632.717573,306.438199,-1554.432478,9548.656652
2632.717902,383.047749,-740.205942,9474.636058
2632.718231,536.266849,-0.000000,9696.697840
2632.718560,-919.314598,222.061783,9622.677246
2632.718890,-383.047749,-74.020594,9622.677246
2632.719219,0.000000,-888.247130,10066.800811
2632.719548,766.095498,222.061783,9400.615463
2632.719878,612.876398,740.205942,8808.450710
2632.720207,689.485948,296.082377,8882.471304
2632.720536,459.657299,-666.185348,9104.533087
2632.720866,919.314598,-1258.350101,9474.636058
2632.721195,1455.581446,-444.123565,8956.491898
2632.721524,612.876398,296.082377,8512.368333
2632.721853,0.000000,370.102971,8734.430116
2632.722183,0.000000,444.123565,9030.512492
2632.722512,-383.047749,-444.123565,9252.574275
2632.722841,-383.047749,-0.000000,9178.553681
2632.723171,536.266849,148.041188,8438.347739
2632.723500,-229.828649,-0.000000,9252.574275
2632.723829,-689.485948,-592.164754,8882.471304
2632.724158,-536.266849,-1702.473667,9770.718434
2632.724488,-995.924147,-666.185348,9548.656652
2632.724817,-766.095498,222.061783,8882.471304
2632.725146,229.828649,222.061783,8882.471304
2632.725476,-766.095498,592.164754,8956.491898
2632.725805,-153.219100,-296.082377,9770.718434
2632.726134,76.609550,-222.061783,8882.471304
2632.726463,459.657299,296.082377,8586.388927
2632.726793,306.438199,-0.000000,8364.327145
2632.727122,612.876398,-1036.288319,9400.615463
2632.727451,76.609550,-1924.535449,9622.677246
2632.727781,306.438199,370.102971,8364.327145
2632.728110,1072.533697,296.082377,8882.471304
2632.728439,919.314598,592.164754,8512.368333
2632.728769,536.266849,370.102971,8882.471304
2632.729098,459.657299,-0.000000,9252.574275
2632.729427,459.657299,-0.000000,8364.327145
2632.729756,689.485948,370.102971,8808.450710
2632.730086,229.828649,148.041188,9622.677246
2632.730415,-306.438199,-1480.411884,9770.718434
2632.730744,-459.657299,-1258.350101,9770.718434
2632.731074,-229.828649,-518.144159,9474.636058
2632.731403,0.000000,592.164754,9548.656652
2632.731732,-459.657299,888.247130,8660.409521
2632.732061,0.000000,296.082377,8808.450710
2632.732391,612.876398,-740.205942,9474.636058
2632.732720,612.876398,1480.411884,8808.450710
2632.733049,1378.971896,814.226536,7994.224174
2632.733379,995.924147,1110.308913,8734.430116
2632.733708,2145.067394,-0.000000,9178.553681
2632.734037,919.314598,-592.164754,9030.512492
2632.734366,2298.286494,222.061783,9326.594869
2632.734696,0.000000,-0.000000,9030.512492
2632.735025,612.876398,814.226536,9178.553681
2632.735354,0.000000,-888.247130,9178.553681
2632.735684,0.000000,-814.226536,9178.553681
2632.736013,536.266849,-296.082377,9030.512492
2632.736342,153.219100,-222.061783,8808.450710
2632.736671,0.000000,-222.061783,8734.430116
2632.737001,229.828649,-1406.391290,9326.594869
2632.737330,153.219100,-1850.514855,9104.533087
2632.737659,0.000000,-518.144159,8660.409521
2632.737989,0.000000,222.061783,8808.450710
2632.738318,-689.485948,222.061783,8956.491898
2632.738647,-842.705048,-1036.288319,9474.636058
2632.738977,-459.657299,-444.123565,9400.615463
2632.739306,0.000000,-296.082377,8586.388927
2632.739635,459.657299,-0.000000,8438.347739
2632.739964,0.000000,-74.020594,8882.471304
2632.740294,0.000000,-1628.453072,9252.574275
2632.740623,383.047749,-1628.453072,9252.574275
2632.740952,1072.533697,-296.082377,9178.553681
2632.741282,995.924147,444.123565,9400.615463
2632.741611,229.828649,370.102971,8808.450710
2632.741940,612.876398,-592.164754,8586.388927
2632.742269,536.266849,-444.123565,9030.512492
2632.742599,306.438199,592.164754,8290.306550
2632.742928,306.438199,444.123565,8068.244768
2632.743257,229.828649,-296.082377,8808.450710
2632.743587,-536.266849,-1258.350101,9474.636058
2632.743916,229.828649,-2442.679609,9474.636058
2632.744245,-306.438199,-962.267725,8438.347739
2632.744574,-153.219100,296.082377,9696.697840
2632.744904,0.000000,370.102971,8882.471304
2632.745233,0.000000,-0.000000,8808.450710
2632.745562,0.000000,-148.041188,9474.636058
2632.745892,1608.800546,888.247130,8364.327145
2632.746221,1762.019645,1554.432478,8364.327145
2632.746550,1225.752797,1036.288319,8290.306550
2632.746880,1225.752797,-0.000000,8956.491898
2632.747209,1685.410096,-888.247130,9844.739029
2632.747538,1378.971896,-0.000000,8364.327145
2632.747867,842.705048,-0.000000,9400.615463
2632.748197,459.657299,-666.185348,9252.574275
2632.748526,536.266849,-666.185348,9326.594869
2632.748855,689.485948,-666.185348,9400.615463
2632.749185,689.485948,-0.000000,8808.450710
2632.749514,383.047749,518.144159,9030.512492
2632.749843,383.047749,-0.000000,8956.491898
2632.750172,76.609550,-1110.308913,9548.656652
2632.750502,153.219100,-1480.411884,10214.842000
2632.750831,689.485948,-518.144159,9326.594869
2632.751160,-459.657299,148.041188,10288.862594
2632.751490,-383.047749,666.185348,9548.656652
2632.751819,-229.828649,-0.000000,9548.656652
2632.752148,459.657299,-0.000000,9474.636058
2632.752477,306.438199,962.267725,8882.471304
2632.752807,919.314598,518.144159,8808.450710
2632.753136,536.266849,-0.000000,9474.636058
2632.753465,689.485948,-1406.391290,9400.615463
2632.753795,383.047749,-1776.494261,9992.780217
2632.754124,612.876398,-1036.288319,9030.512492
2632.754453,383.047749,518.144159,8290.306550
2632.754783,306.438199,1036.288319,8512.368333
2632.755112,-76.609550,-222.061783,8734.430116
2632.755441,229.828649,148.041188,8734.430116
2632.755770,229.828649,222.061783,8882.471304
2632.756100,-229.828649,888.247130,8290.306550
2632.756429,0.000000,-666.185348,8734.430116
2632.756758,-766.095498,-962.267725,9548.656652
2632.757088,-1225.752797,-1480.411884,9696.697840
2632.757417,-766.095498,-666.185348,9474.636058
2632.757746,-995.924147,-296.082377,8438.347739
2632.758075,-919.314598,222.061783,9326.594869
2632.758405,-689.485948,-666.185348,9104.533087
2632.758734,0.000000,-740.205942,9252.574275
2632.759063,459.657299,518.144159,8216.285956
2632.759393,383.047749,148.041188,8364.327145
2632.759722,229.828649,-0.000000,8364.327145
2632.760051,766.095498,-1036.288319,8586.388927
2632.760380,1685.410096,-1036.288319,9178.553681
2632.760710,1072.533697,-0.000000,8364.327145
2632.761039,1532.190996,666.185348,8956.491898
2632.761368,919.314598,222.061783,8808.450710
2632.761698,306.438199,-0.000000,9178.553681
2632.762027,689.485948,-518.144159,9400.615463
2632.762356,612.876398,518.144159,8438.347739
2632.762685,536.266849,370.102971,9030.512492
2632.763015,229.828649,-592.164754,9104.533087
2632.763344,153.219100,-1480.411884,9844.739029
2632.763673,229.828649,-1184.329507,9696.697840
2632.764003,76.609550,-296.082377,8808.450710
2632.764332,76.609550,296.082377,9400.615463
2632.764661,-153.219100,-74.020594,9474.636058
2632.764991,0.000000,-666.185348,9770.718434
2632.765320,153.219100,-962.267725,9770.718434
2632.765649,842.705048,962.267725,8586.388927
2632.765978,919.314598,1036.288319,8882.471304
2632.766308,1378.971896,-296.082377,9400.615463
2632.766637,1685.410096,-888.247130,9326.594869
2632.766966,1991.848295,-74.020594,9252.574275
2632.767296,2298.286494,518.144159,7994.224174
2632.767625,1532.190996,1110.308913,8734.430116
2632.767954,1532.190996,666.185348,8734.430116
2632.768283,1225.752797,592.164754,8660.409521
2632.768613,995.924147,-74.020594,8660.409521
2632.768942,383.047749,222.061783,8364.327145
2632.769271,0.000000,-370.102971,9178.553681
2632.769601,-766.095498,-1184.329507,9474.636058
2632.769930,-536.266849,-1998.556043,10436.903782
2632.770259,-1149.143247,-2294.638420,10362.883188
2632.770588,-1149.143247,-296.082377,9696.697840
2632.770918,-689.485948,370.102971,9400.615463
2632.771247,-995.924147,370.102971,8956.491898
2632.771576,-383.047749,-0.000000,9548.656652
2632.771906,153.219100,592.164754,8956.491898
2632.772235,995.924147,1110.308913,8512.368333
2632.772564,1149.143247,888.247130,8216.285956
2632.772894,995.924147,-0.000000,8438.347739
2632.773223,536.266849,-1110.308913,9474.636058
2632.773552,459.657299,-1406.391290,9548.656652
2632.773881,536.266849,-592.164754,8956.491898
2632.774211,-153.219100,-0.000000,8808.450710
2632.774540,-612.876398,-888.247130,9326.594869
2632.774869,-1225.752797,-1184.329507,9622.677246
2632.775199,-919.314598,-740.205942,9918.759623
2632.775528,-229.828649,74.020594,8734.430116
2632.775857,229.828649,518.144159,8660.409521
2632.776186,229.828649,-0.000000,7846.182985
2632.776516,153.219100,-1110.308913,9474.636058
2632.776845,459.657299,-1036.288319,9770.718434
2632.777174,153.219100,-0.000000,8512.368333
2632.777504,306.438199,740.205942,7105.977043
2632.777833,76.609550,740.205942,8512.368333
2632.778162,0.000000,-518.144159,9400.615463
2632.778491,229.828649,-222.061783,9104.533087
2632.778821,842.705048,592.164754,8290.306550
2632.779150,153.219100,-74.020594,9178.553681
2632.779479,76.609550,-518.144159,9400.615463
2632.779809,383.047749,-1850.514855,9770.718434
2632.780138,536.266849,-1332.370696,9326.594869
2632.780467,1378.971896,-148.041188,8586.388927
2632.780796,995.924147,740.205942,8586.388927
2632.781126,1072.533697,296.082377,8808.450710
2632.781455,459.657299,-0.000000,9326.594869
2632.781784,2068.457845,148.041188,8512.368333
2632.782114,1991.848295,1480.411884,7550.100608
2632.782443,2068.457845,518.144159,8216.285956
2632.782772,1608.800546,-666.185348,8882.471304
2632.783101,842.705048,-1406.391290,9400.615463
2632.783431,229.828649,-1702.473667,9696.697840
2632.783760,-383.047749,-296.082377,9696.697840
2632.784089,-383.047749,-0.000000,9770.718434
2632.784418,-766.095498,-0.000000,9770.718434
2632.784748,-689.485948,-888.247130,10066.800811
2632.785077,-153.219100,-148.041188,9992.780217
2632.785406,1072.533697,1258.350101,9178.553681
2632.785735,383.047749,1480.411884,9326.594869
2632.786065,459.657299,814.226536,8882.471304
2632.786394,766.095498,-1110.308913,9696.697840
2632.786723,1072.533697,-1184.329507,9474.636058
2632.787052,536.266849,1258.350101,8364.327145
2632.787381,612.876398,148.041188,8734.430116
2632.787711,0.000000,-296.082377,8586.388927
2632.788040,229.828649,-148.041188,9548.656652
2632.788369,76.609550,-222.061783,9104.533087
2632.788698,459.657299,444.123565,8216.285956
2632.789028,0.000000,-0.000000,9104.533087
2632.789357,0.000000,-222.061783,9104.533087
2632.789686,-306.438199,-1554.432478,9770.718434
2632.790015,-995.924147,-1406.391290,9252.574275
2632.790345,-536.266849,-0.000000,9104.533087
2632.790674,-766.095498,592.164754,8956.491898
2632.791003,-995.924147,-444.123565,9326.594869
2632.791332,-842.705048,-888.247130,9104.533087
2632.791662,-383.047749,-148.041188,9104.533087
2632.791991,0.000000,518.144159,8734.430116
2632.792320,76.609550,-74.020594,8512.368333
2632.792649,-459.657299,-1184.329507,9104.533087
2632.792978,-383.047749,-1850.514855,10288.862594
2632.793308,1225.752797,-1110.308913,8882.471304
2632.793637,1225.752797,296.082377,8142.265362
2632.793966,995.924147,888.247130,8438.347739
2632.794295,1225.752797,592.164754,9104.533087
2632.794625,1225.752797,518.144159,8882.471304
2632.794954,1762.019645,-0.000000,8216.285956
2632.795283,2298.286494,1036.288319,7846.182985
2632.795612,995.924147,518.144159,8512.368333
2632.795942,0.000000,-370.102971,9696.697840
2632.796271,76.609550,-1998.556043,9918.759623
2632.796600,0.000000,-1406.391290,9474.636058
2632.796929,-306.438199,-592.164754,9326.594869
2632.797258,-306.438199,-222.061783,9400.615463
2632.797588,-919.314598,-222.061783,9918.759623
2632.797917,612.876398,-814.226536,9474.636058
2632.798246,766.095498,-296.082377,8808.450710
2632.798575,612.876398,1110.308913,8882.471304
2632.798905,1302.362347,666.185348,8808.450710
2632.799234,1608.800546,-370.102971,8956.491898
2632.799563,1915.238745,-296.082377,9474.636058
2632.799892,2451.505594,-444.123565,8808.450710
2632.800222,2221.676944,-0.000000,7920.203579
2632.800551,1762.019645,1184.329507,8586.388927
2632.800880,1455.581446,518.144159,8512.368333
2632.801209,1072.533697,296.082377,9030.512492
2632.801538,1149.143247,296.082377,8808.450710
2632.801868,1302.362347,666.185348,8216.285956
2632.802197,536.266849,-0.000000,8364.327145
2632.802526,0.000000,-1554.432478,9030.512492
2632.802855,-306.438199,-1998.556043,9622.677246
2632.803185,-612.876398,-1554.432478,9474.636058
2632.803514,-612.876398,-296.082377,8882.471304
2632.803843,-766.095498,-0.000000,8512.368333
2632.804172,-1072.533697,-518.144159,9252.574275
2632.804502,-459.657299,-962.267725,9474.636058
2632.804831,229.828649,-0.000000,8956.491898
2632.805160,153.219100,1110.308913,8660.409521
2632.805489,0.000000,370.102971,8734.430116
2632.805819,-229.828649,-814.226536,9400.615463
2632.806148,0.000000,-1998.556043,9770.718434
2632.806477,306.438199,-1258.350101,9326.594869
2632.806806,229.828649,370.102971,8882.471304
2632.807135,229.828649,296.082377,8882.471304
2632.807465,153.219100,-222.061783,8956.491898
2632.807794,-383.047749,-814.226536,9474.636058
2632.808123,153.219100,-148.041188,8808.450710
2632.808452,0.000000,-0.000000,8734.430116
2632.808782,-306.438199,-148.041188,8882.471304
2632.809111,-689.485948,-1184.329507,9400.615463
2632.809440,-995.924147,-1702.473667,9918.759623
2632.809769,-842.705048,-1258.350101,9400.615463
2632.810099,76.609550,-0.000000,9104.533087
2632.810428,-842.705048,888.247130,8512.368333
2632.810757,0.000000,148.041188,9696.697840
2632.811086,229.828649,-444.123565,9400.615463
2632.811415,919.314598,296.082377,8438.347739
2632.811745,1378.971896,1406.391290,8216.285956
2632.812074,995.924147,296.082377,8068.244768
2632.812403,612.876398,-592.164754,8660.409521
2632.812732,1302.362347,-1480.411884,9474.636058
2632.813062,842.705048,-888.247130,9104.533087
2632.813391,766.095498,296.082377,8956.491898
2632.813720,536.266849,592.164754,8808.450710
2632.814049,0.000000,-370.102971,9844.739029
2632.814379,0.000000,-888.247130,9992.780217
2632.814708,459.657299,-0.000000,8586.388927
2632.815037,766.095498,1184.329507,9622.677246
2632.815366,1149.143247,888.247130,8586.388927
2632.815695,1302.362347,-518.144159,9030.512492
2632.816025,1532.190996,-666.185348,9178.553681
2632.816354,2374.896044,-0.000000,8660.409521
2632.816683,1838.629195,444.123565,8512.368333
2632.817012,919.314598,666.185348,9104.533087
2632.817342,383.047749,148.041188,9326.594869
2632.817671,536.266849,-814.226536,9548.656652
2632.818000,0.000000,-0.000000,8882.471304
2632.818329,459.657299,740.205942,9030.512492
2632.818659,76.609550,-0.000000,9400.615463
2632.818988,0.000000,-1184.329507,9696.697840
2632.819317,153.219100,-2294.638420,10288.862594
2632.819646,153.219100,-518.144159,9696.697840
2632.819976,-153.219100,296.082377,9400.615463
2632.820305,-153.219100,666.185348,9104.533087
2632.820634,-383.047749,-0.000000,9178.553681
2632.820963,459.657299,-0.000000,9474.636058
2632.821292,919.314598,962.267725,8586.388927
2632.821622,612.876398,1258.350101,8142.265362
2632.821951,919.314598,-148.041188,7624.121203
2632.822280,536.266849,-962.267725,8956.491898
2632.822609,0.000000,-1258.350101,9178.553681
2632.822939,0.000000,-518.144159,8734.430116
2632.823268,-689.485948,370.102971,8586.388927
2632.823597,-1225.752797,296.082377,9252.574275
2632.823926,-536.266849,-370.102971,9696.697840
2632.824256,-1532.190996,-1332.370696,9252.574275
2632.824585,-842.705048,-740.205942,9030.512492
2632.824914,-459.657299,-0.000000,8512.368333
2632.825243,-459.657299,-0.000000,8586.388927
2632.825572,-229.828649,-1184.329507,9400.615463
2632.825902,-153.219100,-2072.576638,10436.903782
2632.826231,0.000000,-1258.350101,8956.491898
2632.826560,689.485948,962.267725,8438.347739
2632.826889,919.314598,814.226536,8586.388927
2632.827219,1072.533697,-0.000000,8216.285956
2632.827548,1149.143247,-0.000000,9104.533087
2632.827877,1149.143247,222.061783,8142.265362
2632.828206,1915.238745,1110.308913,7624.121203
2632.828536,1532.190996,370.102971,8290.306550
2632.828865,459.657299,-222.061783,9400.615463
2632.829194,0.000000,-1628.453072,9770.718434
2632.829523,76.609550,-1110.308913,9474.636058
2632.829852,-459.657299,-0.000000,9400.615463
2632.830182,-1072.533697,-0.000000,9770.718434
2632.830511,-1072.533697,-518.144159,9696.697840
2632.830840,-383.047749,-1406.391290,10214.842000
2632.831169,536.266849,-370.102971,9622.677246
2632.831499,229.828649,518.144159,8808.450710
2632.831828,306.438199,-222.061783,8882.471304
2632.832157,995.924147,-592.164754,9622.677246
2632.832486,1915.238745,-518.144159,9400.615463
2632.832816,1838.629195,-148.041188,8734.430116
2632.833145,2068.457845,518.144159,8660.409521
2632.833474,1991.848295,1110.308913,8734.430116
2632.833803,1762.019645,370.102971,9030.512492
2632.834132,1302.362347,370.102971,9178.553681
2632.834462,995.924147,592.164754,8438.347739
2632.834791,842.705048,666.185348,8364.327145
2632.835120,0.000000,222.061783,9474.636058
2632.835449,-459.657299,-1258.350101,10658.965565
2632.835779,-306.438199,-1480.411884,9622.677246
2632.836108,-1225.752797,-1406.391290,10066.800811
2632.836437,-995.924147,518.144159,10288.862594
2632.836766,-459.657299,-74.020594,8586.388927
2632.837096,-536.266849,-296.082377,8216.285956
2632.837425,153.219100,-370.102971,8956.491898
2632.837754,229.828649,148.041188,8882.471304
2632.838083,0.000000,444.123565,8290.306550
2632.838413,766.095498,-148.041188,8586.388927
2632.838742,689.485948,-1184.329507,8882.471304
2632.839071,383.047749,-1776.494261,9252.574275
2632.839400,612.876398,-592.164754,8808.450710
2632.839729,459.657299,444.123565,8882.471304
2632.840059,612.876398,888.247130,9104.533087
2632.840388,306.438199,-740.205942,9400.615463
2632.840717,229.828649,-518.144159,9104.533087
2632.841046,1149.143247,370.102971,8586.388927
2632.841376,919.314598,592.164754,7698.141797
2632.841705,76.609550,-592.164754,8364.327145
2632.842034,-229.828649,-1406.391290,9474.636058
2632.842363,0.000000,-1258.350101,8882.471304
2632.842693,-536.266849,-962.267725,8660.409521
2632.843022,0.000000,-148.041188,8512.368333
2632.843351,-459.657299,444.123565,9178.553681
2632.843680,-919.314598,-814.226536,9770.718434
2632.844009,76.609550,-962.267725,9252.574275
2632.844339,536.266849,518.144159,8364.327145
2632.844668,76.609550,962.267725,8882.471304
2632.844997,995.924147,-74.020594,9474.636058
2632.845326,459.657299,-0.000000,9622.677246
2632.845656,842.705048,-370.102971,9326.594869
2632.845985,1838.629195,222.061783,8512.368333
2632.846314,995.924147,1406.391290,7994.224174
2632.846643,306.438199,666.185348,8808.450710
2632.846973,76.609550,-814.226536,9474.636058
2632.847302,0.000000,-1036.288319,9252.574275
2632.847631,229.828649,-592.164754,8068.244768
2632.847960,766.095498,-0.000000,9252.574275
2632.848289,-229.828649,-1554.432478,9178.553681
2632.848619,153.219100,-962.267725,9844.739029
2632.848948,612.876398,-1406.391290,9770.718434
2632.849277,459.657299,148.041188,8956.491898
2632.849606,1149.143247,1110.308913,8956.491898
2632.849936,536.266849,814.226536,9326.594869
2632.850265,229.828649,370.102971,9474.636058
2632.850594,1149.143247,148.041188,9104.533087
2632.850923,1225.752797,740.205942,8512.368333
2632.851253,1072.533697,1036.288319,8660.409521
2632.851582,689.485948,148.041188,8586.388927
2632.851911,995.924147,-1850.514855,9844.739029
2632.852240,0.000000,-2072.576638,9770.718434
2632.852570,306.438199,-444.123565,9104.533087
2632.852899,-689.485948,-0.000000,9104.533087
2632.853228,-995.924147,-222.061783,9696.697840
2632.853557,-919.314598,-444.123565,9622.677246
2632.853886,-229.828649,-592.164754,10288.862594
2632.854216,0.000000,444.123565,9104.533087
2632.854545,0.000000,962.267725,8660.409521
2632.854874,766.095498,592.164754,8956.491898
2632.855203,612.876398,-814.226536,9252.574275
2632.855533,459.657299,-592.164754,9030.512492
2632.855862,76.609550,666.185348,8290.306550
2632.856191,76.609550,1110.308913,8660.409521
2632.856520,-1378.971896,370.102971,8882.471304
2632.856850,-536.266849,-1332.370696,9548.656652
2632.857179,-689.485948,-1406.391290,9474.636058
2632.857508,-306.438199,-74.020594,8734.430116
2632.857837,0.000000,-296.082377,8512.368333
2632.858166,-229.828649,-1036.288319,9326.594869
2632.858496,306.438199,-1480.411884,9548.656652
2632.858825,612.876398,-1480.411884,9400.615463
2632.859154,1455.581446,-0.000000,8364.327145
2632.859483,842.705048,1406.391290,8660.409521
2632.859813,919.314598,1258.350101,9178.553681
2632.860142,1225.752797,-0.000000,8956.491898
2632.860471,1608.800546,370.102971,8660.409521
2632.860800,1838.629195,592.164754,7846.182985
2632.861130,1072.533697,962.267725,8734.430116
2632.861459,1072.533697,-666.185348,9548.656652
2632.861788,459.657299,-2072.576638,9474.636058
2632.862117,76.609550,-1702.473667,9474.636058
2632.862446,153.219100,-592.164754,8956.491898
2632.862776,-536.266849,-74.020594,9474.636058
2632.863105,-919.314598,-592.164754,9474.636058
2632.863434,306.438199,-1258.350101,9326.594869
2632.863763,536.266849,-74.020594,9178.553681
2632.864093,766.095498,666.185348,9030.512492
2632.864422,1532.190996,1036.288319,8512.368333
2632.864751,1225.752797,666.185348,8882.471304
2632.865080,1915.238745,-370.102971,9474.636058
2632.865410,1915.238745,-296.082377,9178.553681
2632.865739,1762.019645,518.144159,8512.368333
2632.866068,919.314598,592.164754,8438.347739
2632.866397,689.485948,370.102971,9178.553681
2632.866727,0.000000,-444.123565,9326.594869
2632.867056,383.047749,-518.144159,9474.636058
2632.867385,153.219100,296.082377,8438.347739
2632.867714,-536.266849,444.123565,8882.471304
2632.868043,-229.828649,-296.082377,9548.656652
2632.868373,-383.047749,-1776.494261,9622.677246
2632.868702,-306.438199,-1258.350101,9252.574275
2632.869031,0.000000,-222.061783,8808.450710
2632.869360,-229.828649,814.226536,9252.574275
2632.869690,-153.219100,592.164754,8808.450710
2632.870019,229.828649,-74.020594,9548.656652
2632.870348,459.657299,222.061783,9030.512492
2632.870677,612.876398,740.205942,8068.244768
2632.871007,153.219100,370.102971,8882.471304
2632.871336,536.266849,-814.226536,9104.533087
2632.871665,306.438199,-1554.432478,8882.471304
2632.871994,-229.828649,-1332.370696,9030.512492
2632.872323,-229.828649,-444.123565,9252.574275
2632.872653,-612.876398,296.082377,8882.471304
2632.872982,-766.095498,-1036.288319,8586.388927
2632.873311,-842.705048,-1258.350101,9770.718434
2632.873640,-153.219100,-370.102971,9548.656652
2632.873970,0.000000,296.082377,8512.368333
2632.874299,0.000000,-0.000000,8808.450710
2632.874628,-306.438199,-296.082377,9326.594869
2632.874957,0.000000,-1258.350101,10510.924376
2632.875287,612.876398,-1036.288319,9622.677246
2632.875616,229.828649,962.267725,9030.512492
2632.875945,383.047749,1110.308913,8660.409521
2632.876274,229.828649,518.144159,9030.512492
2632.876603,383.047749,-592.164754,9696.697840
2632.876933,1072.533697,-0.000000,8216.285956
2632.877262,1225.752797,444.123565,7994.224174
2632.877591,1532.190996,740.205942,8142.265362
2632.877920,766.095498,370.102971,8882.471304
2632.878250,919.314598,-1332.370696,9548.656652
2632.878579,995.924147,-1332.370696,9030.512492
2632.878908,842.705048,-0.000000,8808.450710
2632.879237,153.219100,962.267725,9104.533087
2632.879567,0.000000,-0.000000,10066.800811
2632.879896,1455.581446,-592.164754,10436.903782
2632.880225,689.485948,-518.144159,9474.636058
2632.880554,1149.143247,814.226536,9104.533087
2632.880884,842.705048,222.061783,7476.080014
2632.881213,995.924147,-0.000000,8290.306550
2632.881542,1378.971896,-1406.391290,9474.636058
2632.881871,1608.800546,-1332.370696,9178.553681
2632.882200,995.924147,-222.061783,8586.388927
2632.882530,842.705048,518.144159,8882.471304
2632.882859,0.000000,-0.000000,9178.553681
2632.883188,229.828649,-962.267725,9992.780217
2632.883517,459.657299,-592.164754,9474.636058
2632.883847,766.095498,962.267725,8882.471304
2632.884176,842.705048,-0.000000,8882.471304
2632.884505,459.657299,-296.082377,8882.471304
2632.884834,689.485948,-888.247130,10066.800811
2632.885163,919.314598,-814.226536,9696.697840
2632.885492,612.876398,-370.102971,8956.491898
2632.885821,76.609550,-222.061783,9548.656652
2632.886151,-459.657299,-222.061783,9474.636058
2632.886480,-842.705048,-592.164754,9622.677246
2632.886809,-229.828649,-222.061783,9178.553681
2632.887138,-153.219100,370.102971,8068.244768
2632.887467,76.609550,518.144159,8660.409521
2632.887796,-383.047749,-962.267725,8956.491898
2632.888125,0.000000,-1258.350101,9474.636058
2632.888454,0.000000,-740.205942,9326.594869
2632.888783,383.047749,370.102971,8586.388927
2632.889112,-153.219100,1036.288319,8882.471304
2632.889441,-459.657299,444.123565,9326.594869
2632.889770,-919.314598,-74.020594,8882.471304
2632.890099,-306.438199,-0.000000,9474.636058
2632.890428,-383.047749,296.082377,8142.265362
2632.890757,-459.657299,666.185348,8512.368333
2632.891086,-766.095498,-1554.432478,9252.574275
2632.891416,-383.047749,-2072.576638,8956.491898
2632.891745,306.438199,-370.102971,8734.430116
2632.892074,-153.219100,-0.000000,8808.450710
2632.892403,-995.924147,518.144159,8808.450710
2632.892732,-306.438199,-518.144159,9400.615463
2632.893061,229.828649,-518.144159,9030.512492
2632.893390,1149.143247,-0.000000,8290.306550
2632.893719,1225.752797,888.247130,8216.285956
2632.894048,1225.752797,962.267725,8142.265362
2632.894377,919.314598,-518.144159,8882.471304
2632.894706,689.485948,-1406.391290,9696.697840
2632.895035,842.705048,-0.000000,8586.388927
2632.895364,153.219100,518.144159,9104.533087
2632.895693,-842.705048,-74.020594,9474.636058
2632.896022,-995.924147,-444.123565,9992.780217
2632.896351,-383.047749,-1332.370696,10214.842000
2632.896680,153.219100,-888.247130,9400.615463
2632.897010,383.047749,-0.000000,9030.512492
2632.897339,766.095498,-0.000000,9104.533087
2632.897668,1608.800546,-740.205942,9178.553681
2632.897997,2145.067394,-814.226536,9548.656652
2632.898326,2298.286494,-74.020594,8734.430116
2632.898655,1991.848295,1554.432478,8586.388927
2632.898984,1838.629195,1628.453072,9474.636058
2632.899313,1762.019645,592.164754,8956.491898
2632.899642,1455.581446,-0.000000,9104.533087
2632.899971,1762.019645,-0.000000,9252.574275
2632.900300,995.924147,962.267725,8438.347739
2632.900629,229.828649,222.061783,9474.636058
2632.900958,0.000000,-1332.370696,9696.697840
2632.901287,-459.657299,-1554.432478,9992.780217
2632.901616,-766.095498,-1480.411884,9622.677246
2632.901945,-459.657299,-0.000000,9104.533087
2632.902275,-1149.143247,370.102971,9178.553681
2632.902604,-689.485948,-666.185348,9178.553681
2632.902933,0.000000,-814.226536,9474.636058
2632.903262,0.000000,-148.041188,9030.512492
2632.903591,383.047749,370.102971,8956.491898
2632.903920,1378.971896,-0.000000,8512.368333
2632.904249,1149.143247,-666.185348,8956.491898
2632.904578,1455.581446,-740.205942,9178.553681
2632.904907,1302.362347,-518.144159,8808.450710
2632.905236,919.314598,814.226536,8216.285956
2632.905565,766.095498,592.164754,8512.368333
2632.905894,-383.047749,-740.205942,9474.636058
2632.906223,0.000000,-666.185348,9252.574275
2632.906552,-459.657299,-296.082377,9326.594869
2632.906881,0.000000,-370.102971,8586.388927
2632.907210,-919.314598,-444.123565,8808.450710
2632.907539,-995.924147,-1776.494261,9548.656652
2632.907869,-766.095498,-1998.556043,10066.800811
2632.908198,-383.047749,-1110.308913,9400.615463
2632.908527,-383.047749,148.041188,8808.450710
2632.908856,-383.047749,444.123565,8882.471304
2632.909185,-229.828649,-74.020594,9400.615463
2632.909514,459.657299,-74.020594,9104.533087
2632.909843,612.876398,-0.000000,9252.574275
2632.910172,1455.581446,592.164754,7698.141797
2632.910501,1685.410096,666.185348,7920.203579
2632.910830,1149.143247,-0.000000,8660.409521
2632.911159,1762.019645,-1036.288319,9400.615463
2632.911488,1302.362347,-0.000000,8438.347739
2632.911817,1149.143247,888.247130,8068.244768
2632.912146,766.095498,370.102971,9104.533087
2632.912475,0.000000,-888.247130,9252.574275
2632.912804,153.219100,-888.247130,9474.636058
2632.913134,919.314598,-518.144159,8586.388927
2632.913463,306.438199,444.123565,8660.409521
2632.913792,153.219100,222.061783,8956.491898
2632.914121,0.000000,-740.205942,9992.780217
2632.914450,229.828649,-1184.329507,9918.759623
2632.914779,536.266849,-370.102971,9030.512492
2632.915108,76.609550,444.123565,9104.533087
2632.915437,306.438199,592.164754,8882.471304
2632.915766,383.047749,-0.000000,9770.718434
2632.916095,536.266849,-0.000000,9178.553681
2632.916424,919.314598,518.144159,8734.430116
2632.916753,1302.362347,888.247130,8438.347739
2632.917082,1455.581446,444.123565,8290.306550
2632.917411,1225.752797,-740.205942,9918.759623
2632.917740,766.095498,-1480.411884,10214.842000
2632.918069,766.095498,-296.082377,9474.636058
2632.918398,0.000000,814.226536,9400.615463
2632.918728,76.609550,814.226536,9400.615463
2632.919057,229.828649,444.123565,9844.739029
2632.919386,153.219100,-0.000000,9844.739029
2632.919715,612.876398,518.144159,8734.430116
2632.920044,383.047749,740.205942,8290.306550
2632.920373,229.828649,-0.000000,8512.368333
2632.920702,0.000000,-962.267725,9400.615463
2632.921031,-689.485948,-1998.556043,9474.636058
2632.921360,-689.485948,-814.226536,9104.533087
2632.921689,-612.876398,-74.020594,8512.368333
2632.922018,-919.314598,370.102971,7698.141797
2632.922347,-1225.752797,-1998.556043,9326.594869
2632.922676,-842.705048,-1036.288319,9918.759623
2632.923005,-306.438199,-814.226536,8142.265362
2632.923334,-306.438199,148.041188,8216.285956
2632.923663,459.657299,-0.000000,9548.656652
2632.923993,-153.219100,-1110.308913,9400.615463
2632.924322,919.314598,-592.164754,9104.533087
2632.924651,1455.581446,148.041188,8216.285956
2632.924980,1302.362347,666.185348,8364.327145
2632.925309,689.485948,740.205942,8438.347739
2632.925638,459.657299,-222.061783,8438.347739
2632.925967,229.828649,-592.164754,9104.533087
2632.926296,919.314598,-666.185348,8364.327145
2632.926625,459.657299,222.061783,7920.203579
2632.926954,689.485948,-888.247130,8808.450710
2632.927283,229.828649,-1406.391290,8956.491898
2632.927612,0.000000,-1850.514855,9400.615463
2632.927941,383.047749,-740.205942,8808.450710
2632.928270,-229.828649,296.082377,9252.574275
2632.928599,-612.876398,592.164754,9770.718434
2632.928928,0.000000,-1110.308913,9474.636058
2632.929257,306.438199,-1036.288319,9918.759623
2632.929587,1455.581446,296.082377,9104.533087
2632.929916,1149.143247,962.267725,8586.388927
2632.930245,1149.143247,-0.000000,8734.430116
2632.930574,1762.019645,-740.205942,9474.636058
2632.930903,1685.410096,-370.102971,9178.553681
2632.931232,1685.410096,-296.082377,8882.471304
2632.931561,1225.752797,962.267725,8660.409521
2632.931890,612.876398,592.164754,9252.574275
2632.932219,76.609550,-592.164754,9918.759623
2632.932548,229.828649,-296.082377,9252.574275
2632.932877,459.657299,592.164754,8290.306550
2632.933206,306.438199,740.205942,8808.450710
2632.933535,0.000000,222.061783,8808.450710
2632.933864,0.000000,-148.041188,9844.739029
2632.934193,76.609550,-1480.411884,10658.965565
2632.934522,0.000000,-0.000000,8512.368333
2632.934852,-689.485948,1036.288319,8586.388927
2632.935181,-689.485948,370.102971,9474.636058
2632.935510,-766.095498,-962.267725,9992.780217
2632.935839,-153.219100,-0.000000,9622.677246
2632.936168,1072.533697,-0.000000,8512.368333
2632.936497,536.266849,296.082377,8512.368333
2632.936826,229.828649,-0.000000,8512.368333
2632.937155,383.047749,-1036.288319,9252.574275
2632.937484,459.657299,-1258.350101,9178.553681
2632.937813,612.876398,296.082377,8512.368333
2632.938142,306.438199,740.205942,8438.347739
2632.938471,383.047749,-0.000000,8364.327145
2632.938800,0.000000,222.061783,9178.553681
2632.939129,306.438199,-1110.308913,9548.656652
2632.939458,536.266849,-0.000000,8808.450710
2632.939787,153.219100,666.185348,8290.306550
2632.940116,0.000000,-370.102971,8956.491898
2632.940446,-1225.752797,-1628.453072,9696.697840
2632.940775,153.219100,-1702.473667,10288.862594
2632.941104,0.000000,-666.185348,8808.450710
2632.941433,-612.876398,222.061783,8734.430116
2632.941762,-766.095498,-0.000000,9400.615463
2632.942091,-383.047749,-0.000000,9178.553681
2632.942420,0.000000,-370.102971,9400.615463
2632.942749,536.266849,592.164754,8734.430116
2632.943078,459.657299,740.205942,8586.388927
2632.943407,459.657299,-0.000000,9252.574275
2632.943736,995.924147,-1036.288319,9326.594869
2632.944065,1149.143247,-740.205942,8956.491898
2632.944394,1302.362347,-74.020594,8734.430116
2632.944723,689.485948,1036.288319,8512.368333
2632.945052,919.314598,370.102971,9104.533087
2632.945381,995.924147,-666.185348,9178.553681
2632.945711,995.924147,-370.102971,9104.533087
2632.946040,1225.752797,518.144159,8882.471304
2632.946369,995.924147,888.247130,8216.285956
2632.946698,1302.362347,-222.061783,9178.553681
2632.947027,766.095498,-814.226536,9474.636058
2632.947356,1149.143247,-1406.391290,9474.636058
2632.947685,612.876398,-148.041188,9326.594869
2632.948014,0.000000,888.247130,9252.574275
2632.948343,0.000000,370.102971,9474.636058
2632.948672,-689.485948,-592.164754,9548.656652
2632.949001,76.609550,-370.102971,9992.780217
2632.949330,306.438199,222.061783,8882.471304
2632.949659,612.876398,444.123565,8808.450710
2632.949988,229.828649,-814.226536,9178.553681
2632.950317,536.266849,-1332.370696,9474.636058
2632.950646,842.705048,-444.123565,8808.450710
2632.950975,1072.533697,222.061783,9030.512492
2632.951305,995.924147,1332.370696,8882.471304
2632.951634,689.485948,740.205942,8956.491898
2632.951963,919.314598,-666.185348,9400.615463
2632.952292,76.609550,-0.000000,8586.388927
2632.952621,919.314598,-0.000000,8660.409521
2632.952950,153.219100,370.102971,8438.347739
2632.953279,-766.095498,-592.164754,9474.636058
2632.953608,-842.705048,-2146.597232,9918.759623
2632.953937,-1225.752797,-1998.556043,9622.677246
2632.954266,-1455.581446,222.061783,9104.533087
2632.954595,-1762.019645,-0.000000,8734.430116
2632.954924,-1455.581446,296.082377,9474.636058
2632.955253,-1762.019645,-1258.350101,9992.780217
2632.955582,-536.266849,-370.102971,9252.574275
2632.955911,0.000000,-0.000000,8068.244768
2632.956240,766.095498,222.061783,7920.203579
2632.956570,1072.533697,296.082377,8660.409521
2632.956899,1149.143247,-1406.391290,9474.636058
2632.957228,1302.362347,-444.123565,8364.327145
2632.957557,1455.581446,296.082377,8290.306550
2632.957886,1378.971896,1406.391290,7994.224174
2632.958215,1149.143247,814.226536,8512.368333
2632.958544,995.924147,-0.000000,9030.512492
2632.958873,1149.143247,-370.102971,8660.409521
2632.959202,1225.752797,740.205942,8512.368333
2632.959531,1149.143247,444.123565,8438.347739
2632.959860,0.000000,-222.061783,9178.553681
2632.960189,0.000000,-1850.514855,10140.821405
2632.960518,-153.219100,-1332.370696,9400.615463
2632.960847,0.000000,-666.185348,9030.512492
2632.961176,-306.438199,666.185348,9178.553681
2632.961505,-766.095498,-0.000000,9548.656652
2632.961834,0.000000,-1110.308913,9696.697840
2632.962164,536.266849,-814.226536,9696.697840
2632.962493,1149.143247,296.082377,9030.512492
2632.962822,1455.581446,740.205942,8808.450710
2632.963151,1225.752797,222.061783,9326.594869
2632.963480,1532.190996,-518.144159,9918.759623
2632.963809,1915.238745,-222.061783,9622.677246
2632.964138,1608.800546,1036.288319,8882.471304
2632.964467,842.705048,1110.308913,9178.553681
2632.964796,306.438199,592.164754,9770.718434
2632.965125,689.485948,-370.102971,9622.677246
2632.965454,1072.533697,-74.020594,9548.656652
2632.965783,1378.971896,592.164754,8068.244768
2632.966112,459.657299,-0.000000,8660.409521
2632.966441,1149.143247,-814.226536,9030.512492
2632.966770,536.266849,-1184.329507,8438.347739
2632.967099,689.485948,-814.226536,9400.615463
2632.967429,229.828649,444.123565,8512.368333
2632.967758,0.000000,1184.329507,8956.491898
2632.968087,-383.047749,666.185348,8956.491898
2632.968416,0.000000,-222.061783,9474.636058
2632.968745,383.047749,-888.247130,9252.574275
2632.969074,-229.828649,222.061783,8216.285956
2632.969403,-536.266849,148.041188,8660.409521
2632.969732,-612.876398,-444.123565,8882.471304
2632.970061,-383.047749,-1702.473667,9400.615463
2632.970390,229.828649,-1110.308913,8882.471304
2632.970719,0.000000,-370.102971,8660.409521
2632.971048,-229.828649,-0.000000,8882.471304
2632.971377,153.219100,-592.164754,9030.512492
2632.971706,229.828649,-962.267725,9178.553681
2632.972035,919.314598,-0.000000,7624.121203
2632.972364,842.705048,370.102971,8438.347739
2632.972693,919.314598,-0.000000,8364.327145
2632.973023,612.876398,-0.000000,9104.533087
2632.973352,-306.438199,-2220.617826,9696.697840
2632.973681,-536.266849,-1628.453072,8438.347739
2632.974010,-383.047749,222.061783,9474.636058
2632.974339,-1302.362347,-0.000000,8956.491898
2632.974668,-1532.190996,-148.041188,9770.718434
2632.974997,-1302.362347,-2072.576638,10362.883188
2632.975326,-919.314598,-592.164754,9178.553681
2632.975655,229.828649,-222.061783,8882.471304
2632.975984,153.219100,-148.041188,9178.553681
2632.976313,0.000000,-296.082377,9252.574275
2632.976642,1302.362347,-1184.329507,9770.718434
2632.976971,995.924147,-444.123565,8660.409521
2632.977300,2068.457845,962.267725,8882.471304
2632.977629,2068.457845,1850.514855,8660.409521
2632.977958,1685.410096,592.164754,9104.533087
2632.978287,1915.238745,-370.102971,9622.677246
2632.978617,2068.457845,518.144159,8956.491898
2632.978946,1532.190996,1332.370696,8734.430116
2632.979275,1149.143247,1258.350101,8216.285956
2632.979604,689.485948,-222.061783,9178.553681
2632.979933,306.438199,-1258.350101,9844.739029
2632.980262,766.095498,-1258.350101,8882.471304
2632.980591,-229.828649,-0.000000,8956.491898
2632.980920,-612.876398,444.123565,9400.615463
2632.981249,-612.876398,-0.000000,9474.636058
2632.981578,-689.485948,-666.185348,9474.636058
2632.981907,306.438199,-962.267725,9622.677246
2632.982236,536.266849,-222.061783,8734.430116
2632.982565,766.095498,444.123565,8956.491898
2632.982894,1149.143247,-888.247130,9474.636058
2632.983223,1072.533697,-962.267725,9474.636058
2632.983552,842.705048,-0.000000,9104.533087
2632.983881,919.314598,888.247130,8956.491898
2632.984210,689.485948,1480.411884,8882.471304
2632.984539,383.047749,592.164754,9030.512492
2632.984868,536.266849,-814.226536,9326.594869
2632.985197,459.657299,-518.144159,9252.574275
2632.985526,76.609550,370.102971,8586.388927
2632.985855,-306.438199,-0.000000,9104.533087
2632.986184,-689.485948,-1184.329507,9030.512492
2632.986513,-995.924147,-2072.576638,10140.821405
2632.986842,-1149.143247,-1480.411884,9770.718434
2632.987171,-689.485948,-592.164754,9178.553681
2632.987500,-1072.533697,-0.000000,9104.533087
2632.987829,-842.705048,-444.123565,9400.615463
2632.988158,-766.095498,-1406.391290,10288.862594
2632.988487,0.000000,-296.082377,9252.574275
2632.988816,766.095498,740.205942,9178.553681
2632.989145,995.924147,592.164754,7772.162391
2632.989474,919.314598,-370.102971,9030.512492
2632.989803,536.266849,-814.226536,9474.636058
2632.990132,919.314598,-592.164754,8956.491898
2632.990461,995.924147,888.247130,8216.285956
2632.990790,153.219100,814.226536,8512.368333
2632.991119,76.609550,-0.000000,8808.450710
2632.991448,536.266849,-1036.288319,8808.450710
2632.991777,689.485948,148.041188,8290.306550
2632.992106,1149.143247,-222.061783,8660.409521
2632.992435,612.876398,-0.000000,8734.430116
2632.992764,153.219100,-962.267725,9178.553681
2632.993093,766.095498,-1110.308913,9548.656652
2632.993422,612.876398,-444.123565,8808.450710
2632.993751,306.438199,592.164754,9326.594869
2632.994080,689.485948,814.226536,9548.656652
2632.994409,383.047749,296.082377,9844.739029
2632.994738,766.095498,-814.226536,9474.636058
2632.995067,1149.143247,444.123565,8438.347739
2632.995396,1225.752797,592.164754,8586.388927
2632.995725,536.266849,-74.020594,8808.450710
2632.996054,689.485948,-1184.329507,9622.677246
2632.996383,1072.533697,-222.061783,9252.574275
2632.996712,919.314598,-518.144159,9178.553681
2632.997041,612.876398,-0.000000,8734.430116
2632.997370,383.047749,148.041188,9252.574275
2632.997699,306.438199,-0.000000,9178.553681
2632.998028,1072.533697,-1036.288319,9178.553681
2632.998357,1225.752797,444.123565,8734.430116
2632.998686,1072.533697,518.144159,8956.491898
2632.999015,919.314598,740.205942,9104.533087
2632.999344,459.657299,-444.123565,9326.594869
2632.999673,536.266849,-444.123565,9400.615463
2633.000002,612.876398,-0.000000,9104.533087
2633.000331,0.000000,1554.432478,8808.450710
2633.000660,-306.438199,370.102971,9252.574275
2633.000989,-842.705048,-740.205942,9474.636058
2633.001318,-459.657299,-1332.370696,9252.574275
2633.001647,-612.876398,-518.144159,9104.533087
2633.001976,-229.828649,148.041188,8216.285956
2633.002305,-459.657299,-296.082377,9104.533087
2633.002634,-459.657299,-888.247130,9696.697840
2633.002963,-689.485948,-1776.494261,10140.821405
2633.003292,-306.438199,-1924.535449,9548.656652
2633.003621,-536.266849,592.164754,8586.388927
2633.003950,-383.047749,740.205942,9696.697840
2633.004279,-612.876398,-1036.288319,10362.883188
2633.004608,229.828649,-0.000000,9400.615463
2633.004937,1302.362347,296.082377,8512.368333
2633.005266,1072.533697,1110.308913,7550.100608
2633.005595,1302.362347,666.185348,8216.285956
2633.005924,1608.800546,-666.185348,9252.574275
2633.006253,459.657299,-1406.391290,8216.285956
2633.006582,306.438199,-740.205942,8586.388927
2633.006911,-153.219100,-370.102971,8364.327145
2633.007240,-612.876398,-148.041188,8808.450710
2633.007569,-689.485948,-1110.308913,9622.677246
2633.007898,-689.485948,-1258.350101,9548.656652
2633.008227,-459.657299,-518.144159,9474.636058
2633.008556,-153.219100,-222.061783,9474.636058
2633.008885,-153.219100,-0.000000,8808.450710
2633.009214,76.609550,-814.226536,9770.718434
2633.009543,459.657299,-1036.288319,9474.636058
2633.009872,1072.533697,-74.020594,8660.409521
2633.010201,612.876398,592.164754,8734.430116
2633.010530,383.047749,518.144159,8956.491898
2633.010859,1225.752797,-222.061783,8956.491898
2633.011188,1608.800546,-148.041188,8068.244768
2633.011517,1685.410096,666.185348,8734.430116
2633.011846,1991.848295,1258.350101,7624.121203
2633.012175,1838.629195,518.144159,7772.162391
2633.012504,1455.581446,-518.144159,8808.450710
2633.012833,2068.457845,-370.102971,8956.491898
2633.013162,1149.143247,-370.102971,8512.368333
2633.013491,-536.266849,1184.329507,9104.533087
2633.013820,-383.047749,518.144159,9474.636058
2633.014149,-995.924147,-740.205942,10140.821405
2633.014478,-689.485948,-666.185348,9696.697840
2633.014807,0.000000,-296.082377,9770.718434
2633.015136,0.000000,-592.164754,9474.636058
2633.015465,-612.876398,-74.020594,9474.636058
2633.015794,766.095498,-2368.659014,9992.780217
2633.016123,459.657299,-1184.329507,9104.533087
2633.016452,1455.581446,222.061783,8808.450710
2633.016781,1072.533697,1110.308913,9030.512492
2633.017110,1072.533697,1554.432478,9030.512492
2633.017439,1302.362347,592.164754,9400.615463
2633.017768,1532.190996,-0.000000,9030.512492
2633.018097,1685.410096,666.185348,9326.594869
2633.018426,766.095498,592.164754,8734.430116
2633.018755,-383.047749,222.061783,9474.636058
2633.019084,-612.876398,-1258.350101,10214.842000
2633.019413,-1302.362347,-2220.617826,10214.842000
2633.019742,-1685.410096,-888.247130,9622.677246
2633.020071,-1225.752797,-666.185348,10288.862594
2633.020400,-1455.581446,-740.205942,9474.636058
2633.020729,-1072.533697,-962.267725,9474.636058
2633.021058,0.000000,-814.226536,9474.636058
2633.021387,536.266849,-0.000000,8512.368333
2633.021716,1455.581446,888.247130,8290.306550
2633.022045,1532.190996,296.082377,8290.306550
2633.022374,1608.800546,-444.123565,9030.512492
2633.022703,1225.752797,-888.247130,8808.450710
2633.023032,1685.410096,370.102971,8216.285956
2633.023361,842.705048,1406.391290,7994.224174
2633.023690,306.438199,1036.288319,8660.409521
2633.024019,0.000000,-518.144159,9178.553681
2633.024348,0.000000,-1184.329507,9178.553681
2633.024677,459.657299,-740.205942,8586.388927
2633.025006,-306.438199,-296.082377,8586.388927
2633.025335,-383.047749,-1332.370696,9178.553681
2633.025664,-229.828649,-1258.350101,8882.471304
2633.025993,383.047749,-1776.494261,9030.512492
2633.026322,536.266849,-0.000000,8364.327145
2633.026651,536.266849,296.082377,8882.471304
2633.026980,229.828649,444.123565,8660.409521
2633.027309,536.266849,148.041188,8956.491898
2633.027638,1455.581446,-222.061783,9400.615463
2633.027967,1149.143247,222.061783,8512.368333
2633.028296,1149.143247,370.102971,9326.594869
2633.028625,1608.800546,-222.061783,8660.409521
2633.028954,995.924147,-740.205942,9474.636058
2633.029283,383.047749,-1184.329507,10362.883188
2633.029612,1455.581446,-370.102971,9400.615463
2633.029941,612.876398,888.247130,9474.636058
2633.030270,383.047749,222.061783,9400.615463
2633.030599,459.657299,-888.247130,9696.697840
2633.030928,919.314598,-296.082377,9104.533087
2633.031257,1378.971896,518.144159,9030.512492
2633.031586,1149.143247,740.205942,8734.430116
2633.031915,536.266849,-0.000000,8956.491898
2633.032244,919.314598,-148.041188,9770.718434
2633.032573,842.705048,-592.164754,9252.574275
2633.032902,76.609550,-74.020594,9030.512492
2633.033231,-383.047749,1554.432478,8956.491898
2633.033560,-536.266849,592.164754,9844.739029
2633.033889,-842.705048,-592.164754,9474.636058
2633.034218,-383.047749,-740.205942,10362.883188
2633.034547,0.000000,148.041188,9326.594869
2633.034876,-306.438199,148.041188,9030.512492
2633.035205,0.000000,-370.102971,8882.471304
2633.035534,0.000000,-740.205942,9178.553681
2633.035863,-459.657299,-666.185348,9178.553681
2633.036192,766.095498,518.144159,8808.450710
2633.036521,153.219100,1110.308913,8142.265362
2633.036850,0.000000,-0.000000,8586.388927
2633.037179,153.219100,-740.205942,8882.471304
2633.037508,76.609550,-444.123565,9104.533087
2633.037837,0.000000,-296.082377,8364.327145
2633.038166,229.828649,-0.000000,8660.409521
2633.038495,-536.266849,-1036.288319,8956.491898
2633.038824,-995.924147,-1628.453072,9696.697840
2633.039153,0.000000,-2294.638420,9474.636058
2633.039482,-612.876398,-444.123565,8808.450710
2633.039811,-612.876398,-222.061783,8586.388927
2633.040140,-766.095498,-74.020594,9178.553681
2633.040469,-536.266849,-1628.453072,9178.553681
2633.040798,306.438199,-1184.329507,9400.615463
2633.041127,459.657299,-74.020594,8438.347739
2633.041456,1302.362347,148.041188,7624.121203
2633.041785,536.266849,444.123565,8290.306550
2633.042114,1149.143247,-1110.308913,9548.656652
2633.042443,1149.143247,-296.082377,8956.491898
2633.042772,842.705048,518.144159,8512.368333
2633.043101,536.266849,370.102971,8734.430116
2633.043430,383.047749,-0.000000,8808.450710
2633.043759,0.000000,-592.164754,9622.677246
2633.044088,842.705048,-296.082377,9474.636058
2633.044417,612.876398,-0.000000,8956.491898
2633.044746,536.266849,592.164754,8660.409521
2633.045075,842.705048,-0.000000,8808.450710
2633.045404,1225.752797,-1036.288319,9992.780217
2633.045733,919.314598,-888.247130,9400.615463
2633.046062,1302.362347,814.226536,9030.512492
2633.046391,766.095498,740.205942,8734.430116
2633.046720,383.047749,740.205942,8586.388927
2633.047049,383.047749,-0.000000,9548.656652
2633.047378,995.924147,-370.102971,9474.636058
2633.047707,383.047749,592.164754,8734.430116
2633.048036,842.705048,-0.000000,9104.533087
2633.048365,1455.581446,-74.020594,9030.512492
2633.048694,536.266849,-814.226536,9548.656652
2633.049023,459.657299,-962.267725,9696.697840
2633.049352,0.000000,-0.000000,9178.553681
2633.049681,0.000000,592.164754,9104.533087
2633.050010,-612.876398,222.061783,9474.636058
2633.050339,689.485948,-666.185348,9696.697840
2633.050668,76.609550,-814.226536,9326.594869
2633.050997,612.876398,222.061783,8290.306550
2633.051326,689.485948,592.164754,8438.347739
2633.051655,0.000000,-296.082377,8512.368333
2633.051984,0.000000,-888.247130,9696.697840
2633.052313,76.609550,-740.205942,9770.718434
2633.052642,-306.438199,-222.061783,9326.594869
2633.052971,-459.657299,370.102971,8290.306550
2633.053300,-842.705048,-444.123565,9696.697840
2633.053629,-995.924147,-444.123565,10140.821405
2633.053958,-689.485948,-148.041188,8808.450710
2633.054287,-383.047749,-148.041188,9104.533087
2633.054616,0.000000,-222.061783,8586.388927
2633.054945,153.219100,-1036.288319,8216.285956
2633.055274,995.924147,-1406.391290,9622.677246
2633.055603,995.924147,-1110.308913,8808.450710
2633.055932,1072.533697,666.185348,8364.327145
2633.056261,842.705048,1036.288319,8216.285956
2633.056590,842.705048,962.267725,8734.430116
2633.056919,1225.752797,-222.061783,9474.636058
2633.057248,1455.581446,296.082377,8364.327145
2633.057577,1608.800546,-0.000000,8586.388927
2633.057906,842.705048,-0.000000,8882.471304
2633.058235,459.657299,-222.061783,9030.512492
2633.058564,306.438199,-1332.370696,9622.677246
2633.058893,-229.828649,-1332.370696,9400.615463
2633.059222,229.828649,-296.082377,9030.512492
2633.059551,0.000000,296.082377,8882.471304
2633.059880,76.609550,-148.041188,9918.759623
2633.060209,0.000000,-962.267725,9622.677246
2633.060538,383.047749,-888.247130,9400.615463
2633.060867,1225.752797,592.164754,8808.450710
2633.061196,766.095498,592.164754,7994.224174
2633.061525,1072.533697,-740.205942,9474.636058
2633.061854,1225.752797,-444.123565,9548.656652
2633.062183,2221.676944,-0.000000,9474.636058
2633.062512,1608.800546,888.247130,8734.430116
2633.062841,1225.752797,1406.391290,8734.430116
2633.063170,1072.533697,962.267725,9474.636058
2633.063499,919.314598,-148.041188,9622.677246
2633.063828,995.924147,-740.205942,9400.615463
2633.064157,1302.362347,-444.123565,8734.430116
2633.064486,229.828649,-0.000000,8882.471304
2633.064815,153.219100,-666.185348,8956.491898
2633.065144,0.000000,-1406.391290,9622.677246
2633.065473,-842.705048,-370.102971,9178.553681
2633.065802,-306.438199,-0.000000,9400.615463
2633.066131,-842.705048,814.226536,8882.471304
2633.066460,-1608.800546,-0.000000,9474.636058
2633.066789,-842.705048,-592.164754,9918.759623
2633.067118,-612.876398,-370.102971,9252.574275
2633.067447,-459.657299,-0.000000,9326.594869
2633.067776,0.000000,518.144159,8438.347739
2633.068105,0.000000,-518.144159,8734.430116
2633.068434,459.657299,-1110.308913,9326.594869
2633.068763,1149.143247,-518.144159,7994.224174
2633.069092,842.705048,-0.000000,8068.244768
2633.069421,612.876398,518.144159,7994.224174
2633.069750,0.000000,-74.020594,8586.388927
2633.070079,-383.047749,-1554.432478,9178.553681
2633.070408,459.657299,-962.267725,8438.347739
2633.070737,536.266849,-370.102971,7772.162391
2633.071066,0.000000,-814.226536,8956.491898
2633.071395,-1149.143247,-1184.329507,9178.553681
2633.071724,-766.095498,-1850.514855,9918.759623
2633.072053,-383.047749,-1110.308913,9326.594869
2633.072382,-995.924147,370.102971,8882.471304
2633.072711,-612.876398,-0.000000,9252.574275
2633.073040,-766.095498,-0.000000,9252.574275
2633.073369,766.095498,-666.185348,9474.636058
2633.073698,766.095498,-518.144159,9326.594869
2633.074027,995.924147,-0.000000,8364.327145
2633.074356,1072.533697,592.164754,8734.430116
2633.074685,1838.629195,-518.144159,8438.347739
2633.075014,1685.410096,-814.226536,8808.450710
2633.075343,1455.581446,-0.000000,8956.491898
2633.075672,1991.848295,1110.308913,8734.430116
2633.076001,689.485948,814.226536,8956.491898
2633.076330,536.266849,444.123565,9474.636058
2633.076659,842.705048,-74.020594,9400.615463
2633.076988,612.876398,-370.102971,9400.615463
2633.077317,995.924147,518.144159,9326.594869
2633.077646,536.266849,-0.000000,9104.533087
2633.077975,153.219100,-592.164754,9474.636058
2633.078304,459.657299,-1184.329507,9474.636058
2633.078633,306.438199,-814.226536,9326.594869
2633.078962,306.438199,444.123565,9030.512492
2633.079291,229.828649,1184.329507,8734.430116
2633.079620,0.000000,-0.000000,9548.656652
2633.079949,1072.533697,-148.041188,8882.471304
2633.080278,1838.629195,-0.000000,9030.512492
2633.080607,1225.752797,-0.000000,9326.594869
2633.080936,1149.143247,-0.000000,8438.347739
2633.081265,689.485948,-814.226536,9770.718434
2633.081594,459.657299,-962.267725,9992.780217
2633.081923,766.095498,-74.020594,9326.594869
2633.082252,689.485948,518.144159,10214.842000
2633.082581,-612.876398,1110.308913,8364.327145
2633.082910,612.876398,-0.000000,9622.677246
2633.083239,306.438199,-74.020594,9474.636058
2633.083568,1302.362347,370.102971,8586.388927
2633.083897,1302.362347,296.082377,8216.285956
2633.084226,459.657299,-222.061783,7920.203579
2633.084555,153.219100,-1036.288319,9178.553681
2633.084884,0.000000,-1998.556043,9770.718434
2633.085213,-383.047749,-0.000000,8512.368333
2633.085542,-1072.533697,-148.041188,9548.656652
2633.085871,-1685.410096,-296.082377,9400.615463
2633.086200,-1762.019645,-518.144159,10066.800811
2633.086529,-1225.752797,-1702.473667,9548.656652
2633.086858,-1532.190996,-444.123565,9252.574275
2633.087187,-229.828649,444.123565,9770.718434
2633.087515,0.000000,-222.061783,9474.636058
2633.087844,383.047749,-296.082377,8734.430116
2633.088173,459.657299,-666.185348,8882.471304
2633.088502,995.924147,-518.144159,7550.100608
2633.088831,919.314598,962.267725,7994.224174
2633.089160,995.924147,444.123565,8290.306550
2633.089489,536.266849,-518.144159,8364.327145
2633.089818,995.924147,-666.185348,9178.553681
2633.090147,459.657299,-222.061783,8882.471304
2633.090476,919.314598,-0.000000,8364.327145
2633.090805,0.000000,-0.000000,8586.388927
2633.091134,0.000000,-888.247130,8882.471304
2633.091463,76.609550,-1258.350101,9400.615463
2633.091792,153.219100,-592.164754,9104.533087
2633.092121,0.000000,592.164754,9326.594869
2633.092450,-229.828649,444.123565,8586.388927
2633.092779,-229.828649,-370.102971,8956.491898
2633.093108,76.609550,-814.226536,8882.471304
2633.093437,459.657299,-296.082377,8956.491898
2633.093766,1072.533697,-0.000000,7920.203579
2633.094095,1608.800546,-148.041188,7994.224174
2633.094424,919.314598,-592.164754,9104.533087
2633.094753,1762.019645,-1554.432478,9918.759623
2633.095082,1455.581446,296.082377,8808.450710
2633.095411,1378.971896,740.205942,8808.450710
2633.095740,1378.971896,1406.391290,9400.615463
2633.096069,459.657299,296.082377,10214.842000
2633.096397,1378.971896,222.061783,9474.636058
2633.096726,1225.752797,-0.000000,9548.656652
2633.097055,766.095498,1554.432478,9474.636058
2633.097384,689.485948,-0.000000,9252.574275
2633.097713,612.876398,-518.144159,9474.636058
2633.098042,229.828649,-888.247130,9622.677246
2633.098371,0.000000,-592.164754,8956.491898
2633.098700,-306.438199,-0.000000,8734.430116
2633.099029,-689.485948,518.144159,9474.636058
2633.099358,-766.095498,-444.123565,9474.636058
2633.099687,-766.095498,-666.185348,9844.739029
2633.100016,0.000000,-518.144159,9696.697840
2633.100345,0.000000,222.061783,8808.450710
2633.100674,153.219100,-518.144159,9178.553681
2633.101003,76.609550,-814.226536,9548.656652
2633.101332,1149.143247,-592.164754,9474.636058
2633.101661,536.266849,148.041188,9030.512492
2633.101990,612.876398,1110.308913,8438.347739
2633.102319,383.047749,1480.411884,8734.430116
2633.102648,383.047749,-592.164754,9622.677246
2633.102977,383.047749,-1110.308913,8364.327145
2633.103306,689.485948,-444.123565,8512.368333
2633.103635,459.657299,-518.144159,7994.224174
2633.103964,153.219100,-740.205942,8216.285956
2633.104293,-229.828649,-1406.391290,8956.491898
2633.104622,-459.657299,-1776.494261,9178.553681
2633.104951,0.000000,-962.267725,8660.409521
2633.105280,-306.438199,-296.082377,8438.347739
2633.105608,-1149.143247,-74.020594,9474.636058
2633.105937,-689.485948,-888.247130,9474.636058
2633.106266,-612.876398,-888.247130,9474.636058
2633.106595,-383.047749,-222.061783,9400.615463
2633.106924,306.438199,444.123565,8808.450710
2633.107253,153.219100,-0.000000,8290.306550
2633.107582,536.266849,-592.164754,9030.512492
2633.107911,1072.533697,-1110.308913,9400.615463
2633.108240,689.485948,-296.082377,8438.347739
2633.108569,536.266849,444.123565,8142.265362
2633.108898,689.485948,518.144159,8512.368333
2633.109227,766.095498,-740.205942,8956.491898
2633.109556,919.314598,-814.226536,8734.430116
2633.109885,1532.190996,-222.061783,7994.224174
2633.110214,919.314598,-0.000000,8882.471304
2633.110543,995.924147,-222.061783,7920.203579
2633.110872,919.314598,-814.226536,9104.533087
2633.111201,689.485948,-1184.329507,9918.759623
2633.111530,229.828649,-222.061783,9104.533087
2633.111859,0.000000,962.267725,9252.574275
2633.112188,-383.047749,814.226536,9252.574275
2633.112517,-229.828649,-222.061783,10362.883188
2633.112846,842.705048,-370.102971,9696.697840
2633.113175,0.000000,-0.000000,9104.533087
2633.113504,612.876398,666.185348,8586.388927
2633.113833,536.266849,222.061783,8438.347739
2633.114162,766.095498,-518.144159,8956.491898
2633.114490,995.924147,-666.185348,9992.780217
2633.114819,-383.047749,-222.061783,8882.471304
2633.115148,612.876398,888.247130,8882.471304
2633.115477,842.705048,814.226536,9178.553681
2633.115806,383.047749,148.041188,9622.677246
2633.116135,0.000000,-222.061783,9474.636058
2633.116464,76.609550,-0.000000,9474.636058
2633.116793,-306.438199,740.205942,9474.636058
2633.117122,-229.828649,-148.041188,9474.636058
2633.117451,-306.438199,-1332.370696,10140.821405
2633.117780,-1072.533697,-1332.370696,10288.862594
2633.118109,-1072.533697,-518.144159,9326.594869
2633.118438,-1455.581446,-0.000000,9474.636058
2633.118767,-1762.019645,-0.000000,8956.491898
2633.119096,-1455.581446,-1036.288319,9770.718434
2633.119425,-766.095498,-1036.288319,9326.594869
2633.119754,-306.438199,-0.000000,9030.512492
2633.120083,76.609550,-148.041188,8438.347739
2633.120412,536.266849,-222.061783,8660.409521
2633.120741,612.876398,-888.247130,9474.636058
2633.121070,536.266849,-370.102971,8882.471304
2633.121399,842.705048,-0.000000,9104.533087
2633.121728,1149.143247,1480.411884,8364.327145
2633.122057,1455.581446,814.226536,8438.347739
2633.122386,1072.533697,-0.000000,8808.450710
2633.122715,1302.362347,-148.041188,8512.368333
2633.123044,1072.533697,740.205942,7550.100608
2633.123372,842.705048,962.267725,7476.080014
2633.123701,-306.438199,-0.000000,8142.265362
2633.124030,-1072.533697,-1036.288319,8882.471304
2633.124359,-1762.019645,-1776.494261,9474.636058
2633.124688,-3064.381992,-1628.453072,8808.450710
2633.125017,-3294.210641,-666.185348,8734.430116
2633.125346,-3447.429741,-666.185348,8882.471304
2633.125675,-3294.210641,-888.247130,8808.450710
2633.126004,-3217.601092,-1406.391290,9622.677246
2633.126333,-2834.553343,-666.185348,9474.636058
2633.126662,-2528.115143,370.102971,9178.553681
2633.126991,-2374.896044,148.041188,9474.636058
2633.127320,-1915.238745,-444.123565,9474.636058
2633.127649,-2374.896044,-1110.308913,9696.697840
2633.127978,-2374.896044,-814.226536,10807.006753
2633.128307,-2221.676944,-0.000000,9474.636058
2633.128636,-1685.410096,1258.350101,8290.306550
2633.128965,-766.095498,1110.308913,8216.285956
2633.129294,-919.314598,-0.000000,8364.327145
2633.129623,-1378.971896,-592.164754,9030.512492
2633.129952,-1838.629195,666.185348,8734.430116
2633.130281,-1838.629195,888.247130,8290.306550
2633.130610,-1762.019645,-222.061783,8882.471304
2633.130939,-2221.676944,-1110.308913,9696.697840
2633.131268,-2911.162892,-1776.494261,10510.924376
2633.131597,-3753.867940,-1258.350101,10436.903782
2633.131926,-3064.381992,-0.000000,9474.636058
2633.132254,-2681.334243,1184.329507,9178.553681
2633.132583,-2604.724693,1628.453072,8956.491898
2633.132912,-2987.772442,592.164754,9474.636058
2633.133241,-2681.334243,-148.041188,9696.697840
2633.133570,-3140.991542,518.144159,8882.471304
2633.133899,-2681.334243,592.164754,8290.306550
2633.134228,-3447.429741,-74.020594,8216.285956
2633.134557,-3524.039291,-518.144159,8734.430116
2633.134886,-3753.867940,-1184.329507,8882.471304
2633.135215,-4213.525239,-1406.391290,8512.368333
2633.135544,-3830.477490,-1776.494261,9474.636058
2633.135873,-3983.696590,-1184.329507,8660.409521
2633.136202,-4213.525239,-592.164754,9252.574275
2633.136531,-4443.353888,-666.185348,9474.636058
2633.136860,-4366.744339,-518.144159,9474.636058
2633.137189,-3983.696590,-0.000000,9474.636058
2633.137518,-2987.772442,-0.000000,8808.450710
2633.137847,-2221.676944,-74.020594,9326.594869
2633.138176,-2221.676944,-370.102971,9104.533087
2633.138505,-1838.629195,-0.000000,8438.347739
2633.138834,-2068.457845,-0.000000,8290.306550
2633.139163,-1915.238745,222.061783,8364.327145
2633.139492,-1378.971896,-0.000000,7920.203579
2633.139821,-1225.752797,-444.123565,8290.306550
2633.140150,-919.314598,-1406.391290,8808.450710
2633.140479,-1378.971896,-1110.308913,7698.141797
2633.140808,-2528.115143,-222.061783,8808.450710
2633.141136,-2528.115143,370.102971,8364.327145
2633.141465,-3064.381992,518.144159,9400.615463
2633.141794,-2911.162892,814.226536,9696.697840
2633.142123,-2528.115143,1850.514855,8882.471304
2633.142452,-3140.991542,962.267725,9326.594869
2633.142781,-3677.258390,-148.041188,9548.656652
2633.143110,-2987.772442,-1184.329507,10362.883188
2633.143439,-3217.601092,-1850.514855,11251.130318
2633.143768,-2068.457845,-1776.494261,10214.842000
2633.144097,-1378.971896,-1406.391290,9770.718434
2633.144426,-1149.143247,296.082377,8512.368333
2633.144755,-995.924147,444.123565,9104.533087
2633.145084,-766.095498,-518.144159,9622.677246
2633.145413,536.266849,592.164754,9104.533087
2633.145742,689.485948,1406.391290,6957.935855
2633.146071,76.609550,1332.370696,7328.038826
2633.146400,-995.924147,1110.308913,7402.059420
2633.146729,-1762.019645,-0.000000,9474.636058
2633.147058,-3447.429741,-888.247130,9474.636058
2633.147387,-2911.162892,-1776.494261,10510.924376
2633.147716,-3447.429741,-814.226536,9030.512492
2633.148045,-4060.306139,-222.061783,9400.615463
2633.148374,-4826.401637,-740.205942,9696.697840
2633.148703,-4673.182538,-666.185348,10362.883188
2633.149032,-3370.820191,-1184.329507,10584.944971
2633.149361,-3217.601092,-518.144159,9770.718434
2633.149690,-1685.410096,-296.082377,8882.471304
2633.150018,-1149.143247,-148.041188,7920.203579
2633.150347,-1302.362347,-0.000000,8290.306550
2633.150676,-1532.190996,-0.000000,9844.739029
2633.151005,-1378.971896,-370.102971,9326.594869
2633.151334,-995.924147,-0.000000,9030.512492
2633.151663,-1225.752797,1110.308913,7994.224174
2633.151992,-1685.410096,1110.308913,8216.285956
2633.152321,-2451.505594,296.082377,8660.409521
2633.152650,-2221.676944,370.102971,9104.533087
2633.152979,-2757.943793,592.164754,9178.553681
2633.153308,-2834.553343,1110.308913,7698.141797
2633.153637,-3753.867940,-0.000000,7846.182985
2633.153966,-4903.011187,-666.185348,8882.471304
2633.154295,-5056.230287,-1110.308913,9474.636058
2633.154624,-5745.716235,-2812.782580,10214.842000
2633.154953,-5286.058936,-3256.906145,10436.903782
2633.155282,-5286.058936,-2664.741391,10510.924376
2633.155611,-4979.620737,-2146.597232,9992.780217
2633.155940,-4136.915689,-1628.453072,9844.739029
2633.156269,-3140.991542,-296.082377,9918.759623
2633.156598,-2221.676944,814.226536,9400.615463
2633.156927,-1608.800546,2072.576638,8808.450710
2633.157256,-1532.190996,2146.597232,8586.388927
2633.157585,-1915.238745,2516.700203,7772.162391
2633.157914,-1991.848295,1406.391290,7994.224174
2633.158243,-1685.410096,666.185348,7550.100608
2633.158572,-1915.238745,444.123565,7698.141797
2633.158900,-1838.629195,518.144159,8142.265362
2633.159229,-2374.896044,-0.000000,7550.100608
2633.159558,-2451.505594,-0.000000,8142.265362
2633.159887,-2604.724693,-74.020594,8142.265362
2633.160216,-2604.724693,222.061783,8734.430116
2633.160545,-3370.820191,740.205942,8882.471304
2633.160874,-3064.381992,1184.329507,9474.636058
2633.161203,-4290.134789,1554.432478,9770.718434
2633.161532,-3677.258390,1036.288319,10807.006753
2633.161861,-3524.039291,1702.473667,10140.821405
2633.162190,-3600.648841,370.102971,10510.924376
2633.162519,-3294.210641,148.041188,10881.027347
2633.162848,-2145.067394,-0.000000,11103.089130
2633.163177,-1532.190996,962.267725,10214.842000
2633.163506,-689.485948,1036.288319,9548.656652
2633.163835,-383.047749,1776.494261,8512.368333
2633.164164,-612.876398,-0.000000,11177.109724
2633.164493,1378.971896,1776.494261,9696.697840
2633.164822,2528.115143,2812.782580,6587.832884
2633.165151,4519.963438,3552.988522,7476.080014
2633.165480,3370.820191,4737.318029,5847.626942
2633.165809,4136.915689,5255.462188,8364.327145
2633.166138,2834.553343,4737.318029,7402.059420
2633.166467,2681.334243,4441.235652,8438.347739
2633.166796,766.095498,2294.638420,9252.574275
2633.167125,-766.095498,2664.741391,10214.842000
2633.167454,-1915.238745,1184.329507,10658.965565
2633.167782,-1838.629195,666.185348,10362.883188
2633.168111,-459.657299,370.102971,10881.027347
2633.168440,-689.485948,888.247130,9844.739029
2633.168769,0.000000,2664.741391,9548.656652
2633.169098,459.657299,2960.823768,7920.203579
2633.169427,2068.457845,3182.885551,7772.162391
2633.169756,2757.943793,5033.400406,5921.647536
2633.170085,2451.505594,4885.359217,6291.750507
2633.170414,1685.410096,4885.359217,7476.080014
2633.170743,229.828649,5329.482782,7254.018232
2633.171072,-459.657299,3182.885551,9030.512492
2633.171401,-2451.505594,2294.638420,9474.636058
2633.171730,-2911.162892,962.267725,10881.027347
2633.172059,-3217.601092,-74.020594,11251.130318
2633.172388,-3217.601092,2368.659014,9252.574275
2633.172717,-2834.553343,1924.535449,9918.759623
2633.173046,-3140.991542,2220.617826,10732.986159
2633.173375,-2834.553343,2442.679609,10955.047942
2633.173704,-1838.629195,2368.659014,10436.903782
2633.174033,-995.924147,2442.679609,8956.491898
2633.174362,-766.095498,3182.885551,8364.327145
2633.174691,-1302.362347,3478.967927,9326.594869
2633.175020,-919.314598,1998.556043,11103.089130
2633.175349,2451.505594,3182.885551,9104.533087
2633.175678,3677.258390,4811.338623,5255.462188
2633.176007,3753.867940,5033.400406,7031.956449
2633.176336,2374.896044,5847.626942,6883.915261
2633.176664,3294.210641,6957.935855,8438.347739
2633.176993,2221.676944,5255.462188,7105.977043
2633.177322,1762.019645,6217.729913,6957.935855
2633.177651,536.266849,4663.297435,9030.512492
2633.177980,-536.266849,3552.988522,9104.533087
2633.178309,-2451.505594,296.082377,12805.562797
2633.178638,-2451.505594,-518.144159,10732.986159
2633.178967,-842.705048,370.102971,11621.233289
2633.179296,-1225.752797,-1184.329507,11843.295072
2633.179625,-1762.019645,2960.823768,9770.718434
2633.179954,0.000000,2516.700203,9696.697840
2633.180283,1455.581446,3775.050304,7550.100608
2633.180612,3140.991542,4811.338623,8068.244768
2633.180941,3524.039291,4663.297435,6957.935855
2633.181270,3600.648841,4811.338623,7476.080014
2633.181599,2374.896044,5403.503377,7550.100608
2633.181928,1532.190996,3330.926739,6809.894666
2633.182257,-536.266849,1554.432478,9474.636058
2633.182586,-1378.971896,-74.020594,11917.315666
2633.182915,-2451.505594,592.164754,11843.295072
2633.183244,-2451.505594,296.082377,11621.233289
2633.183573,-2374.896044,814.226536,8956.491898
2633.183902,-1608.800546,2220.617826,11251.130318
2633.184231,-1455.581446,1776.494261,10214.842000
2633.184560,-995.924147,2590.720797,9104.533087
2633.184889,1991.848295,222.061783,11991.336260
2633.185218,2911.162892,3627.009116,6735.874072
2633.185547,5362.668486,2664.741391,9400.615463
2633.185876,2834.553343,4441.235652,5625.565159
2633.186205,3983.696590,4737.318029,5625.565159
2633.186534,3447.429741,4589.276840,7846.182985
2633.186863,2221.676944,4219.173869,6365.771101
2633.187192,2068.457845,4737.318029,8216.285956
2633.187521,995.924147,1332.370696,10066.800811
2633.187850,-3217.601092,-814.226536,12361.439231
2633.188178,-3830.477490,-3478.967927,12657.521608
2633.188507,-2451.505594,370.102971,11621.233289
2633.188836,-2911.162892,-1776.494261,12287.418637
2633.189165,-3294.210641,1406.391290,9844.739029
2633.189494,-1149.143247,3923.091493,8586.388927
2633.189823,-153.219100,3034.844362,8734.430116
2633.190152,919.314598,3034.844362,9474.636058
2633.190481,4366.744339,1998.556043,8586.388927
2633.190810,3447.429741,3404.947333,6513.812290
2633.191139,3677.258390,5255.462188,5107.421000
2633.191468,2757.943793,4219.173869,4959.379811
2633.191797,4136.915689,4441.235652,8660.409521
2633.192126,2451.505594,4885.359217,5995.668130
2633.192455,3447.429741,3849.070898,6661.853478
2633.192784,689.485948,5329.482782,7994.224174
2633.193113,-689.485948,2516.700203,9178.553681
2633.193442,-4826.401637,-2072.576638,16506.592507
2633.193771,-4903.011187,-1184.329507,12435.459826
2633.194100,-3294.210641,592.164754,11769.274478
2633.194429,-2987.772442,-4293.194464,12805.562797
2633.194758,-3983.696590,2072.576638,10140.821405
2633.195087,-1225.752797,1110.308913,11991.336260
2633.195416,-2298.286494,3330.926739,7994.224174
2633.195745,-1838.629195,4885.359217,9104.533087
2633.196074,2298.286494,592.164754,13249.686362
2633.196403,2451.505594,4811.338623,6587.832884
2633.196732,4366.744339,5403.503377,7994.224174
2633.197061,3370.820191,3034.844362,3478.967927
2633.197390,3217.601092,5847.626942,6513.812290
2633.197719,1072.533697,5477.523971,9770.718434
2633.198048,0.000000,6217.729913,7550.100608
2633.198377,153.219100,5847.626942,9400.615463
2633.198706,-1991.848295,-0.000000,10066.800811
2633.199035,-2987.772442,-370.102971,11177.109724
2633.199364,-3294.210641,1110.308913,11547.212695
2633.199693,-1915.238745,-1332.370696,10584.944971
2633.200022,-1991.848295,-1998.556043,11325.150913
2633.200351,-1532.190996,296.082377,12731.542202
2633.200680,766.095498,1258.350101,9770.718434
2633.201009,306.438199,2590.720797,7254.018232
2633.201338,3677.258390,3330.926739,6587.832884
2633.201667,3983.696590,6291.750507,7105.977043
2633.201996,3217.601092,5033.400406,8142.265362
2633.202325,1608.800546,3552.988522,8142.265362
2633.202654,1225.752797,3330.926739,7920.203579
2633.202983,1302.362347,3034.844362,7550.100608
2633.203312,1302.362347,1184.329507,7698.141797
2633.203641,-536.266849,-1850.514855,13101.645173
2633.203970,-1762.019645,-3552.988522,12287.418637
2633.204299,-1532.190996,-1332.370696,10732.986159
2633.204628,-1838.629195,-3404.947333,11473.192101
2633.204957,-2221.676944,-222.061783,9104.533087
2633.205286,689.485948,1702.473667,9992.780217
2633.205615,2834.553343,2368.659014,7105.977043
2633.205944,2681.334243,2738.761985,7476.080014
2633.206273,3447.429741,1554.432478,7772.162391
2633.206602,3983.696590,2294.638420,7105.977043
2633.206931,3677.258390,2442.679609,6883.915261
2633.207260,3217.601092,-74.020594,6513.812290
2633.207589,919.314598,-370.102971,7920.203579
2633.207918,-995.924147,-1702.473667,10881.027347
2633.208247,-1685.410096,-1332.370696,9844.739029
2633.208576,-1532.190996,-1924.535449,10881.027347
2633.208905,-2068.457845,-2442.679609,10066.800811
2633.209234,-2068.457845,-888.247130,11547.212695
2633.209563,-2757.943793,-1480.411884,9992.780217
2633.209892,-2604.724693,-2368.659014,10881.027347
2633.210221,383.047749,-370.102971,9104.533087
2633.210550,3600.648841,-0.000000,8808.450710
2633.210879,3447.429741,370.102971,6957.935855
2633.211208,2987.772442,296.082377,6809.894666
2633.211537,2298.286494,-74.020594,8216.285956
2633.211866,2374.896044,1628.453072,6883.915261
2633.212195,3064.381992,222.061783,8734.430116
2633.212524,766.095498,444.123565,9474.636058
2633.212852,-459.657299,-74.020594,9400.615463
2633.213181,-1302.362347,-2146.597232,11177.109724
2633.213510,-2374.896044,-2442.679609,9844.739029
2633.213839,-2298.286494,-2886.803174,11103.089130
2633.214168,-2911.162892,-2812.782580,11325.150913
2633.214497,-2374.896044,-2368.659014,11177.109724
2633.214826,-1149.143247,-2886.803174,9992.780217
2633.215155,612.876398,-1480.411884,7920.203579
2633.215484,1685.410096,888.247130,7105.977043
2633.215813,2145.067394,2220.617826,6513.812290
2633.216142,1762.019645,2146.597232,6439.791695
2633.216471,1685.410096,1998.556043,7105.977043
2633.216800,2834.553343,444.123565,7328.038826
2633.217129,919.314598,-814.226536,8438.347739
2633.217458,383.047749,-3627.009116,9622.677246
2633.217787,-1762.019645,-1554.432478,10066.800811
2633.218116,-1762.019645,-2368.659014,11251.130318
2633.218445,-2221.676944,-666.185348,10881.027347
2633.218774,-1685.410096,-0.000000,10658.965565
2633.219103,-2451.505594,962.267725,9400.615463
2633.219432,-1302.362347,962.267725,9844.739029
2633.219761,612.876398,370.102971,9326.594869
2633.220090,1991.848295,370.102971,8882.471304
2633.220419,2221.676944,1036.288319,7772.162391
2633.220748,1378.971896,296.082377,8216.285956
2633.221077,1072.533697,296.082377,8586.388927
2633.221406,919.314598,296.082377,8068.244768
2633.221735,1762.019645,740.205942,7994.224174
2633.222064,2068.457845,370.102971,8586.388927
2633.222393,766.095498,592.164754,9104.533087
2633.222722,0.000000,814.226536,9844.739029
2633.223051,76.609550,518.144159,9474.636058
2633.223380,229.828649,-444.123565,9696.697840
2633.223709,0.000000,370.102971,9992.780217
2633.224038,-612.876398,-0.000000,9992.780217
2633.224367,0.000000,296.082377,9918.759623
2633.224696,459.657299,-0.000000,9474.636058
2633.225025,1225.752797,-74.020594,8586.388927
2633.225354,1608.800546,888.247130,8290.306550
2633.225683,459.657299,962.267725,8216.285956
2633.226012,153.219100,296.082377,8290.306550
2633.226341,919.314598,444.123565,8438.347739
2633.226670,1608.800546,-814.226536,8512.368333
2633.226999,1532.190996,-1702.473667,9474.636058
2633.227328,919.314598,-1554.432478,9696.697840
2633.227657,229.828649,-962.267725,9844.739029
2633.227986,0.000000,296.082377,9400.615463
2633.228315,153.219100,740.205942,9622.677246
2633.228644,459.657299,1184.329507,9918.759623
2633.228973,306.438199,1332.370696,9400.615463
2633.229302,612.876398,962.267725,8734.430116
2633.229631,995.924147,518.144159,8068.244768
2633.229960,612.876398,-222.061783,8882.471304
2633.230289,229.828649,-370.102971,9326.594869
2633.230618,-459.657299,-1776.494261,9474.636058
2633.230947,-842.705048,-1998.556043,9622.677246
2633.231276,-383.047749,-1850.514855,8956.491898
2633.231605,-612.876398,-1332.370696,8882.471304
2633.231934,536.266849,-74.020594,9104.533087
2633.232263,0.000000,-148.041188,9252.574275
2633.232592,229.828649,962.267725,9030.512492
2633.232921,1225.752797,592.164754,8512.368333
2633.233250,1762.019645,370.102971,7994.224174
2633.233579,1072.533697,-444.123565,9326.594869
2633.233908,536.266849,-444.123565,9474.636058
2633.234237,153.219100,-1406.391290,8808.450710
2633.234566,0.000000,-1406.391290,9030.512492
2633.234895,-689.485948,-740.205942,8808.450710
2633.235224,-689.485948,-0.000000,9252.574275
2633.235553,-1072.533697,148.041188,8364.327145
2633.235882,-1225.752797,-222.061783,7402.059420
2633.236211,-76.609550,-888.247130,8364.327145
2633.236540,689.485948,-2146.597232,8512.368333
2633.236869,306.438199,-2146.597232,9252.574275
2633.237198,0.000000,-2442.679609,9326.594869
2633.237527,76.609550,-1480.411884,8734.430116
2633.237855,459.657299,-222.061783,9104.533087
2633.238184,919.314598,518.144159,8882.471304
2633.238513,1302.362347,888.247130,9252.574275
2633.238842,1149.143247,2368.659014,9252.574275
2633.239171,536.266849,1776.494261,8808.450710
2633.239500,766.095498,814.226536,8882.471304
2633.239829,612.876398,-148.041188,9400.615463
2633.240158,536.266849,-1554.432478,9622.677246
2633.240487,-919.314598,-2146.597232,9770.718434
2633.240816,-766.095498,-2590.720797,9770.718434
2633.241145,-1072.533697,-1332.370696,9992.780217
2633.241474,0.000000,-1406.391290,9548.656652
2633.241803,229.828649,-222.061783,9326.594869
2633.242132,229.828649,1036.288319,8290.306550
2633.242461,689.485948,1184.329507,8586.388927
2633.242790,1608.800546,1628.453072,8660.409521
2633.243119,2834.553343,666.185348,8660.409521
2633.243448,2911.162892,-0.000000,9030.512492
2633.243777,1915.238745,-370.102971,9474.636058
2633.244106,919.314598,-74.020594,9696.697840
2633.244435,919.314598,-0.000000,9030.512492
2633.244764,766.095498,1036.288319,8808.450710
2633.245093,153.219100,814.226536,9104.533087
2633.245422,0.000000,666.185348,8956.491898
2633.245751,-842.705048,-222.061783,8956.491898
2633.246080,306.438199,-888.247130,8142.265362
2633.246409,306.438199,-1258.350101,8808.450710
2633.246738,-306.438199,-1702.473667,9252.574275
2633.247067,-766.095498,-1998.556043,9696.697840
2633.247396,-995.924147,-1480.411884,9474.636058
2633.247725,0.000000,-814.226536,8956.491898
2633.248054,229.828649,814.226536,8808.450710
2633.248383,995.924147,1850.514855,8290.306550
2633.248712,766.095498,2516.700203,8364.327145
2633.249041,1149.143247,2072.576638,8586.388927
2633.249370,1378.971896,1332.370696,8142.265362
2633.249699,1685.410096,-0.000000,8586.388927
2633.250028,919.314598,-888.247130,9474.636058
2633.250357,0.000000,-1554.432478,9326.594869
2633.250686,-306.438199,-1702.473667,9696.697840
2633.251015,-1072.533697,-1776.494261,9178.553681
2633.251344,-919.314598,-148.041188,9548.656652
2633.251673,-766.095498,814.226536,9474.636058
2633.252002,-1302.362347,1110.308913,8438.347739
2633.252331,-766.095498,666.185348,9326.594869
2633.252660,0.000000,-222.061783,9474.636058
2633.252989,153.219100,-666.185348,9770.718434
2633.253318,0.000000,-1480.411884,9770.718434
2633.253647,-306.438199,-1258.350101,9622.677246
2633.253976,0.000000,-444.123565,10066.800811
2633.254305,459.657299,-222.061783,9252.574275
2633.254634,919.314598,740.205942,8882.471304
2633.254963,2298.286494,1628.453072,8882.471304
2633.255292,1302.362347,1480.411884,8068.244768
2633.255621,612.876398,1554.432478,8142.265362
2633.255950,1532.190996,444.123565,8438.347739
2633.256279,1225.752797,-962.267725,8290.306550
2633.256608,612.876398,-1184.329507,9326.594869
2633.256937,0.000000,-2368.659014,9696.697840
2633.257266,-459.657299,-1554.432478,9474.636058
2633.257595,-76.609550,-1110.308913,9474.636058
2633.257924,-383.047749,148.041188,9548.656652
2633.258253,153.219100,592.164754,9030.512492
2633.258582,229.828649,1258.350101,8882.471304
2633.258911,536.266849,740.205942,8734.430116
2633.259240,1762.019645,-0.000000,8808.450710
2633.259569,1685.410096,-1406.391290,9252.574275
2633.259898,459.657299,-2072.576638,9770.718434
2633.260227,306.438199,-2146.597232,9548.656652
2633.260556,153.219100,-1110.308913,9474.636058
2633.260885,229.828649,-740.205942,8956.491898
2633.261214,383.047749,-222.061783,9104.533087
2633.261543,689.485948,444.123565,8956.491898
2633.261872,536.266849,-0.000000,9104.533087
2633.262201,306.438199,-0.000000,7920.203579
2633.262529,766.095498,-370.102971,8956.491898
2633.262858,1302.362347,-1184.329507,9104.533087
2633.263187,1072.533697,-1332.370696,9104.533087
2633.263516,76.609550,-1480.411884,10288.862594
2633.263845,153.219100,-518.144159,9474.636058
2633.264174,0.000000,-222.061783,8734.430116
2633.264503,612.876398,592.164754,9326.594869
2633.264832,-306.438199,-0.000000,8956.491898
2633.265161,-459.657299,962.267725,8808.450710
2633.265490,-689.485948,592.164754,8586.388927
2633.265819,306.438199,-814.226536,9030.512492
2633.266148,536.266849,-1258.350101,9178.553681
2633.266477,0.000000,-2368.659014,9474.636058
2633.266806,-766.095498,-2220.617826,9474.636058
2633.267135,-1149.143247,-1184.329507,9844.739029
2633.267464,0.000000,-740.205942,9030.512492
2633.267793,383.047749,296.082377,8734.430116
2633.268122,153.219100,1554.432478,8586.388927
2633.268451,536.266849,1332.370696,7994.224174
2633.268780,536.266849,2072.576638,8808.450710
2633.269109,842.705048,518.144159,8734.430116
2633.269438,689.485948,-0.000000,8586.388927
2633.269767,842.705048,-962.267725,9474.636058
2633.270096,76.609550,-1258.350101,9918.759623
2633.270425,-306.438199,-962.267725,9326.594869
2633.270754,-229.828649,-222.061783,9104.533087
2633.271083,0.000000,888.247130,8882.471304
2633.271412,612.876398,962.267725,9474.636058
2633.271741,229.828649,1924.535449,8512.368333
2633.272070,383.047749,1110.308913,8512.368333
2633.272399,995.924147,1258.350101,8734.430116
2633.272728,1225.752797,222.061783,9104.533087
2633.273057,995.924147,-740.205942,9622.677246
2633.273386,536.266849,-1110.308913,9844.739029
2633.273715,0.000000,-666.185348,9918.759623
2633.274044,459.657299,-0.000000,10140.821405
2633.274373,612.876398,1184.329507,9474.636058
2633.274702,536.266849,1480.411884,9104.533087
2633.275031,536.266849,2368.659014,8586.388927
2633.275360,1072.533697,2220.617826,9474.636058
2633.275689,1302.362347,740.205942,9548.656652
2633.276018,2145.067394,-0.000000,8882.471304
2633.276347,919.314598,-148.041188,9918.759623
2633.276676,229.828649,-592.164754,9696.697840
2633.277005,153.219100,-962.267725,9400.615463
2633.277334,536.266849,-222.061783,9696.697840
2633.277663,689.485948,666.185348,9178.553681
2633.277992,383.047749,1258.350101,9030.512492
2633.278321,0.000000,1406.391290,8290.306550
2633.278650,842.705048,888.247130,9400.615463
2633.278979,612.876398,518.144159,8734.430116
2633.279308,229.828649,-1036.288319,9178.553681
2633.279637,-306.438199,-2072.576638,9696.697840
2633.279966,-459.657299,-2146.597232,10140.821405
2633.280295,-842.705048,-1702.473667,9770.718434
2633.280624,0.000000,-1110.308913,9400.615463
2633.280953,0.000000,-148.041188,8586.388927
2633.281282,0.000000,962.267725,8734.430116
2633.281611,0.000000,1110.308913,8512.368333
2633.281940,383.047749,666.185348,8290.306550
2633.282269,1225.752797,-518.144159,8512.368333
2633.282598,1378.971896,-1332.370696,8734.430116
2633.282927,766.095498,-1924.535449,9104.533087
2633.283256,-383.047749,-2072.576638,9622.677246
2633.283585,76.609550,-1480.411884,8956.491898
2633.283914,689.485948,-444.123565,8734.430116
2633.284243,995.924147,222.061783,8734.430116
2633.284572,766.095498,1628.453072,8068.244768
2633.284901,459.657299,1036.288319,7846.182985
2633.285230,536.266849,222.061783,8586.388927
2633.285559,536.266849,-518.144159,8956.491898
2633.285888,0.000000,-1406.391290,9030.512492
2633.286217,-612.876398,-2368.659014,9548.656652
2633.286546,-1532.190996,-2220.617826,10288.862594
2633.286875,-1455.581446,-2220.617826,9992.780217
2633.287204,-1149.143247,-962.267725,9844.739029
2633.287533,-383.047749,-0.000000,9400.615463
2633.287862,153.219100,1924.535449,9400.615463
2633.288190,536.266849,1628.453072,8512.368333
2633.288519,995.924147,962.267725,8364.327145
2633.288848,2298.286494,592.164754,7994.224174
2633.289177,2757.943793,-296.082377,8734.430116
2633.289506,2145.067394,-962.267725,9178.553681
2633.289835,1838.629195,-1110.308913,9326.594869
2633.290164,1225.752797,-518.144159,9326.594869
2633.290493,842.705048,-74.020594,8808.450710
2633.290822,612.876398,296.082377,9030.512492
2633.291151,-153.219100,444.123565,8882.471304
2633.291480,-612.876398,962.267725,8956.491898
2633.291809,0.000000,-222.061783,8660.409521
2633.292138,0.000000,-1036.288319,9326.594869
2633.292467,76.609550,-1702.473667,9992.780217
2633.292796,-766.095498,-1998.556043,9548.656652
2633.293125,-1378.971896,-1998.556043,9844.739029
2633.293454,-689.485948,-1628.453072,9696.697840
2633.293783,229.828649,-962.267725,9474.636058
2633.294112,1302.362347,148.041188,9104.533087
2633.294441,1532.190996,1036.288319,8364.327145
2633.294770,1225.752797,1406.391290,8438.347739
2633.295099,1302.362347,1406.391290,8438.347739
2633.295428,1991.848295,592.164754,8290.306550
2633.295757,2221.676944,-370.102971,8734.430116
2633.296086,1149.143247,-740.205942,9104.533087
2633.296415,153.219100,-1332.370696,9326.594869
2633.296744,-689.485948,-1036.288319,9548.656652
2633.297073,0.000000,-222.061783,9622.677246
2633.297402,-383.047749,-0.000000,9252.574275
2633.297731,-995.924147,592.164754,9104.533087
2633.298060,-1072.533697,1184.329507,8216.285956
2633.298389,-459.657299,814.226536,8734.430116
2633.298718,0.000000,296.082377,8956.491898
2633.299047,0.000000,-148.041188,9178.553681
2633.299376,-383.047749,-888.247130,9474.636058
2633.299705,-459.657299,-666.185348,9696.697840
2633.300034,-153.219100,-222.061783,9400.615463
2633.300363,306.438199,-74.020594,8882.471304
2633.300692,689.485948,1110.308913,8882.471304
2633.301021,842.705048,1628.453072,8660.409521
2633.301350,842.705048,2220.617826,8512.368333
2633.301679,919.314598,1628.453072,8290.306550
2633.302008,995.924147,1110.308913,8660.409521
2633.302337,1072.533697,-148.041188,8956.491898
2633.302666,306.438199,-1110.308913,9474.636058
2633.302995,-459.657299,-1110.308913,9696.697840
2633.303324,-612.876398,-1480.411884,10066.800811
2633.303653,766.095498,-740.205942,9696.697840
2633.303982,306.438199,814.226536,9178.553681
2633.304311,383.047749,1332.370696,8734.430116
2633.304640,76.609550,1554.432478,8808.450710
2633.304969,1149.143247,1480.411884,8364.327145
2633.305298,1302.362347,296.082377,8882.471304
2633.305627,1378.971896,-444.123565,9326.594869
2633.305956,612.876398,-1776.494261,9622.677246
2633.306285,-306.438199,-1850.514855,9992.780217
2633.306614,-842.705048,-1258.350101,9992.780217
2633.306943,0.000000,-1036.288319,9400.615463
2633.307272,-612.876398,-222.061783,9474.636058
2633.307601,-306.438199,-0.000000,9252.574275
2633.307930,0.000000,-74.020594,8808.450710
2633.308259,842.705048,-0.000000,8438.347739
2633.308588,1838.629195,-888.247130,8142.265362
2633.308917,1915.238745,-1406.391290,9252.574275
2633.309246,1072.533697,-1110.308913,9178.553681
2633.309575,1072.533697,-1628.453072,9030.512492
2633.309904,1378.971896,-740.205942,8660.409521
2633.310233,1685.410096,-0.000000,8142.265362
2633.310562,1991.848295,740.205942,8512.368333
2633.310891,919.314598,1184.329507,7994.224174
2633.311220,76.609550,1036.288319,7994.224174
2633.311549,383.047749,370.102971,8068.244768
2633.311878,612.876398,-740.205942,8438.347739
2633.312207,0.000000,-2294.638420,8734.430116
2633.312536,-1225.752797,-3182.885551,10140.821405
2633.312865,-1532.190996,-3256.906145,9622.677246
2633.313194,-1225.752797,-3182.885551,9696.697840
2633.313523,-766.095498,-1110.308913,9178.553681
2633.313852,-76.609550,-444.123565,8808.450710
2633.314181,-229.828649,518.144159,8734.430116
2633.314510,383.047749,370.102971,8216.285956
2633.314839,1225.752797,222.061783,7772.162391
2633.315168,2145.067394,740.205942,8142.265362
2633.315497,2145.067394,-148.041188,8586.388927
2633.315826,1072.533697,-1776.494261,8956.491898
2633.316155,689.485948,-1480.411884,9178.553681
2633.316484,536.266849,-888.247130,8734.430116
2633.316813,0.000000,-518.144159,8956.491898
2633.317142,-842.705048,296.082377,9326.594869
2633.317471,-689.485948,444.123565,8956.491898
2633.317800,-1225.752797,-0.000000,9178.553681
2633.318129,-1302.362347,-296.082377,9474.636058
2633.318458,-383.047749,-1776.494261,9178.553681
2633.318787,-689.485948,-1776.494261,9770.718434
2633.319116,-766.095498,-2146.597232,9992.780217
2633.319445,-612.876398,-2072.576638,10214.842000
2633.319774,0.000000,-814.226536,9474.636058
2633.320103,0.000000,296.082377,8956.491898
2633.320432,842.705048,1036.288319,8882.471304
2633.320761,842.705048,1628.453072,8512.368333
2633.321090,1225.752797,1850.514855,7994.224174
2633.321419,1685.410096,1702.473667,8216.285956
2633.321748,2451.505594,814.226536,8734.430116
2633.322077,2145.067394,-296.082377,8808.450710
2633.322406,766.095498,-740.205942,9030.512492
2633.322735,0.000000,-962.267725,9844.739029
2633.323064,153.219100,-370.102971,9178.553681
2633.323393,306.438199,148.041188,8882.471304
2633.323722,229.828649,1184.329507,9252.574275
2633.324051,0.000000,1702.473667,9104.533087
2633.324380,-229.828649,1110.308913,8660.409521
2633.324709,536.266849,518.144159,8956.491898
2633.325038,1532.190996,-74.020594,8660.409521
2633.325367,1072.533697,-740.205942,9474.636058
2633.325696,612.876398,-1036.288319,9474.636058
2633.326025,-383.047749,-592.164754,9400.615463
2633.326354,0.000000,-592.164754,9844.739029
2633.326683,-383.047749,370.102971,8882.471304
2633.327012,229.828649,666.185348,9400.615463
2633.327341,-229.828649,1702.473667,8586.388927
2633.327670,-383.047749,814.226536,8808.450710
2633.327999,229.828649,296.082377,8734.430116
2633.328328,842.705048,-666.185348,8808.450710
2633.328657,1149.143247,-888.247130,9474.636058
2633.328986,0.000000,-1924.535449,9474.636058
2633.329315,0.000000,-814.226536,9474.636058
2633.329644,536.266849,-1036.288319,9326.594869
2633.329973,689.485948,296.082377,8808.450710
2633.330302,612.876398,1184.329507,8438.347739
2633.330631,383.047749,1110.308913,8586.388927
2633.330960,153.219100,1628.453072,8290.306550
2633.331289,1149.143247,518.144159,8586.388927
2633.331618,919.314598,-518.144159,9104.533087
2633.331947,612.876398,-1702.473667,9252.574275
2633.332276,-153.219100,-1924.535449,9918.759623
2633.332605,-842.705048,-2220.617826,9770.718434
2633.332934,-766.095498,-1480.411884,9326.594869
2633.333263,-612.876398,-370.102971,9104.533087
2633.333592,-76.609550,740.205942,9474.636058
2633.333920,-383.047749,592.164754,8512.368333
2633.334249,-612.876398,592.164754,8586.388927
2633.334578,459.657299,-0.000000,8068.244768
2633.334907,1225.752797,-296.082377,8364.327145
2633.335236,842.705048,-1258.350101,9400.615463
2633.335565,0.000000,-2072.576638,9474.636058
2633.335894,-306.438199,-2368.659014,9844.739029
2633.336223,153.219100,-962.267725,9104.533087
2633.336552,1072.533697,-0.000000,8808.450710
2633.336881,1072.533697,1258.350101,8808.450710
2633.337210,536.266849,1406.391290,8142.265362
2633.337539,766.095498,1332.370696,8364.327145
2633.337868,1378.971896,666.185348,8216.285956
2633.338197,1378.971896,-1036.288319,8512.368333
2633.338526,766.095498,-1702.473667,9474.636058
2633.338855,0.000000,-1998.556043,9548.656652
2633.339184,-842.705048,-2368.659014,9770.718434
2633.339513,-689.485948,-1998.556043,9696.697840
2633.339842,0.000000,-444.123565,9178.553681
2633.340171,-153.219100,296.082377,9326.594869
2633.340500,-229.828649,1110.308913,8808.450710
2633.340829,-153.219100,962.267725,8512.368333
2633.341158,1149.143247,666.185348,8734.430116
2633.341487,1991.848295,-74.020594,8734.430116
2633.341816,1685.410096,-1184.329507,9474.636058
2633.342145,995.924147,-2072.576638,9844.739029
2633.342474,1225.752797,-1554.432478,9622.677246
2633.342803,1378.971896,-962.267725,9326.594869
2633.343132,1685.410096,-0.000000,8734.430116
2633.343461,612.876398,1554.432478,9104.533087
2633.343790,536.266849,1628.453072,9104.533087
2633.344119,536.266849,962.267725,8660.409521
2633.344448,689.485948,296.082377,8216.285956
2633.344777,1302.362347,-888.247130,8882.471304
2633.345106,-229.828649,-2146.597232,9696.697840
2633.345435,-1378.971896,-2368.659014,10658.965565
2633.345764,-1838.629195,-2368.659014,10510.924376
2633.346093,-1378.971896,-1110.308913,9548.656652
2633.346422,-766.095498,-0.000000,9400.615463
2633.346751,-306.438199,1184.329507,8512.368333
2633.347080,0.000000,1110.308913,8216.285956
2633.347409,229.828649,1554.432478,8660.409521
2633.347738,842.705048,740.205942,8216.285956
2633.348067,842.705048,-518.144159,9326.594869
2633.348396,919.314598,-666.185348,8956.491898
2633.348725,306.438199,-1110.308913,9326.594869
2633.349054,0.000000,-1258.350101,9474.636058
2633.349383,689.485948,-74.020594,8660.409521
2633.349712,842.705048,962.267725,9548.656652
2633.350041,0.000000,1998.556043,8586.388927
2633.350370,153.219100,2072.576638,9252.574275
2633.350699,0.000000,2072.576638,8364.327145
2633.351028,995.924147,814.226536,7994.224174
2633.351357,919.314598,148.041188,9178.553681
2633.351686,1149.143247,-814.226536,9918.759623
2633.352015,-153.219100,-444.123565,9770.718434
2633.352344,-459.657299,-222.061783,10140.821405
2633.352673,0.000000,-0.000000,9474.636058
2633.353002,0.000000,1036.288319,8956.491898
2633.353331,76.609550,1480.411884,9474.636058
2633.353660,76.609550,1406.391290,9030.512492
2633.353989,153.219100,1258.350101,9178.553681
2633.354318,842.705048,666.185348,9326.594869
2633.354647,1685.410096,-222.061783,8808.450710
2633.354976,1302.362347,-518.144159,9474.636058
2633.355305,766.095498,-1184.329507,9992.780217
2633.355634,612.876398,-814.226536,9770.718434
2633.355963,689.485948,-148.041188,9252.574275
2633.356292,1302.362347,814.226536,8512.368333
2633.356621,459.657299,1850.514855,9252.574275
2633.356950,1072.533697,2072.576638,8660.409521
2633.357279,76.609550,1406.391290,8216.285956
2633.357608,1149.143247,518.144159,8956.491898
2633.357937,1225.752797,-148.041188,8882.471304
2633.358266,459.657299,-1702.473667,9844.739029
2633.358595,-536.266849,-2442.679609,10436.903782
2633.358924,-1455.581446,-2516.700203,9474.636058
2633.359253,-536.266849,-1702.473667,9474.636058
2633.359582,-153.219100,-222.061783,9400.615463
2633.359911,0.000000,592.164754,8956.491898
2633.360240,-383.047749,666.185348,8808.450710
2633.360569,306.438199,370.102971,8808.450710
2633.360898,995.924147,-296.082377,8216.285956
2633.361227,1762.019645,-1036.288319,8808.450710
2633.361556,689.485948,-1628.453072,9474.636058
2633.361885,0.000000,-2442.679609,10214.842000
2633.362214,-153.219100,-1998.556043,9696.697840
2633.362543,383.047749,-1184.329507,8882.471304
2633.362872,612.876398,-0.000000,8586.388927
2633.363201,383.047749,1036.288319,8808.450710
2633.363530,229.828649,1480.411884,8364.327145
2633.363859,766.095498,-0.000000,8660.409521
2633.364188,1225.752797,148.041188,7772.162391
2633.364517,1149.143247,-1110.308913,8808.450710
2633.364846,-153.219100,-1480.411884,9326.594869
2633.365175,-766.095498,-1998.556043,9474.636058
2633.365504,-459.657299,-2664.741391,9696.697840
2633.365833,153.219100,-1924.535449,9030.512492
2633.366162,153.219100,-0.000000,9252.574275
2633.366491,-383.047749,444.123565,9252.574275
2633.366820,-383.047749,1480.411884,8142.265362
2633.367149,0.000000,1110.308913,8216.285956
2633.367478,1072.533697,518.144159,7846.182985
2633.367807,1455.581446,-0.000000,8438.347739
2633.368136,459.657299,-1776.494261,9622.677246
2633.368465,76.609550,-1776.494261,9474.636058
2633.368794,-76.609550,-1776.494261,9992.780217
2633.369123,536.266849,-518.144159,9030.512492
2633.369452,536.266849,-0.000000,8882.471304
2633.369781,459.657299,962.267725,9178.553681
2633.370110,536.266849,1184.329507,8956.491898
2633.370439,1225.752797,1332.370696,8734.430116
2633.370768,1532.190996,592.164754,8512.368333
2633.371097,1762.019645,-0.000000,8882.471304
2633.371426,612.876398,-1184.329507,9696.697840
2633.371755,-229.828649,-1628.453072,10140.821405
2633.372084,-383.047749,-1850.514855,9918.759623
2633.372413,306.438199,-1110.308913,9770.718434
2633.372742,383.047749,-74.020594,9770.718434
2633.373071,0.000000,444.123565,9030.512492
2633.373400,-459.657299,1036.288319,9474.636058
2633.373729,306.438199,1036.288319,8660.409521
2633.374058,1455.581446,370.102971,8734.430116
2633.374387,1685.410096,296.082377,9178.553681
2633.374716,1225.752797,-666.185348,9770.718434
2633.375045,229.828649,-1628.453072,9844.739029
2633.375374,76.609550,-814.226536,9992.780217
2633.375703,1072.533697,-148.041188,9548.656652
2633.376032,919.314598,1036.288319,8882.471304
2633.376361,459.657299,1776.494261,9178.553681
2633.376690,306.438199,1924.535449,8512.368333
2633.377019,612.876398,2072.576638,8660.409521
2633.377348,1225.752797,888.247130,8364.327145
2633.377677,1455.581446,-740.205942,8660.409521
2633.378006,0.000000,-1184.329507,9844.739029
2633.378335,-766.095498,-1480.411884,9548.656652
2633.378664,-766.095498,-1332.370696,9400.615463
2633.378993,-383.047749,-296.082377,9474.636058
2633.379321,153.219100,592.164754,8660.409521
2633.379650,383.047749,1554.432478,8512.368333
2633.379979,-229.828649,1702.473667,8734.430116
2633.380308,919.314598,962.267725,8142.265362
2633.380637,1149.143247,962.267725,8216.285956
2633.380966,919.314598,-0.000000,8290.306550
2633.381295,229.828649,-296.082377,9400.615463
2633.381624,-383.047749,-1850.514855,9992.780217
2633.381953,0.000000,-1110.308913,9992.780217
2633.382282,459.657299,-592.164754,9326.594869
2633.382611,0.000000,444.123565,9030.512492
2633.382940,0.000000,740.205942,8956.491898
2633.383269,-306.438199,1332.370696,8660.409521
2633.383598,536.266849,296.082377,8290.306550
2633.383927,689.485948,1110.308913,8808.450710
2633.384256,1302.362347,-666.185348,9918.759623
2633.384585,306.438199,-1998.556043,9622.677246
2633.384914,-306.438199,-1776.494261,9918.759623
2633.385243,0.000000,-1702.473667,9844.739029
2633.385572,-383.047749,-1184.329507,9178.553681
2633.385901,-229.828649,592.164754,9622.677246
2633.386230,-229.828649,592.164754,9400.615463
2633.386559,76.609550,592.164754,8734.430116
2633.386888,689.485948,814.226536,8956.491898
2633.387217,1455.581446,-148.041188,8512.368333
2633.387546,1378.971896,-370.102971,8438.347739
2633.387875,842.705048,-1184.329507,9622.677246
2633.388204,229.828649,-1554.432478,9548.656652
2633.388533,229.828649,-1554.432478,9548.656652
2633.388862,612.876398,-444.123565,8808.450710
2633.389191,766.095498,-222.061783,8882.471304
2633.389520,612.876398,740.205942,8882.471304
2633.389849,76.609550,888.247130,8364.327145
2633.390178,612.876398,-74.020594,8882.471304
2633.390507,536.266849,-444.123565,8512.368333
2633.390836,1072.533697,-1332.370696,9474.636058
2633.391166,0.000000,-1850.514855,9474.636058
2633.391495,-383.047749,-2516.700203,9844.739029
2633.391824,-919.314598,-1332.370696,9622.677246
2633.392153,383.047749,-1332.370696,9326.594869
2633.392482,536.266849,-0.000000,8512.368333
2633.392811,383.047749,814.226536,8512.368333
2633.393140,689.485948,814.226536,8586.388927
2633.393470,1072.533697,296.082377,7105.977043
2633.393799,1532.190996,-74.020594,8142.265362
2633.394128,995.924147,-1110.308913,9252.574275
2633.394457,0.000000,-1702.473667,9326.594869
2633.394786,-383.047749,-1776.494261,9696.697840
2633.395115,-229.828649,-1702.473667,9400.615463
2633.395444,0.000000,-814.226536,9474.636058
2633.395773,229.828649,-0.000000,8808.450710
2633.396103,-229.828649,1110.308913,9474.636058
2633.396432,0.000000,296.082377,9178.553681
2633.396761,306.438199,-0.000000,8660.409521
2633.397090,995.924147,-370.102971,8586.388927
2633.397419,689.485948,-814.226536,9252.574275
2633.397748,0.000000,-1110.308913,9252.574275
2633.398077,-459.657299,-1332.370696,9030.512492
2633.398407,-383.047749,-296.082377,10140.821405
2633.398736,229.828649,-74.020594,9326.594869
2633.399065,229.828649,740.205942,8512.368333
2633.399394,0.000000,1110.308913,8290.306550
2633.399723,229.828649,962.267725,8734.430116
2633.400052,229.828649,592.164754,8512.368333
2633.400381,919.314598,-0.000000,8438.347739
2633.400711,1149.143247,-0.000000,9622.677246
2633.401040,76.609550,-592.164754,9474.636058
2633.401369,-306.438199,-740.205942,9696.697840
2633.401698,0.000000,-1036.288319,9622.677246
2633.402027,459.657299,-148.041188,9104.533087
2633.402356,536.266849,1184.329507,8882.471304
2633.402685,383.047749,1406.391290,8660.409521
2633.403014,612.876398,1702.473667,8808.450710
2633.403344,1302.362347,888.247130,8512.368333
2633.403673,1685.410096,-0.000000,8290.306550
2633.404002,919.314598,-74.020594,9030.512492
2633.404331,229.828649,-444.123565,9474.636058
2633.404660,-459.657299,-444.123565,9918.759623
2633.404989,-383.047749,-444.123565,9844.739029
2633.405318,-383.047749,-518.144159,9548.656652
2633.405648,306.438199,592.164754,9696.697840
2633.405977,0.000000,962.267725,9474.636058
2633.406306,-229.828649,1036.288319,8808.450710
2633.406635,536.266849,888.247130,8660.409521
2633.406964,1302.362347,444.123565,8956.491898
2633.407293,1149.143247,-814.226536,9548.656652
2633.407622,689.485948,-1554.432478,9326.594869
2633.407951,229.828649,-888.247130,9474.636058
2633.408281,459.657299,-518.144159,9252.574275
2633.408610,1072.533697,444.123565,9474.636058
2633.408939,842.705048,888.247130,8734.430116
2633.409268,153.219100,962.267725,9104.533087
2633.409597,459.657299,1406.391290,8512.368333
2633.409926,612.876398,444.123565,7994.224174
2633.410255,1225.752797,-0.000000,8956.491898
2633.410585,536.266849,-296.082377,9400.615463
2633.410914,-536.266849,-1998.556043,9622.677246
2633.411243,-1532.190996,-1184.329507,9918.759623
2633.411572,-842.705048,-1480.411884,9548.656652
2633.411901,-995.924147,-740.205942,9104.533087
2633.412230,766.095498,518.144159,8956.491898
2633.412559,0.000000,592.164754,8512.368333
2633.412888,76.609550,740.205942,8290.306550
2633.413218,1149.143247,814.226536,8142.265362
2633.413547,2068.457845,-0.000000,8216.285956
2633.413876,1532.190996,-74.020594,8438.347739
2633.414205,842.705048,-1332.370696,9474.636058
2633.414534,459.657299,-740.205942,9548.656652
2633.414863,229.828649,-1332.370696,9474.636058
2633.415192,0.000000,-740.205942,9104.533087
2633.415522,76.609550,-0.000000,9178.553681
2633.415851,-689.485948,444.123565,8882.471304
2633.416180,-536.266849,666.185348,8586.388927
2633.416509,0.000000,-222.061783,8216.285956
2633.416838,76.609550,-962.267725,8586.388927
2633.417167,-383.047749,-2294.638420,9992.780217
2633.417496,-995.924147,-2368.659014,10288.862594
2633.417825,-919.314598,-1850.514855,9548.656652
2633.418155,-383.047749,-1480.411884,9104.533087
2633.418484,229.828649,-0.000000,9030.512492
2633.418813,766.095498,296.082377,9326.594869
2633.419142,766.095498,370.102971,9104.533087
2633.419471,1149.143247,1258.350101,8068.244768
2633.419800,1762.019645,444.123565,8068.244768
2633.420129,2528.115143,222.061783,8512.368333
2633.420459,1991.848295,-222.061783,8956.491898
2633.420788,842.705048,-1036.288319,9474.636058
2633.421117,229.828649,-1628.453072,9844.739029
2633.421446,-383.047749,-518.144159,9178.553681
2633.421775,612.876398,-74.020594,8882.471304
2633.422104,153.219100,-0.000000,9104.533087
2633.422433,-536.266849,888.247130,9030.512492
2633.422763,-612.876398,740.205942,8734.430116
2633.423092,0.000000,-0.000000,8586.388927
2633.423421,689.485948,-222.061783,8882.471304
2633.423750,459.657299,-1332.370696,9844.739029
2633.424079,153.219100,-1628.453072,9474.636058
2633.424408,0.000000,-1406.391290,9696.697840
2633.424737,536.266849,-592.164754,9252.574275
2633.425066,1072.533697,592.164754,8956.491898
2633.425396,1072.533697,1258.350101,9104.533087
2633.425725,842.705048,1406.391290,8290.306550
2633.426054,1378.971896,1184.329507,8216.285956
2633.426383,2068.457845,888.247130,8216.285956
2633.426712,1838.629195,-148.041188,8142.265362
2633.427041,1072.533697,-888.247130,9400.615463
2633.427370,153.219100,-1628.453072,9696.697840
2633.427700,-612.876398,-1332.370696,9844.739029
2633.428029,-459.657299,-814.226536,9622.677246
2633.428358,-383.047749,-370.102971,9474.636058
2633.428687,0.000000,148.041188,9104.533087
2633.429016,-612.876398,1480.411884,8808.450710
2633.429345,0.000000,592.164754,8586.388927
2633.429674,306.438199,370.102971,8734.430116
2633.430003,459.657299,-222.061783,9474.636058
2633.430333,306.438199,-814.226536,9326.594869
2633.430662,-842.705048,-962.267725,9474.636058
2633.430991,-536.266849,-1702.473667,10362.883188
2633.431320,0.000000,-888.247130,9326.594869
2633.431649,229.828649,370.102971,9474.636058
2633.431978,306.438199,1258.350101,8512.368333
2633.432307,0.000000,1702.473667,7920.203579
2633.432637,153.219100,1776.494261,8512.368333
2633.432966,1149.143247,592.164754,7698.141797
2633.433295,1838.629195,-0.000000,8068.244768
2633.433624,766.095498,-222.061783,9178.553681
2633.433953,229.828649,-1184.329507,9474.636058
2633.434282,-383.047749,-888.247130,9474.636058
2633.434611,76.609550,-74.020594,8956.491898
2633.434940,383.047749,444.123565,9104.533087
2633.435270,0.000000,1924.535449,9030.512492
2633.435599,76.609550,666.185348,9104.533087
2633.435928,-153.219100,1184.329507,8808.450710
2633.436257,612.876398,666.185348,8512.368333
2633.436586,1149.143247,-296.082377,8660.409521
2633.436915,612.876398,-888.247130,9326.594869
2633.437244,153.219100,-1110.308913,9992.780217
2633.437574,0.000000,-962.267725,9770.718434
2633.437903,0.000000,-222.061783,9104.533087
