#time,accel_x,accel_y,accel_z
2518.293117,229.828649,-222.061783,9030.512492
2518.293446,229.828649,-222.061783,8956.491898
2518.293775,306.438199,-148.041188,9030.512492
2518.294104,689.485948,-222.061783,8956.491898
2518.294433,153.219100,-148.041188,9326.594869
2518.294763,612.876398,-444.123565,9178.553681
2518.295092,153.219100,-222.061783,9030.512492
2518.295421,229.828649,-0.000000,8734.430116
2518.295750,536.266849,-0.000000,8882.471304
2518.296079,383.047749,-0.000000,9030.512492
2518.296408,383.047749,-0.000000,9400.615463
2518.296737,229.828649,-370.102971,9104.533087
2518.297067,536.266849,-222.061783,9326.594869
2518.297396,383.047749,-222.061783,8956.491898
2518.297725,76.609550,-222.061783,9252.574275
2518.298054,153.219100,-148.041188,9326.594869
2518.298383,0.000000,-222.061783,9104.533087
2518.298712,153.219100,-296.082377,9104.533087
2518.299041,383.047749,-296.082377,9326.594869
2518.299371,536.266849,-0.000000,9474.636058
2518.299700,0.000000,-0.000000,9400.615463
2518.300029,229.828649,-74.020594,9030.512492
2518.300358,306.438199,-148.041188,9326.594869
2518.300687,536.266849,-74.020594,9178.553681
2518.301016,612.876398,-666.185348,9400.615463
2518.301345,536.266849,-444.123565,9252.574275
2518.301674,459.657299,-296.082377,9178.553681
2518.302004,459.657299,-296.082377,9178.553681
2518.302333,306.438199,-148.041188,8956.491898
2518.302662,306.438199,-148.041188,9178.553681
2518.302991,229.828649,-0.000000,9104.533087
2518.303320,536.266849,-222.061783,8882.471304
2518.303649,153.219100,-148.041188,8808.450710
2518.303978,459.657299,-222.061783,8956.491898
2518.304308,76.609550,-592.164754,8882.471304
2518.304637,459.657299,-74.020594,8882.471304
2518.304966,306.438199,-222.061783,8956.491898
2518.305295,153.219100,-222.061783,8808.450710
2518.305624,229.828649,-74.020594,9030.512492
2518.305953,383.047749,-444.123565,8956.491898
2518.306282,689.485948,-296.082377,9104.533087
2518.306612,459.657299,-0.000000,9104.533087
2518.306941,76.609550,-148.041188,8956.491898
2518.307270,383.047749,222.061783,9030.512492
2518.307599,459.657299,-0.000000,9030.512492
2518.307928,229.828649,-518.144159,8882.471304
2518.308257,689.485948,-296.082377,9104.533087
2518.308586,0.000000,-222.061783,9030.512492
2518.308916,459.657299,-222.061783,9178.553681
2518.309245,459.657299,-222.061783,9104.533087
2518.309574,383.047749,-222.061783,9252.574275
2518.309903,306.438199,-222.061783,8956.491898
2518.310232,536.266849,-370.102971,9030.512492
2518.310561,306.438199,-148.041188,9326.594869
2518.310890,459.657299,-148.041188,9474.636058
2518.311220,153.219100,-518.144159,9400.615463
2518.311549,153.219100,-148.041188,9030.512492
2518.311878,383.047749,-222.061783,9178.553681
2518.312207,153.219100,-74.020594,9326.594869
2518.312536,459.657299,-222.061783,9474.636058
2518.312865,612.876398,-518.144159,9178.553681
2518.313194,689.485948,-592.164754,9400.615463
2518.313524,459.657299,-592.164754,8586.388927
2518.313853,459.657299,-148.041188,9030.512492
2518.314182,229.828649,-0.000000,9178.553681
2518.314511,536.266849,-0.000000,8956.491898
2518.314840,612.876398,-222.061783,9030.512492
2518.315169,536.266849,-74.020594,8956.491898
2518.315498,383.047749,-74.020594,8660.409521
2518.315828,766.095498,-592.164754,8734.430116
2518.316157,0.000000,-74.020594,9030.512492
2518.316486,76.609550,-74.020594,8882.471304
2518.316815,153.219100,-222.061783,8882.471304
2518.317144,536.266849,-296.082377,8808.450710
2518.317473,229.828649,-370.102971,9178.553681
2518.317802,459.657299,-444.123565,9104.533087
2518.318132,153.219100,-518.144159,8808.450710
2518.318461,306.438199,-74.020594,8956.491898
2518.318790,229.828649,-74.020594,8956.491898
2518.319119,229.828649,-74.020594,9178.553681
2518.319448,536.266849,-222.061783,8882.471304
2518.319777,383.047749,-222.061783,9400.615463
2518.320106,842.705048,-222.061783,9400.615463
2518.320436,383.047749,-74.020594,9104.533087
2518.320765,229.828649,-222.061783,9178.553681
2518.321094,383.047749,-74.020594,9326.594869
2518.321423,153.219100,-370.102971,9178.553681
2518.321752,689.485948,-370.102971,9696.697840
2518.322081,1225.752797,-1036.288319,9548.656652
2518.322410,1455.581446,-888.247130,9400.615463
2518.322739,1762.019645,-518.144159,9474.636058
2518.323069,2451.505594,-666.185348,9400.615463
2518.323398,2451.505594,-0.000000,9030.512492
2518.323727,3677.258390,296.082377,9104.533087
2518.324056,4443.353888,-296.082377,9030.512492
2518.324385,3600.648841,-0.000000,8364.327145
2518.324714,3064.381992,666.185348,8882.471304
2518.325043,3217.601092,-74.020594,8512.368333
2518.325373,3217.601092,-74.020594,9474.636058
2518.325702,2451.505594,-370.102971,9030.512492
2518.326031,1608.800546,-814.226536,9474.636058
2518.326360,1685.410096,-1702.473667,9992.780217
2518.326689,2145.067394,-1406.391290,9178.553681
2518.327018,2451.505594,148.041188,9178.553681
2518.327347,3064.381992,-1184.329507,10214.842000
2518.327677,3064.381992,-444.123565,8882.471304
2518.328006,4213.525239,296.082377,9474.636058
2518.328335,5209.449386,740.205942,7402.059420
2518.328664,4519.963438,1036.288319,8068.244768
2518.328993,4826.401637,1184.329507,8882.471304
2518.329322,4749.792088,1036.288319,7328.038826
2518.329651,3907.087040,888.247130,8586.388927
2518.329981,3217.601092,-222.061783,8734.430116
2518.330310,2298.286494,-0.000000,8956.491898
2518.330639,1838.629195,-370.102971,9844.739029
2518.330968,1072.533697,-1110.308913,9326.594869
2518.331297,1762.019645,-888.247130,10066.800811
2518.331626,766.095498,-1258.350101,9548.656652
2518.331955,1915.238745,-740.205942,9548.656652
2518.332285,1991.848295,-740.205942,9918.759623
2518.332614,3294.210641,1184.329507,8364.327145
2518.332943,3600.648841,-222.061783,9178.553681
2518.333272,4136.915689,1258.350101,8956.491898
2518.333601,4290.134789,518.144159,8438.347739
2518.333930,4290.134789,1258.350101,8290.306550
2518.334259,4673.182538,222.061783,9474.636058
2518.334589,3983.696590,-296.082377,9104.533087
2518.334918,3370.820191,-1258.350101,9474.636058
2518.335247,2604.724693,-1258.350101,9696.697840
2518.335576,2528.115143,-1332.370696,10584.944971
2518.335905,1915.238745,-1406.391290,9844.739029
2518.336234,2451.505594,-1406.391290,10288.862594
2518.336563,2528.115143,-592.164754,9696.697840
2518.336893,2451.505594,-0.000000,9178.553681
2518.337222,3983.696590,962.267725,8216.285956
2518.337551,4596.572988,1628.453072,8512.368333
2518.337880,4826.401637,2590.720797,7772.162391
2518.338209,4749.792088,2516.700203,7179.997637
2518.338538,3907.087040,2220.617826,7550.100608
2518.338867,3907.087040,1776.494261,7994.224174
2518.339197,2145.067394,444.123565,8068.244768
2518.339526,2681.334243,-962.267725,9104.533087
2518.339855,1991.848295,-1628.453072,9992.780217
2518.340184,1838.629195,-2738.761985,10288.862594
2518.340513,1608.800546,-2886.803174,10584.944971
2518.340842,2604.724693,-2664.741391,10584.944971
2518.341171,3677.258390,-1924.535449,10066.800811
2518.341501,4673.182538,-148.041188,9252.574275
2518.341830,5515.887586,1184.329507,8586.388927
2518.342159,6128.763984,2516.700203,7624.121203
2518.342488,5286.058936,3627.009116,7031.956449
2518.342817,4366.744339,3701.029710,6883.915261
2518.343146,3600.648841,3182.885551,6587.832884
2518.343475,1302.362347,1184.329507,7994.224174
2518.343804,0.000000,-1406.391290,9104.533087
2518.344134,-2911.162892,-2368.659014,10214.842000
2518.344463,-2221.676944,-5033.400406,11547.212695
2518.344792,-3447.429741,-3182.885551,8808.450710
2518.345121,-2834.553343,-3923.091493,11843.295072
2518.345450,-3447.429741,-2738.761985,10288.862594
2518.345779,-2528.115143,-1776.494261,11325.150913
2518.346108,-689.485948,-1184.329507,11029.068536
2518.346438,459.657299,814.226536,8734.430116
2518.346767,459.657299,2368.659014,8068.244768
2518.347096,0.000000,1924.535449,9474.636058
2518.347425,2145.067394,-0.000000,10955.047942
2518.347754,4136.915689,2072.576638,6513.812290
2518.348083,6741.640382,1850.514855,6587.832884
2518.348412,4903.011187,2368.659014,4811.338623
2518.348742,5056.230287,1850.514855,6957.935855
2518.349071,2451.505594,1036.288319,7328.038826
2518.349400,1608.800546,-518.144159,7179.997637
2518.349729,0.000000,-1924.535449,9326.594869
2518.350058,-1685.410096,-2072.576638,9178.553681
2518.350387,-1762.019645,-3701.029710,10510.924376
2518.350716,-2298.286494,-2738.761985,9622.677246
2518.351046,-766.095498,-2220.617826,10288.862594
2518.351375,-2145.067394,-1998.556043,11177.109724
2518.351704,-1378.971896,-370.102971,10955.047942
2518.352033,-1762.019645,962.267725,10362.883188
2518.352362,-842.705048,-0.000000,9252.574275
2518.352691,-306.438199,1850.514855,9030.512492
2518.353020,-536.266849,1554.432478,8956.491898
2518.353350,-229.828649,222.061783,9400.615463
2518.353679,0.000000,222.061783,9918.759623
2518.354008,1378.971896,-888.247130,8956.491898
2518.354337,2374.896044,-1110.308913,8290.306550
2518.354666,3447.429741,-740.205942,7994.224174
2518.354995,3524.039291,-0.000000,7328.038826
2518.355324,4979.620737,740.205942,7698.141797
2518.355654,4060.306139,1702.473667,7846.182985
2518.355983,3140.991542,1406.391290,7698.141797
2518.356312,1838.629195,1184.329507,8734.430116
2518.356641,76.609550,444.123565,8734.430116
2518.356970,-1455.581446,-222.061783,9696.697840
2518.357299,-2068.457845,-2664.741391,11473.192101
2518.357628,-1991.848295,-1998.556043,11103.089130
2518.357958,-1991.848295,-1036.288319,11103.089130
2518.358287,-1762.019645,-1332.370696,10288.862594
2518.358616,-1455.581446,-296.082377,9548.656652
2518.358945,-1378.971896,296.082377,9918.759623
2518.359274,-689.485948,666.185348,9178.553681
2518.359603,76.609550,1036.288319,9030.512492
2518.359932,919.314598,592.164754,8882.471304
2518.360262,612.876398,444.123565,8660.409521
2518.360591,229.828649,-962.267725,10140.821405
2518.360920,306.438199,-1702.473667,9844.739029
2518.361249,2604.724693,-1480.411884,9992.780217
2518.361578,3294.210641,666.185348,6439.791695
2518.361907,4903.011187,1850.514855,7105.977043
2518.362236,3907.087040,2664.741391,6587.832884
2518.362566,4290.134789,3775.050304,7105.977043
2518.362895,2451.505594,2368.659014,7105.977043
2518.363224,1149.143247,370.102971,7105.977043
2518.363553,-842.705048,-1776.494261,9622.677246
2518.363882,-2221.676944,-2516.700203,10436.903782
2518.364211,-2374.896044,-3849.070898,10584.944971
2518.364540,-2451.505594,-3404.947333,9918.759623
2518.364870,-1225.752797,-2886.803174,10140.821405
2518.365199,-2374.896044,-592.164754,9622.677246
2518.365528,-2145.067394,222.061783,11103.089130
2518.365857,-1991.848295,592.164754,10066.800811
2518.366186,-766.095498,444.123565,9474.636058
2518.366515,-229.828649,962.267725,9400.615463
2518.366844,0.000000,1110.308913,7920.203579
2518.367173,0.000000,-666.185348,9918.759623
2518.367503,-229.828649,-1406.391290,10510.924376
2518.367832,612.876398,-1998.556043,9622.677246
2518.368161,2298.286494,-1258.350101,9030.512492
2518.368490,2681.334243,888.247130,5033.400406
2518.368819,2987.772442,1480.411884,7402.059420
2518.369148,1762.019645,2664.741391,6365.771101
2518.369477,1991.848295,2368.659014,8586.388927
2518.369807,1149.143247,296.082377,8586.388927
2518.370136,153.219100,-74.020594,7846.182985
2518.370465,-1838.629195,-2442.679609,11029.068536
2518.370794,-2221.676944,-1998.556043,10288.862594
2518.371123,-2145.067394,-1702.473667,9918.759623
2518.371452,-1762.019645,-1036.288319,10732.986159
2518.371781,-612.876398,1554.432478,9548.656652
2518.372110,-1532.190996,1332.370696,10140.821405
2518.372439,-1991.848295,1480.411884,9844.739029
2518.372768,-1225.752797,518.144159,9696.697840
2518.373097,-689.485948,-666.185348,10140.821405
2518.373426,153.219100,-740.205942,9104.533087
2518.373755,536.266849,-1480.411884,8660.409521
2518.374084,0.000000,-1554.432478,10658.965565
2518.374413,306.438199,-2072.576638,10436.903782
2518.374742,919.314598,-2886.803174,10510.924376
2518.375071,3064.381992,-444.123565,7328.038826
2518.375400,4136.915689,2220.617826,6069.688724
2518.375728,4213.525239,1924.535449,6513.812290
2518.376057,2681.334243,3256.906145,7105.977043
2518.376386,2528.115143,1480.411884,9326.594869
2518.376715,1072.533697,-370.102971,8364.327145
2518.377044,0.000000,-962.267725,8808.450710
2518.377373,-2145.067394,-2738.761985,11473.192101
2518.377702,-1455.581446,-1924.535449,9474.636058
2518.378031,-995.924147,-1332.370696,10066.800811
2518.378360,-229.828649,222.061783,9696.697840
2518.378689,-919.314598,1184.329507,9178.553681
2518.379018,-383.047749,666.185348,10510.924376
2518.379347,-306.438199,-222.061783,9622.677246
2518.379676,0.000000,-518.144159,9474.636058
2518.380005,383.047749,-1480.411884,9400.615463
2518.380334,0.000000,-296.082377,9400.615463
2518.380663,-153.219100,-2368.659014,11399.171507
2518.380992,536.266849,-1036.288319,9992.780217
2518.381321,2987.772442,-888.247130,10066.800811
2518.381650,2834.553343,1480.411884,4811.338623
2518.381978,4596.572988,1850.514855,7328.038826
2518.382307,2604.724693,2442.679609,5773.606348
2518.382636,2987.772442,2664.741391,6809.894666
2518.382965,1225.752797,666.185348,7846.182985
2518.383294,76.609550,-74.020594,7772.162391
2518.383623,-1532.190996,-2590.720797,10807.006753
2518.383952,-2221.676944,-2368.659014,10584.944971
2518.384281,-1532.190996,-2072.576638,9252.574275
2518.384610,-1302.362347,-962.267725,9992.780217
2518.384939,-383.047749,962.267725,9178.553681
2518.385268,-1072.533697,1850.514855,10436.903782
2518.385597,-995.924147,296.082377,9770.718434
2518.385926,-612.876398,518.144159,9326.594869
2518.386255,306.438199,-1702.473667,10140.821405
2518.386584,-306.438199,-370.102971,9030.512492
2518.386913,-459.657299,-1332.370696,9548.656652
2518.387242,-689.485948,-2220.617826,10807.006753
2518.387571,76.609550,-1998.556043,9326.594869
2518.387900,1302.362347,-1924.535449,9622.677246
2518.388228,2298.286494,-296.082377,7254.018232
2518.388557,2528.115143,1480.411884,5847.626942
2518.388886,2298.286494,1776.494261,7328.038826
2518.389215,1302.362347,2442.679609,6883.915261
2518.389544,1149.143247,592.164754,8660.409521
2518.389873,76.609550,-370.102971,8290.306550
2518.390202,-1149.143247,-1036.288319,8808.450710
2518.390531,-1838.629195,-2590.720797,11325.150913
2518.390860,-1378.971896,-1332.370696,9548.656652
2518.391189,-842.705048,-814.226536,10066.800811
2518.391518,-229.828649,1184.329507,9400.615463
2518.391847,-689.485948,1554.432478,9326.594869
2518.392176,-1072.533697,222.061783,10584.944971
2518.392505,-1378.971896,-444.123565,9622.677246
2518.392834,0.000000,-1332.370696,9844.739029
2518.393163,0.000000,-2146.597232,10510.924376
2518.393492,-383.047749,-1110.308913,9326.594869
2518.393821,0.000000,-1480.411884,10584.944971
2518.394150,536.266849,-1184.329507,10140.821405
2518.394479,3370.820191,-0.000000,9326.594869
2518.394807,3294.210641,2220.617826,4737.318029
2518.395136,4826.401637,1850.514855,6587.832884
2518.395465,2604.724693,2886.803174,5995.668130
2518.395794,3370.820191,1702.473667,7476.080014
2518.396123,689.485948,518.144159,8364.327145
2518.396452,-306.438199,-888.247130,8586.388927
2518.396781,-2145.067394,-2812.782580,10807.006753
2518.397110,-2145.067394,-2220.617826,10140.821405
2518.397439,-1608.800546,-1628.453072,9030.512492
2518.397768,-1149.143247,-518.144159,9918.759623
2518.398097,-1149.143247,148.041188,9844.739029
2518.398426,-689.485948,1110.308913,10510.924376
2518.398755,-459.657299,814.226536,9696.697840
2518.399084,76.609550,222.061783,8734.430116
2518.399413,153.219100,-1628.453072,9696.697840
2518.399742,0.000000,-444.123565,9918.759623
2518.400071,-689.485948,-1554.432478,10510.924376
2518.400400,536.266849,-2886.803174,11325.150913
2518.400729,2987.772442,518.144159,7179.997637
2518.401057,4979.620737,2368.659014,7328.038826
2518.401386,2757.943793,1702.473667,5329.482782
2518.401715,2757.943793,2960.823768,7624.121203
2518.402044,766.095498,-222.061783,8660.409521
2518.402373,459.657299,666.185348,8438.347739
2518.402702,-919.314598,-2220.617826,9918.759623
2518.403031,-2298.286494,-2442.679609,10807.006753
2518.403360,-2834.553343,-1924.535449,9992.780217
2518.403689,-1532.190996,-1406.391290,10510.924376
2518.404018,-995.924147,-666.185348,8734.430116
2518.404347,153.219100,888.247130,10510.924376
2518.404676,0.000000,962.267725,9918.759623
2518.405005,0.000000,1924.535449,8808.450710
2518.405334,689.485948,-222.061783,9178.553681
2518.405663,536.266849,-0.000000,8068.244768
2518.405992,-76.609550,-666.185348,9992.780217
2518.406321,-306.438199,-2294.638420,10362.883188
2518.406650,2145.067394,-1924.535449,10436.903782
2518.406979,3140.991542,-0.000000,7105.977043
2518.407308,4826.401637,888.247130,6809.894666
2518.407636,3983.696590,1628.453072,5773.606348
2518.407965,3600.648841,2368.659014,7328.038826
2518.408294,1915.238745,1850.514855,7698.141797
2518.408623,536.266849,518.144159,8586.388927
2518.408952,-1072.533697,-1850.514855,9844.739029
2518.409281,-2451.505594,-2590.720797,10510.924376
2518.409610,-2374.896044,-3256.906145,10288.862594
2518.409939,-2528.115143,-2220.617826,9770.718434
2518.410268,-1302.362347,-1480.411884,10140.821405
2518.410597,-1378.971896,592.164754,9844.739029
2518.410926,-995.924147,1776.494261,9992.780217
2518.411255,459.657299,1332.370696,9326.594869
2518.411584,612.876398,-148.041188,9030.512492
2518.411913,536.266849,-148.041188,9252.574275
2518.412242,153.219100,-370.102971,9104.533087
2518.412571,-229.828649,-1258.350101,10436.903782
2518.412900,76.609550,-1924.535449,10881.027347
2518.413229,2834.553343,-740.205942,9252.574275
2518.413558,3447.429741,888.247130,6587.832884
2518.413886,4443.353888,666.185348,7105.977043
2518.414215,3600.648841,2294.638420,6587.832884
2518.414544,2757.943793,2442.679609,8068.244768
2518.414873,1225.752797,1776.494261,7550.100608
2518.415202,229.828649,-222.061783,8586.388927
2518.415531,-1915.238745,-1258.350101,9918.759623
2518.415860,-2528.115143,-2220.617826,10881.027347
2518.416189,-2451.505594,-2812.782580,10140.821405
2518.416518,-2145.067394,-2072.576638,9696.697840
2518.416847,-919.314598,-370.102971,10214.842000
2518.417176,-459.657299,1110.308913,9400.615463
2518.417505,-612.876398,1406.391290,8882.471304
2518.417834,-383.047749,962.267725,8882.471304
2518.418163,1302.362347,-0.000000,9326.594869
2518.418492,1149.143247,740.205942,8734.430116
2518.418821,536.266849,-1850.514855,9696.697840
2518.419150,1455.581446,-2146.597232,11695.253884
2518.419479,2451.505594,-1184.329507,8512.368333
2518.419808,4519.963438,592.164754,7254.018232
2518.420137,4519.963438,814.226536,5921.647536
2518.420465,3830.477490,2886.803174,6809.894666
2518.420794,3677.258390,2516.700203,8142.265362
2518.421123,1838.629195,1554.432478,7402.059420
2518.421452,0.000000,-740.205942,8882.471304
2518.421781,-2068.457845,-2146.597232,10807.006753
2518.422110,-3294.210641,-2664.741391,11177.109724
2518.422439,-3600.648841,-3330.926739,10584.944971
2518.422768,-2528.115143,-2368.659014,10584.944971
2518.423097,-2068.457845,-1776.494261,10955.047942
2518.423426,-1991.848295,-0.000000,10510.924376
2518.423755,-1838.629195,1554.432478,10214.842000
2518.424084,-919.314598,1110.308913,9104.533087
2518.424413,612.876398,1332.370696,9030.512492
2518.424742,229.828649,1924.535449,7920.203579
2518.425071,0.000000,-148.041188,9548.656652
2518.425400,153.219100,-1998.556043,11251.130318
2518.425729,2681.334243,-1110.308913,8956.491898
2518.426058,3447.429741,444.123565,6439.791695
2518.426387,3907.087040,222.061783,6069.688724
2518.426715,3294.210641,1702.473667,6735.874072
2518.427044,2987.772442,2072.576638,7920.203579
2518.427373,1455.581446,1998.556043,7624.121203
2518.427702,-306.438199,-296.082377,7772.162391
2518.428031,-1225.752797,-1480.411884,9844.739029
2518.428360,-2374.896044,-1850.514855,10732.986159
2518.428689,-3140.991542,-2442.679609,9696.697840
2518.429018,-2528.115143,-2072.576638,10140.821405
2518.429347,-1608.800546,-2072.576638,10584.944971
2518.429676,-1225.752797,444.123565,9918.759623
2518.430005,-995.924147,1554.432478,10288.862594
2518.430334,-1149.143247,518.144159,9104.533087
2518.430663,0.000000,370.102971,9104.533087
2518.430992,459.657299,1184.329507,8512.368333
2518.431321,153.219100,-74.020594,8586.388927
2518.431650,-383.047749,-1776.494261,10288.862594
2518.431979,536.266849,-1702.473667,10658.965565
2518.432308,2681.334243,-1554.432478,9844.739029
2518.432637,3140.991542,-518.144159,6883.915261
2518.432965,4213.525239,814.226536,7105.977043
2518.433294,3753.867940,2590.720797,6735.874072
2518.433623,3524.039291,3552.988522,7105.977043
2518.433952,1838.629195,2072.576638,7624.121203
2518.434281,766.095498,-148.041188,8734.430116
2518.434610,-1455.581446,-1776.494261,9770.718434
2518.434939,-2681.334243,-2664.741391,11399.171507
2518.435268,-3140.991542,-3478.967927,10436.903782
2518.435597,-2681.334243,-2516.700203,10510.924376
2518.435926,-1532.190996,-1110.308913,10288.862594
2518.436255,-2068.457845,666.185348,9918.759623
2518.436584,-1378.971896,888.247130,10288.862594
2518.436913,-612.876398,740.205942,8808.450710
2518.437242,0.000000,444.123565,9178.553681
2518.437571,229.828649,1184.329507,8586.388927
2518.437900,-229.828649,370.102971,8512.368333
2518.438229,-383.047749,-1332.370696,10807.006753
2518.438558,383.047749,-1628.453072,10436.903782
2518.438887,2834.553343,-1480.411884,9696.697840
2518.439216,3294.210641,-518.144159,6513.812290
2518.439544,4366.744339,1036.288319,6957.935855
2518.439873,3753.867940,2294.638420,6735.874072
2518.440202,3524.039291,2886.803174,6809.894666
2518.440531,2221.676944,1702.473667,7624.121203
2518.440860,689.485948,-74.020594,7624.121203
2518.441189,-766.095498,-1554.432478,9326.594869
2518.441518,-2451.505594,-2812.782580,10214.842000
2518.441847,-2451.505594,-3627.009116,11029.068536
2518.442176,-2298.286494,-2294.638420,9622.677246
2518.442505,-919.314598,-1110.308913,10066.800811
2518.442834,-1455.581446,518.144159,9770.718434
2518.443163,-689.485948,1480.411884,9400.615463
2518.443492,-536.266849,592.164754,9474.636058
2518.443821,306.438199,-148.041188,9474.636058
2518.444150,689.485948,-148.041188,9178.553681
2518.444479,-306.438199,-962.267725,9622.677246
2518.444808,0.000000,-1998.556043,11251.130318
2518.445137,1225.752797,-2516.700203,11251.130318
2518.445466,2911.162892,-592.164754,8216.285956
2518.445794,4826.401637,-0.000000,7031.956449
2518.446123,4749.792088,1702.473667,6661.853478
2518.446452,3907.087040,3552.988522,7254.018232
2518.446781,2987.772442,2368.659014,7328.038826
2518.447110,1762.019645,1702.473667,7698.141797
2518.447439,153.219100,-0.000000,8660.409521
2518.447768,-1685.410096,-1554.432478,9918.759623
2518.448097,-3064.381992,-3256.906145,11029.068536
2518.448426,-2757.943793,-2886.803174,10584.944971
2518.448755,-842.705048,-1776.494261,9548.656652
2518.449084,-1225.752797,-666.185348,10732.986159
2518.449413,-1378.971896,1184.329507,9400.615463
2518.449742,-995.924147,1480.411884,9770.718434
2518.450071,-766.095498,888.247130,8882.471304
2518.450400,459.657299,962.267725,9474.636058
2518.450729,306.438199,148.041188,8956.491898
2518.451058,-306.438199,-518.144159,8734.430116
2518.451387,-306.438199,-2368.659014,11251.130318
2518.451716,1149.143247,-1776.494261,9992.780217
2518.452045,2757.943793,-518.144159,7624.121203
2518.452373,3524.039291,444.123565,6513.812290
2518.452702,3907.087040,2072.576638,6217.729913
2518.453031,2451.505594,2664.741391,6957.935855
2518.453360,2834.553343,1332.370696,7254.018232
2518.453689,919.314598,370.102971,7994.224174
2518.454018,-536.266849,-1554.432478,9178.553681
2518.454347,-2298.286494,-2220.617826,9770.718434
2518.454676,-2757.943793,-2738.761985,10658.965565
2518.455005,-2451.505594,-2516.700203,9474.636058
2518.455334,-689.485948,-1258.350101,10140.821405
2518.455663,-766.095498,296.082377,9918.759623
2518.455992,-766.095498,1776.494261,9400.615463
2518.456321,-995.924147,1184.329507,9844.739029
2518.456650,-612.876398,370.102971,9178.553681
2518.456979,383.047749,-0.000000,9844.739029
2518.457308,0.000000,-296.082377,9104.533087
2518.457637,0.000000,-1554.432478,10584.944971
2518.457966,0.000000,-2146.597232,10732.986159
2518.458295,919.314598,-1924.535449,10436.903782
2518.458623,2451.505594,-518.144159,8290.306550
2518.458952,3600.648841,888.247130,6513.812290
2518.459281,3753.867940,2072.576638,6957.935855
2518.459610,2987.772442,2590.720797,6365.771101
2518.459939,2604.724693,2146.597232,7550.100608
2518.460268,1149.143247,444.123565,7920.203579
2518.460597,-153.219100,-1036.288319,8956.491898
2518.460926,-2221.676944,-2220.617826,10436.903782
2518.461255,-2145.067394,-2590.720797,10436.903782
2518.461584,-1915.238745,-1850.514855,9400.615463
2518.461913,-766.095498,-1110.308913,10066.800811
2518.462242,-612.876398,1406.391290,9474.636058
2518.462571,-383.047749,1332.370696,9696.697840
2518.462900,-995.924147,1110.308913,9548.656652
2518.463229,-306.438199,370.102971,9474.636058
2518.463558,536.266849,-666.185348,10066.800811
2518.463887,-306.438199,-0.000000,8290.306550
2518.464216,0.000000,-2220.617826,10955.047942
2518.464545,0.000000,-1998.556043,10807.006753
2518.464873,2604.724693,-1776.494261,10066.800811
2518.465202,3294.210641,-0.000000,6809.894666
2518.465531,4366.744339,1258.350101,6809.894666
2518.465860,3677.258390,2590.720797,6513.812290
2518.466189,3677.258390,3108.864956,6735.874072
2518.466518,2528.115143,1998.556043,7920.203579
2518.466847,689.485948,222.061783,8290.306550
2518.467176,0.000000,-1258.350101,9178.553681
2518.467505,-2834.553343,-2294.638420,10732.986159
2518.467834,-2681.334243,-2812.782580,11103.089130
2518.468163,-2221.676944,-1924.535449,9918.759623
2518.468492,-1302.362347,-444.123565,9844.739029
2518.468821,-1838.629195,814.226536,10584.944971
2518.469150,-1915.238745,1110.308913,9918.759623
2518.469479,-1685.410096,814.226536,9992.780217
2518.469808,-459.657299,-0.000000,9622.677246
2518.470137,459.657299,-666.185348,9474.636058
2518.470466,-766.095498,-518.144159,8734.430116
2518.470795,-459.657299,-2220.617826,11473.192101
2518.471124,1149.143247,-2368.659014,11399.171507
2518.471452,3753.867940,-148.041188,7550.100608
2518.471781,5592.497135,962.267725,6143.709319
2518.472110,4519.963438,2516.700203,5181.441594
2518.472439,3907.087040,3627.009116,7031.956449
2518.472768,2145.067394,2664.741391,7550.100608
2518.473097,689.485948,666.185348,7994.224174
2518.473426,-689.485948,-1110.308913,9400.615463
2518.473755,-2145.067394,-3478.967927,10436.903782
2518.474084,-2911.162892,-3330.926739,10214.842000
2518.474413,-2604.724693,-2664.741391,9474.636058
2518.474742,-1302.362347,-1850.514855,9992.780217
2518.475071,-1378.971896,-296.082377,10288.862594
2518.475400,-689.485948,1332.370696,9918.759623
2518.475729,-995.924147,1702.473667,9326.594869
2518.476058,459.657299,-0.000000,8512.368333
2518.476387,1072.533697,666.185348,9030.512492
2518.476716,-689.485948,296.082377,9104.533087
2518.477045,-842.705048,-1998.556043,11103.089130
2518.477374,689.485948,-2368.659014,11547.212695
2518.477703,2911.162892,-666.185348,8364.327145
2518.478032,4519.963438,444.123565,6513.812290
2518.478360,4596.572988,592.164754,6217.729913
2518.478689,3983.696590,3330.926739,7402.059420
2518.479018,3370.820191,2220.617826,8586.388927
2518.479347,1149.143247,1628.453072,7624.121203
2518.479676,76.609550,-666.185348,8956.491898
2518.480005,-2068.457845,-1998.556043,10362.883188
2518.480334,-2757.943793,-2590.720797,10955.047942
2518.480663,-1915.238745,-3108.864956,10732.986159
2518.480992,-1225.752797,-1776.494261,9548.656652
2518.481321,-306.438199,-0.000000,10362.883188
2518.481650,-689.485948,1702.473667,9400.615463
2518.481979,-536.266849,2146.597232,9622.677246
2518.482308,0.000000,888.247130,8660.409521
2518.482637,919.314598,518.144159,8586.388927
2518.482966,306.438199,888.247130,9178.553681
2518.483295,0.000000,-1776.494261,10436.903782
2518.483624,536.266849,-2442.679609,11991.336260
2518.483953,2987.772442,-1258.350101,9252.574275
2518.484282,4749.792088,148.041188,6661.853478
2518.484611,4826.401637,592.164754,6143.709319
2518.484940,4443.353888,2664.741391,6957.935855
2518.485268,3140.991542,2960.823768,8068.244768
2518.485597,2298.286494,1924.535449,7402.059420
2518.485926,306.438199,222.061783,7920.203579
2518.486255,-1762.019645,-1776.494261,9918.759623
2518.486584,-2911.162892,-2960.823768,10955.047942
2518.486913,-3064.381992,-3997.112087,10807.006753
2518.487242,-2528.115143,-3182.885551,10140.821405
2518.487571,-1915.238745,-1850.514855,10362.883188
2518.487900,-1532.190996,-0.000000,9992.780217
2518.488229,-1838.629195,1110.308913,9622.677246
2518.488558,-842.705048,814.226536,9178.553681
2518.488887,76.609550,962.267725,8438.347739
2518.489216,383.047749,1406.391290,8364.327145
2518.489545,-536.266849,-296.082377,8660.409521
2518.489874,-1072.533697,-2220.617826,11103.089130
2518.490203,2068.457845,-2368.659014,10288.862594
2518.490532,2911.162892,-444.123565,7105.977043
2518.490861,4060.306139,-518.144159,7105.977043
2518.491190,3217.601092,1628.453072,6143.709319
2518.491519,3294.210641,2812.782580,7846.182985
2518.491848,1685.410096,2368.659014,7698.141797
2518.492176,536.266849,518.144159,8290.306550
2518.492505,-612.876398,-518.144159,9252.574275
2518.492834,-2528.115143,-1406.391290,10140.821405
2518.493163,-3217.601092,-2368.659014,10510.924376
2518.493492,-2757.943793,-2072.576638,9400.615463
2518.493821,-1608.800546,-1480.411884,10510.924376
2518.494150,-1455.581446,-0.000000,9918.759623
2518.494479,-1378.971896,1702.473667,9918.759623
2518.494808,-1685.410096,888.247130,9474.636058
2518.495137,-459.657299,370.102971,8660.409521
2518.495466,306.438199,370.102971,8808.450710
2518.495795,306.438199,148.041188,8290.306550
2518.496124,-306.438199,-1406.391290,9696.697840
2518.496453,536.266849,-2886.803174,11991.336260
2518.496782,2528.115143,-1184.329507,8808.450710
2518.497111,4596.572988,-74.020594,6513.812290
2518.497440,4366.744339,592.164754,6365.771101
2518.497769,3907.087040,2664.741391,6587.832884
2518.498098,3370.820191,2590.720797,8290.306550
2518.498427,1532.190996,2146.597232,7402.059420
2518.498756,76.609550,-74.020594,8956.491898
2518.499085,-1685.410096,-1702.473667,10140.821405
2518.499413,-2681.334243,-2886.803174,10807.006753
2518.499742,-3677.258390,-3552.988522,10658.965565
2518.500071,-2604.724693,-2812.782580,10066.800811
2518.500400,-1991.848295,-1850.514855,11029.068536
2518.500729,-1915.238745,148.041188,9992.780217
2518.501058,-1685.410096,962.267725,10436.903782
2518.501387,-1302.362347,666.185348,9400.615463
2518.501716,459.657299,296.082377,9030.512492
2518.502045,229.828649,1110.308913,9178.553681
2518.502374,0.000000,296.082377,8438.347739
2518.502703,76.609550,-1332.370696,11843.295072
2518.503032,2068.457845,-1998.556043,10732.986159
2518.503361,3524.039291,370.102971,7105.977043
2518.503690,4826.401637,-222.061783,7105.977043
2518.504019,3753.867940,1110.308913,5255.462188
2518.504348,4596.572988,2960.823768,8364.327145
2518.504677,2528.115143,2146.597232,7550.100608
2518.505006,1685.410096,1332.370696,7772.162391
2518.505335,-383.047749,-1110.308913,9326.594869
2518.505664,-1915.238745,-1184.329507,9548.656652
2518.505993,-2681.334243,-2812.782580,10658.965565
2518.506321,-2451.505594,-2442.679609,9104.533087
2518.506650,-1685.410096,-2220.617826,10288.862594
2518.506979,-995.924147,-592.164754,10584.944971
2518.507308,-995.924147,814.226536,9252.574275
2518.507637,-689.485948,1332.370696,9400.615463
2518.507966,0.000000,370.102971,8364.327145
2518.508295,612.876398,1258.350101,8956.491898
2518.508624,-919.314598,592.164754,8734.430116
2518.508953,76.609550,-1924.535449,10732.986159
2518.509282,229.828649,-2072.576638,11177.109724
2518.509611,2987.772442,-1258.350101,9252.574275
2518.509940,3600.648841,-370.102971,6735.874072
2518.510269,4443.353888,444.123565,6809.894666
2518.510598,4060.306139,2664.741391,6809.894666
2518.510927,3907.087040,2664.741391,7624.121203
2518.511256,2221.676944,2294.638420,7624.121203
2518.511585,76.609550,296.082377,8586.388927
2518.511914,-1762.019645,-2072.576638,10140.821405
2518.512243,-3064.381992,-1998.556043,10732.986159
2518.512572,-3064.381992,-3404.947333,11177.109724
2518.512901,-2451.505594,-2960.823768,10214.842000
2518.513230,-1608.800546,-1332.370696,10658.965565
2518.513558,-1685.410096,962.267725,10584.944971
2518.513887,-1685.410096,962.267725,9696.697840
2518.514216,-919.314598,1110.308913,9326.594869
2518.514545,0.000000,1258.350101,8808.450710
2518.514874,76.609550,1554.432478,9104.533087
2518.515203,-153.219100,222.061783,8512.368333
2518.515532,-229.828649,-1406.391290,10436.903782
2518.515861,0.000000,-2368.659014,11103.089130
2518.516190,2987.772442,-1702.473667,9252.574275
2518.516519,3294.210641,-962.267725,6661.853478
2518.516848,4060.306139,444.123565,6883.915261
2518.517177,3677.258390,2368.659014,6735.874072
2518.517506,3370.820191,2812.782580,7179.997637
2518.517835,1838.629195,1998.556043,7254.018232
2518.518164,1302.362347,370.102971,8068.244768
2518.518493,-459.657299,-1332.370696,9252.574275
2518.518822,-2528.115143,-2072.576638,9696.697840
2518.519151,-2834.553343,-3182.885551,11251.130318
2518.519480,-2528.115143,-2516.700203,10066.800811
2518.519809,-1302.362347,-1554.432478,10362.883188
2518.520138,-1608.800546,-148.041188,9474.636058
2518.520466,-1608.800546,740.205942,9400.615463
2518.520795,-842.705048,814.226536,9326.594869
2518.521124,76.609550,370.102971,9474.636058
2518.521453,383.047749,518.144159,9030.512492
2518.521782,0.000000,-370.102971,8956.491898
2518.522111,-153.219100,-2072.576638,11103.089130
2518.522440,1838.629195,-2368.659014,11399.171507
2518.522769,2681.334243,-296.082377,7031.956449
2518.523098,4366.744339,-222.061783,7550.100608
2518.523427,3753.867940,1480.411884,6217.729913
2518.523756,4060.306139,3330.926739,7402.059420
2518.524085,2298.286494,2072.576638,7698.141797
2518.524414,1225.752797,1628.453072,7179.997637
2518.524743,0.000000,-814.226536,9326.594869
2518.525072,-2221.676944,-1628.453072,9400.615463
2518.525401,-2987.772442,-2886.803174,11991.336260
2518.525730,-3217.601092,-2886.803174,10362.883188
2518.526059,-1915.238745,-2590.720797,10362.883188
2518.526388,-1991.848295,-1184.329507,10510.924376
2518.526717,-1532.190996,1036.288319,9622.677246
2518.527046,-1072.533697,888.247130,9844.739029
2518.527374,-459.657299,740.205942,8956.491898
2518.527703,383.047749,962.267725,8882.471304
2518.528032,383.047749,814.226536,8512.368333
2518.528361,0.000000,-222.061783,8734.430116
2518.528690,383.047749,-2220.617826,12287.418637
2518.529019,2528.115143,-1036.288319,8512.368333
2518.529348,4596.572988,296.082377,7105.977043
2518.529677,4596.572988,-0.000000,6143.709319
2518.530006,4290.134789,2368.659014,6439.791695
2518.530335,2987.772442,2146.597232,8734.430116
2518.530664,2145.067394,2294.638420,6661.853478
2518.530993,1072.533697,-0.000000,8068.244768
2518.531322,-842.705048,-1332.370696,9474.636058
2518.531651,-2451.505594,-1776.494261,9770.718434
2518.531980,-2528.115143,-3404.947333,11547.212695
2518.532309,-2451.505594,-2294.638420,9548.656652
2518.532638,-1302.362347,-1776.494261,11029.068536
2518.532967,-1762.019645,-74.020594,10214.842000
2518.533296,-995.924147,1924.535449,9844.739029
2518.533625,-1072.533697,592.164754,9770.718434
2518.533954,229.828649,962.267725,8882.471304
2518.534283,612.876398,1258.350101,9474.636058
2518.534611,306.438199,-148.041188,9326.594869
2518.534940,-689.485948,-1628.453072,10955.047942
2518.535269,842.705048,-2146.597232,11251.130318
2518.535598,2528.115143,-444.123565,7476.080014
2518.535927,3983.696590,-0.000000,7328.038826
2518.536256,4290.134789,1332.370696,6513.812290
2518.536585,3753.867940,3256.906145,7105.977043
2518.536914,2221.676944,2146.597232,7772.162391
2518.537243,1455.581446,1332.370696,7550.100608
2518.537572,-153.219100,-518.144159,9104.533087
2518.537901,-2221.676944,-1554.432478,9548.656652
2518.538230,-2834.553343,-2590.720797,10955.047942
2518.538559,-2911.162892,-2590.720797,9622.677246
2518.538888,-2068.457845,-1924.535449,9918.759623
2518.539217,-1302.362347,-1036.288319,10584.944971
2518.539546,-1225.752797,370.102971,9622.677246
2518.539875,-1608.800546,444.123565,9696.697840
2518.540204,-1072.533697,-74.020594,9178.553681
2518.540533,153.219100,888.247130,9030.512492
2518.540862,76.609550,518.144159,8734.430116
2518.541191,0.000000,-74.020594,8512.368333
2518.541519,-153.219100,-1480.411884,11103.089130
2518.541848,1915.238745,-2368.659014,11029.068536
2518.542177,2987.772442,-740.205942,6957.935855
2518.542506,4443.353888,-148.041188,7994.224174
2518.542835,3983.696590,1332.370696,5847.626942
2518.543164,4136.915689,2886.803174,7254.018232
2518.543493,2757.943793,2072.576638,7550.100608
2518.543822,2068.457845,1332.370696,7550.100608
2518.544151,153.219100,-1110.308913,9252.574275
2518.544480,-1762.019645,-1258.350101,9178.553681
2518.544809,-3064.381992,-3034.844362,11769.274478
2518.545138,-2987.772442,-3404.947333,11325.150913
2518.545467,-1762.019645,-2072.576638,10066.800811
2518.545796,-1455.581446,-370.102971,10584.944971
2518.546125,-1685.410096,962.267725,9548.656652
2518.546454,-536.266849,1776.494261,9622.677246
2518.546783,0.000000,370.102971,9030.512492
2518.547112,536.266849,1184.329507,8808.450710
2518.547441,153.219100,-0.000000,9178.553681
2518.547770,0.000000,-2220.617826,11547.212695
2518.548099,1455.581446,-1924.535449,9992.780217
2518.548427,3217.601092,-0.000000,7328.038826
2518.548756,4673.182538,-74.020594,7254.018232
2518.549085,4673.182538,1258.350101,6291.750507
2518.549414,4826.401637,2960.823768,8142.265362
2518.549743,2604.724693,2886.803174,6513.812290
2518.550072,1838.629195,1332.370696,7179.997637
2518.550401,-229.828649,-444.123565,9474.636058
2518.550730,-2451.505594,-1332.370696,9252.574275
2518.551059,-3294.210641,-3108.864956,11695.253884
2518.551388,-3370.820191,-3404.947333,10214.842000
2518.551717,-1915.238745,-2368.659014,9696.697840
2518.552046,-1685.410096,-1480.411884,10584.944971
2518.552375,-1838.629195,592.164754,9252.574275
2518.552704,-1378.971896,666.185348,9844.739029
2518.553033,-229.828649,888.247130,9104.533087
2518.553362,459.657299,1850.514855,8068.244768
2518.553691,0.000000,592.164754,9326.594869
2518.554020,-536.266849,-518.144159,9252.574275
2518.554349,-153.219100,-2146.597232,11251.130318
2518.554678,1608.800546,-2072.576638,9696.697840
2518.555007,2987.772442,-444.123565,6883.915261
2518.555336,4060.306139,-666.185348,7698.141797
2518.555664,3447.429741,1998.556043,6735.874072
2518.555993,4366.744339,3034.844362,7920.203579
2518.556322,1991.848295,2146.597232,7105.977043
2518.556651,1608.800546,1480.411884,7772.162391
2518.556980,0.000000,-370.102971,9252.574275
2518.557309,-2451.505594,-1110.308913,9252.574275
2518.557638,-2987.772442,-3108.864956,11991.336260
2518.557967,-3217.601092,-2960.823768,9844.739029
2518.558296,-1455.581446,-2072.576638,10140.821405
2518.558625,-1915.238745,-592.164754,10658.965565
2518.558954,-1608.800546,740.205942,9474.636058
2518.559283,-1608.800546,962.267725,9918.759623
2518.559612,-536.266849,740.205942,9030.512492
2518.559941,995.924147,740.205942,8586.388927
2518.560270,-383.047749,370.102971,8956.491898
2518.560599,-383.047749,-666.185348,9474.636058
2518.560928,536.266849,-2812.782580,12805.562797
2518.561257,2451.505594,-962.267725,7994.224174
2518.561586,4519.963438,518.144159,6809.894666
2518.561915,4596.572988,962.267725,5995.668130
2518.562244,4213.525239,3701.029710,6513.812290
2518.562572,2987.772442,2664.741391,8068.244768
2518.562901,1455.581446,1702.473667,6883.915261
2518.563230,766.095498,296.082377,8882.471304
2518.563559,-1532.190996,-1480.411884,9992.780217
2518.563888,-3294.210641,-2886.803174,11029.068536
2518.564217,-3217.601092,-3478.967927,11399.171507
2518.564546,-2298.286494,-2294.638420,9548.656652
2518.564875,-2068.457845,-2294.638420,10732.986159
2518.565204,-1838.629195,-0.000000,10362.883188
2518.565533,-1838.629195,1258.350101,10214.842000
2518.565862,-1532.190996,370.102971,9326.594869
2518.566191,0.000000,814.226536,9030.512492
2518.566520,0.000000,1258.350101,9104.533087
2518.566849,-153.219100,-0.000000,8660.409521
2518.567178,0.000000,-1850.514855,10955.047942
2518.567507,1915.238745,-2664.741391,10732.986159
2518.567836,2604.724693,-814.226536,7105.977043
2518.568165,4290.134789,-444.123565,7624.121203
2518.568494,3907.087040,1258.350101,6365.771101
2518.568823,4213.525239,2516.700203,7772.162391
2518.569152,2604.724693,2146.597232,7698.141797
2518.569481,1915.238745,1998.556043,7476.080014
2518.569809,536.266849,-1184.329507,9326.594869
2518.570138,-1378.971896,-888.247130,9178.553681
2518.570467,-2604.724693,-2072.576638,10658.965565
2518.570796,-2604.724693,-2590.720797,10362.883188
2518.571125,-1532.190996,-2072.576638,9548.656652
2518.571454,-1302.362347,-666.185348,10214.842000
2518.571783,-919.314598,592.164754,9178.553681
2518.572112,-153.219100,1258.350101,8882.471304
2518.572441,0.000000,370.102971,9474.636058
2518.572770,766.095498,962.267725,8142.265362
2518.573099,153.219100,-0.000000,8734.430116
2518.573428,0.000000,-1184.329507,9918.759623
2518.573757,1685.410096,-2146.597232,11695.253884
2518.574086,2451.505594,-296.082377,7624.121203
2518.574416,4596.572988,444.123565,7550.100608
2518.574745,5669.106685,666.185348,5551.544565
2518.575074,4979.620737,3182.885551,6439.791695
2518.575403,2604.724693,3627.009116,8216.285956
2518.575732,2451.505594,1036.288319,8364.327145
2518.576061,383.047749,-148.041188,8734.430116
2518.576390,-1608.800546,-1628.453072,8734.430116
2518.576719,-2681.334243,-2590.720797,11251.130318
2518.577048,-3830.477490,-4145.153275,11029.068536
2518.577377,-1915.238745,-2664.741391,9918.759623
2518.577706,-1838.629195,-1776.494261,10584.944971
2518.578035,-2298.286494,370.102971,9918.759623
2518.578364,-1685.410096,962.267725,10214.842000
2518.578693,-1378.971896,666.185348,9474.636058
2518.579022,-153.219100,1332.370696,8438.347739
2518.579351,229.828649,1258.350101,9104.533087
2518.579680,0.000000,-0.000000,9104.533087
2518.580009,-153.219100,-1258.350101,10955.047942
2518.580338,1072.533697,-1998.556043,10510.924376
2518.580667,2604.724693,-1110.308913,7772.162391
2518.580996,3677.258390,-592.164754,7846.182985
2518.581325,3677.258390,1406.391290,6143.709319
2518.581654,3140.991542,2738.761985,7624.121203
2518.581984,2374.896044,1702.473667,7920.203579
2518.582313,1608.800546,1702.473667,7698.141797
2518.582642,229.828649,-0.000000,8882.471304
2518.582971,-1838.629195,-962.267725,9104.533087
2518.583300,-2757.943793,-2368.659014,10881.027347
2518.583629,-2528.115143,-2886.803174,9992.780217
2518.583958,-1149.143247,-1924.535449,9548.656652
2518.584287,-1225.752797,-1332.370696,10288.862594
2518.584616,-1149.143247,444.123565,9252.574275
2518.584945,-766.095498,740.205942,9400.615463
2518.585274,-612.876398,518.144159,8734.430116
2518.585603,383.047749,740.205942,8660.409521
2518.585932,153.219100,-0.000000,8882.471304
2518.586261,-153.219100,-1110.308913,9696.697840
2518.586590,-306.438199,-1776.494261,11325.150913
2518.586919,1685.410096,-2072.576638,10584.944971
2518.587248,2987.772442,-222.061783,7179.997637
2518.587577,4366.744339,296.082377,7105.977043
2518.587906,4290.134789,2072.576638,6217.729913
2518.588235,4136.915689,2960.823768,7105.977043
2518.588564,3140.991542,1628.453072,7698.141797
2518.588893,1532.190996,1184.329507,7624.121203
2518.589223,0.000000,-814.226536,9030.512492
2518.589552,-2451.505594,-1776.494261,9844.739029
2518.589881,-2757.943793,-3108.864956,11991.336260
2518.590210,-2451.505594,-3330.926739,10510.924376
2518.590539,-1072.533697,-1702.473667,10288.862594
2518.590868,-1532.190996,-592.164754,10066.800811
2518.591197,-766.095498,740.205942,9474.636058
2518.591526,-1225.752797,1702.473667,9696.697840
2518.591855,-383.047749,814.226536,9030.512492
2518.592184,76.609550,1554.432478,8734.430116
2518.592513,0.000000,518.144159,9252.574275
2518.592842,229.828649,-666.185348,9030.512492
2518.593171,-536.266849,-1924.535449,10955.047942
2518.593500,689.485948,-2886.803174,10732.986159
2518.593829,2298.286494,-1480.411884,8734.430116
2518.594158,3064.381992,-0.000000,7105.977043
2518.594487,3753.867940,1776.494261,6957.935855
2518.594816,3140.991542,3256.906145,6809.894666
2518.595145,2911.162892,2886.803174,7550.100608
2518.595474,1302.362347,1850.514855,6365.771101
2518.595803,842.705048,296.082377,8364.327145
2518.596132,-919.314598,-1258.350101,9622.677246
2518.596461,-2834.553343,-2294.638420,10584.944971
2518.596791,-2451.505594,-2886.803174,10510.924376
2518.597120,-1991.848295,-1554.432478,9474.636058
2518.597449,-995.924147,-740.205942,9622.677246
2518.597778,-1532.190996,962.267725,9548.656652
2518.598107,-1378.971896,148.041188,10066.800811
2518.598436,-1072.533697,222.061783,9326.594869
2518.598765,0.000000,-370.102971,9474.636058
2518.599094,306.438199,-518.144159,9178.553681
2518.599423,-766.095498,-518.144159,8808.450710
2518.599752,-306.438199,-2294.638420,12361.439231
2518.600081,1532.190996,-2368.659014,11029.068536
2518.600410,3370.820191,-296.082377,7105.977043
2518.600739,4290.134789,888.247130,7254.018232
2518.601068,4060.306139,2442.679609,5625.565159
2518.601397,3753.867940,3552.988522,7254.018232
2518.601726,1991.848295,1998.556043,7476.080014
2518.602055,1378.971896,814.226536,7476.080014
2518.602384,-383.047749,-962.267725,10362.883188
2518.602713,-2374.896044,-2294.638420,9844.739029
2518.603042,-3064.381992,-3108.864956,11473.192101
2518.603371,-2681.334243,-2516.700203,9696.697840
2518.603700,-1378.971896,-1776.494261,10362.883188
2518.604029,-1532.190996,-148.041188,10214.842000
2518.604359,-919.314598,2072.576638,9548.656652
2518.604688,-1149.143247,1480.411884,9400.615463
2518.605017,153.219100,296.082377,9104.533087
2518.605346,766.095498,962.267725,8808.450710
2518.605675,0.000000,-0.000000,8512.368333
2518.606004,-306.438199,-1850.514855,9992.780217
2518.606333,995.924147,-2738.761985,11473.192101
2518.606662,3064.381992,-518.144159,7328.038826
2518.606991,4443.353888,222.061783,7476.080014
2518.607320,4903.011187,296.082377,5847.626942
2518.607649,4290.134789,2960.823768,7105.977043
2518.607978,2681.334243,2294.638420,7846.182985
2518.608307,1608.800546,1776.494261,7254.018232
2518.608636,306.438199,-296.082377,8882.471304
2518.608965,-1532.190996,-1702.473667,9844.739029
2518.609294,-3600.648841,-1998.556043,10584.944971
2518.609623,-2145.067394,-2886.803174,10436.903782
2518.609952,-1455.581446,-2146.597232,9622.677246
2518.610281,-766.095498,-740.205942,10732.986159
2518.610610,-842.705048,814.226536,9696.697840
2518.610939,-766.095498,1184.329507,9548.656652
2518.611268,-459.657299,-148.041188,9252.574275
2518.611598,459.657299,962.267725,8586.388927
2518.611927,229.828649,-518.144159,10066.800811
2518.612256,0.000000,-1776.494261,10436.903782
2518.612585,1225.752797,-2220.617826,11695.253884
2518.612914,2987.772442,-370.102971,7920.203579
2518.613243,4826.401637,370.102971,7328.038826
2518.613572,4979.620737,1036.288319,6143.709319
2518.613901,4826.401637,2960.823768,6735.874072
2518.614230,2987.772442,3182.885551,7698.141797
2518.614559,1378.971896,2072.576638,7698.141797
2518.614888,536.266849,370.102971,8364.327145
2518.615217,-1532.190996,-1406.391290,9770.718434
2518.615546,-3064.381992,-2664.741391,10658.965565
2518.615875,-3064.381992,-3627.009116,10732.986159
2518.616204,-2221.676944,-2664.741391,10362.883188
2518.616533,-2374.896044,-1406.391290,10362.883188
2518.616862,-2068.457845,-0.000000,10066.800811
2518.617191,-1762.019645,888.247130,10288.862594
2518.617520,-1302.362347,666.185348,9474.636058
2518.617849,0.000000,1406.391290,8512.368333
2518.618178,229.828649,1036.288319,8808.450710
2518.618507,1149.143247,222.061783,8290.306550
2518.618836,383.047749,-1258.350101,10732.986159
2518.619166,1455.581446,-2220.617826,11325.150913
2518.619495,2911.162892,-518.144159,6587.832884
2518.619824,4366.744339,148.041188,7179.997637
2518.620153,3677.258390,1332.370696,5847.626942
2518.620482,3983.696590,3108.864956,7105.977043
2518.620811,1991.848295,2664.741391,7772.162391
2518.621140,1608.800546,1036.288319,7624.121203
2518.621469,0.000000,-444.123565,9326.594869
2518.621798,-1915.238745,-1628.453072,9326.594869
2518.622127,-3677.258390,-3256.906145,11547.212695
2518.622456,-3217.601092,-2886.803174,10658.965565
2518.622785,-2374.896044,-1776.494261,10066.800811
2518.623114,-2145.067394,-1110.308913,10807.006753
2518.623443,-1608.800546,518.144159,9918.759623
2518.623772,-1302.362347,1036.288319,9770.718434
2518.624101,-612.876398,148.041188,9178.553681
2518.624430,383.047749,962.267725,8364.327145
2518.624759,229.828649,518.144159,8734.430116
2518.625088,0.000000,-1480.411884,10584.944971
2518.625417,1838.629195,-1776.494261,10955.047942
2518.625746,3677.258390,444.123565,6587.832884
2518.626075,5515.887586,222.061783,7031.956449
2518.626404,4596.572988,962.267725,5477.523971
2518.626734,4673.182538,3034.844362,7994.224174
2518.627063,2451.505594,2442.679609,7179.997637
2518.627392,1762.019645,1480.411884,7550.100608
2518.627721,-153.219100,-370.102971,9696.697840
2518.628050,-2374.896044,-1850.514855,9992.780217
2518.628379,-3907.087040,-3404.947333,11843.295072
2518.628708,-3524.039291,-2886.803174,9992.780217
2518.629037,-1838.629195,-2886.803174,10510.924376
2518.629366,-2145.067394,-1332.370696,10584.944971
2518.629695,-1608.800546,814.226536,9474.636058
2518.630024,-1608.800546,1184.329507,9918.759623
2518.630353,-612.876398,962.267725,9252.574275
2518.630682,612.876398,1702.473667,8364.327145
2518.631011,0.000000,1110.308913,8364.327145
2518.631340,-612.876398,-518.144159,9622.677246
2518.631669,-459.657299,-2368.659014,11473.192101
2518.631998,2145.067394,-1554.432478,9030.512492
2518.632327,3524.039291,-518.144159,7179.997637
2518.632656,4290.134789,-666.185348,7105.977043
2518.632985,3677.258390,1332.370696,7179.997637
2518.633314,4136.915689,2072.576638,8586.388927
2518.633643,2451.505594,1776.494261,7698.141797
2518.633973,1149.143247,666.185348,8290.306550
2518.634302,-536.266849,-1110.308913,9474.636058
2518.634631,-2681.334243,-1332.370696,9474.636058
2518.634960,-3064.381992,-2738.761985,11769.274478
2518.635289,-2604.724693,-2812.782580,9622.677246
2518.635618,-1302.362347,-2072.576638,10732.986159
2518.635947,-919.314598,-370.102971,10140.821405
2518.636276,-995.924147,888.247130,9104.533087
2518.636605,-689.485948,518.144159,9474.636058
2518.636934,229.828649,740.205942,8586.388927
2518.637263,459.657299,1406.391290,8586.388927
2518.637592,229.828649,-222.061783,9030.512492
2518.637921,0.000000,-1924.535449,10584.944971
2518.638250,2298.286494,-1628.453072,9622.677246
2518.638579,3983.696590,-0.000000,6735.874072
2518.638908,4673.182538,-0.000000,6957.935855
2518.639237,4290.134789,1406.391290,6291.750507
2518.639566,4749.792088,2886.803174,7254.018232
2518.639895,3064.381992,2294.638420,7179.997637
2518.640224,1991.848295,1554.432478,7994.224174
2518.640553,-459.657299,-370.102971,9548.656652
2518.640882,-1991.848295,-1184.329507,9548.656652
2518.641211,-3140.991542,-3108.864956,11547.212695
2518.641541,-2834.553343,-3108.864956,10584.944971
2518.641870,-1915.238745,-2590.720797,10140.821405
2518.642199,-1838.629195,-1036.288319,10288.862594
2518.642528,-2145.067394,518.144159,9696.697840
2518.642857,-689.485948,-0.000000,9696.697840
2518.643186,-383.047749,962.267725,9030.512492
2518.643515,0.000000,1924.535449,8808.450710
2518.643844,0.000000,518.144159,8808.450710
2518.644173,-383.047749,-370.102971,9548.656652
2518.644502,383.047749,-2220.617826,11473.192101
2518.644831,2451.505594,-1850.514855,9474.636058
2518.645160,3524.039291,-962.267725,8068.244768
2518.645489,4136.915689,-74.020594,7550.100608
2518.645818,3753.867940,1628.453072,6809.894666
2518.646147,3447.429741,2368.659014,7698.141797
2518.646476,2068.457845,1776.494261,7624.121203
2518.646805,1225.752797,1184.329507,7920.203579
2518.647134,-536.266849,-666.185348,9252.574275
2518.647463,-2528.115143,-1998.556043,9622.677246
2518.647792,-2987.772442,-2812.782580,11473.192101
2518.648121,-2757.943793,-2368.659014,9696.697840
2518.648450,-1991.848295,-2220.617826,10288.862594
2518.648779,-2145.067394,-1110.308913,10288.862594
2518.649109,-1378.971896,-0.000000,9474.636058
2518.649438,-995.924147,222.061783,9548.656652
2518.649767,-1149.143247,962.267725,8882.471304
2518.650096,153.219100,666.185348,8808.450710
2518.650425,76.609550,740.205942,8438.347739
2518.650754,76.609550,-222.061783,9400.615463
2518.651083,1838.629195,-1702.473667,11843.295072
2518.651412,3370.820191,-222.061783,6735.874072
2518.651741,5286.058936,814.226536,7254.018232
2518.652070,4903.011187,888.247130,5403.503377
2518.652399,4903.011187,2812.782580,6957.935855
2518.652728,3064.381992,1850.514855,7846.182985
2518.653057,1762.019645,1554.432478,7328.038826
2518.653386,153.219100,-370.102971,9400.615463
2518.653715,-2221.676944,-1628.453072,9918.759623
2518.654044,-3294.210641,-3108.864956,11325.150913
2518.654373,-3064.381992,-2960.823768,10955.047942
2518.654702,-2068.457845,-2812.782580,10066.800811
2518.655031,-2298.286494,-1850.514855,10658.965565
2518.655360,-1915.238745,370.102971,10214.842000
2518.655689,-1608.800546,1110.308913,10214.842000
2518.656018,-1378.971896,-0.000000,9622.677246
2518.656347,0.000000,1110.308913,9030.512492
2518.656677,-383.047749,1554.432478,8882.471304
2518.657006,-383.047749,-0.000000,9030.512492
2518.657335,383.047749,-1480.411884,11177.109724
2518.657664,2834.553343,-444.123565,8734.430116
2518.657993,4366.744339,222.061783,7105.977043
2518.658322,4749.792088,74.020594,6735.874072
2518.658651,3447.429741,1850.514855,6365.771101
2518.658980,3370.820191,2072.576638,8512.368333
2518.659309,1762.019645,1702.473667,7624.121203
2518.659638,459.657299,740.205942,7846.182985
2518.659967,-1608.800546,-1406.391290,10288.862594
2518.660296,-2528.115143,-1924.535449,10807.006753
2518.660625,-2757.943793,-2294.638420,10288.862594
2518.660954,-2221.676944,-2812.782580,9400.615463
2518.661283,-1378.971896,-2072.576638,10510.924376
2518.661612,-2298.286494,-296.082377,9622.677246
2518.661941,-1838.629195,888.247130,10362.883188
2518.662270,-1608.800546,-222.061783,9178.553681
2518.662599,-459.657299,370.102971,8808.450710
2518.662928,0.000000,962.267725,9104.533087
2518.663257,-383.047749,370.102971,7846.182985
2518.663586,-842.705048,-1110.308913,9992.780217
2518.663916,995.924147,-1702.473667,10955.047942
2518.664245,2757.943793,-962.267725,7920.203579
2518.664574,3753.867940,-0.000000,6883.915261
2518.664903,4060.306139,370.102971,6365.771101
2518.665232,4060.306139,1628.453072,7105.977043
2518.665561,3524.039291,2516.700203,8216.285956
2518.665890,1838.629195,1924.535449,7179.997637
2518.666219,1302.362347,-370.102971,8142.265362
2518.666548,-842.705048,-1258.350101,9474.636058
2518.666877,-2604.724693,-1702.473667,9474.636058
2518.667206,-2528.115143,-3478.967927,11843.295072
2518.667535,-2451.505594,-2664.741391,9622.677246
2518.667864,-1608.800546,-1258.350101,11103.089130
2518.668193,-1991.848295,-0.000000,9622.677246
2518.668522,-1378.971896,814.226536,9326.594869
2518.668851,-1762.019645,-0.000000,9992.780217
2518.669180,-612.876398,888.247130,9104.533087
2518.669509,0.000000,1184.329507,9178.553681
2518.669838,-459.657299,444.123565,8882.471304
2518.670167,-1302.362347,-296.082377,10436.903782
2518.670496,229.828649,-2220.617826,11621.233289
2518.670825,2911.162892,-1258.350101,8068.244768
2518.671154,4443.353888,-370.102971,7105.977043
2518.671484,4596.572988,740.205942,6439.791695
2518.671813,3983.696590,2886.803174,7105.977043
2518.672142,3217.601092,1998.556043,8068.244768
2518.672471,2451.505594,2220.617826,7179.997637
2518.672800,1991.848295,444.123565,7920.203579
2518.673129,0.000000,-518.144159,9326.594869
2518.673458,-2374.896044,-1258.350101,10066.800811
2518.673787,-2528.115143,-3478.967927,11843.295072
2518.674116,-1915.238745,-2220.617826,9770.718434
2518.674445,-766.095498,-1998.556043,10436.903782
2518.674774,-842.705048,-0.000000,9696.697840
2518.675103,-153.219100,1036.288319,8956.491898
2518.675432,-919.314598,444.123565,9844.739029
2518.675761,0.000000,740.205942,8956.491898
2518.676090,229.828649,518.144159,9030.512492
2518.676419,-536.266849,-1332.370696,9770.718434
2518.676747,229.828649,-2146.597232,10881.027347
2518.677076,1838.629195,-1702.473667,10066.800811
2518.677405,3600.648841,-222.061783,7031.956449
2518.677734,4673.182538,-0.000000,6661.853478
2518.678063,4290.134789,1998.556043,6513.812290
2518.678392,4826.401637,3404.947333,7624.121203
2518.678721,2911.162892,2442.679609,6957.935855
2518.679050,2221.676944,1406.391290,7846.182985
2518.679379,0.000000,-222.061783,9474.636058
2518.679708,-2374.896044,-888.247130,9844.739029
2518.680037,-3447.429741,-3256.906145,12213.398043
2518.680366,-2987.772442,-2886.803174,9918.759623
2518.680695,-1685.410096,-2294.638420,10732.986159
2518.681024,-2374.896044,-888.247130,10140.821405
2518.681353,-1838.629195,444.123565,9622.677246
2518.681682,-1838.629195,-0.000000,10510.924376
2518.682011,-1225.752797,740.205942,9326.594869
2518.682340,0.000000,1702.473667,9548.656652
2518.682669,0.000000,-0.000000,9474.636058
2518.682998,-612.876398,-0.000000,7994.224174
2518.683327,-536.266849,-1554.432478,11399.171507
2518.683656,1455.581446,-2072.576638,10362.883188
2518.683985,3140.991542,-148.041188,6883.915261
2518.684314,4213.525239,518.144159,7254.018232
2518.684643,3907.087040,2442.679609,5847.626942
2518.684972,3447.429741,2368.659014,7402.059420
2518.685301,2068.457845,1998.556043,7254.018232
2518.685630,1455.581446,1110.308913,7698.141797
2518.685958,0.000000,-1036.288319,9104.533087
2518.686287,-1838.629195,-1554.432478,9474.636058
2518.686616,-2604.724693,-2812.782580,10955.047942
2518.686945,-2604.724693,-2812.782580,9918.759623
2518.687274,-1608.800546,-1924.535449,10510.924376
2518.687603,-1608.800546,-1258.350101,10436.903782
2518.687932,-1302.362347,962.267725,9622.677246
2518.688261,-1455.581446,370.102971,9918.759623
2518.688590,-1072.533697,-0.000000,8956.491898
2518.688919,306.438199,148.041188,9474.636058
2518.689248,0.000000,222.061783,8734.430116
2518.689577,-229.828649,-1258.350101,9992.780217
2518.689906,229.828649,-2146.597232,11177.109724
2518.690235,2145.067394,-666.185348,8438.347739
2518.690564,3983.696590,-0.000000,7179.997637
2518.690893,3677.258390,814.226536,6883.915261
2518.691222,3830.477490,2664.741391,6587.832884
2518.691551,3524.039291,2886.803174,7846.182985
2518.691880,2298.286494,1924.535449,7105.977043
2518.692209,766.095498,740.205942,8068.244768
2518.692538,-689.485948,-1406.391290,9548.656652
2518.692867,-1915.238745,-2220.617826,10362.883188
2518.693196,-2374.896044,-3034.844362,11547.212695
2518.693525,-2374.896044,-1554.432478,9326.594869
2518.693854,-919.314598,-1554.432478,11103.089130
2518.694183,-1762.019645,592.164754,9770.718434
2518.694512,-1225.752797,1628.453072,9548.656652
2518.694840,-1302.362347,666.185348,9844.739029
2518.695169,-153.219100,592.164754,8882.471304
2518.695498,919.314598,370.102971,8956.491898
2518.695827,0.000000,-148.041188,8808.450710
2518.696156,-612.876398,-1776.494261,10288.862594
2518.696485,153.219100,-2442.679609,10881.027347
2518.696814,2451.505594,-1480.411884,8438.347739
2518.697143,3524.039291,-148.041188,7179.997637
2518.697472,3830.477490,666.185348,6661.853478
2518.697801,4136.915689,2738.761985,7105.977043
2518.698130,3370.820191,2294.638420,8216.285956
2518.698459,2068.457845,1332.370696,7772.162391
2518.698788,306.438199,-74.020594,8882.471304
2518.699117,-1378.971896,-1480.411884,9770.718434
2518.699446,-3447.429741,-1924.535449,9844.739029
2518.699775,-3294.210641,-3182.885551,11843.295072
2518.700104,-2987.772442,-1924.535449,9474.636058
2518.700433,-1072.533697,-1184.329507,10658.965565
2518.700762,-1302.362347,222.061783,10066.800811
2518.701091,-995.924147,962.267725,9104.533087
2518.701420,-842.705048,370.102971,9474.636058
2518.701749,0.000000,740.205942,8586.388927
2518.702078,0.000000,296.082377,9178.553681
2518.702407,306.438199,-1850.514855,11325.150913
2518.702736,2374.896044,-666.185348,9326.594869
2518.703065,3600.648841,-74.020594,8216.285956
2518.703394,4443.353888,-0.000000,6513.812290
2518.703722,4519.963438,1258.350101,6587.832884
2518.704051,4366.744339,2368.659014,7994.224174
2518.704380,2987.772442,2812.782580,7105.977043
2518.704709,1608.800546,1184.329507,7772.162391
2518.705038,0.000000,-148.041188,8734.430116
2518.705367,-1685.410096,-1702.473667,9104.533087
2518.705696,-2987.772442,-2738.761985,10955.047942
2518.706025,-2604.724693,-3034.844362,10584.944971
2518.706354,-2451.505594,-2368.659014,9474.636058
2518.706683,-2145.067394,-1480.411884,10510.924376
2518.707012,-1608.800546,370.102971,9622.677246
2518.707341,-689.485948,962.267725,9474.636058
2518.707670,-612.876398,1480.411884,9252.574275
2518.707999,153.219100,2072.576638,7920.203579
2518.708328,0.000000,666.185348,8882.471304
2518.708657,0.000000,-1258.350101,10658.965565
2518.708986,1685.410096,-1850.514855,9844.739029
2518.709315,2987.772442,-444.123565,7772.162391
2518.709644,4826.401637,-370.102971,7328.038826
2518.709973,4443.353888,592.164754,6809.894666
2518.710302,4443.353888,2294.638420,8364.327145
2518.710631,2757.943793,2368.659014,7698.141797
2518.710960,1685.410096,1184.329507,8142.265362
2518.711289,-306.438199,-148.041188,9474.636058
2518.711618,-2068.457845,-1332.370696,9696.697840
2518.711947,-2987.772442,-3034.844362,11695.253884
2518.712276,-3217.601092,-3108.864956,10362.883188
2518.712604,-2374.896044,-2442.679609,9992.780217
2518.712933,-2451.505594,-1554.432478,10732.986159
2518.713262,-1991.848295,-0.000000,9992.780217
2518.713591,-1149.143247,-0.000000,10140.821405
2518.713920,-842.705048,-0.000000,9622.677246
2518.714249,0.000000,1258.350101,8512.368333
2518.714578,-153.219100,1110.308913,9252.574275
2518.714907,-459.657299,-148.041188,9696.697840
2518.715236,1225.752797,-1110.308913,10955.047942
2518.715565,2604.724693,-148.041188,7105.977043
2518.715894,4673.182538,-0.000000,7920.203579
2518.716223,4136.915689,888.247130,6513.812290
2518.716552,4673.182538,2664.741391,7476.080014
2518.716881,3140.991542,2072.576638,7402.059420
2518.717210,2451.505594,1702.473667,7105.977043
2518.717539,689.485948,370.102971,8660.409521
2518.717868,-1378.971896,-518.144159,9252.574275
2518.718197,-2757.943793,-2442.679609,10658.965565
2518.718526,-3064.381992,-3182.885551,10807.006753
2518.718855,-2068.457845,-2812.782580,9992.780217
2518.719184,-2145.067394,-2072.576638,10807.006753
2518.719513,-2145.067394,-740.205942,9918.759623
2518.719842,-1225.752797,370.102971,9622.677246
2518.720171,-1225.752797,296.082377,9474.636058
2518.720500,-689.485948,1406.391290,8438.347739
2518.720829,-383.047749,1184.329507,8882.471304
2518.721158,-612.876398,1258.350101,9178.553681
2518.721486,153.219100,-888.247130,10214.842000
2518.721815,1532.190996,-1036.288319,9548.656652
2518.722144,3064.381992,-444.123565,7254.018232
2518.722473,3830.477490,-74.020594,7698.141797
2518.722802,3830.477490,296.082377,7105.977043
2518.723131,3753.867940,1850.514855,8068.244768
2518.723460,2528.115143,1258.350101,7920.203579
2518.723789,2068.457845,1184.329507,8438.347739
2518.724118,0.000000,296.082377,9252.574275
2518.724447,-1838.629195,-740.205942,9252.574275
2518.724776,-2757.943793,-1924.535449,10881.027347
2518.725105,-2298.286494,-2368.659014,11177.109724
2518.725434,-2374.896044,-1924.535449,9918.759623
2518.725763,-1838.629195,-1480.411884,10510.924376
2518.726092,-2221.676944,222.061783,10288.862594
2518.726421,-1378.971896,222.061783,9474.636058
2518.726750,-612.876398,518.144159,9474.636058
2518.727079,-459.657299,1258.350101,8882.471304
2518.727408,-229.828649,518.144159,8586.388927
2518.727737,-612.876398,-370.102971,9548.656652
2518.728066,612.876398,-1702.473667,10214.842000
2518.728395,2298.286494,-1184.329507,9178.553681
2518.728724,3983.696590,-222.061783,7105.977043
2518.729053,4443.353888,370.102971,7179.997637
2518.729382,3983.696590,1850.514855,7105.977043
2518.729711,4060.306139,2294.638420,7698.141797
2518.730040,2911.162892,1776.494261,7846.182985
2518.730368,1762.019645,814.226536,8290.306550
2518.730697,-229.828649,-222.061783,9400.615463
2518.731026,-2298.286494,-1554.432478,9696.697840
2518.731355,-2604.724693,-3034.844362,11547.212695
2518.731684,-2451.505594,-2664.741391,9992.780217
2518.732013,-1302.362347,-2368.659014,10066.800811
2518.732342,-1915.238745,-1850.514855,10214.842000
2518.732671,-1532.190996,-148.041188,9400.615463
2518.733000,-1072.533697,444.123565,9622.677246
2518.733329,-766.095498,518.144159,9030.512492
2518.733658,-459.657299,1110.308913,8808.450710
2518.733987,-383.047749,518.144159,9326.594869
2518.734316,0.000000,-666.185348,9770.718434
2518.734645,1302.362347,-1258.350101,10436.903782
2518.734974,3447.429741,-370.102971,8142.265362
2518.735303,4596.572988,-222.061783,7179.997637
2518.735632,4366.744339,1258.350101,7105.977043
2518.735961,4290.134789,2442.679609,7105.977043
2518.736290,3370.820191,1924.535449,7328.038826
2518.736619,2374.896044,1184.329507,7550.100608
2518.736948,919.314598,370.102971,8216.285956
2518.737277,-766.095498,-962.267725,9252.574275
2518.737606,-2834.553343,-2294.638420,10362.883188
2518.737935,-2298.286494,-2738.761985,11029.068536
2518.738264,-1991.848295,-2368.659014,9474.636058
2518.738593,-1685.410096,-1702.473667,10214.842000
2518.738922,-1532.190996,-444.123565,9696.697840
2518.739250,-689.485948,592.164754,10066.800811
2518.739579,-919.314598,740.205942,9622.677246
2518.739908,-306.438199,1332.370696,8734.430116
2518.740237,-383.047749,1406.391290,9178.553681
2518.740566,-383.047749,-0.000000,9474.636058
2518.740895,0.000000,-1036.288319,9918.759623
2518.741224,1455.581446,-1554.432478,10214.842000
2518.741553,3370.820191,-1110.308913,7624.121203
2518.741882,4290.134789,-592.164754,8216.285956
2518.742211,4213.525239,1258.350101,7179.997637
2518.742540,4290.134789,2294.638420,7476.080014
2518.742869,3447.429741,1998.556043,7328.038826
2518.743198,2068.457845,1998.556043,7624.121203
2518.743527,1149.143247,-0.000000,9326.594869
2518.743856,-1225.752797,-666.185348,9474.636058
2518.744185,-1991.848295,-2072.576638,10955.047942
2518.744514,-2911.162892,-3256.906145,11399.171507
2518.744843,-2374.896044,-2812.782580,10881.027347
2518.745172,-2068.457845,-1554.432478,10510.924376
2518.745501,-1685.410096,-444.123565,9992.780217
2518.745830,-1762.019645,222.061783,9992.780217
2518.746159,-1225.752797,296.082377,9844.739029
2518.746488,-536.266849,1184.329507,9622.677246
2518.746817,-612.876398,666.185348,8808.450710
2518.747146,-306.438199,-0.000000,9030.512492
2518.747475,0.000000,-1258.350101,10066.800811
2518.747804,1762.019645,-1850.514855,9696.697840
2518.748132,3140.991542,-518.144159,6809.894666
2518.748461,4290.134789,-444.123565,7179.997637
2518.748790,4213.525239,1332.370696,6513.812290
2518.749119,3983.696590,2368.659014,7328.038826
2518.749448,2681.334243,2220.617826,7105.977043
2518.749777,1532.190996,1554.432478,7550.100608
2518.750106,0.000000,296.082377,8512.368333
2518.750435,-1915.238745,-814.226536,9104.533087
2518.750764,-3140.991542,-2664.741391,10658.965565
2518.751093,-2681.334243,-3256.906145,10881.027347
2518.751422,-2145.067394,-3034.844362,9844.739029
2518.751751,-1915.238745,-1702.473667,10288.862594
2518.752080,-1762.019645,-296.082377,9474.636058
2518.752409,-1149.143247,666.185348,9474.636058
2518.752738,-689.485948,814.226536,9474.636058
2518.753067,0.000000,1850.514855,8586.388927
2518.753396,-153.219100,518.144159,8660.409521
2518.753725,0.000000,-444.123565,9844.739029
2518.754054,459.657299,-1998.556043,10584.944971
2518.754383,2374.896044,-1332.370696,8438.347739
2518.754712,3983.696590,-296.082377,7846.182985
2518.755041,4443.353888,370.102971,6661.853478
2518.755370,4673.182538,2072.576638,7105.977043
2518.755699,3370.820191,2368.659014,7994.224174
2518.756028,2298.286494,1998.556043,7476.080014
2518.756357,1225.752797,740.205942,8438.347739
2518.756686,-689.485948,-444.123565,9326.594869
2518.757014,-2451.505594,-2294.638420,10288.862594
2518.757343,-3064.381992,-3182.885551,11621.233289
2518.757672,-2528.115143,-3108.864956,10436.903782
2518.758001,-2374.896044,-2664.741391,10584.944971
2518.758330,-1915.238745,-888.247130,10288.862594
2518.758659,-1302.362347,962.267725,9548.656652
2518.758988,-1149.143247,740.205942,9622.677246
2518.759317,-536.266849,1776.494261,9252.574275
2518.759646,-689.485948,2072.576638,8882.471304
2518.759975,-229.828649,592.164754,9030.512492
2518.760304,-306.438199,-1258.350101,9918.759623
2518.760633,1685.410096,-1776.494261,10214.842000
2518.760962,2757.943793,-296.082377,7402.059420
2518.761291,4060.306139,-444.123565,7624.121203
2518.761620,3753.867940,962.267725,6661.853478
2518.761949,3370.820191,1850.514855,8068.244768
2518.762278,3217.601092,1332.370696,7624.121203
2518.762607,1608.800546,1628.453072,7328.038826
2518.762936,-153.219100,-0.000000,9178.553681
2518.763265,-1532.190996,-1036.288319,9326.594869
2518.763594,-2374.896044,-1776.494261,11103.089130
2518.763923,-2834.553343,-2812.782580,10436.903782
2518.764252,-1685.410096,-2294.638420,9770.718434
2518.764581,-1685.410096,-2072.576638,10510.924376
2518.764910,-1225.752797,444.123565,9474.636058
2518.765239,-1072.533697,-0.000000,9622.677246
2518.765568,-1225.752797,740.205942,9326.594869
2518.765896,-766.095498,1406.391290,9104.533087
2518.766225,0.000000,444.123565,9326.594869
2518.766554,536.266849,-518.144159,9622.677246
2518.766883,919.314598,-1554.432478,10362.883188
2518.767212,2528.115143,-1036.288319,8586.388927
2518.767541,4443.353888,-962.267725,7846.182985
2518.767870,3753.867940,222.061783,6883.915261
2518.768199,4136.915689,1184.329507,7772.162391
2518.768528,3447.429741,2072.576638,7994.224174
2518.768857,2451.505594,2516.700203,7179.997637
2518.769186,1532.190996,296.082377,8882.471304
2518.769515,-229.828649,-0.000000,8882.471304
2518.769844,-1302.362347,-1406.391290,9622.677246
2518.770173,-2451.505594,-2072.576638,10510.924376
2518.770502,-2068.457845,-2960.823768,11103.089130
2518.770831,-2298.286494,-1998.556043,9992.780217
2518.771160,-1378.971896,-962.267725,10140.821405
2518.771489,-1532.190996,-222.061783,9622.677246
2518.771818,-1225.752797,518.144159,9326.594869
2518.772147,0.000000,1036.288319,8882.471304
2518.772476,0.000000,1258.350101,8734.430116
2518.772805,0.000000,444.123565,8882.471304
2518.773134,689.485948,-1110.308913,10362.883188
2518.773463,1685.410096,-1480.411884,8956.491898
2518.773792,3753.867940,-444.123565,7994.224174
2518.774121,4749.792088,370.102971,7328.038826
2518.774450,4673.182538,962.267725,6809.894666
2518.774778,4213.525239,2368.659014,8216.285956
2518.775107,3217.601092,2590.720797,7105.977043
2518.775436,2221.676944,1554.432478,7476.080014
2518.775765,229.828649,-0.000000,9104.533087
2518.776094,-1762.019645,-1184.329507,9696.697840
2518.776423,-3294.210641,-3256.906145,11769.274478
2518.776752,-2834.553343,-3256.906145,11547.212695
2518.777081,-2911.162892,-2590.720797,9548.656652
2518.777410,-2757.943793,-2072.576638,11103.089130
2518.777739,-2451.505594,-888.247130,10066.800811
2518.778068,-1532.190996,-148.041188,9622.677246
2518.778397,-1072.533697,296.082377,10362.883188
2518.778726,-1225.752797,1480.411884,8142.265362
2518.779055,-459.657299,962.267725,9474.636058
2518.779384,-306.438199,-74.020594,9992.780217
2518.779713,1302.362347,-1036.288319,9918.759623
2518.780042,2911.162892,-0.000000,7402.059420
2518.780371,4749.792088,-222.061783,7105.977043
2518.780700,3677.258390,666.185348,6439.791695
2518.781029,4519.963438,2146.597232,7105.977043
2518.781358,3677.258390,2294.638420,6957.935855
2518.781687,1991.848295,1258.350101,7476.080014
2518.782016,612.876398,-0.000000,8882.471304
2518.782346,-1608.800546,-518.144159,8734.430116
2518.782675,-2834.553343,-2886.803174,10881.027347
2518.783004,-3140.991542,-2812.782580,11103.089130
2518.783333,-2068.457845,-2516.700203,10214.842000
2518.783662,-2298.286494,-2294.638420,10584.944971
2518.783991,-2145.067394,-518.144159,10214.842000
2518.784320,-1532.190996,666.185348,9474.636058
2518.784649,-1225.752797,666.185348,9548.656652
2518.784978,-229.828649,2294.638420,7994.224174
2518.785307,536.266849,1184.329507,9030.512492
2518.785636,0.000000,222.061783,8882.471304
2518.785965,0.000000,-814.226536,10288.862594
2518.786294,1685.410096,-1702.473667,9622.677246
2518.786623,3217.601092,-444.123565,7105.977043
2518.786952,4519.963438,-0.000000,7994.224174
2518.787281,4519.963438,1036.288319,6809.894666
2518.787610,4596.572988,2368.659014,7550.100608
2518.787940,3217.601092,1184.329507,7846.182985
2518.788269,2757.943793,1480.411884,7994.224174
2518.788598,766.095498,666.185348,9030.512492
2518.788927,-1608.800546,-518.144159,9178.553681
2518.789256,-2757.943793,-2072.576638,11029.068536
2518.789585,-2757.943793,-3034.844362,11843.295072
2518.789914,-2068.457845,-2220.617826,10288.862594
2518.790243,-1915.238745,-1406.391290,10881.027347
2518.790572,-1378.971896,-1036.288319,10510.924376
2518.790901,-1608.800546,222.061783,9770.718434
2518.791230,-1072.533697,444.123565,9696.697840
2518.791559,-689.485948,1036.288319,9030.512492
2518.791888,-383.047749,962.267725,8956.491898
2518.792217,76.609550,-222.061783,9548.656652
2518.792546,1455.581446,-962.267725,10658.965565
2518.792875,2451.505594,-444.123565,7772.162391
2518.793204,4749.792088,-0.000000,7772.162391
2518.793533,4366.744339,666.185348,6143.709319
2518.793863,4366.744339,2146.597232,7328.038826
2518.794192,3524.039291,2294.638420,7550.100608
2518.794521,1838.629195,1554.432478,7476.080014
2518.794850,1378.971896,222.061783,9178.553681
2518.795179,-766.095498,-370.102971,9030.512492
2518.795508,-2757.943793,-2072.576638,9918.759623
2518.795837,-3217.601092,-3182.885551,11621.233289
2518.796166,-2374.896044,-2738.761985,9918.759623
2518.796495,-2221.676944,-2294.638420,9474.636058
2518.796824,-1455.581446,-1628.453072,10140.821405
2518.797153,-2068.457845,-0.000000,9252.574275
2518.797482,-1225.752797,-148.041188,9548.656652
2518.797811,-919.314598,1110.308913,9326.594869
2518.798140,0.000000,1184.329507,8586.388927
2518.798469,-459.657299,444.123565,8882.471304
2518.798798,0.000000,-888.247130,10436.903782
2518.799127,1838.629195,-666.185348,8956.491898
2518.799457,3753.867940,-74.020594,7179.997637
2518.799786,4903.011187,-148.041188,7031.956449
2518.800115,3983.696590,1110.308913,7254.018232
2518.800444,3907.087040,1776.494261,7994.224174
2518.800773,2528.115143,1628.453072,7328.038826
2518.801102,2145.067394,666.185348,8216.285956
2518.801431,0.000000,-0.000000,9400.615463
2518.801760,-1532.190996,-1110.308913,9622.677246
2518.802089,-2528.115143,-2368.659014,11473.192101
2518.802418,-2221.676944,-2442.679609,11177.109724
2518.802747,-2145.067394,-2442.679609,9548.656652
2518.803076,-1838.629195,-1554.432478,10807.006753
2518.803405,-2068.457845,-74.020594,9918.759623
2518.803734,-1302.362347,-148.041188,9548.656652
2518.804063,-612.876398,888.247130,9696.697840
2518.804392,-229.828649,1702.473667,8882.471304
2518.804721,76.609550,962.267725,9474.636058
2518.805050,229.828649,-296.082377,10066.800811
2518.805380,1991.848295,-518.144159,8808.450710
2518.805709,3753.867940,-0.000000,7254.018232
2518.806038,4749.792088,-0.000000,6957.935855
2518.806367,4749.792088,666.185348,6661.853478
2518.806696,4213.525239,1184.329507,8142.265362
2518.807025,2681.334243,1924.535449,7550.100608
2518.807354,2221.676944,888.247130,7994.224174
2518.807683,153.219100,296.082377,9104.533087
2518.808012,-1532.190996,-444.123565,9252.574275
2518.808341,-2374.896044,-2146.597232,11029.068536
2518.808670,-2834.553343,-2738.761985,11029.068536
2518.808999,-2298.286494,-2960.823768,10214.842000
2518.809328,-2221.676944,-1850.514855,10140.821405
2518.809657,-1608.800546,-666.185348,10066.800811
2518.809986,-1455.581446,-296.082377,9844.739029
2518.810315,-842.705048,222.061783,9844.739029
2518.810644,-842.705048,1110.308913,8808.450710
2518.810974,-612.876398,666.185348,9030.512492
2518.811303,-536.266849,-0.000000,9474.636058
2518.811632,0.000000,-814.226536,9992.780217
2518.811961,1762.019645,-888.247130,9178.553681
2518.812290,3217.601092,-370.102971,7698.141797
2518.812619,3983.696590,-0.000000,7476.080014
2518.812948,3447.429741,1184.329507,7105.977043
2518.813277,3294.210641,1998.556043,7402.059420
2518.813606,3064.381992,1258.350101,7550.100608
2518.813935,1991.848295,814.226536,7846.182985
2518.814264,-229.828649,296.082377,9104.533087
2518.814593,-1225.752797,-1554.432478,9474.636058
2518.814922,-2451.505594,-2220.617826,10732.986159
2518.815251,-2298.286494,-2442.679609,10807.006753
2518.815580,-1915.238745,-1702.473667,9696.697840
2518.815909,-1608.800546,-1628.453072,10362.883188
2518.816238,-1532.190996,-518.144159,9252.574275
2518.816567,-1072.533697,592.164754,9548.656652
2518.816897,-536.266849,592.164754,9400.615463
2518.817226,-612.876398,1554.432478,8734.430116
2518.817555,-383.047749,888.247130,9326.594869
2518.817884,-306.438199,-0.000000,9474.636058
2518.818213,383.047749,-1036.288319,9770.718434
2518.818542,2298.286494,-444.123565,7994.224174
2518.818871,4290.134789,-444.123565,7994.224174
2518.819200,4136.915689,222.061783,6513.812290
2518.819529,4060.306139,1850.514855,7105.977043
2518.819858,3370.820191,1924.535449,7624.121203
2518.820187,2604.724693,1998.556043,7402.059420
2518.820516,1302.362347,666.185348,8808.450710
2518.820845,-459.657299,-0.000000,9548.656652
2518.821174,-2145.067394,-1702.473667,10510.924376
2518.821503,-2451.505594,-3034.844362,11251.130318
2518.821832,-2451.505594,-2886.803174,10955.047942
2518.822161,-2528.115143,-2442.679609,10510.924376
2518.822491,-2145.067394,-1480.411884,10658.965565
2518.822820,-1685.410096,-296.082377,9474.636058
2518.823149,-1378.971896,-0.000000,10140.821405
2518.823478,-1302.362347,814.226536,9326.594869
2518.823807,-536.266849,1184.329507,9252.574275
2518.824136,-612.876398,1110.308913,8882.471304
2518.824465,-919.314598,-0.000000,9400.615463
2518.824794,229.828649,-1628.453072,10288.862594
2518.825123,2068.457845,-1258.350101,8882.471304
2518.825452,3983.696590,-444.123565,8142.265362
2518.825781,4213.525239,296.082377,7105.977043
2518.826110,3447.429741,1258.350101,7105.977043
2518.826439,3600.648841,2072.576638,7698.141797
2518.826768,2987.772442,1850.514855,7402.059420
2518.827097,2221.676944,1406.391290,7550.100608
2518.827426,153.219100,-0.000000,8290.306550
2518.827755,-1149.143247,-666.185348,9326.594869
2518.828084,-2068.457845,-2220.617826,10584.944971
2518.828414,-2221.676944,-2590.720797,10288.862594
2518.828743,-2068.457845,-2590.720797,10288.862594
2518.829072,-2145.067394,-1406.391290,9992.780217
2518.829401,-1685.410096,-444.123565,9548.656652
2518.829730,-1378.971896,-0.000000,9474.636058
2518.830059,-383.047749,1036.288319,9326.594869
2518.830388,-842.705048,1332.370696,9400.615463
2518.830717,0.000000,444.123565,9030.512492
2518.831046,766.095498,-814.226536,10288.862594
2518.831375,1915.238745,-1036.288319,8808.450710
2518.831704,3830.477490,-370.102971,7698.141797
2518.832033,4366.744339,-666.185348,7254.018232
2518.832362,4749.792088,740.205942,7105.977043
2518.832691,4213.525239,1628.453072,8142.265362
2518.833020,3217.601092,1776.494261,7698.141797
2518.833349,2068.457845,1110.308913,7920.203579
2518.833678,306.438199,-0.000000,8956.491898
2518.834007,-1225.752797,-740.205942,9030.512492
2518.834337,-2221.676944,-2516.700203,10732.986159
2518.834666,-2681.334243,-3182.885551,11251.130318
2518.834995,-2221.676944,-2812.782580,10807.006753
2518.835324,-2451.505594,-2368.659014,10510.924376
2518.835653,-1838.629195,-592.164754,9992.780217
2518.835982,-1608.800546,-74.020594,9474.636058
2518.836311,-995.924147,666.185348,9622.677246
2518.836640,-153.219100,1850.514855,9178.553681
2518.836969,76.609550,1332.370696,8734.430116
2518.837298,-612.876398,-0.000000,9548.656652
2518.837627,1532.190996,-444.123565,10584.944971
2518.837956,2298.286494,-74.020594,7994.224174
2518.838285,4136.915689,-222.061783,8142.265362
2518.838614,4136.915689,222.061783,6957.935855
2518.838943,4519.963438,1332.370696,7328.038826
2518.839272,3677.258390,1850.514855,7328.038826
2518.839601,3294.210641,1554.432478,7105.977043
2518.839931,1455.581446,814.226536,8290.306550
2518.840260,76.609550,740.205942,8364.327145
2518.840589,-1532.190996,-1110.308913,9548.656652
2518.840918,-2604.724693,-2072.576638,10732.986159
2518.841247,-1762.019645,-2516.700203,11177.109724
2518.841576,-1915.238745,-2664.741391,10214.842000
2518.841905,-2374.896044,-1480.411884,10362.883188
2518.842234,-1991.848295,-814.226536,9622.677246
2518.842563,-1685.410096,-222.061783,9770.718434
2518.842892,-842.705048,1036.288319,9918.759623
2518.843221,-612.876398,814.226536,9474.636058
2518.843550,0.000000,666.185348,9326.594869
2518.843879,0.000000,-740.205942,9992.780217
2518.844208,1685.410096,-666.185348,9474.636058
2518.844537,2451.505594,-296.082377,7846.182985
2518.844866,4443.353888,-518.144159,7994.224174
2518.845195,4060.306139,888.247130,6439.791695
2518.845524,3983.696590,1924.535449,7772.162391
2518.845854,3370.820191,1850.514855,7994.224174
2518.846183,2681.334243,1110.308913,8068.244768
2518.846512,612.876398,-74.020594,8956.491898
2518.846841,-1149.143247,-518.144159,9326.594869
2518.847170,-2757.943793,-2072.576638,10584.944971
2518.847499,-2757.943793,-2590.720797,11177.109724
2518.847828,-2221.676944,-2516.700203,10066.800811
2518.848157,-2221.676944,-2516.700203,9918.759623
2518.848486,-2528.115143,-1184.329507,9844.739029
2518.848815,-1762.019645,-0.000000,9770.718434
2518.849144,-1302.362347,-222.061783,9696.697840
2518.849473,-995.924147,1554.432478,8734.430116
2518.849802,-229.828649,1184.329507,8734.430116
2518.850131,-383.047749,888.247130,8438.347739
2518.850460,-536.266849,-222.061783,9770.718434
2518.850789,1762.019645,-1628.453072,10436.903782
2518.851118,2757.943793,-814.226536,7624.121203
2518.851448,4290.134789,-0.000000,7846.182985
2518.851777,4136.915689,888.247130,6735.874072
2518.852106,4519.963438,1776.494261,7550.100608
2518.852435,3217.601092,1850.514855,7179.997637
2518.852764,2681.334243,1480.411884,7254.018232
2518.853093,1072.533697,814.226536,8438.347739
2518.853422,-919.314598,-518.144159,9178.553681
2518.853751,-1685.410096,-1554.432478,10214.842000
2518.854080,-2987.772442,-2960.823768,11177.109724
2518.854409,-2528.115143,-3404.947333,10807.006753
2518.854738,-2528.115143,-1776.494261,10362.883188
2518.855067,-1991.848295,-444.123565,10510.924376
2518.855396,-1762.019645,-0.000000,9622.677246
2518.855725,-1149.143247,814.226536,9474.636058
2518.856054,0.000000,1258.350101,9400.615463
2518.856383,0.000000,518.144159,9474.636058
2518.856712,1225.752797,-370.102971,9474.636058
2518.857041,2298.286494,814.226536,7994.224174
2518.857371,3830.477490,-0.000000,7846.182985
2518.857700,3983.696590,-0.000000,7402.059420
2518.858029,4366.744339,444.123565,7476.080014
2518.858358,3830.477490,740.205942,7624.121203
2518.858687,3140.991542,1480.411884,7920.203579
2518.859016,1455.581446,962.267725,8882.471304
2518.859345,-459.657299,-444.123565,9030.512492
2518.859674,-2221.676944,-1036.288319,10066.800811
2518.860003,-2757.943793,-1924.535449,10436.903782
2518.860332,-2757.943793,-3108.864956,10658.965565
2518.860661,-3217.601092,-2220.617826,10584.944971
2518.860990,-2221.676944,-1480.411884,10436.903782
2518.861319,-2145.067394,-1036.288319,9474.636058
2518.861648,-1762.019645,-74.020594,9548.656652
2518.861977,-995.924147,814.226536,9400.615463
2518.862306,-766.095498,1258.350101,8882.471304
2518.862635,-306.438199,1258.350101,8956.491898
2518.862965,766.095498,-0.000000,9548.656652
2518.863294,2145.067394,-0.000000,8216.285956
2518.863623,3447.429741,-222.061783,7698.141797
2518.863952,4136.915689,296.082377,7105.977043
2518.864281,4749.792088,740.205942,7328.038826
2518.864610,4366.744339,1110.308913,7624.121203
2518.864939,3294.210641,1702.473667,7550.100608
2518.865268,2681.334243,740.205942,8438.347739
2518.865597,842.705048,148.041188,8882.471304
2518.865926,-1302.362347,-814.226536,8956.491898
2518.866255,-1838.629195,-1924.535449,10584.944971
2518.866584,-2528.115143,-2812.782580,10436.903782
2518.866913,-2911.162892,-2220.617826,11029.068536
2518.867242,-2374.896044,-2220.617826,10584.944971
2518.867571,-1762.019645,-1628.453072,9844.739029
2518.867900,-1608.800546,-1258.350101,10140.821405
2518.868229,-1149.143247,-0.000000,9770.718434
2518.868558,-459.657299,740.205942,9474.636058
2518.868888,689.485948,1184.329507,9696.697840
2518.869217,2068.457845,1184.329507,8068.244768
2518.869546,3064.381992,1480.411884,7994.224174
2518.869875,3983.696590,1258.350101,7624.121203
2518.870204,4290.134789,962.267725,7550.100608
2518.870533,5056.230287,888.247130,7698.141797
2518.870862,4060.306139,1184.329507,7105.977043
2518.871191,2911.162892,1110.308913,7994.224174
2518.871520,1532.190996,222.061783,8956.491898
2518.871849,-229.828649,-444.123565,9400.615463
2518.872178,-1378.971896,-962.267725,10436.903782
2518.872507,-2451.505594,-1998.556043,10214.842000
2518.872836,-2987.772442,-2220.617826,10807.006753
2518.873165,-2528.115143,-1998.556043,10436.903782
2518.873494,-2451.505594,-1406.391290,9548.656652
2518.873823,-2451.505594,-1702.473667,9992.780217
2518.874152,-1762.019645,-814.226536,9548.656652
2518.874482,-1302.362347,296.082377,9474.636058
2518.874811,-612.876398,444.123565,9474.636058
2518.875140,-383.047749,-0.000000,9474.636058
2518.875469,383.047749,962.267725,9104.533087
2518.875798,1225.752797,1184.329507,7846.182985
2518.876127,2451.505594,962.267725,7772.162391
2518.876456,2987.772442,1110.308913,7550.100608
2518.876785,3140.991542,592.164754,8068.244768
2518.877114,2834.553343,666.185348,7698.141797
2518.877443,2451.505594,-370.102971,7920.203579
2518.877772,1762.019645,-666.185348,8808.450710
2518.878101,612.876398,-888.247130,8956.491898
2518.878430,-383.047749,-814.226536,9400.615463
2518.878759,-1225.752797,-1406.391290,9548.656652
2518.879088,-1149.143247,-1332.370696,9844.739029
2518.879417,-1608.800546,-1406.391290,9844.739029
2518.879746,-1838.629195,-1776.494261,9474.636058
2518.880075,-2068.457845,-1258.350101,9548.656652
2518.880405,-1915.238745,-740.205942,9918.759623
2518.880734,-1532.190996,-0.000000,9696.697840
2518.881063,-995.924147,-0.000000,9474.636058
2518.881392,76.609550,666.185348,9474.636058
2518.881721,919.314598,962.267725,8512.368333
2518.882050,1608.800546,1332.370696,8142.265362
2518.882379,2451.505594,1702.473667,7624.121203
2518.882708,2987.772442,1258.350101,7772.162391
2518.883037,2987.772442,740.205942,7698.141797
2518.883366,2911.162892,518.144159,8068.244768
2518.883695,2681.334243,-74.020594,8290.306550
2518.884024,1685.410096,-518.144159,8660.409521
2518.884353,1149.143247,-222.061783,8956.491898
2518.884682,-306.438199,-74.020594,9696.697840
2518.885011,-459.657299,-74.020594,9622.677246
2518.885340,-995.924147,-740.205942,9918.759623
2518.885669,-1608.800546,-814.226536,9844.739029
2518.885998,-1685.410096,-1110.308913,10140.821405
2518.886327,-1455.581446,-1406.391290,10066.800811
2518.886656,-2145.067394,-1924.535449,10288.862594
2518.886985,-1532.190996,-814.226536,10362.883188
2518.887314,-1455.581446,-888.247130,9992.780217
2518.887643,-689.485948,-148.041188,9622.677246
2518.887972,-229.828649,592.164754,9178.553681
2518.888302,919.314598,740.205942,8808.450710
2518.888631,1149.143247,1480.411884,7994.224174
2518.888960,2068.457845,1406.391290,8290.306550
2518.889289,2451.505594,370.102971,8290.306550
2518.889618,2451.505594,-0.000000,8364.327145
2518.889947,2298.286494,-666.185348,8808.450710
2518.890276,1455.581446,-592.164754,8660.409521
2518.890605,1532.190996,-1036.288319,8808.450710
2518.890934,536.266849,-1110.308913,9326.594869
2518.891263,306.438199,-962.267725,9326.594869
2518.891592,-383.047749,-666.185348,9400.615463
2518.891921,-919.314598,-296.082377,9474.636058
2518.892250,-1072.533697,-370.102971,9400.615463
2518.892579,-1149.143247,-814.226536,9474.636058
2518.892908,-1455.581446,-814.226536,9326.594869
2518.893237,-842.705048,-1036.288319,9474.636058
2518.893566,-995.924147,-370.102971,9696.697840
2518.893895,-766.095498,-370.102971,9474.636058
2518.894224,0.000000,148.041188,9030.512492
2518.894553,306.438199,666.185348,8512.368333
2518.894882,995.924147,962.267725,8586.388927
2518.895211,1302.362347,1036.288319,7846.182985
2518.895540,2374.896044,518.144159,7994.224174
2518.895869,2757.943793,-296.082377,8290.306550
2518.896198,2757.943793,-0.000000,8216.285956
2518.896528,2911.162892,-148.041188,8068.244768
2518.896857,2374.896044,-0.000000,8142.265362
2518.897186,2145.067394,296.082377,8882.471304
2518.897515,1302.362347,592.164754,8734.430116
2518.897844,766.095498,-74.020594,9104.533087
2518.898173,229.828649,-222.061783,9400.615463
2518.898502,-842.705048,-1036.288319,9548.656652
2518.898831,-1762.019645,-1554.432478,9992.780217
2518.899160,-2145.067394,-1702.473667,10288.862594
2518.899489,-2374.896044,-2146.597232,10288.862594
2518.899818,-1762.019645,-1554.432478,10066.800811
2518.900147,-1608.800546,-814.226536,10066.800811
2518.900476,-1608.800546,-444.123565,9770.718434
2518.900805,-766.095498,592.164754,9770.718434
2518.901134,-306.438199,962.267725,9548.656652
2518.901463,842.705048,1332.370696,8808.450710
2518.901792,1762.019645,1110.308913,8216.285956
2518.902121,2681.334243,518.144159,8216.285956
2518.902450,3294.210641,-0.000000,8216.285956
2518.902779,3064.381992,222.061783,8216.285956
2518.903108,2911.162892,-148.041188,7920.203579
2518.903437,2451.505594,-0.000000,8512.368333
2518.903766,1762.019645,-74.020594,8660.409521
2518.904095,995.924147,222.061783,9104.533087
2518.904424,766.095498,-222.061783,9400.615463
2518.904753,0.000000,-740.205942,9104.533087
2518.905083,-689.485948,-814.226536,9918.759623
2518.905412,-1991.848295,-1258.350101,9696.697840
2518.905741,-2068.457845,-1406.391290,9844.739029
2518.906070,-1915.238745,-1554.432478,10066.800811
2518.906399,-2145.067394,-962.267725,9696.697840
2518.906728,-1455.581446,-370.102971,9844.739029
2518.907057,-689.485948,-74.020594,9548.656652
2518.907386,229.828649,370.102971,9400.615463
2518.907715,766.095498,666.185348,8734.430116
2518.908044,1838.629195,1036.288319,8142.265362
2518.908373,2451.505594,740.205942,7772.162391
2518.908702,3064.381992,592.164754,7698.141797
2518.909031,3370.820191,296.082377,7476.080014
2518.909360,3140.991542,296.082377,7920.203579
2518.909689,2451.505594,-0.000000,8216.285956
2518.910018,1915.238745,222.061783,8586.388927
2518.910347,1225.752797,-0.000000,8956.491898
2518.910676,229.828649,-74.020594,8956.491898
2518.911005,-536.266849,-814.226536,9474.636058
2518.911334,-1302.362347,-1258.350101,9696.697840
2518.911663,-1455.581446,-1702.473667,10288.862594
2518.911992,-2374.896044,-1924.535449,9770.718434
2518.912321,-2374.896044,-1776.494261,10584.944971
2518.912650,-2451.505594,-1406.391290,9918.759623
2518.912979,-1685.410096,-518.144159,9992.780217
2518.913309,-1455.581446,-0.000000,9548.656652
2518.913638,-689.485948,-0.000000,9400.615463
2518.913967,-842.705048,888.247130,9400.615463
2518.914296,0.000000,888.247130,9696.697840
2518.914625,842.705048,888.247130,8586.388927
2518.914954,2068.457845,666.185348,8216.285956
2518.915283,2834.553343,592.164754,7772.162391
2518.915612,3217.601092,370.102971,7772.162391
2518.915941,2987.772442,148.041188,7846.182985
2518.916270,2681.334243,518.144159,7402.059420
2518.916599,2451.505594,518.144159,8364.327145
2518.916928,766.095498,592.164754,8808.450710
2518.917257,153.219100,-222.061783,9104.533087
2518.917586,-536.266849,-296.082377,9548.656652
2518.917915,-1302.362347,-962.267725,9622.677246
2518.918244,-1302.362347,-1702.473667,10214.842000
2518.918573,-2068.457845,-1924.535449,10732.986159
2518.918902,-2374.896044,-1850.514855,9918.759623
2518.919231,-2374.896044,-1554.432478,10362.883188
2518.919560,-1685.410096,-444.123565,9992.780217
2518.919889,-919.314598,-74.020594,9696.697840
2518.920218,-689.485948,666.185348,9326.594869
2518.920547,1149.143247,814.226536,9548.656652
2518.920876,1455.581446,518.144159,8438.347739
2518.921205,2374.896044,1258.350101,8512.368333
2518.921535,3600.648841,592.164754,7920.203579
2518.921864,3140.991542,666.185348,6883.915261
2518.922193,3753.867940,592.164754,8438.347739
2518.922522,3140.991542,-0.000000,7698.141797
2518.922851,2911.162892,222.061783,7994.224174
2518.923180,1378.971896,-74.020594,9030.512492
2518.923509,459.657299,-74.020594,8808.450710
2518.923838,-459.657299,-370.102971,9400.615463
2518.924167,-995.924147,-1110.308913,9770.718434
2518.924496,-1762.019645,-1554.432478,10214.842000
2518.924825,-2451.505594,-1998.556043,10510.924376
2518.925154,-1915.238745,-1702.473667,9992.780217
2518.925483,-2451.505594,-1702.473667,9474.636058
2518.925812,-2298.286494,-962.267725,10362.883188
2518.926141,-1838.629195,148.041188,9548.656652
2518.926470,-1225.752797,370.102971,9696.697840
2518.926799,-919.314598,740.205942,8956.491898
2518.927128,0.000000,1036.288319,8734.430116
2518.927457,1149.143247,666.185348,8882.471304
2518.927786,2298.286494,592.164754,8216.285956
2518.928115,3064.381992,814.226536,7920.203579
2518.928444,3217.601092,-0.000000,6957.935855
2518.928773,3753.867940,592.164754,7624.121203
2518.929102,3294.210641,518.144159,7476.080014
2518.929431,3217.601092,592.164754,7402.059420
2518.929761,1991.848295,518.144159,8216.285956
2518.930090,919.314598,-222.061783,8290.306550
2518.930419,-459.657299,-666.185348,9326.594869
2518.930748,-1915.238745,-962.267725,9844.739029
2518.931077,-2374.896044,-1332.370696,11029.068536
2518.931406,-2681.334243,-2220.617826,10807.006753
2518.931735,-2757.943793,-1924.535449,10436.903782
2518.932064,-2221.676944,-1184.329507,10362.883188
2518.932393,-1608.800546,-888.247130,10214.842000
2518.932722,-1149.143247,-444.123565,9474.636058
2518.933051,0.000000,-0.000000,9474.636058
2518.933380,1225.752797,222.061783,8956.491898
2518.933709,2451.505594,1110.308913,7920.203579
2518.934038,3753.867940,1850.514855,7328.038826
2518.934367,3907.087040,1036.288319,7254.018232
2518.934696,4749.792088,740.205942,7476.080014
2518.935025,4366.744339,296.082377,7772.162391
2518.935354,3753.867940,370.102971,7772.162391
2518.935683,2451.505594,-0.000000,8438.347739
2518.936012,1532.190996,-222.061783,9178.553681
2518.936341,0.000000,-370.102971,9548.656652
2518.936670,-1455.581446,-962.267725,9992.780217
2518.936999,-1838.629195,-1332.370696,10066.800811
2518.937328,-2374.896044,-2072.576638,10362.883188
2518.937657,-2374.896044,-2294.638420,10214.842000
2518.937987,-2451.505594,-1406.391290,9474.636058
2518.938316,-1762.019645,-1776.494261,9696.697840
2518.938645,-1608.800546,-740.205942,9474.636058
2518.938974,-1455.581446,-296.082377,9178.553681
2518.939303,-1225.752797,-0.000000,9474.636058
2518.939632,0.000000,888.247130,9400.615463
2518.939961,536.266849,962.267725,8438.347739
2518.940290,1685.410096,1110.308913,8290.306550
2518.940619,2528.115143,1258.350101,7920.203579
2518.940948,2757.943793,666.185348,7920.203579
2518.941277,2987.772442,740.205942,7846.182985
2518.941606,2604.724693,222.061783,7698.141797
2518.941935,2451.505594,-518.144159,8216.285956
2518.942264,1378.971896,-444.123565,8364.327145
2518.942593,229.828649,-814.226536,9474.636058
2518.942922,0.000000,-1184.329507,9400.615463
2518.943251,-766.095498,-1110.308913,9548.656652
2518.943580,-1762.019645,-962.267725,9696.697840
2518.943909,-2068.457845,-962.267725,9992.780217
2518.944238,-2221.676944,-1554.432478,9992.780217
2518.944567,-1915.238745,-1258.350101,9992.780217
2518.944896,-1685.410096,-1332.370696,9992.780217
2518.945225,-612.876398,-888.247130,9992.780217
2518.945554,-995.924147,-148.041188,9474.636058
2518.945883,0.000000,-0.000000,9548.656652
2518.946212,919.314598,1036.288319,8438.347739
2518.946542,1762.019645,1332.370696,8216.285956
2518.946871,2757.943793,1332.370696,8142.265362
2518.947200,3753.867940,1406.391290,7994.224174
2518.947529,3370.820191,814.226536,8068.244768
2518.947858,3294.210641,592.164754,8142.265362
2518.948187,2911.162892,-0.000000,8512.368333
2518.948516,1532.190996,-0.000000,8808.450710
2518.948845,1685.410096,-0.000000,9400.615463
2518.949174,919.314598,-592.164754,8882.471304
2518.949503,383.047749,-370.102971,9844.739029
2518.949832,-459.657299,-0.000000,9696.697840
2518.950161,-1149.143247,-518.144159,9548.656652
2518.950490,-995.924147,-962.267725,9548.656652
2518.950819,-1455.581446,-814.226536,9770.718434
2518.951148,-1302.362347,-1036.288319,9992.780217
2518.951477,-1378.971896,-1406.391290,9696.697840
2518.951806,-1225.752797,-518.144159,9918.759623
2518.952135,-1072.533697,-148.041188,9474.636058
2518.952464,-306.438199,814.226536,9326.594869
2518.952793,459.657299,1258.350101,8734.430116
2518.953122,1302.362347,1554.432478,8438.347739
2518.953451,1762.019645,1406.391290,7994.224174
2518.953780,1608.800546,592.164754,8216.285956
2518.954109,2374.896044,-148.041188,8660.409521
2518.954438,2374.896044,-592.164754,9030.512492
2518.954768,1685.410096,-888.247130,8364.327145
2518.955097,1532.190996,-888.247130,8734.430116
2518.955426,612.876398,-518.144159,8956.491898
2518.955755,0.000000,-518.144159,9474.636058
2518.956084,-383.047749,-666.185348,9474.636058
2518.956413,-919.314598,-592.164754,9696.697840
2518.956742,-1302.362347,-1332.370696,9548.656652
2518.957071,-1608.800546,-1258.350101,9844.739029
2518.957400,-1991.848295,-1480.411884,9992.780217
2518.957729,-1991.848295,-1480.411884,10140.821405
2518.958058,-1838.629195,-1406.391290,9992.780217
2518.958387,-612.876398,-962.267725,9326.594869
2518.958716,-383.047749,-222.061783,9178.553681
2518.959045,229.828649,518.144159,8586.388927
2518.959374,1378.971896,1184.329507,8438.347739
2518.959703,2298.286494,1480.411884,7772.162391
2518.960032,2757.943793,1184.329507,7550.100608
2518.960361,3217.601092,740.205942,7920.203579
2518.960690,3600.648841,-0.000000,7994.224174
2518.961019,2834.553343,-0.000000,7920.203579
2518.961348,2068.457845,-0.000000,8586.388927
2518.961677,1455.581446,-222.061783,8808.450710
2518.962006,919.314598,-0.000000,8882.471304
2518.962335,383.047749,-74.020594,8956.491898
2518.962664,-459.657299,-444.123565,9474.636058
2518.962994,-1225.752797,-1036.288319,9622.677246
2518.963323,-1302.362347,-1406.391290,9770.718434
2518.963652,-1532.190996,-2294.638420,10066.800811
2518.963981,-1762.019645,-1628.453072,9770.718434
2518.964310,-2145.067394,-1406.391290,10214.842000
2518.964639,-1608.800546,-888.247130,9918.759623
2518.964968,-995.924147,-0.000000,9474.636058
2518.965297,-383.047749,370.102971,9548.656652
2518.965626,459.657299,1036.288319,9104.533087
2518.965955,459.657299,1628.453072,8734.430116
2518.966284,2068.457845,1258.350101,8734.430116
2518.966613,2528.115143,888.247130,8512.368333
2518.966942,2987.772442,444.123565,8290.306550
2518.967271,2911.162892,296.082377,8438.347739
2518.967600,2528.115143,-0.000000,8290.306550
2518.967929,2145.067394,-518.144159,8808.450710
2518.968258,1378.971896,-74.020594,8734.430116
2518.968587,153.219100,-296.082377,9622.677246
2518.968916,-153.219100,-592.164754,9474.636058
2518.969245,-1072.533697,-592.164754,9622.677246
2518.969574,-1685.410096,-962.267725,9992.780217
2518.969903,-1149.143247,-1332.370696,9918.759623
2518.970232,-1608.800546,-222.061783,10066.800811
2518.970561,-2068.457845,-1332.370696,9992.780217
2518.970890,-1302.362347,-518.144159,9696.697840
2518.971220,-842.705048,-296.082377,9770.718434
2518.971549,-153.219100,-0.000000,9178.553681
2518.971878,459.657299,962.267725,8734.430116
2518.972207,919.314598,1184.329507,8438.347739
2518.972536,1608.800546,1258.350101,7624.121203
2518.972865,2604.724693,666.185348,7772.162391
2518.973194,2911.162892,-74.020594,7920.203579
2518.973523,2987.772442,-0.000000,7920.203579
2518.973852,2757.943793,-518.144159,7994.224174
2518.974181,2068.457845,-148.041188,8216.285956
2518.974510,1455.581446,-296.082377,8586.388927
2518.974839,766.095498,-370.102971,8882.471304
2518.975168,0.000000,-222.061783,8956.491898
2518.975497,-229.828649,-666.185348,9474.636058
2518.975826,-1762.019645,-888.247130,9548.656652
2518.976155,-1302.362347,-1184.329507,9770.718434
2518.976484,-1762.019645,-1406.391290,9770.718434
2518.976813,-2145.067394,-1332.370696,9918.759623
2518.977142,-1991.848295,-1406.391290,9770.718434
2518.977471,-1991.848295,-1036.288319,9992.780217
2518.977800,-1532.190996,-740.205942,10140.821405
2518.978129,-383.047749,-148.041188,9400.615463
2518.978458,-689.485948,814.226536,9622.677246
2518.978787,459.657299,962.267725,8956.491898
2518.979116,1532.190996,1184.329507,8290.306550
2518.979445,2145.067394,888.247130,8290.306550
2518.979775,2451.505594,666.185348,8142.265362
2518.980104,3140.991542,-148.041188,8660.409521
2518.980433,2298.286494,-222.061783,8438.347739
2518.980762,2374.896044,-0.000000,8216.285956
2518.981091,1762.019645,370.102971,8512.368333
2518.981420,842.705048,444.123565,9030.512492
2518.981749,0.000000,-0.000000,9474.636058
2518.982078,-229.828649,-592.164754,9178.553681
2518.982407,-1608.800546,-888.247130,9474.636058
2518.982736,-2298.286494,-1480.411884,9992.780217
2518.983065,-2451.505594,-1628.453072,10066.800811
2518.983394,-2298.286494,-1332.370696,9992.780217
2518.983723,-1838.629195,-1258.350101,9918.759623
2518.984053,-1532.190996,-814.226536,9548.656652
2518.984382,-1072.533697,-222.061783,9400.615463
2518.984711,-536.266849,-0.000000,9474.636058
2518.985040,306.438199,370.102971,9326.594869
2518.985369,995.924147,1184.329507,8290.306550
2518.985698,2451.505594,1332.370696,8216.285956
2518.986027,2911.162892,814.226536,7624.121203
2518.986356,3447.429741,518.144159,7920.203579
2518.986685,3907.087040,-296.082377,8216.285956
2518.987014,3294.210641,-296.082377,7920.203579
2518.987343,3064.381992,-444.123565,8216.285956
2518.987672,1685.410096,-0.000000,8660.409521
2518.988001,842.705048,-222.061783,8956.491898
2518.988331,0.000000,-518.144159,9474.636058
2518.988660,-766.095498,-1110.308913,9696.697840
2518.988989,-1302.362347,-1554.432478,10066.800811
2518.989318,-1762.019645,-1776.494261,10362.883188
2518.989647,-2451.505594,-1924.535449,10288.862594
2518.989976,-2528.115143,-1702.473667,10362.883188
2518.990305,-1991.848295,-666.185348,10066.800811
2518.990634,-1455.581446,-148.041188,9696.697840
2518.990963,-1149.143247,-0.000000,9474.636058
2518.991292,-459.657299,296.082377,9178.553681
2518.991621,689.485948,814.226536,9252.574275
2518.991950,1225.752797,1110.308913,8290.306550
2518.992279,2911.162892,1184.329507,7550.100608
2518.992609,3294.210641,888.247130,7994.224174
2518.992938,3370.820191,666.185348,7846.182985
2518.993267,3294.210641,592.164754,7476.080014
2518.993596,2681.334243,-0.000000,7624.121203
2518.993925,1838.629195,296.082377,8142.265362
2518.994254,1608.800546,222.061783,8142.265362
2518.994583,0.000000,-74.020594,9178.553681
2518.994912,-459.657299,-592.164754,9030.512492
2518.995241,-1072.533697,-1184.329507,9844.739029
2518.995570,-1762.019645,-1332.370696,9992.780217
2518.995899,-2145.067394,-1850.514855,10066.800811
2518.996228,-2374.896044,-1554.432478,10140.821405
2518.996557,-2604.724693,-1110.308913,10288.862594
2518.996887,-1608.800546,-888.247130,9770.718434
2518.997216,-1302.362347,-0.000000,9696.697840
2518.997545,-536.266849,666.185348,9474.636058
2518.997874,0.000000,666.185348,9474.636058
2518.998203,766.095498,888.247130,9104.533087
2518.998532,2145.067394,592.164754,8734.430116
2518.998861,3064.381992,518.144159,7920.203579
2518.999190,3524.039291,666.185348,7550.100608
2518.999519,3983.696590,370.102971,7994.224174
2518.999848,3447.429741,370.102971,7476.080014
2519.000177,2681.334243,296.082377,7920.203579
2519.000506,2604.724693,-0.000000,8956.491898
2519.000835,1608.800546,-0.000000,8808.450710
2519.001165,0.000000,-518.144159,9770.718434
2519.001494,-612.876398,-592.164754,9918.759623
2519.001823,-1225.752797,-1406.391290,10214.842000
2519.002152,-2221.676944,-1924.535449,10362.883188
2519.002481,-2451.505594,-1702.473667,10362.883188
2519.002810,-2834.553343,-1998.556043,10510.924376
2519.003139,-2221.676944,-962.267725,10584.944971
2519.003468,-1608.800546,-222.061783,10066.800811
2519.003797,-1378.971896,-74.020594,9548.656652
2519.004126,-919.314598,666.185348,9326.594869
2519.004455,-383.047749,740.205942,9326.594869
2519.004784,995.924147,888.247130,8586.388927
2519.005113,2374.896044,888.247130,8438.347739
2519.005443,3064.381992,296.082377,7920.203579
2519.005772,3064.381992,444.123565,7772.162391
2519.006101,3294.210641,148.041188,7550.100608
2519.006430,2757.943793,296.082377,7698.141797
2519.006759,2221.676944,444.123565,7698.141797
2519.007088,1072.533697,296.082377,8438.347739
2519.007417,0.000000,-370.102971,9030.512492
2519.007746,-842.705048,-962.267725,9400.615463
2519.008075,-2068.457845,-814.226536,9252.574275
2519.008404,-2528.115143,-1554.432478,9992.780217
2519.008733,-2987.772442,-1406.391290,10066.800811
2519.009062,-2604.724693,-1924.535449,10140.821405
2519.009391,-2451.505594,-1258.350101,9696.697840
2519.009721,-2068.457845,-814.226536,10362.883188
2519.010050,-995.924147,-888.247130,10214.842000
2519.010379,306.438199,444.123565,9252.574275
2519.010708,383.047749,666.185348,7920.203579
2519.011037,1991.848295,1776.494261,8216.285956
2519.011366,2604.724693,962.267725,7402.059420
2519.011695,3064.381992,1258.350101,7920.203579
2519.012024,3753.867940,-0.000000,7698.141797
2519.012353,2987.772442,222.061783,7772.162391
2519.012682,2834.553343,-222.061783,8142.265362
2519.013011,2451.505594,-0.000000,8512.368333
2519.013340,1455.581446,-222.061783,8956.491898
2519.013669,689.485948,-0.000000,9326.594869
2519.013999,153.219100,-74.020594,9474.636058
2519.014328,-536.266849,-1036.288319,9622.677246
2519.014657,-919.314598,-518.144159,9696.697840
2519.014986,-1455.581446,-1110.308913,9918.759623
2519.015315,-1685.410096,-1480.411884,9844.739029
2519.015644,-1762.019645,-1406.391290,9844.739029
2519.015973,-1685.410096,-1110.308913,9770.718434
2519.016302,-1532.190996,-592.164754,9770.718434
2519.016631,-919.314598,148.041188,9400.615463
2519.016960,0.000000,592.164754,9104.533087
2519.017289,689.485948,1110.308913,8660.409521
2519.017618,2145.067394,1628.453072,8290.306550
2519.017947,2298.286494,1258.350101,7476.080014
2519.018277,2451.505594,962.267725,8068.244768
2519.018606,2451.505594,370.102971,7994.224174
2519.018935,2451.505594,-0.000000,8142.265362
2519.019264,1838.629195,-592.164754,8586.388927
2519.019593,1455.581446,-666.185348,8660.409521
2519.019922,919.314598,-592.164754,9178.553681
2519.020251,229.828649,-518.144159,8512.368333
2519.020580,-766.095498,-148.041188,9548.656652
2519.020909,-1302.362347,-888.247130,9770.718434
2519.021238,-1915.238745,-1628.453072,10214.842000
2519.021567,-2145.067394,-1702.473667,10066.800811
2519.021896,-2451.505594,-1850.514855,9992.780217
2519.022225,-2757.943793,-1628.453072,10510.924376
2519.022555,-1225.752797,-962.267725,10066.800811
2519.022884,-1072.533697,-370.102971,9622.677246
2519.023213,-306.438199,-0.000000,9252.574275
2519.023542,536.266849,740.205942,8586.388927
2519.023871,1225.752797,1480.411884,8438.347739
2519.024200,2221.676944,1554.432478,7994.224174
2519.024529,2604.724693,1406.391290,7920.203579
2519.024858,3294.210641,1258.350101,8216.285956
2519.025187,3370.820191,666.185348,8290.306550
2519.025516,2604.724693,-296.082377,8290.306550
2519.025845,2145.067394,-370.102971,7994.224174
2519.026174,1762.019645,-74.020594,8216.285956
2519.026503,1455.581446,-0.000000,9104.533087
2519.026833,842.705048,-518.144159,8808.450710
2519.027162,-383.047749,-222.061783,9400.615463
2519.027491,-536.266849,-1480.411884,9474.636058
2519.027820,-1455.581446,-1332.370696,8882.471304
2519.028149,-1608.800546,-1036.288319,10140.821405
2519.028478,-1915.238745,-1998.556043,10066.800811
2519.028807,-1991.848295,-1406.391290,9844.739029
2519.029136,-1378.971896,-814.226536,10288.862594
2519.029465,-306.438199,-74.020594,9400.615463
2519.029794,459.657299,444.123565,8660.409521
2519.030123,612.876398,1554.432478,8734.430116
2519.030452,1532.190996,1924.535449,8290.306550
2519.030781,2451.505594,1554.432478,8068.244768
2519.031110,2757.943793,888.247130,8290.306550
2519.031440,2911.162892,592.164754,8364.327145
2519.031769,2757.943793,-222.061783,8586.388927
2519.032098,2451.505594,-74.020594,8734.430116
2519.032427,1762.019645,-74.020594,8882.471304
2519.032756,842.705048,-148.041188,9400.615463
2519.033085,383.047749,-370.102971,9844.739029
2519.033414,-306.438199,-592.164754,9770.718434
2519.033743,-919.314598,-592.164754,9992.780217
2519.034072,-1532.190996,-814.226536,10732.986159
2519.034401,-1762.019645,-1332.370696,10140.821405
2519.034730,-2145.067394,-1184.329507,10140.821405
2519.035059,-1991.848295,-1184.329507,10436.903782
2519.035388,-1532.190996,-1036.288319,9770.718434
2519.035718,-1072.533697,-518.144159,9696.697840
2519.036047,0.000000,-0.000000,9400.615463
2519.036376,612.876398,-296.082377,8438.347739
2519.036705,1225.752797,1036.288319,8438.347739
2519.037034,1991.848295,1332.370696,7920.203579
2519.037363,2374.896044,962.267725,8068.244768
2519.037692,2681.334243,592.164754,8216.285956
2519.038021,2834.553343,-0.000000,7846.182985
2519.038350,2834.553343,-0.000000,8290.306550
2519.038679,2374.896044,-148.041188,8512.368333
2519.039008,1762.019645,-148.041188,8290.306550
2519.039337,1302.362347,296.082377,8512.368333
2519.039666,689.485948,-0.000000,8660.409521
2519.039996,229.828649,-0.000000,8660.409521
2519.040325,-536.266849,-444.123565,8956.491898
2519.040654,-1149.143247,-888.247130,9400.615463
2519.040983,-1685.410096,-1554.432478,9474.636058
2519.041312,-2451.505594,-1924.535449,10140.821405
2519.041641,-2604.724693,-1480.411884,9992.780217
2519.041970,-2298.286494,-1184.329507,9992.780217
2519.042299,-1762.019645,-814.226536,9770.718434
2519.042628,-1149.143247,148.041188,9474.636058
2519.042957,-612.876398,222.061783,8956.491898
2519.043286,-383.047749,1332.370696,9104.533087
2519.043615,2068.457845,1258.350101,8068.244768
2519.043944,2681.334243,1480.411884,7624.121203
2519.044274,3064.381992,1184.329507,7846.182985
2519.044603,3294.210641,444.123565,7920.203579
2519.044932,2987.772442,666.185348,7772.162391
2519.045261,2911.162892,222.061783,8290.306550
2519.045590,1915.238745,-0.000000,7994.224174
2519.045919,153.219100,-74.020594,9252.574275
2519.046248,-919.314598,-370.102971,9918.759623
2519.046577,-1762.019645,-1110.308913,9918.759623
2519.046906,-2298.286494,-1776.494261,10510.924376
2519.047235,-2604.724693,-1924.535449,10584.944971
2519.047564,-2451.505594,-1776.494261,10288.862594
2519.047893,-2145.067394,-1332.370696,10362.883188
2519.048222,-1149.143247,-1110.308913,10214.842000
2519.048552,-1378.971896,-74.020594,9844.739029
2519.048881,-995.924147,-0.000000,9770.718434
2519.049210,0.000000,1110.308913,9178.553681
2519.049539,1225.752797,1332.370696,8290.306550
2519.049868,1225.752797,1998.556043,8142.265362
2519.050197,2604.724693,1554.432478,7846.182985
2519.050526,2834.553343,1184.329507,8142.265362
2519.050855,3217.601092,-0.000000,7328.038826
2519.051184,2987.772442,148.041188,7698.141797
2519.051513,2374.896044,-370.102971,8438.347739
2519.051842,1532.190996,-592.164754,8068.244768
2519.052171,842.705048,-518.144159,9474.636058
2519.052500,306.438199,-1184.329507,9104.533087
2519.052830,-153.219100,-888.247130,9252.574275
2519.053159,-689.485948,-962.267725,9696.697840
2519.053488,-1149.143247,-666.185348,9770.718434
2519.053817,-1378.971896,-1332.370696,9770.718434
2519.054146,-1991.848295,-1480.411884,9992.780217
2519.054475,-1608.800546,-1258.350101,10140.821405
2519.054804,-1608.800546,-518.144159,10288.862594
2519.055133,-1608.800546,-888.247130,10140.821405
2519.055462,-919.314598,-222.061783,9400.615463
2519.055791,0.000000,370.102971,9030.512492
2519.056120,1072.533697,1184.329507,8364.327145
2519.056449,1762.019645,1406.391290,7772.162391
2519.056778,2451.505594,1554.432478,7994.224174
2519.057108,3064.381992,814.226536,7846.182985
2519.057437,2987.772442,518.144159,8364.327145
2519.057766,2987.772442,-0.000000,7920.203579
2519.058095,1685.410096,222.061783,8586.388927
2519.058424,1915.238745,-74.020594,8512.368333
2519.058753,1532.190996,296.082377,8734.430116
2519.059082,919.314598,-0.000000,9030.512492
2519.059411,0.000000,-0.000000,9104.533087
2519.059740,-612.876398,-814.226536,9400.615463
2519.060069,-1149.143247,-1776.494261,9400.615463
2519.060398,-1838.629195,-1850.514855,10214.842000
2519.060727,-2528.115143,-2368.659014,10584.944971
2519.061056,-2068.457845,-1776.494261,9992.780217
2519.061386,-1838.629195,-814.226536,9548.656652
2519.061715,-1532.190996,-296.082377,9548.656652
2519.062044,0.000000,518.144159,9474.636058
2519.062373,306.438199,1110.308913,9400.615463
2519.062702,1149.143247,1258.350101,8660.409521
2519.063031,2145.067394,1628.453072,8586.388927
2519.063360,2604.724693,888.247130,7624.121203
2519.063689,2987.772442,518.144159,7920.203579
2519.064018,3217.601092,222.061783,8512.368333
2519.064347,3064.381992,-0.000000,7994.224174
2519.064676,2451.505594,-296.082377,8512.368333
2519.065005,2068.457845,-0.000000,8660.409521
2519.065334,1378.971896,-0.000000,8512.368333
2519.065664,383.047749,-74.020594,9326.594869
2519.065993,-306.438199,-592.164754,9548.656652
2519.066322,-1532.190996,-1184.329507,9844.739029
2519.066651,-1915.238745,-1480.411884,10140.821405
2519.066980,-2451.505594,-1998.556043,10510.924376
2519.067309,-3140.991542,-1554.432478,10584.944971
2519.067638,-2834.553343,-1628.453072,10510.924376
2519.067967,-1915.238745,-666.185348,10288.862594
2519.068296,-1302.362347,-74.020594,9696.697840
2519.068625,-766.095498,592.164754,9400.615463
2519.068954,612.876398,592.164754,9252.574275
2519.069283,995.924147,962.267725,8586.388927
2519.069612,2068.457845,1184.329507,8216.285956
2519.069942,2528.115143,888.247130,8216.285956
2519.070271,2987.772442,518.144159,7402.059420
2519.070600,3064.381992,148.041188,7476.080014
2519.070929,2757.943793,666.185348,7698.141797
2519.071258,2451.505594,370.102971,8216.285956
2519.071587,1991.848295,-0.000000,8438.347739
2519.071916,306.438199,-222.061783,8734.430116
2519.072245,-229.828649,-0.000000,9474.636058
2519.072574,-1225.752797,-888.247130,9474.636058
2519.072903,-2068.457845,-1258.350101,9696.697840
2519.073232,-2374.896044,-1924.535449,10362.883188
2519.073561,-2221.676944,-1554.432478,10288.862594
2519.073890,-1991.848295,-1702.473667,9992.780217
2519.074220,-1685.410096,-592.164754,9696.697840
2519.074549,-1455.581446,-518.144159,9696.697840
2519.074878,-842.705048,148.041188,9178.553681
2519.075207,-459.657299,370.102971,9326.594869
2519.075536,536.266849,740.205942,8808.450710
2519.075865,2145.067394,296.082377,7994.224174
2519.076194,2374.896044,666.185348,7846.182985
2519.076523,3140.991542,296.082377,8068.244768
2519.076852,3294.210641,-0.000000,8216.285956
2519.077181,3370.820191,370.102971,7624.121203
2519.077510,2987.772442,444.123565,7920.203579
2519.077839,2451.505594,518.144159,8364.327145
2519.078168,1762.019645,370.102971,8586.388927
2519.078498,1072.533697,-74.020594,9178.553681
2519.078827,0.000000,-296.082377,9548.656652
2519.079156,-1072.533697,-1036.288319,9770.718434
2519.079485,-1838.629195,-1332.370696,10140.821405
2519.079814,-2451.505594,-1776.494261,10807.006753
2519.080143,-2604.724693,-2072.576638,10436.903782
2519.080472,-2298.286494,-1628.453072,10362.883188
2519.080801,-2068.457845,-740.205942,10658.965565
2519.081130,-1608.800546,-814.226536,9992.780217
2519.081459,-1149.143247,296.082377,9178.553681
2519.081788,-689.485948,518.144159,9474.636058
2519.082114,612.876398,814.226536,8882.471304
2519.082443,1072.533697,962.267725,8364.327145
2519.082773,3140.991542,1554.432478,8438.347739
2519.083102,3294.210641,888.247130,7846.182985
2519.083431,3370.820191,1184.329507,7994.224174
2519.083760,3524.039291,740.205942,7550.100608
2519.084089,2681.334243,592.164754,7550.100608
2519.084418,1378.971896,740.205942,8512.368333
2519.084747,842.705048,-0.000000,9030.512492
2519.085076,-229.828649,-888.247130,9474.636058
2519.085405,-1302.362347,-666.185348,9918.759623
2519.085734,-1915.238745,-1850.514855,10362.883188
2519.086063,-2757.943793,-2072.576638,10436.903782
2519.086392,-2604.724693,-1924.535449,10436.903782
2519.086721,-2528.115143,-1406.391290,10140.821405
2519.087050,-2374.896044,-1480.411884,10066.800811
2519.087379,-1991.848295,-666.185348,9548.656652
2519.087708,-919.314598,222.061783,9622.677246
2519.088037,0.000000,888.247130,9030.512492
2519.088366,842.705048,1406.391290,8586.388927
2519.088695,2068.457845,1480.411884,7624.121203
2519.089024,2451.505594,962.267725,8142.265362
2519.089353,3140.991542,-0.000000,7624.121203
2519.089682,3064.381992,148.041188,8216.285956
2519.090011,3370.820191,-518.144159,8586.388927
2519.090340,2374.896044,-888.247130,7846.182985
2519.090669,2374.896044,-592.164754,8956.491898
2519.090998,1072.533697,-444.123565,9104.533087
2519.091327,612.876398,-0.000000,9104.533087
2519.091656,-306.438199,-444.123565,9326.594869
2519.091985,-536.266849,-518.144159,9178.553681
2519.092314,-1455.581446,-1406.391290,9918.759623
2519.092643,-1685.410096,-1110.308913,9918.759623
2519.092972,-1991.848295,-1554.432478,10140.821405
2519.093301,-1915.238745,-1184.329507,10288.862594
2519.093630,-1685.410096,-296.082377,10066.800811
2519.093959,-1225.752797,-0.000000,9844.739029
2519.094288,-536.266849,222.061783,9400.615463
2519.094617,1072.533697,370.102971,8364.327145
2519.094946,1838.629195,1554.432478,8512.368333
2519.095275,2451.505594,1480.411884,8142.265362
2519.095604,3217.601092,1184.329507,7846.182985
2519.095934,3677.258390,888.247130,7550.100608
2519.096263,3370.820191,666.185348,7846.182985
2519.096592,2911.162892,148.041188,8068.244768
2519.096921,2604.724693,-370.102971,8290.306550
2519.097250,1991.848295,-0.000000,8734.430116
2519.097579,1149.143247,-0.000000,8956.491898
2519.097908,0.000000,-370.102971,9474.636058
2519.098237,-1302.362347,-962.267725,9696.697840
2519.098566,-1838.629195,-1258.350101,10066.800811
2519.098895,-2374.896044,-1776.494261,10140.821405
2519.099224,-2834.553343,-2442.679609,10584.944971
2519.099553,-2451.505594,-2072.576638,10140.821405
2519.099882,-2528.115143,-1554.432478,10140.821405
2519.100211,-1378.971896,-666.185348,9770.718434
2519.100540,-689.485948,-148.041188,9326.594869
2519.100869,229.828649,444.123565,9474.636058
2519.101198,1149.143247,1480.411884,9178.553681
2519.101527,1608.800546,1776.494261,7920.203579
2519.101856,2298.286494,1110.308913,7920.203579
2519.102185,2757.943793,962.267725,7772.162391
2519.102514,3140.991542,888.247130,7920.203579
2519.102843,2528.115143,370.102971,8142.265362
2519.103172,2145.067394,-0.000000,7920.203579
2519.103501,1455.581446,-0.000000,9178.553681
2519.103830,1225.752797,-518.144159,8734.430116
2519.104159,0.000000,-814.226536,9178.553681
2519.104488,-842.705048,-1036.288319,9474.636058
2519.104817,-1532.190996,-1258.350101,9474.636058
2519.105146,-2374.896044,-1406.391290,9918.759623
2519.105475,-2681.334243,-1924.535449,9844.739029
2519.105804,-2374.896044,-1554.432478,9474.636058
2519.106133,-1838.629195,-1554.432478,9770.718434
2519.106462,-1608.800546,-1184.329507,9622.677246
2519.106791,-766.095498,-74.020594,9252.574275
2519.107120,-459.657299,592.164754,9400.615463
2519.107449,229.828649,1110.308913,8512.368333
2519.107778,1302.362347,1480.411884,8216.285956
2519.108107,2145.067394,1258.350101,7772.162391
2519.108436,2834.553343,1110.308913,7105.977043
2519.108765,3140.991542,444.123565,7698.141797
2519.109095,2911.162892,222.061783,7846.182985
2519.109424,2681.334243,-74.020594,7994.224174
2519.109753,1915.238745,-0.000000,8586.388927
2519.110082,1072.533697,-0.000000,9252.574275
2519.110411,383.047749,-370.102971,9474.636058
2519.110740,-459.657299,-1036.288319,9696.697840
2519.111069,-842.705048,-666.185348,9992.780217
2519.111398,-766.095498,-1184.329507,10881.027347
2519.111727,-1455.581446,-814.226536,10288.862594
2519.112056,-1991.848295,-1110.308913,10288.862594
2519.112385,-1915.238745,-888.247130,10066.800811
2519.112714,-1915.238745,-518.144159,9474.636058
