#time,accel_x,accel_y,accel_z
2497.375748,459.657299,-222.061783,9252.574275
2497.376077,459.657299,148.041188,9474.636058
2497.376405,459.657299,-518.144159,9030.512492
2497.376734,383.047749,-222.061783,9326.594869
2497.377063,306.438199,-148.041188,9252.574275
2497.377392,229.828649,-148.041188,9178.553681
2497.377721,383.047749,-148.041188,9104.533087
2497.378050,383.047749,-148.041188,9178.553681
2497.378379,0.000000,-74.020594,9400.615463
2497.378707,612.876398,-0.000000,8882.471304
2497.379036,229.828649,-74.020594,9474.636058
2497.379365,76.609550,-148.041188,9104.533087
2497.379694,306.438199,-74.020594,9030.512492
2497.380023,459.657299,-74.020594,8956.491898
2497.380352,229.828649,-0.000000,9104.533087
2497.380680,459.657299,-518.144159,9030.512492
2497.381009,612.876398,-0.000000,9252.574275
2497.381338,383.047749,-0.000000,9104.533087
2497.381667,229.828649,-0.000000,8808.450710
2497.381996,229.828649,-0.000000,8734.430116
2497.382325,383.047749,-0.000000,8882.471304
2497.382653,306.438199,-0.000000,8734.430116
2497.382982,612.876398,-666.185348,8808.450710
2497.383311,383.047749,-444.123565,8882.471304
2497.383640,153.219100,-74.020594,8956.491898
2497.383969,229.828649,-0.000000,8956.491898
2497.384298,229.828649,-148.041188,8956.491898
2497.384627,229.828649,-148.041188,9030.512492
2497.384955,612.876398,-148.041188,9178.553681
2497.385284,153.219100,-370.102971,8956.491898
2497.385613,766.095498,-0.000000,9178.553681
2497.385942,306.438199,-296.082377,8956.491898
2497.386271,306.438199,-148.041188,9252.574275
2497.386600,459.657299,-222.061783,9326.594869
2497.386928,306.438199,-148.041188,9252.574275
2497.387257,383.047749,-148.041188,9474.636058
2497.387586,536.266849,-222.061783,9252.574275
2497.387915,0.000000,-296.082377,9178.553681
2497.388244,0.000000,-444.123565,9030.512492
2497.388573,306.438199,-296.082377,9104.533087
2497.388901,153.219100,-148.041188,9326.594869
2497.389230,229.828649,-74.020594,9178.553681
2497.389559,229.828649,-0.000000,8956.491898
2497.389888,-153.219100,-74.020594,9252.574275
2497.390217,766.095498,-222.061783,9400.615463
2497.390546,536.266849,-148.041188,9104.533087
2497.390875,306.438199,-0.000000,9030.512492
2497.391203,459.657299,-0.000000,9104.533087
2497.391532,306.438199,-74.020594,8882.471304
2497.391861,0.000000,-222.061783,8956.491898
2497.392190,766.095498,-222.061783,8956.491898
2497.392519,76.609550,-74.020594,9104.533087
2497.392848,306.438199,-0.000000,9178.553681
2497.393176,306.438199,-0.000000,8956.491898
2497.393505,229.828649,-0.000000,8808.450710
2497.393834,306.438199,-222.061783,8956.491898
2497.394163,689.485948,-370.102971,8808.450710
2497.394492,536.266849,-0.000000,9474.636058
2497.394821,306.438199,-518.144159,8734.430116
2497.395149,383.047749,-296.082377,8882.471304
2497.395478,383.047749,-74.020594,8956.491898
2497.395807,306.438199,-0.000000,8956.491898
2497.396136,383.047749,-296.082377,9104.533087
2497.396465,-76.609550,-296.082377,9326.594869
2497.396794,766.095498,-370.102971,9030.512492
2497.397122,766.095498,-370.102971,9104.533087
2497.397451,383.047749,-148.041188,9178.553681
2497.397780,153.219100,-148.041188,9252.574275
2497.398109,383.047749,-222.061783,9104.533087
2497.398438,229.828649,-222.061783,9178.553681
2497.398767,459.657299,-222.061783,9474.636058
2497.399096,0.000000,-148.041188,9178.553681
2497.399424,689.485948,-148.041188,9474.636058
2497.399753,536.266849,-222.061783,9252.574275
2497.400082,612.876398,-148.041188,9326.594869
2497.400411,383.047749,-222.061783,9104.533087
2497.400740,459.657299,-74.020594,9104.533087
2497.401069,76.609550,-370.102971,9104.533087
2497.401397,536.266849,-148.041188,8882.471304
2497.401726,536.266849,-74.020594,9178.553681
2497.402055,459.657299,-74.020594,8956.491898
2497.402384,306.438199,-222.061783,9104.533087
2497.402713,229.828649,-148.041188,9030.512492
2497.403042,306.438199,-74.020594,8808.450710
2497.403370,229.828649,-148.041188,8882.471304
2497.403699,306.438199,-74.020594,8956.491898
2497.404028,229.828649,-222.061783,8882.471304
2497.404357,383.047749,-148.041188,9400.615463
2497.404686,1455.581446,-740.205942,9844.739029
2497.405015,1455.581446,-1258.350101,9252.574275
2497.405344,1378.971896,-370.102971,9326.594869
2497.405672,1838.629195,-518.144159,9104.533087
2497.406001,2451.505594,-0.000000,8660.409521
2497.406330,3294.210641,296.082377,8660.409521
2497.406659,4290.134789,-74.020594,8956.491898
2497.406988,4060.306139,-0.000000,8808.450710
2497.407317,3447.429741,592.164754,8808.450710
2497.407645,3064.381992,592.164754,8290.306550
2497.407974,2911.162892,-148.041188,9326.594869
2497.408303,2834.553343,-518.144159,9030.512492
2497.408632,2298.286494,-592.164754,9400.615463
2497.408961,1762.019645,-1924.535449,10362.883188
2497.409290,1991.848295,-1702.473667,9770.718434
2497.409618,2374.896044,-222.061783,9548.656652
2497.409947,2298.286494,-1406.391290,10066.800811
2497.410276,3140.991542,-888.247130,9178.553681
2497.410605,3753.867940,592.164754,9770.718434
2497.410934,5286.058936,814.226536,8068.244768
2497.411263,4519.963438,1184.329507,8364.327145
2497.411592,4749.792088,1332.370696,9622.677246
2497.411920,5132.839837,1406.391290,7105.977043
2497.412249,4136.915689,962.267725,8216.285956
2497.412578,3907.087040,148.041188,9030.512492
2497.412907,2604.724693,370.102971,8364.327145
2497.413236,1762.019645,-444.123565,9622.677246
2497.413565,995.924147,-1258.350101,9326.594869
2497.413893,1838.629195,-962.267725,9918.759623
2497.414222,-229.828649,-1332.370696,9918.759623
2497.414551,1685.410096,-518.144159,9548.656652
2497.414880,1225.752797,-592.164754,10362.883188
2497.415209,3064.381992,444.123565,8438.347739
2497.415538,3524.039291,-296.082377,8882.471304
2497.415866,4443.353888,1554.432478,8956.491898
2497.416195,3677.258390,814.226536,8290.306550
2497.416524,4749.792088,1184.329507,7772.162391
2497.416853,4443.353888,666.185348,8808.450710
2497.417182,4290.134789,-0.000000,8290.306550
2497.417511,3524.039291,-666.185348,8882.471304
2497.417840,2987.772442,-1406.391290,9622.677246
2497.418168,2987.772442,-1628.453072,10362.883188
2497.418497,2068.457845,-2368.659014,9622.677246
2497.418826,1915.238745,-1924.535449,10362.883188
2497.419155,2068.457845,-1184.329507,9622.677246
2497.419484,2528.115143,-444.123565,9548.656652
2497.419813,3064.381992,296.082377,8586.388927
2497.420141,3753.867940,1480.411884,9030.512492
2497.420470,4136.915689,2072.576638,8216.285956
2497.420799,4136.915689,2368.659014,7698.141797
2497.421128,3830.477490,2442.679609,7772.162391
2497.421457,3830.477490,2146.597232,7920.203579
2497.421786,3064.381992,962.267725,7846.182985
2497.422114,2298.286494,-148.041188,8808.450710
2497.422443,1532.190996,-1036.288319,9474.636058
2497.422772,1225.752797,-2220.617826,10288.862594
2497.423101,612.876398,-2368.659014,11177.109724
2497.423430,842.705048,-2738.761985,10732.986159
2497.423759,1149.143247,-1628.453072,10584.944971
2497.424088,1685.410096,-592.164754,9918.759623
2497.424416,2451.505594,444.123565,9326.594869
2497.424745,2911.162892,1998.556043,9030.512492
2497.425074,3524.039291,2812.782580,8290.306550
2497.425403,3064.381992,3034.844362,7179.997637
2497.425732,2298.286494,2738.761985,7254.018232
2497.426061,689.485948,1924.535449,7476.080014
2497.426389,-612.876398,296.082377,8586.388927
2497.426718,-1838.629195,-1776.494261,9622.677246
2497.427047,-1991.848295,-3330.926739,10066.800811
2497.427376,-1685.410096,-3404.947333,9326.594869
2497.427705,-2068.457845,-3404.947333,10066.800811
2497.428034,-2451.505594,-2886.803174,10214.842000
2497.428362,-1991.848295,-2442.679609,10807.006753
2497.428691,-1149.143247,-1480.411884,10955.047942
2497.429020,0.000000,-296.082377,9992.780217
2497.429349,459.657299,1036.288319,8808.450710
2497.429678,0.000000,1998.556043,9178.553681
2497.430007,0.000000,1480.411884,10214.842000
2497.430336,2451.505594,1036.288319,8882.471304
2497.430664,4136.915689,1998.556043,6365.771101
2497.430993,4826.401637,1850.514855,6143.709319
2497.431322,4366.744339,1554.432478,5921.647536
2497.431651,3830.477490,1110.308913,6883.915261
2497.431980,2757.943793,-740.205942,7624.121203
2497.432309,2298.286494,-1628.453072,8142.265362
2497.432637,459.657299,-1850.514855,9178.553681
2497.432966,-1225.752797,-2072.576638,9844.739029
2497.433295,-1991.848295,-2590.720797,10955.047942
2497.433624,-1608.800546,-1332.370696,10362.883188
2497.433953,-1149.143247,-1258.350101,9992.780217
2497.434282,-689.485948,-444.123565,10584.944971
2497.434610,-766.095498,1036.288319,9992.780217
2497.434939,-995.924147,148.041188,9918.759623
2497.435268,-1378.971896,-518.144159,9548.656652
2497.435597,-842.705048,-148.041188,9474.636058
2497.435926,-995.924147,-518.144159,9326.594869
2497.436255,-229.828649,-148.041188,9474.636058
2497.436583,-383.047749,-148.041188,9030.512492
2497.436912,383.047749,-74.020594,8364.327145
2497.437241,842.705048,-74.020594,7772.162391
2497.437570,1149.143247,-0.000000,7624.121203
2497.437899,1915.238745,222.061783,8068.244768
2497.438228,1991.848295,-0.000000,8142.265362
2497.438557,1762.019645,-0.000000,8956.491898
2497.438885,2068.457845,-296.082377,9474.636058
2497.439214,2528.115143,-0.000000,9474.636058
2497.439543,2221.676944,888.247130,8660.409521
2497.439872,1915.238745,1258.350101,8882.471304
2497.440201,1532.190996,1036.288319,9030.512492
2497.440530,919.314598,888.247130,9326.594869
2497.440858,0.000000,888.247130,9474.636058
2497.441187,0.000000,-222.061783,9326.594869
2497.441516,-1302.362347,-888.247130,9104.533087
2497.441845,-1072.533697,-2294.638420,9844.739029
2497.442174,-1225.752797,-2368.659014,9622.677246
2497.442503,-1072.533697,-2220.617826,9548.656652
2497.442831,-995.924147,-1776.494261,9696.697840
2497.443160,0.000000,-1036.288319,9252.574275
2497.443489,229.828649,-666.185348,9696.697840
2497.443818,-306.438199,-0.000000,9400.615463
2497.444147,0.000000,1110.308913,9844.739029
2497.444476,306.438199,1554.432478,9474.636058
2497.444805,1225.752797,1554.432478,8956.491898
2497.445133,2145.067394,1850.514855,7920.203579
2497.445462,2451.505594,1036.288319,8142.265362
2497.445791,2681.334243,592.164754,7624.121203
2497.446120,1685.410096,-222.061783,7698.141797
2497.446449,842.705048,-888.247130,7994.224174
2497.446778,842.705048,-1406.391290,8512.368333
2497.447106,229.828649,-1924.535449,9104.533087
2497.447435,-459.657299,-1850.514855,9252.574275
2497.447764,-459.657299,-1480.411884,9474.636058
2497.448093,-689.485948,-592.164754,9474.636058
2497.448422,0.000000,-0.000000,9474.636058
2497.448751,-536.266849,222.061783,9474.636058
2497.449079,-689.485948,296.082377,9474.636058
2497.449408,-612.876398,592.164754,9696.697840
2497.449737,-612.876398,-0.000000,9474.636058
2497.450066,-612.876398,-0.000000,8956.491898
2497.450395,-1072.533697,-666.185348,9400.615463
2497.450724,-459.657299,-222.061783,9474.636058
2497.451053,-842.705048,-74.020594,9326.594869
2497.451381,-766.095498,-222.061783,8660.409521
2497.451710,-153.219100,-148.041188,8290.306550
2497.452039,-229.828649,-0.000000,8438.347739
2497.452368,229.828649,-0.000000,8586.388927
2497.452697,766.095498,-592.164754,8882.471304
2497.453026,76.609550,-814.226536,9400.615463
2497.453355,229.828649,-1184.329507,9696.697840
2497.453684,612.876398,-1258.350101,10288.862594
2497.454013,1685.410096,-444.123565,9622.677246
2497.454343,2451.505594,740.205942,8660.409521
2497.454672,2911.162892,1332.370696,8586.388927
2497.455001,2604.724693,2368.659014,8216.285956
2497.455330,2911.162892,2294.638420,8364.327145
2497.455659,1685.410096,1924.535449,7698.141797
2497.455988,842.705048,888.247130,8290.306550
2497.456317,-383.047749,-370.102971,9400.615463
2497.456646,-995.924147,-1628.453072,9696.697840
2497.456976,-1302.362347,-2516.700203,9992.780217
2497.457305,-1608.800546,-2664.741391,9696.697840
2497.457634,-1302.362347,-2886.803174,10288.862594
2497.457963,-919.314598,-1480.411884,9252.574275
2497.458292,-1378.971896,-370.102971,10436.903782
2497.458621,-612.876398,222.061783,9992.780217
2497.458950,-306.438199,1554.432478,8882.471304
2497.459279,-229.828649,1776.494261,9178.553681
2497.459609,689.485948,2294.638420,8512.368333
2497.459938,-306.438199,296.082377,8882.471304
2497.460267,229.828649,370.102971,9548.656652
2497.460596,612.876398,-1110.308913,8956.491898
2497.460925,842.705048,-1258.350101,9104.533087
2497.461254,2068.457845,-592.164754,7179.997637
2497.461583,2451.505594,-148.041188,8142.265362
2497.461912,1608.800546,-296.082377,7402.059420
2497.462241,2834.553343,888.247130,7920.203579
2497.462571,1991.848295,-0.000000,8512.368333
2497.462900,1225.752797,592.164754,7994.224174
2497.463229,306.438199,-0.000000,8956.491898
2497.463558,-689.485948,-0.000000,9104.533087
2497.463887,-1149.143247,-888.247130,9992.780217
2497.464216,-766.095498,-888.247130,10214.842000
2497.464545,-1225.752797,-518.144159,9326.594869
2497.464874,-1149.143247,-666.185348,9696.697840
2497.465204,-1149.143247,-518.144159,9474.636058
2497.465533,-842.705048,-444.123565,9326.594869
2497.465862,-1149.143247,-1036.288319,9770.718434
2497.466191,-689.485948,-296.082377,9104.533087
2497.466520,-306.438199,-518.144159,8882.471304
2497.466849,0.000000,-74.020594,9326.594869
2497.467178,306.438199,-222.061783,8364.327145
2497.467507,306.438199,-370.102971,9104.533087
2497.467836,383.047749,-1258.350101,9474.636058
2497.468166,842.705048,-814.226536,9918.759623
2497.468495,306.438199,-1184.329507,9474.636058
2497.468824,1762.019645,-888.247130,9770.718434
2497.469153,2451.505594,1110.308913,7254.018232
2497.469482,3830.477490,1184.329507,8438.347739
2497.469811,2911.162892,2146.597232,6587.832884
2497.470140,3830.477490,2960.823768,7254.018232
2497.470469,2068.457845,2146.597232,7402.059420
2497.470799,1302.362347,1924.535449,7402.059420
2497.471128,-153.219100,-592.164754,9252.574275
2497.471457,-1378.971896,-1258.350101,9178.553681
2497.471786,-1455.581446,-2368.659014,9918.759623
2497.472115,-1608.800546,-1998.556043,9844.739029
2497.472444,-1608.800546,-2072.576638,9178.553681
2497.472773,-1991.848295,-1776.494261,11103.089130
2497.473102,-1762.019645,-1110.308913,10510.924376
2497.473432,-1072.533697,-222.061783,9844.739029
2497.473761,-153.219100,-0.000000,9474.636058
2497.474090,0.000000,1184.329507,9104.533087
2497.474419,536.266849,1554.432478,9030.512492
2497.474748,0.000000,1406.391290,8142.265362
2497.475077,76.609550,-0.000000,10066.800811
2497.475406,689.485948,-1628.453072,9178.553681
2497.475735,612.876398,-2294.638420,9992.780217
2497.476064,1762.019645,-1998.556043,7772.162391
2497.476394,3753.867940,-666.185348,7994.224174
2497.476723,2451.505594,-296.082377,7550.100608
2497.477052,2757.943793,2072.576638,7328.038826
2497.477381,2757.943793,666.185348,8586.388927
2497.477710,1685.410096,1110.308913,7624.121203
2497.478039,1455.581446,666.185348,8438.347739
2497.478368,-766.095498,1406.391290,9474.636058
2497.478697,-1302.362347,-592.164754,10510.924376
2497.479027,-1302.362347,-1702.473667,11547.212695
2497.479356,-919.314598,-666.185348,9696.697840
2497.479685,-1072.533697,-740.205942,10140.821405
2497.480014,-1455.581446,-1184.329507,9474.636058
2497.480343,-1072.533697,-518.144159,9696.697840
2497.480672,-1302.362347,-814.226536,10362.883188
2497.481001,-306.438199,-370.102971,9400.615463
2497.481330,-766.095498,-0.000000,9696.697840
2497.481659,-229.828649,-148.041188,9104.533087
2497.481989,76.609550,-0.000000,8660.409521
2497.482318,0.000000,-222.061783,8660.409521
2497.482647,536.266849,-1850.514855,8586.388927
2497.482976,306.438199,-1554.432478,9326.594869
2497.483305,306.438199,-1110.308913,9400.615463
2497.483634,2298.286494,-148.041188,7846.182985
2497.483963,3140.991542,296.082377,7624.121203
2497.484292,3217.601092,1554.432478,7328.038826
2497.484622,2911.162892,2590.720797,7328.038826
2497.484951,2604.724693,1258.350101,8364.327145
2497.485280,2374.896044,1332.370696,7476.080014
2497.485609,1685.410096,962.267725,7698.141797
2497.485938,-459.657299,-666.185348,9400.615463
2497.486267,-1532.190996,-2146.597232,10140.821405
2497.486596,-1762.019645,-2368.659014,10658.965565
2497.486925,-1532.190996,-1702.473667,9474.636058
2497.487255,-1762.019645,-2072.576638,10362.883188
2497.487584,-2528.115143,-1480.411884,10140.821405
2497.487913,-1378.971896,-888.247130,10584.944971
2497.488242,-1378.971896,-296.082377,10510.924376
2497.488571,0.000000,296.082377,9104.533087
2497.488900,76.609550,1332.370696,8882.471304
2497.489229,229.828649,1702.473667,8512.368333
2497.489558,0.000000,518.144159,9696.697840
2497.489887,536.266849,-814.226536,9844.739029
2497.490217,2374.896044,-1110.308913,8438.347739
2497.490546,3600.648841,-444.123565,7105.977043
2497.490875,3370.820191,-74.020594,7105.977043
2497.491204,2834.553343,296.082377,7920.203579
2497.491533,2604.724693,666.185348,8512.368333
2497.491862,1991.848295,1184.329507,8068.244768
2497.492191,1762.019645,-0.000000,8586.388927
2497.492520,612.876398,-74.020594,9178.553681
2497.492850,-842.705048,-0.000000,9400.615463
2497.493179,-1532.190996,-740.205942,10658.965565
2497.493508,-1378.971896,-1110.308913,9844.739029
2497.493837,-689.485948,-370.102971,9918.759623
2497.494166,-842.705048,-296.082377,9992.780217
2497.494495,-1455.581446,-148.041188,9326.594869
2497.494824,-1608.800546,-1110.308913,10066.800811
2497.495153,-1149.143247,-1258.350101,9474.636058
2497.495483,-383.047749,-74.020594,9030.512492
2497.495812,-383.047749,-370.102971,9104.533087
2497.496141,-536.266849,-0.000000,8734.430116
2497.496470,-383.047749,-0.000000,9326.594869
2497.496799,-153.219100,-148.041188,8882.471304
2497.497128,459.657299,-740.205942,8956.491898
2497.497457,1149.143247,-1184.329507,9326.594869
2497.497786,2221.676944,-0.000000,7994.224174
2497.498115,2145.067394,-222.061783,8586.388927
2497.498445,2528.115143,-0.000000,8438.347739
2497.498774,2834.553343,296.082377,8364.327145
2497.499103,2374.896044,592.164754,8364.327145
2497.499432,1838.629195,1110.308913,8364.327145
2497.499761,1915.238745,888.247130,8586.388927
2497.500090,229.828649,444.123565,8660.409521
2497.500419,-842.705048,-222.061783,9548.656652
2497.500748,-1532.190996,-1110.308913,10362.883188
2497.501078,-1149.143247,-1554.432478,9548.656652
2497.501407,-1608.800546,-1480.411884,9326.594869
2497.501736,-1915.238745,-1998.556043,10214.842000
2497.502065,-1915.238745,-1702.473667,9474.636058
2497.502394,-1225.752797,-1184.329507,10066.800811
2497.502723,-612.876398,-518.144159,9622.677246
2497.503052,76.609550,296.082377,9252.574275
2497.503381,229.828649,444.123565,8956.491898
2497.503710,0.000000,1628.453072,9252.574275
2497.504040,306.438199,888.247130,9252.574275
2497.504369,919.314598,592.164754,9178.553681
2497.504698,2681.334243,814.226536,7624.121203
2497.505027,3524.039291,666.185348,7550.100608
2497.505356,3370.820191,592.164754,7105.977043
2497.505685,2987.772442,444.123565,7476.080014
2497.506014,2374.896044,-74.020594,8438.347739
2497.506343,1302.362347,-0.000000,8586.388927
2497.506673,842.705048,-592.164754,8808.450710
2497.507002,-229.828649,-888.247130,9474.636058
2497.507331,-1072.533697,-962.267725,9918.759623
2497.507660,-1149.143247,-1036.288319,10288.862594
2497.507989,-612.876398,-222.061783,9918.759623
2497.508318,-612.876398,-222.061783,10066.800811
2497.508647,0.000000,-222.061783,9770.718434
2497.508976,-842.705048,222.061783,9696.697840
2497.509306,-919.314598,-444.123565,9696.697840
2497.509635,-536.266849,-814.226536,9474.636058
2497.509964,-306.438199,-518.144159,9178.553681
2497.510293,0.000000,-666.185348,8956.491898
2497.510622,536.266849,-222.061783,8956.491898
2497.510951,153.219100,-0.000000,8438.347739
2497.511280,536.266849,518.144159,8438.347739
2497.511609,995.924147,518.144159,8364.327145
2497.511938,1378.971896,-0.000000,8660.409521
2497.512268,1378.971896,-0.000000,8882.471304
2497.512597,919.314598,-296.082377,9548.656652
2497.512926,536.266849,-1036.288319,10066.800811
2497.513255,1378.971896,-740.205942,9400.615463
2497.513584,1685.410096,-444.123565,8956.491898
2497.513913,1455.581446,370.102971,9178.553681
2497.514242,1532.190996,888.247130,8882.471304
2497.514571,1149.143247,1110.308913,8438.347739
2497.514901,766.095498,666.185348,8438.347739
2497.515230,229.828649,222.061783,8660.409521
2497.515559,-306.438199,-148.041188,8364.327145
2497.515888,-1225.752797,-1036.288319,9474.636058
2497.516217,-1608.800546,-1850.514855,9696.697840
2497.516546,-1685.410096,-1850.514855,9474.636058
2497.516875,-1302.362347,-1998.556043,9548.656652
2497.517204,-766.095498,-1332.370696,9252.574275
2497.517533,-919.314598,-666.185348,9992.780217
2497.517863,-689.485948,296.082377,9844.739029
2497.518192,-459.657299,1036.288319,9178.553681
2497.518521,-229.828649,1332.370696,8956.491898
2497.518850,306.438199,1258.350101,9252.574275
2497.519179,1149.143247,962.267725,8290.306550
2497.519508,2374.896044,518.144159,7920.203579
2497.519837,2528.115143,-222.061783,7550.100608
2497.520166,2451.505594,-0.000000,7846.182985
2497.520496,1915.238745,-666.185348,7698.141797
2497.520825,1455.581446,-592.164754,8438.347739
2497.521154,919.314598,-666.185348,8956.491898
2497.521483,383.047749,-1332.370696,9252.574275
2497.521812,-383.047749,-1110.308913,9548.656652
2497.522141,-459.657299,-1110.308913,10584.944971
2497.522470,-306.438199,-814.226536,9770.718434
2497.522799,-842.705048,-148.041188,9992.780217
2497.523129,-766.095498,-0.000000,9548.656652
2497.523458,-766.095498,370.102971,9548.656652
2497.523787,-536.266849,-0.000000,9400.615463
2497.524116,0.000000,-518.144159,9400.615463
2497.524445,0.000000,-518.144159,9252.574275
2497.524774,-612.876398,-666.185348,9400.615463
2497.525103,-229.828649,-518.144159,8512.368333
2497.525432,0.000000,370.102971,9104.533087
2497.525761,-229.828649,296.082377,8512.368333
2497.526091,383.047749,518.144159,8290.306550
2497.526420,1149.143247,148.041188,8882.471304
2497.526749,1532.190996,-0.000000,9178.553681
2497.527078,1455.581446,-0.000000,8882.471304
2497.527407,2068.457845,-222.061783,8882.471304
2497.527736,1532.190996,-444.123565,8956.491898
2497.528065,1762.019645,-0.000000,9178.553681
2497.528394,1838.629195,148.041188,8512.368333
2497.528724,1762.019645,222.061783,8956.491898
2497.529053,1302.362347,518.144159,8808.450710
2497.529382,842.705048,222.061783,8734.430116
2497.529711,229.828649,740.205942,9104.533087
2497.530040,-229.828649,-444.123565,8956.491898
2497.530369,-612.876398,-814.226536,9474.636058
2497.530698,-1225.752797,-1258.350101,9770.718434
2497.531027,-1302.362347,-1702.473667,9548.656652
2497.531356,-1608.800546,-1850.514855,9622.677246
2497.531686,-1225.752797,-1776.494261,9918.759623
2497.532015,-1072.533697,-1036.288319,9696.697840
2497.532344,-536.266849,-740.205942,9992.780217
2497.532673,-459.657299,-444.123565,9696.697840
2497.533002,-383.047749,666.185348,8808.450710
2497.533331,-536.266849,1036.288319,9252.574275
2497.533660,229.828649,1036.288319,8956.491898
2497.533989,842.705048,592.164754,8586.388927
2497.534319,2221.676944,444.123565,7994.224174
2497.534648,2068.457845,-0.000000,8068.244768
2497.534977,1532.190996,-148.041188,8364.327145
2497.535306,1608.800546,-296.082377,8290.306550
2497.535635,1149.143247,-592.164754,8512.368333
2497.535964,1149.143247,-740.205942,8882.471304
2497.536293,689.485948,-888.247130,9178.553681
2497.536622,383.047749,-592.164754,9252.574275
2497.536952,229.828649,-518.144159,9252.574275
2497.537281,689.485948,-0.000000,9252.574275
2497.537610,-153.219100,-74.020594,9178.553681
2497.537939,0.000000,222.061783,9104.533087
2497.538268,0.000000,296.082377,8956.491898
2497.538597,-536.266849,-74.020594,9030.512492
2497.538926,-306.438199,-370.102971,9252.574275
2497.539255,-153.219100,-740.205942,9548.656652
2497.539584,-612.876398,-1258.350101,8956.491898
2497.539914,-459.657299,-888.247130,9474.636058
2497.540243,-229.828649,-518.144159,8956.491898
2497.540572,0.000000,-74.020594,8734.430116
2497.540901,612.876398,222.061783,8882.471304
2497.541230,689.485948,148.041188,8586.388927
2497.541559,2068.457845,-0.000000,9104.533087
2497.541888,2451.505594,-0.000000,9030.512492
2497.542217,2374.896044,-0.000000,8808.450710
2497.542547,2451.505594,-0.000000,9030.512492
2497.542876,2374.896044,-0.000000,9178.553681
2497.543205,2145.067394,296.082377,9030.512492
2497.543534,1762.019645,370.102971,9178.553681
2497.543863,1762.019645,666.185348,9400.615463
2497.544192,842.705048,-0.000000,8956.491898
2497.544521,0.000000,592.164754,9548.656652
2497.544850,-383.047749,222.061783,9548.656652
2497.545179,-919.314598,-666.185348,9474.636058
2497.545509,-1302.362347,-740.205942,9474.636058
2497.545838,-995.924147,-1184.329507,9844.739029
2497.546167,-383.047749,-1702.473667,9474.636058
2497.546496,-689.485948,-962.267725,10066.800811
2497.546825,-306.438199,-1480.411884,9548.656652
2497.547154,-459.657299,-74.020594,9400.615463
2497.547483,-306.438199,222.061783,9030.512492
2497.547812,153.219100,1184.329507,9400.615463
2497.548142,306.438199,888.247130,9474.636058
2497.548471,1302.362347,1554.432478,8512.368333
2497.548800,1838.629195,888.247130,8216.285956
2497.549129,1685.410096,1036.288319,7772.162391
2497.549458,2145.067394,296.082377,7772.162391
2497.549787,1991.848295,-0.000000,7994.224174
2497.550116,1532.190996,-370.102971,8142.265362
2497.550445,1149.143247,-814.226536,8956.491898
2497.550775,689.485948,-1110.308913,9030.512492
2497.551104,0.000000,-962.267725,9474.636058
2497.551433,0.000000,-518.144159,9696.697840
2497.551762,-229.828649,-0.000000,9474.636058
2497.552091,-306.438199,-0.000000,9474.636058
2497.552420,-383.047749,370.102971,9474.636058
2497.552749,-536.266849,-0.000000,9474.636058
2497.553078,-919.314598,-592.164754,9326.594869
2497.553407,-383.047749,-592.164754,9178.553681
2497.553737,-842.705048,-888.247130,9400.615463
2497.554066,-919.314598,-1184.329507,9400.615463
2497.554395,-612.876398,-1332.370696,9326.594869
2497.554724,-612.876398,-518.144159,9104.533087
2497.555053,-229.828649,-592.164754,9178.553681
2497.555382,153.219100,-0.000000,8586.388927
2497.555711,459.657299,888.247130,8882.471304
2497.556039,612.876398,296.082377,8586.388927
2497.556368,1149.143247,296.082377,8512.368333
2497.556697,1608.800546,222.061783,8734.430116
2497.557026,1685.410096,148.041188,8808.450710
2497.557355,1762.019645,-222.061783,9104.533087
2497.557684,1915.238745,-74.020594,8586.388927
2497.558013,2298.286494,-0.000000,8364.327145
2497.558342,1302.362347,370.102971,8734.430116
2497.558671,919.314598,222.061783,8808.450710
2497.559000,536.266849,296.082377,8808.450710
2497.559329,-229.828649,148.041188,8956.491898
2497.559658,-536.266849,-444.123565,9178.553681
2497.559987,-2145.067394,-296.082377,9696.697840
2497.560316,-1072.533697,-740.205942,9104.533087
2497.560644,-1149.143247,-1332.370696,9252.574275
2497.560973,-1149.143247,-1554.432478,9548.656652
2497.561302,-1149.143247,-1480.411884,9844.739029
2497.561631,-842.705048,-1184.329507,9548.656652
2497.561960,-689.485948,-370.102971,9548.656652
2497.562289,-995.924147,222.061783,9548.656652
2497.562618,153.219100,740.205942,8660.409521
2497.562947,383.047749,1406.391290,8956.491898
2497.563276,842.705048,1036.288319,9178.553681
2497.563605,1532.190996,666.185348,8290.306550
2497.563934,2451.505594,1036.288319,8216.285956
2497.564263,2298.286494,-0.000000,7994.224174
2497.564592,2374.896044,296.082377,7846.182985
2497.564921,2298.286494,-1258.350101,8290.306550
2497.565249,2068.457845,-444.123565,8734.430116
2497.565578,1378.971896,-814.226536,8882.471304
2497.565907,766.095498,-740.205942,9326.594869
2497.566236,0.000000,-370.102971,9474.636058
2497.566565,0.000000,-74.020594,9844.739029
2497.566894,-766.095498,-222.061783,9474.636058
2497.567223,-536.266849,296.082377,9622.677246
2497.567552,-1149.143247,-0.000000,9918.759623
2497.567881,-1225.752797,370.102971,9326.594869
2497.568210,-689.485948,-296.082377,9400.615463
2497.568539,-842.705048,-518.144159,9474.636058
2497.568868,-612.876398,-1036.288319,9474.636058
2497.569197,-842.705048,-962.267725,9474.636058
2497.569526,-919.314598,-518.144159,9400.615463
2497.569854,-919.314598,-296.082377,9104.533087
2497.570183,-459.657299,296.082377,8808.450710
2497.570512,0.000000,666.185348,8586.388927
2497.570841,-383.047749,370.102971,8734.430116
2497.571170,612.876398,148.041188,9400.615463
2497.571499,919.314598,-0.000000,9030.512492
2497.571828,1378.971896,-814.226536,8734.430116
2497.572157,2451.505594,-0.000000,8512.368333
2497.572486,2451.505594,370.102971,8068.244768
2497.572815,2221.676944,962.267725,8068.244768
2497.573144,1685.410096,666.185348,8438.347739
2497.573473,1455.581446,1036.288319,8660.409521
2497.573802,612.876398,888.247130,8734.430116
2497.574131,-306.438199,-0.000000,9104.533087
2497.574459,-1532.190996,-1258.350101,9178.553681
2497.574788,-1915.238745,-1480.411884,10140.821405
2497.575117,-1455.581446,-1776.494261,9696.697840
2497.575446,-1532.190996,-1702.473667,9252.574275
2497.575775,-1608.800546,-2220.617826,9992.780217
2497.576104,-1149.143247,-1702.473667,9992.780217
2497.576433,-842.705048,-1332.370696,9696.697840
2497.576762,-766.095498,-518.144159,9844.739029
2497.577091,-306.438199,148.041188,9326.594869
2497.577420,-153.219100,592.164754,9474.636058
2497.577749,306.438199,592.164754,9918.759623
2497.578078,1378.971896,1184.329507,8290.306550
2497.578407,2834.553343,1332.370696,7772.162391
2497.578736,2987.772442,1924.535449,7105.977043
2497.579064,3447.429741,888.247130,7402.059420
2497.579393,2451.505594,518.144159,7994.224174
2497.579722,1915.238745,-296.082377,7846.182985
2497.580051,1532.190996,-962.267725,8808.450710
2497.580380,842.705048,-1184.329507,9178.553681
2497.580709,0.000000,-1628.453072,9326.594869
2497.581038,-536.266849,-1258.350101,10288.862594
2497.581367,-459.657299,-592.164754,9548.656652
2497.581696,0.000000,-148.041188,9474.636058
2497.582025,-306.438199,518.144159,9400.615463
2497.582354,-306.438199,666.185348,9326.594869
2497.582683,0.000000,-0.000000,9474.636058
2497.583012,383.047749,-0.000000,9400.615463
2497.583341,0.000000,-296.082377,8660.409521
2497.583669,-383.047749,-666.185348,9326.594869
2497.583998,0.000000,-518.144159,9030.512492
2497.584327,153.219100,-370.102971,9030.512492
2497.584656,306.438199,-74.020594,8660.409521
2497.584985,383.047749,-0.000000,8882.471304
2497.585314,1072.533697,296.082377,9400.615463
2497.585643,842.705048,444.123565,9326.594869
2497.585972,842.705048,222.061783,9252.574275
2497.586301,1302.362347,-222.061783,9326.594869
2497.586630,1608.800546,-222.061783,9400.615463
2497.586959,1838.629195,-444.123565,9104.533087
2497.587288,1915.238745,-444.123565,8956.491898
2497.587617,2068.457845,-0.000000,8586.388927
2497.587946,1532.190996,-0.000000,8882.471304
2497.588274,919.314598,370.102971,9178.553681
2497.588603,76.609550,-0.000000,8882.471304
2497.588932,-459.657299,-74.020594,9104.533087
2497.589261,-1149.143247,-518.144159,9326.594869
2497.589590,-1072.533697,-740.205942,9918.759623
2497.589919,-1225.752797,-1480.411884,9474.636058
2497.590248,-1378.971896,-1702.473667,9918.759623
2497.590577,-1608.800546,-1184.329507,9770.718434
2497.590906,-1455.581446,-1258.350101,9696.697840
2497.591235,-995.924147,-740.205942,9474.636058
2497.591564,-766.095498,-148.041188,9326.594869
2497.591893,-689.485948,444.123565,9474.636058
2497.592222,0.000000,962.267725,8882.471304
2497.592551,766.095498,1554.432478,8068.244768
2497.592879,1378.971896,1406.391290,7920.203579
2497.593208,1685.410096,1184.329507,7402.059420
2497.593537,1455.581446,666.185348,7476.080014
2497.593866,1455.581446,-0.000000,7772.162391
2497.594195,995.924147,-666.185348,8290.306550
2497.594524,766.095498,-1110.308913,8660.409521
2497.594853,1072.533697,-1776.494261,9326.594869
2497.595182,76.609550,-1258.350101,9326.594869
2497.595511,-153.219100,-814.226536,9622.677246
2497.595840,153.219100,-518.144159,9696.697840
2497.596169,229.828649,-0.000000,9474.636058
2497.596498,306.438199,444.123565,9400.615463
2497.596827,536.266849,592.164754,9030.512492
2497.597156,536.266849,444.123565,8882.471304
2497.597484,383.047749,296.082377,8512.368333
2497.597813,153.219100,-0.000000,8882.471304
2497.598142,-153.219100,-814.226536,9400.615463
2497.598471,-689.485948,-1480.411884,9548.656652
2497.598800,-306.438199,-1110.308913,9474.636058
2497.599129,-919.314598,-1184.329507,9622.677246
2497.599458,-536.266849,-592.164754,9696.697840
2497.599787,0.000000,-0.000000,9400.615463
2497.600116,536.266849,814.226536,9326.594869
2497.600445,1225.752797,1036.288319,8956.491898
2497.600774,2068.457845,888.247130,8882.471304
2497.601103,2451.505594,888.247130,9326.594869
2497.601432,2298.286494,444.123565,8660.409521
2497.601761,2604.724693,-0.000000,8882.471304
2497.602089,2145.067394,-296.082377,8956.491898
2497.602418,1685.410096,-74.020594,8882.471304
2497.602747,842.705048,-0.000000,8882.471304
2497.603076,383.047749,-0.000000,9252.574275
2497.603405,0.000000,-296.082377,9178.553681
2497.603734,-842.705048,-222.061783,9474.636058
2497.604063,-1149.143247,-296.082377,9252.574275
2497.604392,-1991.848295,-814.226536,9474.636058
2497.604721,-1302.362347,-962.267725,9178.553681
2497.605050,-1149.143247,-962.267725,9326.594869
2497.605379,-1072.533697,-1406.391290,9474.636058
2497.605708,-689.485948,-1480.411884,9622.677246
2497.606037,-689.485948,-1110.308913,9400.615463
2497.606366,-306.438199,-740.205942,9252.574275
2497.606694,76.609550,-296.082377,9104.533087
2497.607023,459.657299,740.205942,8586.388927
2497.607352,536.266849,1332.370696,8142.265362
2497.607681,1072.533697,1480.411884,8290.306550
2497.608010,1072.533697,888.247130,7846.182985
2497.608339,1455.581446,-0.000000,7920.203579
2497.608668,1455.581446,-444.123565,8882.471304
2497.608997,1532.190996,-1480.411884,9030.512492
2497.609326,612.876398,-1480.411884,8882.471304
2497.609655,459.657299,-1480.411884,9400.615463
2497.609984,306.438199,-1184.329507,9400.615463
2497.610313,612.876398,-740.205942,8882.471304
2497.610642,612.876398,-296.082377,9326.594869
2497.610971,459.657299,-0.000000,9400.615463
2497.611299,459.657299,814.226536,9178.553681
2497.611628,306.438199,962.267725,8808.450710
2497.611957,0.000000,444.123565,9104.533087
2497.612286,-229.828649,-0.000000,9104.533087
2497.612615,-766.095498,-370.102971,9252.574275
2497.612944,-766.095498,-1332.370696,9400.615463
2497.613273,-919.314598,-1258.350101,9622.677246
2497.613602,-919.314598,-1036.288319,9696.697840
2497.613931,-842.705048,-444.123565,9400.615463
2497.614260,-383.047749,-0.000000,9252.574275
2497.614589,153.219100,592.164754,9104.533087
2497.614918,689.485948,1332.370696,9178.553681
2497.615247,1915.238745,1036.288319,8808.450710
2497.615576,2604.724693,1110.308913,8660.409521
2497.615904,2757.943793,666.185348,8142.265362
2497.616233,2757.943793,592.164754,8216.285956
2497.616562,2681.334243,222.061783,8734.430116
2497.616891,2068.457845,-222.061783,8956.491898
2497.617220,1302.362347,-222.061783,8956.491898
2497.617549,1608.800546,-518.144159,9326.594869
2497.617878,612.876398,-518.144159,9474.636058
2497.618207,0.000000,-518.144159,9474.636058
2497.618536,-536.266849,-370.102971,9474.636058
2497.618865,-842.705048,-296.082377,9178.553681
2497.619194,-919.314598,-222.061783,9474.636058
2497.619523,-689.485948,-518.144159,9548.656652
2497.619852,-306.438199,-1258.350101,9770.718434
2497.620181,-383.047749,-1628.453072,9844.739029
2497.620509,306.438199,-1480.411884,9252.574275
2497.620838,0.000000,-888.247130,9252.574275
2497.621167,76.609550,-74.020594,9178.553681
2497.621496,536.266849,740.205942,9030.512492
2497.621825,1072.533697,592.164754,8586.388927
2497.622154,842.705048,1036.288319,8438.347739
2497.622483,306.438199,1110.308913,8068.244768
2497.622812,842.705048,592.164754,8734.430116
2497.623141,842.705048,-0.000000,8660.409521
2497.623470,766.095498,-444.123565,8882.471304
2497.623799,153.219100,-1036.288319,8882.471304
2497.624128,229.828649,-1406.391290,9104.533087
2497.624457,306.438199,-1332.370696,9252.574275
2497.624786,383.047749,-740.205942,9178.553681
2497.625114,766.095498,-666.185348,8364.327145
2497.625443,842.705048,148.041188,8808.450710
2497.625772,842.705048,666.185348,8660.409521
2497.626101,919.314598,888.247130,8512.368333
2497.626430,383.047749,888.247130,8216.285956
2497.626759,0.000000,296.082377,9252.574275
2497.627088,-229.828649,-370.102971,8956.491898
2497.627417,-536.266849,-1258.350101,9326.594869
2497.627746,-1149.143247,-1702.473667,9400.615463
2497.628075,-1455.581446,-1776.494261,9474.636058
2497.628404,-1302.362347,-1184.329507,9326.594869
2497.628733,-919.314598,-1258.350101,9326.594869
2497.629062,-842.705048,-0.000000,9622.677246
2497.629390,-153.219100,1036.288319,8956.491898
2497.629719,0.000000,518.144159,9548.656652
2497.630048,536.266849,148.041188,9030.512492
2497.630377,1455.581446,-0.000000,8660.409521
2497.630706,2068.457845,-0.000000,8660.409521
2497.631035,2145.067394,-0.000000,8364.327145
2497.631364,2298.286494,-0.000000,8364.327145
2497.631693,3294.210641,148.041188,8734.430116
2497.632022,2145.067394,-592.164754,8290.306550
2497.632351,1532.190996,-222.061783,8290.306550
2497.632680,612.876398,-74.020594,8734.430116
2497.633009,0.000000,-0.000000,9104.533087
2497.633338,-536.266849,-0.000000,9326.594869
2497.633667,-842.705048,-444.123565,9696.697840
2497.633995,-995.924147,-814.226536,9918.759623
2497.634324,-1149.143247,-814.226536,9474.636058
2497.634653,-1072.533697,-1036.288319,9622.677246
2497.634982,-919.314598,-1554.432478,9992.780217
2497.635311,-919.314598,-1258.350101,9918.759623
2497.635640,-842.705048,-888.247130,9474.636058
2497.635969,-229.828649,-222.061783,9770.718434
2497.636298,-1072.533697,666.185348,9400.615463
2497.636627,766.095498,1406.391290,8882.471304
2497.636956,1149.143247,1406.391290,8290.306550
2497.637285,1838.629195,1628.453072,7698.141797
2497.637614,2221.676944,1554.432478,7402.059420
2497.637943,2298.286494,1258.350101,7698.141797
2497.638272,1455.581446,1110.308913,8290.306550
2497.638600,1762.019645,-222.061783,8512.368333
2497.638929,1608.800546,-666.185348,8586.388927
2497.639258,766.095498,-1110.308913,9326.594869
2497.639587,306.438199,-1184.329507,9474.636058
2497.639916,383.047749,-814.226536,9474.636058
2497.640245,229.828649,-814.226536,9696.697840
2497.640574,612.876398,-0.000000,9474.636058
2497.640903,383.047749,-0.000000,9622.677246
2497.641232,536.266849,444.123565,9030.512492
2497.641561,0.000000,-0.000000,9474.636058
2497.641890,-153.219100,-0.000000,9400.615463
2497.642219,-689.485948,-370.102971,9252.574275
2497.642548,-919.314598,-814.226536,9474.636058
2497.642877,-1149.143247,-1628.453072,9696.697840
2497.643205,536.266849,-962.267725,9474.636058
2497.643534,-459.657299,-666.185348,9474.636058
2497.643863,-536.266849,-148.041188,9474.636058
2497.644192,-306.438199,518.144159,9030.512492
2497.644521,306.438199,1332.370696,8438.347739
2497.644850,536.266849,592.164754,8808.450710
2497.645179,1455.581446,-0.000000,9326.594869
2497.645508,1455.581446,518.144159,7624.121203
2497.645837,1455.581446,-370.102971,8882.471304
2497.646166,1302.362347,-296.082377,9178.553681
2497.646495,1532.190996,-0.000000,9326.594869
2497.646824,1072.533697,-518.144159,8882.471304
2497.647153,1225.752797,370.102971,8956.491898
2497.647482,689.485948,-518.144159,9326.594869
2497.647810,459.657299,1184.329507,8660.409521
2497.648139,229.828649,-296.082377,9474.636058
2497.648468,-995.924147,-370.102971,8216.285956
2497.648797,-919.314598,-444.123565,8882.471304
2497.649126,-995.924147,-740.205942,9400.615463
2497.649455,-919.314598,-1184.329507,8882.471304
2497.649784,-1072.533697,-1258.350101,9696.697840
2497.650113,-689.485948,-1628.453072,9622.677246
2497.650442,-459.657299,-1110.308913,9178.553681
2497.650771,-383.047749,-666.185348,9400.615463
2497.651100,-306.438199,-74.020594,9178.553681
2497.651429,0.000000,296.082377,9326.594869
2497.651758,612.876398,518.144159,8512.368333
2497.652087,1149.143247,962.267725,8290.306550
2497.652415,1532.190996,814.226536,8216.285956
2497.652744,2068.457845,592.164754,8290.306550
2497.653073,1838.629195,222.061783,8364.327145
2497.653402,1838.629195,-222.061783,8290.306550
2497.653731,1915.238745,-888.247130,8660.409521
2497.654060,1302.362347,-888.247130,8808.450710
2497.654389,1455.581446,-1480.411884,9104.533087
2497.654718,919.314598,-740.205942,9548.656652
2497.655047,536.266849,-444.123565,9696.697840
2497.655376,306.438199,-74.020594,9696.697840
2497.655705,306.438199,444.123565,9474.636058
2497.656034,76.609550,518.144159,9326.594869
2497.656363,-383.047749,222.061783,9400.615463
2497.656692,-153.219100,-74.020594,9400.615463
2497.657020,0.000000,-222.061783,9474.636058
2497.657349,-766.095498,-1110.308913,9252.574275
2497.657678,-1302.362347,-888.247130,10066.800811
2497.658007,-689.485948,-1036.288319,9400.615463
2497.658336,-995.924147,-296.082377,9474.636058
2497.658665,-459.657299,-0.000000,9474.636058
2497.658994,76.609550,666.185348,8734.430116
2497.659323,919.314598,1110.308913,9252.574275
2497.659652,1455.581446,814.226536,8364.327145
2497.659981,1838.629195,592.164754,7994.224174
2497.660310,2221.676944,444.123565,8512.368333
2497.660639,2451.505594,444.123565,8512.368333
2497.660968,2298.286494,370.102971,8660.409521
2497.661297,2068.457845,-0.000000,9104.533087
2497.661625,1532.190996,-0.000000,9178.553681
2497.661954,995.924147,-222.061783,9178.553681
2497.662283,766.095498,-0.000000,9252.574275
2497.662612,-229.828649,-0.000000,9104.533087
2497.662941,-995.924147,-518.144159,9252.574275
2497.663270,-1225.752797,-444.123565,9400.615463
2497.663599,-1225.752797,-740.205942,9622.677246
2497.663928,-1378.971896,-1406.391290,9696.697840
2497.664257,-1072.533697,-1332.370696,9918.759623
2497.664586,-1225.752797,-1702.473667,9844.739029
2497.664915,-766.095498,-1628.453072,9770.718434
2497.665244,-842.705048,-1480.411884,8882.471304
2497.665573,-612.876398,-518.144159,9770.718434
2497.665902,0.000000,-74.020594,9178.553681
2497.666230,1225.752797,1184.329507,7846.182985
2497.666559,1378.971896,1850.514855,8142.265362
2497.666888,1455.581446,1628.453072,8068.244768
2497.667217,1532.190996,962.267725,7994.224174
2497.667546,1302.362347,962.267725,7846.182985
2497.667875,1149.143247,-296.082377,8438.347739
2497.668204,306.438199,-962.267725,8734.430116
2497.668533,306.438199,-1776.494261,9400.615463
2497.668862,383.047749,-1480.411884,9696.697840
2497.669191,76.609550,-1554.432478,9548.656652
2497.669520,153.219100,-814.226536,9252.574275
2497.669849,153.219100,-296.082377,9326.594869
2497.670178,459.657299,592.164754,9400.615463
2497.670507,689.485948,814.226536,9178.553681
2497.670835,689.485948,962.267725,8660.409521
2497.671164,153.219100,814.226536,9104.533087
2497.671493,0.000000,592.164754,9400.615463
2497.671822,0.000000,-74.020594,9400.615463
2497.672151,-536.266849,-740.205942,9178.553681
2497.672480,-1302.362347,-1110.308913,9918.759623
2497.672809,-1072.533697,-1184.329507,9770.718434
2497.673138,-766.095498,-1110.308913,9548.656652
2497.673467,0.000000,-222.061783,9474.636058
2497.673796,153.219100,444.123565,9400.615463
2497.674125,76.609550,444.123565,9178.553681
2497.674454,1072.533697,740.205942,8956.491898
2497.674783,1991.848295,518.144159,8660.409521
2497.675112,2374.896044,370.102971,8364.327145
2497.675441,2681.334243,148.041188,8882.471304
2497.675771,2221.676944,-0.000000,9252.574275
2497.676100,2221.676944,-0.000000,9104.533087
2497.676429,1838.629195,-0.000000,9104.533087
2497.676758,536.266849,-518.144159,9252.574275
2497.677087,383.047749,-0.000000,9474.636058
2497.677416,0.000000,-74.020594,9326.594869
2497.677745,-766.095498,-222.061783,9474.636058
2497.678074,-919.314598,-592.164754,9400.615463
2497.678403,-1149.143247,-1184.329507,9622.677246
2497.678732,-1378.971896,-1036.288319,9400.615463
2497.679061,-919.314598,-1258.350101,9326.594869
2497.679390,-1072.533697,-1406.391290,9178.553681
2497.679719,-919.314598,-1184.329507,9622.677246
2497.680048,-536.266849,-1110.308913,9252.574275
2497.680377,-383.047749,-222.061783,9178.553681
2497.680706,0.000000,444.123565,9178.553681
2497.681035,76.609550,962.267725,8882.471304
2497.681364,919.314598,1332.370696,8290.306550
2497.681693,919.314598,1332.370696,8068.244768
2497.682022,995.924147,962.267725,8068.244768
2497.682352,995.924147,370.102971,8142.265362
2497.682681,842.705048,-148.041188,8290.306550
2497.683010,536.266849,-1184.329507,8734.430116
2497.683339,612.876398,-1554.432478,8364.327145
2497.683668,612.876398,-1406.391290,9326.594869
2497.683997,612.876398,-1332.370696,9178.553681
2497.684326,612.876398,-814.226536,9178.553681
2497.684655,842.705048,-296.082377,9326.594869
2497.684984,919.314598,444.123565,8734.430116
2497.685313,1378.971896,444.123565,8808.450710
2497.685642,1072.533697,666.185348,8586.388927
2497.685971,229.828649,-0.000000,9178.553681
2497.686300,0.000000,-0.000000,9400.615463
2497.686629,-842.705048,-740.205942,9400.615463
2497.686958,-1225.752797,-1184.329507,9622.677246
2497.687287,-1608.800546,-1554.432478,9844.739029
2497.687616,-1378.971896,-1554.432478,9918.759623
2497.687945,-612.876398,-1110.308913,9992.780217
2497.688274,-383.047749,-296.082377,9548.656652
2497.688603,0.000000,296.082377,9548.656652
2497.688933,766.095498,1110.308913,9178.553681
2497.689262,1991.848295,1406.391290,8290.306550
2497.689591,2528.115143,1184.329507,8216.285956
2497.689920,3140.991542,740.205942,8512.368333
2497.690249,2987.772442,148.041188,8586.388927
2497.690578,2451.505594,-0.000000,8882.471304
2497.690907,2068.457845,-0.000000,8512.368333
2497.691236,1608.800546,-74.020594,9030.512492
2497.691565,842.705048,-370.102971,9326.594869
2497.691894,153.219100,-444.123565,9548.656652
2497.692223,0.000000,-148.041188,9696.697840
2497.692552,0.000000,-148.041188,9252.574275
2497.692881,-766.095498,-0.000000,9548.656652
2497.693210,-459.657299,-222.061783,9326.594869
2497.693539,-383.047749,-444.123565,9252.574275
2497.693868,-459.657299,-740.205942,9252.574275
2497.694197,229.828649,-814.226536,9326.594869
2497.694526,76.609550,-814.226536,8956.491898
2497.694855,0.000000,-518.144159,9104.533087
2497.695185,536.266849,-0.000000,9326.594869
2497.695514,-153.219100,296.082377,9178.553681
2497.695843,0.000000,666.185348,8734.430116
2497.696172,153.219100,740.205942,8512.368333
2497.696501,459.657299,740.205942,8438.347739
2497.696830,766.095498,-0.000000,8290.306550
2497.697159,919.314598,-518.144159,9252.574275
2497.697488,919.314598,-888.247130,9252.574275
2497.697817,689.485948,-1554.432478,8734.430116
2497.698146,919.314598,-1110.308913,9104.533087
2497.698475,1225.752797,-1110.308913,8808.450710
2497.698804,1378.971896,-1110.308913,8956.491898
2497.699133,1149.143247,-0.000000,8882.471304
2497.699462,1072.533697,-0.000000,8956.491898
2497.699791,689.485948,444.123565,9030.512492
2497.700120,229.828649,592.164754,8660.409521
2497.700449,-459.657299,-148.041188,9178.553681
2497.700778,-1149.143247,-74.020594,9474.636058
2497.701107,-1532.190996,-296.082377,9770.718434
2497.701436,-995.924147,-1628.453072,9844.739029
2497.701766,-1378.971896,-1924.535449,9548.656652
2497.702095,-1685.410096,-1554.432478,9474.636058
2497.702424,-1072.533697,-1110.308913,9622.677246
2497.702753,-766.095498,-222.061783,9252.574275
2497.703082,-536.266849,-0.000000,8882.471304
2497.703411,229.828649,592.164754,8882.471304
2497.703740,995.924147,1036.288319,8734.430116
2497.704069,1838.629195,1258.350101,7846.182985
2497.704398,1915.238745,1110.308913,7698.141797
2497.704727,2757.943793,814.226536,7624.121203
2497.705056,2681.334243,814.226536,8364.327145
2497.705385,1838.629195,592.164754,8882.471304
2497.705714,1685.410096,-296.082377,8882.471304
2497.706043,995.924147,-666.185348,8882.471304
2497.706372,76.609550,-518.144159,9474.636058
2497.706701,153.219100,-814.226536,9696.697840
2497.707030,-459.657299,-518.144159,9696.697840
2497.707359,-306.438199,-592.164754,9400.615463
2497.707688,-766.095498,-740.205942,9326.594869
2497.708018,-383.047749,-296.082377,9326.594869
2497.708347,-383.047749,-592.164754,9252.574275
2497.708676,0.000000,-666.185348,9326.594869
2497.709005,0.000000,-814.226536,9474.636058
2497.709334,0.000000,-1110.308913,9474.636058
2497.709663,0.000000,-962.267725,9622.677246
2497.709992,0.000000,-296.082377,9474.636058
2497.710321,0.000000,-0.000000,9326.594869
2497.710650,383.047749,592.164754,8956.491898
2497.710979,459.657299,1184.329507,8512.368333
2497.711308,842.705048,1110.308913,9030.512492
2497.711637,689.485948,888.247130,8808.450710
2497.711966,1225.752797,222.061783,9030.512492
2497.712295,536.266849,-148.041188,9030.512492
2497.712624,1072.533697,-518.144159,8882.471304
2497.712953,766.095498,-1110.308913,8882.471304
2497.713282,1072.533697,-888.247130,8882.471304
2497.713611,1149.143247,-1036.288319,9178.553681
2497.713940,995.924147,-296.082377,8586.388927
2497.714269,1378.971896,296.082377,9178.553681
2497.714599,842.705048,222.061783,8956.491898
2497.714928,536.266849,740.205942,8660.409521
2497.715257,-306.438199,592.164754,8586.388927
2497.715586,-383.047749,-222.061783,8956.491898
2497.715915,-689.485948,-370.102971,9104.533087
2497.716244,-689.485948,-962.267725,9400.615463
2497.716573,-1225.752797,-1184.329507,9326.594869
2497.716902,-1302.362347,-1628.453072,9992.780217
2497.717231,-1378.971896,-1258.350101,9326.594869
2497.717560,-1225.752797,-1036.288319,9252.574275
2497.717889,-689.485948,-0.000000,9252.574275
2497.718218,0.000000,-0.000000,9104.533087
2497.718547,153.219100,-222.061783,9252.574275
2497.718876,766.095498,592.164754,8586.388927
2497.719205,1762.019645,-0.000000,8512.368333
2497.719534,1915.238745,-0.000000,8438.347739
2497.719863,2145.067394,-0.000000,8290.306550
2497.720192,1838.629195,-0.000000,8438.347739
2497.720521,1378.971896,-444.123565,8734.430116
2497.720851,1838.629195,-592.164754,8956.491898
2497.721180,1072.533697,-148.041188,9178.553681
2497.721509,383.047749,-0.000000,9474.636058
2497.721838,153.219100,-74.020594,9474.636058
2497.722167,-153.219100,-148.041188,9400.615463
2497.722496,-612.876398,-222.061783,9400.615463
2497.722825,-842.705048,-444.123565,9622.677246
2497.723154,-1608.800546,-592.164754,9548.656652
2497.723483,-766.095498,-1036.288319,9474.636058
2497.723812,-536.266849,-1406.391290,9474.636058
2497.724141,-919.314598,-962.267725,9696.697840
2497.724470,-612.876398,-666.185348,9696.697840
2497.724799,-459.657299,-222.061783,9696.697840
2497.725128,-229.828649,-0.000000,9400.615463
2497.725457,766.095498,370.102971,8586.388927
2497.725786,1302.362347,1036.288319,8512.368333
2497.726115,1455.581446,1406.391290,8142.265362
2497.726444,1685.410096,1258.350101,7846.182985
2497.726773,1762.019645,888.247130,7994.224174
2497.727102,1762.019645,222.061783,7920.203579
2497.727432,1455.581446,-518.144159,8734.430116
2497.727761,2145.067394,-1554.432478,8512.368333
2497.728090,1072.533697,-1628.453072,8734.430116
2497.728419,1302.362347,-1480.411884,9252.574275
2497.728748,842.705048,-888.247130,9104.533087
2497.729077,612.876398,-592.164754,9400.615463
2497.729406,612.876398,-0.000000,9326.594869
2497.729735,459.657299,296.082377,9326.594869
2497.730064,153.219100,518.144159,9548.656652
2497.730393,-383.047749,148.041188,9178.553681
2497.730722,-919.314598,-0.000000,9400.615463
2497.731051,-612.876398,-222.061783,9252.574275
2497.731380,-536.266849,-666.185348,9030.512492
2497.731709,-689.485948,-888.247130,9474.636058
2497.732038,-766.095498,-740.205942,9696.697840
2497.732367,-383.047749,-444.123565,9474.636058
2497.732696,0.000000,-0.000000,9622.677246
2497.733025,229.828649,-0.000000,9104.533087
2497.733354,689.485948,592.164754,8734.430116
2497.733683,1149.143247,518.144159,8882.471304
2497.734013,1762.019645,370.102971,8808.450710
2497.734342,2221.676944,592.164754,8734.430116
2497.734671,2145.067394,-0.000000,8660.409521
2497.735000,2298.286494,-0.000000,8808.450710
2497.735329,1608.800546,-148.041188,8586.388927
2497.735658,1378.971896,-0.000000,8882.471304
2497.735987,919.314598,-0.000000,8882.471304
2497.736316,383.047749,296.082377,9104.533087
2497.736645,0.000000,-0.000000,9030.512492
2497.736974,0.000000,-0.000000,9252.574275
2497.737303,-689.485948,-0.000000,9104.533087
2497.737632,-919.314598,-74.020594,9474.636058
2497.737961,-919.314598,-962.267725,9326.594869
2497.738290,-919.314598,-1258.350101,9548.656652
2497.738619,-919.314598,-1554.432478,9474.636058
2497.738948,-919.314598,-1628.453072,9770.718434
2497.739277,-1302.362347,-1480.411884,9844.739029
2497.739606,-536.266849,-592.164754,9696.697840
2497.739935,-612.876398,222.061783,9844.739029
2497.740265,0.000000,444.123565,9252.574275
2497.740594,383.047749,1184.329507,8512.368333
2497.740923,766.095498,1258.350101,8364.327145
2497.741252,1378.971896,592.164754,8068.244768
2497.741581,1762.019645,518.144159,8142.265362
2497.741910,1608.800546,-0.000000,7994.224174
2497.742239,1762.019645,-222.061783,8290.306550
2497.742568,1378.971896,-814.226536,8660.409521
2497.742897,1149.143247,-1184.329507,9104.533087
2497.743226,995.924147,-962.267725,9474.636058
2497.743555,842.705048,-1184.329507,9474.636058
2497.743884,995.924147,-666.185348,9844.739029
2497.744213,76.609550,222.061783,9770.718434
2497.744542,306.438199,370.102971,9474.636058
2497.744871,0.000000,592.164754,9474.636058
2497.745200,-229.828649,666.185348,9178.553681
2497.745529,-306.438199,222.061783,9400.615463
2497.745858,-459.657299,-0.000000,9104.533087
2497.746187,-459.657299,-1036.288319,9400.615463
2497.746516,-995.924147,-1184.329507,9622.677246
2497.746846,-1302.362347,-1480.411884,9030.512492
2497.747175,-1072.533697,-1110.308913,9178.553681
2497.747504,-153.219100,-370.102971,8512.368333
2497.747833,0.000000,518.144159,8068.244768
2497.748162,766.095498,222.061783,8660.409521
2497.748491,1225.752797,888.247130,7772.162391
2497.748820,1685.410096,592.164754,8438.347739
2497.749149,2451.505594,296.082377,8068.244768
2497.749478,2528.115143,1036.288319,7994.224174
2497.749807,2068.457845,222.061783,8216.285956
2497.750136,2221.676944,740.205942,8364.327145
2497.750465,1225.752797,-740.205942,8882.471304
2497.750794,842.705048,222.061783,8808.450710
2497.751123,229.828649,-444.123565,9178.553681
2497.751452,-766.095498,-444.123565,9178.553681
2497.751781,-306.438199,-962.267725,9770.718434
2497.752110,-995.924147,-1036.288319,9770.718434
2497.752439,-1532.190996,-1406.391290,9326.594869
2497.752768,-1072.533697,-888.247130,9770.718434
2497.753098,-1225.752797,-1332.370696,9548.656652
2497.753427,-1072.533697,-1406.391290,9844.739029
2497.753756,-1072.533697,-1036.288319,10140.821405
2497.754085,-612.876398,-740.205942,10214.842000
2497.754414,-842.705048,-148.041188,9770.718434
2497.754743,306.438199,888.247130,8956.491898
2497.755072,766.095498,1480.411884,8734.430116
2497.755401,995.924147,1850.514855,8142.265362
2497.755730,1149.143247,1776.494261,8216.285956
2497.756059,1532.190996,666.185348,8142.265362
2497.756388,1532.190996,222.061783,8586.388927
2497.756717,995.924147,-518.144159,8290.306550
2497.757046,612.876398,-1554.432478,8956.491898
2497.757375,383.047749,-1776.494261,9252.574275
2497.757704,229.828649,-1776.494261,9326.594869
2497.758034,689.485948,-1480.411884,9474.636058
2497.758363,919.314598,-814.226536,9474.636058
2497.758692,842.705048,740.205942,9326.594869
2497.759021,995.924147,666.185348,9178.553681
2497.759350,919.314598,1184.329507,8956.491898
2497.759679,536.266849,1258.350101,8734.430116
2497.760008,0.000000,1036.288319,8586.388927
2497.760337,0.000000,296.082377,8734.430116
2497.760666,-612.876398,-666.185348,8956.491898
2497.760995,-995.924147,-1258.350101,8956.491898
2497.761324,-1378.971896,-1776.494261,9622.677246
2497.761653,-1149.143247,-1776.494261,9400.615463
2497.761982,-995.924147,-1258.350101,9252.574275
2497.762312,-612.876398,-740.205942,9326.594869
2497.762641,0.000000,-222.061783,8956.491898
2497.762970,1225.752797,-0.000000,9326.594869
2497.763299,1838.629195,592.164754,8586.388927
2497.763628,2681.334243,814.226536,8290.306550
2497.763957,3140.991542,1036.288319,7846.182985
2497.764286,3140.991542,1110.308913,7920.203579
2497.764615,2987.772442,740.205942,8586.388927
2497.764944,2374.896044,222.061783,8512.368333
2497.765273,1149.143247,-0.000000,9178.553681
2497.765602,919.314598,-592.164754,9400.615463
2497.765931,153.219100,-518.144159,9400.615463
2497.766261,-1072.533697,-666.185348,9770.718434
2497.766590,-842.705048,-740.205942,9548.656652
2497.766919,-842.705048,-740.205942,9474.636058
2497.767248,-919.314598,-444.123565,9178.553681
2497.767577,-459.657299,-1036.288319,9918.759623
2497.767906,-612.876398,-444.123565,10066.800811
2497.768235,-766.095498,-1036.288319,10140.821405
2497.768564,-306.438199,-444.123565,9474.636058
2497.768893,153.219100,-148.041188,9400.615463
2497.769222,153.219100,518.144159,9474.636058
2497.769551,459.657299,888.247130,8882.471304
2497.769880,612.876398,1628.453072,8660.409521
2497.770209,536.266849,1332.370696,8660.409521
2497.770539,1302.362347,1332.370696,7994.224174
2497.770868,766.095498,814.226536,8438.347739
2497.771197,612.876398,444.123565,8438.347739
2497.771526,536.266849,-592.164754,8882.471304
2497.771855,536.266849,-1480.411884,9326.594869
2497.772184,536.266849,-1850.514855,9178.553681
2497.772513,919.314598,-1998.556043,8956.491898
2497.772842,612.876398,-1480.411884,9400.615463
2497.773171,536.266849,-888.247130,9326.594869
2497.773500,1149.143247,-0.000000,9178.553681
2497.773829,919.314598,740.205942,8808.450710
2497.774158,919.314598,1110.308913,8808.450710
2497.774487,612.876398,1332.370696,8142.265362
2497.774817,-766.095498,666.185348,9178.553681
2497.775146,-612.876398,-1036.288319,9622.677246
2497.775475,-1225.752797,-740.205942,9622.677246
2497.775804,-1915.238745,-1776.494261,9992.780217
2497.776133,-1685.410096,-2072.576638,9696.697840
2497.776462,-1149.143247,-1702.473667,9622.677246
2497.776791,-1608.800546,-1332.370696,9548.656652
2497.777120,-612.876398,-518.144159,9474.636058
2497.777449,-306.438199,-148.041188,9104.533087
2497.777778,536.266849,814.226536,9178.553681
2497.778107,1455.581446,666.185348,8660.409521
2497.778436,2221.676944,1036.288319,7920.203579
2497.778766,2451.505594,888.247130,8142.265362
2497.779095,2681.334243,666.185348,8216.285956
2497.779424,2604.724693,370.102971,7994.224174
2497.779753,2834.553343,-222.061783,8512.368333
2497.780082,1915.238745,-444.123565,8734.430116
2497.780411,766.095498,-74.020594,8956.491898
2497.780740,0.000000,-518.144159,9104.533087
2497.781069,-306.438199,-370.102971,9252.574275
2497.781398,-1225.752797,-444.123565,9548.656652
2497.781727,-536.266849,-740.205942,9104.533087
2497.782056,-689.485948,-740.205942,9400.615463
2497.782385,-536.266849,-666.185348,8882.471304
2497.782714,-383.047749,-740.205942,9400.615463
2497.783044,-306.438199,-888.247130,9400.615463
2497.783373,0.000000,-666.185348,9104.533087
2497.783702,-459.657299,-222.061783,9252.574275
2497.784031,842.705048,148.041188,9178.553681
2497.784360,459.657299,370.102971,9252.574275
2497.784689,536.266849,888.247130,9030.512492
2497.785018,919.314598,1258.350101,8438.347739
2497.785347,919.314598,1036.288319,8734.430116
2497.785676,842.705048,740.205942,8586.388927
2497.786005,1532.190996,370.102971,8808.450710
2497.786334,1149.143247,148.041188,9030.512492
2497.786663,1378.971896,-666.185348,9326.594869
2497.786992,1072.533697,-962.267725,9178.553681
2497.787322,919.314598,-1184.329507,9104.533087
2497.787651,766.095498,-666.185348,9252.574275
2497.787980,689.485948,-666.185348,9400.615463
2497.788309,612.876398,-148.041188,9474.636058
2497.788638,689.485948,-0.000000,9474.636058
2497.788967,153.219100,-0.000000,9548.656652
2497.789296,-459.657299,-74.020594,9400.615463
2497.789625,-995.924147,-0.000000,9696.697840
2497.789954,-842.705048,-444.123565,9474.636058
2497.790283,-1072.533697,-592.164754,9474.636058
2497.790612,-689.485948,-1184.329507,9474.636058
2497.790941,-995.924147,-1036.288319,9696.697840
2497.791271,-459.657299,-888.247130,9326.594869
2497.791600,-383.047749,-592.164754,9474.636058
2497.791929,0.000000,222.061783,8882.471304
2497.792258,153.219100,740.205942,8290.306550
2497.792587,612.876398,1110.308913,8364.327145
2497.792916,766.095498,962.267725,8142.265362
2497.793245,1149.143247,518.144159,8290.306550
2497.793574,1838.629195,148.041188,8512.368333
2497.793903,842.705048,-0.000000,8660.409521
2497.794232,919.314598,-740.205942,9030.512492
2497.794561,766.095498,-1184.329507,9252.574275
2497.794890,459.657299,-962.267725,9252.574275
2497.795219,153.219100,-814.226536,9326.594869
2497.795549,-536.266849,-518.144159,9326.594869
2497.795878,689.485948,-148.041188,9030.512492
2497.796207,459.657299,-0.000000,8512.368333
2497.796536,383.047749,370.102971,8882.471304
2497.796865,153.219100,-74.020594,8660.409521
2497.797194,0.000000,-74.020594,8808.450710
2497.797523,-306.438199,-962.267725,9104.533087
2497.797852,-919.314598,-1036.288319,9918.759623
2497.798181,-1378.971896,-1110.308913,9548.656652
2497.798510,-1302.362347,-1184.329507,9992.780217
2497.798839,-1072.533697,-962.267725,9622.677246
2497.799168,-766.095498,-518.144159,9696.697840
2497.799497,0.000000,222.061783,9696.697840
2497.799827,536.266849,740.205942,9104.533087
2497.800156,1149.143247,814.226536,8586.388927
2497.800485,2068.457845,814.226536,8068.244768
2497.800814,2145.067394,1110.308913,8216.285956
2497.801143,2451.505594,518.144159,7920.203579
2497.801472,2298.286494,-74.020594,7920.203579
2497.801801,1991.848295,-592.164754,8660.409521
2497.802130,1685.410096,-1036.288319,8586.388927
2497.802459,612.876398,-1258.350101,9400.615463
2497.802788,383.047749,-962.267725,9992.780217
2497.803117,766.095498,-814.226536,9622.677246
2497.803446,229.828649,-74.020594,9326.594869
2497.803776,0.000000,296.082377,9252.574275
2497.804105,-229.828649,518.144159,9178.553681
2497.804434,-306.438199,-0.000000,8808.450710
2497.804763,-306.438199,148.041188,9474.636058
2497.805092,0.000000,-592.164754,9030.512492
2497.805421,-612.876398,-740.205942,9400.615463
2497.805750,-919.314598,-962.267725,9474.636058
2497.806079,-612.876398,-814.226536,9252.574275
2497.806408,-689.485948,-814.226536,9178.553681
2497.806737,0.000000,-148.041188,9104.533087
2497.807066,459.657299,-0.000000,9030.512492
2497.807395,0.000000,888.247130,8808.450710
2497.807724,1225.752797,370.102971,8364.327145
2497.808054,1762.019645,518.144159,8512.368333
2497.808383,1838.629195,296.082377,8512.368333
2497.808712,1915.238745,-74.020594,8512.368333
2497.809041,1685.410096,-222.061783,9030.512492
2497.809370,919.314598,-148.041188,9326.594869
2497.809699,1685.410096,-222.061783,9104.533087
2497.810028,919.314598,-296.082377,9104.533087
2497.810357,459.657299,-74.020594,9400.615463
2497.810686,306.438199,-148.041188,8882.471304
2497.811015,-153.219100,-74.020594,9178.553681
2497.811344,-306.438199,-148.041188,9400.615463
2497.811673,-842.705048,-666.185348,9400.615463
2497.812002,-689.485948,-592.164754,9770.718434
2497.812332,-689.485948,-1110.308913,9548.656652
2497.812661,-919.314598,-1628.453072,9696.697840
2497.812990,-919.314598,-1184.329507,9548.656652
2497.813319,-459.657299,-1036.288319,9622.677246
2497.813648,-306.438199,-222.061783,9104.533087
2497.813977,0.000000,74.020594,9474.636058
2497.814306,229.828649,888.247130,8586.388927
2497.814635,766.095498,1776.494261,8216.285956
2497.814964,1149.143247,1776.494261,8142.265362
2497.815293,1608.800546,1258.350101,7698.141797
2497.815622,1532.190996,740.205942,8068.244768
2497.815951,1378.971896,-148.041188,8290.306550
2497.816281,1532.190996,-518.144159,8586.388927
2497.816610,1072.533697,-1332.370696,8734.430116
2497.816939,842.705048,-1628.453072,8882.471304
2497.817268,536.266849,-1258.350101,9326.594869
2497.817597,383.047749,-1258.350101,9400.615463
2497.817926,229.828649,-370.102971,9178.553681
2497.818255,0.000000,-0.000000,9548.656652
2497.818584,383.047749,296.082377,9104.533087
2497.818913,-229.828649,222.061783,9030.512492
2497.819242,-76.609550,666.185348,9178.553681
2497.819571,-536.266849,-74.020594,9252.574275
2497.819900,-766.095498,-518.144159,9400.615463
2497.820229,-842.705048,-1036.288319,9474.636058
2497.820559,-995.924147,-1110.308913,10140.821405
2497.820888,-766.095498,-1480.411884,10066.800811
2497.821217,-766.095498,-592.164754,9548.656652
2497.821546,-306.438199,-370.102971,9548.656652
2497.821875,0.000000,296.082377,9178.553681
2497.822204,306.438199,814.226536,9104.533087
2497.822533,1072.533697,962.267725,8808.450710
2497.822862,1532.190996,592.164754,8512.368333
2497.823191,2145.067394,518.144159,8734.430116
2497.823520,2528.115143,592.164754,8512.368333
2497.823849,1225.752797,-0.000000,9030.512492
2497.824178,1915.238745,-0.000000,8660.409521
2497.824507,1762.019645,-0.000000,8660.409521
2497.824837,1225.752797,-0.000000,8882.471304
2497.825166,842.705048,-0.000000,8808.450710
2497.825495,153.219100,-74.020594,9178.553681
2497.825824,0.000000,-296.082377,9178.553681
2497.826153,-536.266849,-296.082377,9400.615463
2497.826482,-689.485948,-148.041188,9400.615463
2497.826811,-919.314598,-740.205942,9400.615463
2497.827140,-689.485948,-962.267725,9400.615463
2497.827469,-689.485948,-1332.370696,9474.636058
2497.827798,-306.438199,-1850.514855,9548.656652
2497.828127,-689.485948,-962.267725,9326.594869
2497.828456,-612.876398,-296.082377,9400.615463
2497.828786,-689.485948,296.082377,9252.574275
2497.829115,-612.876398,962.267725,9104.533087
2497.829444,0.000000,1184.329507,8586.388927
2497.829773,1149.143247,666.185348,8142.265362
2497.830102,1225.752797,148.041188,7994.224174
2497.830431,1455.581446,-0.000000,8364.327145
2497.830760,1685.410096,-444.123565,8364.327145
2497.831089,1378.971896,-592.164754,8586.388927
2497.831418,1225.752797,-1036.288319,8808.450710
2497.831747,995.924147,-1184.329507,9104.533087
2497.832076,1378.971896,-814.226536,9474.636058
2497.832405,919.314598,-814.226536,9400.615463
2497.832734,536.266849,-370.102971,9474.636058
2497.833064,229.828649,-0.000000,9622.677246
2497.833393,76.609550,370.102971,9252.574275
2497.833722,-383.047749,444.123565,8956.491898
2497.834051,-612.876398,-0.000000,9326.594869
2497.834380,-1072.533697,-444.123565,8956.491898
2497.834709,-842.705048,-740.205942,9178.553681
2497.835038,-1378.971896,-1036.288319,9178.553681
2497.835367,-1532.190996,-1628.453072,9844.739029
2497.835696,-1072.533697,-1184.329507,9474.636058
2497.836025,-459.657299,-1110.308913,9474.636058
2497.836354,-383.047749,-444.123565,9474.636058
2497.836683,153.219100,-0.000000,9326.594869
2497.837012,1149.143247,962.267725,8956.491898
2497.837342,1915.238745,1480.411884,8364.327145
2497.837671,2451.505594,1406.391290,7846.182985
2497.838000,2528.115143,1036.288319,7179.997637
2497.838329,2528.115143,888.247130,8438.347739
2497.838658,2681.334243,444.123565,8438.347739
2497.838987,2068.457845,-0.000000,8586.388927
2497.839316,995.924147,-74.020594,9326.594869
2497.839645,536.266849,-370.102971,9548.656652
2497.839974,0.000000,-444.123565,9622.677246
2497.840303,0.000000,-814.226536,9474.636058
2497.840632,-383.047749,-888.247130,9400.615463
2497.840961,-383.047749,-222.061783,9400.615463
2497.841291,-536.266849,-370.102971,9400.615463
2497.841620,-383.047749,-592.164754,9474.636058
2497.841949,0.000000,-592.164754,9474.636058
2497.842278,0.000000,-666.185348,9622.677246
2497.842607,-229.828649,-592.164754,9696.697840
2497.842936,153.219100,-74.020594,9918.759623
2497.843265,76.609550,-0.000000,9474.636058
2497.843594,306.438199,296.082377,9400.615463
2497.843923,76.609550,666.185348,9178.553681
2497.844252,229.828649,1036.288319,8734.430116
2497.844581,459.657299,1036.288319,8734.430116
2497.844910,459.657299,962.267725,9104.533087
2497.845239,536.266849,-444.123565,8660.409521
2497.845569,919.314598,-814.226536,9104.533087
2497.845898,1149.143247,-1036.288319,8882.471304
2497.846227,1149.143247,-1258.350101,8734.430116
2497.846556,919.314598,-1036.288319,9178.553681
2497.846885,1072.533697,-962.267725,9400.615463
2497.847214,1149.143247,-444.123565,9104.533087
2497.847543,919.314598,-0.000000,9400.615463
2497.847872,842.705048,1036.288319,9178.553681
2497.848201,306.438199,1036.288319,9104.533087
2497.848530,-229.828649,814.226536,8808.450710
2497.848859,-612.876398,222.061783,9178.553681
2497.849188,-766.095498,-370.102971,9104.533087
2497.849517,-459.657299,-1110.308913,9178.553681
2497.849847,-1072.533697,-1776.494261,9104.533087
2497.850176,-1302.362347,-1776.494261,9400.615463
2497.850505,-1149.143247,-1628.453072,9326.594869
2497.850834,-689.485948,-1258.350101,9474.636058
2497.851163,-383.047749,-222.061783,9030.512492
2497.851492,383.047749,444.123565,8882.471304
2497.851821,689.485948,962.267725,9030.512492
2497.852150,1762.019645,1110.308913,8660.409521
2497.852479,2068.457845,888.247130,7994.224174
2497.852808,1685.410096,592.164754,8512.368333
2497.853137,1608.800546,-0.000000,8660.409521
2497.853466,1532.190996,-222.061783,8734.430116
2497.853796,1378.971896,-666.185348,9104.533087
2497.854125,842.705048,-1036.288319,8734.430116
2497.854454,229.828649,-592.164754,9474.636058
2497.854783,0.000000,-666.185348,9474.636058
2497.855112,0.000000,-370.102971,9178.553681
2497.855441,0.000000,-0.000000,9400.615463
2497.855771,0.000000,-0.000000,9326.594869
2497.856100,0.000000,-0.000000,9178.553681
2497.856429,153.219100,-74.020594,9844.739029
2497.856758,0.000000,-444.123565,9400.615463
2497.857087,-306.438199,-888.247130,9474.636058
2497.857416,-612.876398,-962.267725,9474.636058
2497.857746,-612.876398,-592.164754,9474.636058
2497.858075,-612.876398,-444.123565,9696.697840
2497.858404,-153.219100,-0.000000,9104.533087
2497.858733,153.219100,666.185348,9400.615463
2497.859062,0.000000,962.267725,8734.430116
2497.859391,919.314598,1406.391290,8438.347739
2497.859721,1455.581446,1110.308913,8068.244768
2497.860050,1762.019645,888.247130,8216.285956
2497.860379,1991.848295,296.082377,8364.327145
2497.860708,1685.410096,-0.000000,8586.388927
2497.861037,2221.676944,-444.123565,8882.471304
2497.861366,1991.848295,-444.123565,8586.388927
2497.861695,1149.143247,-444.123565,9474.636058
2497.862025,1072.533697,-296.082377,9474.636058
2497.862354,612.876398,-148.041188,9178.553681
2497.862683,229.828649,-0.000000,9696.697840
2497.863012,0.000000,222.061783,9696.697840
2497.863341,-383.047749,888.247130,9474.636058
2497.863670,-1149.143247,-148.041188,9844.739029
2497.864000,-919.314598,-666.185348,9474.636058
2497.864329,-995.924147,-740.205942,9474.636058
2497.864658,-995.924147,-1184.329507,9474.636058
2497.864987,-995.924147,-1406.391290,9548.656652
2497.865316,-766.095498,-888.247130,9252.574275
2497.865645,-229.828649,-814.226536,9474.636058
2497.865975,-153.219100,-148.041188,9104.533087
2497.866304,229.828649,296.082377,8808.450710
2497.866633,689.485948,814.226536,8586.388927
2497.866962,1225.752797,814.226536,8290.306550
2497.867291,1455.581446,592.164754,8142.265362
2497.867620,1685.410096,-0.000000,8512.368333
2497.867950,1455.581446,-666.185348,8512.368333
2497.868279,383.047749,-1036.288319,8956.491898
2497.868608,842.705048,-1036.288319,8956.491898
2497.868937,536.266849,-962.267725,9326.594869
2497.869266,383.047749,-666.185348,9178.553681
2497.869595,153.219100,-222.061783,9326.594869
2497.869925,0.000000,222.061783,8882.471304
2497.870254,459.657299,-518.144159,8956.491898
2497.870583,0.000000,-74.020594,8364.327145
2497.870912,-689.485948,518.144159,9548.656652
2497.871241,0.000000,-814.226536,9252.574275
2497.871570,-842.705048,-370.102971,7846.182985
2497.871900,-536.266849,-814.226536,8882.471304
2497.872229,-459.657299,-592.164754,9548.656652
2497.872558,-842.705048,-1406.391290,9252.574275
2497.872887,-612.876398,-444.123565,9548.656652
2497.873216,-306.438199,-518.144159,9030.512492
2497.873545,-229.828649,370.102971,9030.512492
2497.873875,536.266849,962.267725,8808.450710
2497.874204,842.705048,1554.432478,8734.430116
2497.874533,1455.581446,592.164754,8364.327145
2497.874862,1149.143247,444.123565,8734.430116
2497.875191,1762.019645,296.082377,8512.368333
2497.875520,1762.019645,-222.061783,8734.430116
2497.875850,1455.581446,-814.226536,8882.471304
2497.876179,1455.581446,-1258.350101,9326.594869
2497.876508,995.924147,-888.247130,9474.636058
2497.876837,1532.190996,-666.185348,9622.677246
2497.877166,842.705048,-592.164754,9696.697840
2497.877495,536.266849,-0.000000,9696.697840
2497.877825,229.828649,518.144159,9474.636058
2497.878154,536.266849,444.123565,8956.491898
2497.878483,0.000000,518.144159,9104.533087
2497.878812,383.047749,-0.000000,9178.553681
2497.879141,536.266849,-0.000000,8882.471304
2497.879470,0.000000,-666.185348,9400.615463
2497.879800,-766.095498,-1406.391290,9770.718434
2497.880129,-919.314598,-1110.308913,9696.697840
2497.880458,-612.876398,-888.247130,9474.636058
2497.880787,-229.828649,-222.061783,9400.615463
2497.881116,0.000000,-0.000000,9104.533087
2497.881445,536.266849,666.185348,9326.594869
2497.881775,1302.362347,296.082377,8586.388927
2497.882104,1455.581446,518.144159,8586.388927
2497.882433,1762.019645,296.082377,8512.368333
2497.882762,1991.848295,370.102971,8142.265362
2497.883091,1991.848295,-222.061783,8142.265362
2497.883420,1915.238745,-148.041188,8216.285956
2497.883750,1532.190996,-222.061783,8586.388927
2497.884079,1302.362347,-0.000000,8808.450710
2497.884408,612.876398,-518.144159,8586.388927
2497.884737,229.828649,-518.144159,9104.533087
2497.885066,-153.219100,-370.102971,8956.491898
2497.885395,-1149.143247,-592.164754,9400.615463
2497.885725,-1225.752797,-592.164754,9474.636058
2497.886054,-1455.581446,-814.226536,9474.636058
2497.886383,-1685.410096,-1332.370696,9696.697840
2497.886712,-1838.629195,-1480.411884,9696.697840
2497.887041,-1455.581446,-1184.329507,10066.800811
2497.887370,-1225.752797,-1110.308913,9474.636058
2497.887700,-612.876398,-518.144159,9548.656652
2497.888029,-536.266849,148.041188,9252.574275
2497.888358,306.438199,666.185348,8808.450710
2497.888687,612.876398,1258.350101,8512.368333
2497.889016,1532.190996,1110.308913,7698.141797
2497.889345,1149.143247,1480.411884,7698.141797
2497.889675,1378.971896,370.102971,8512.368333
2497.890004,1225.752797,-222.061783,8438.347739
2497.890333,536.266849,-0.000000,8956.491898
2497.890662,612.876398,-1924.535449,9178.553681
2497.890991,153.219100,-1258.350101,9252.574275
2497.891320,229.828649,-1332.370696,9548.656652
2497.891650,306.438199,-1258.350101,9474.636058
2497.891979,383.047749,-222.061783,9474.636058
2497.892308,459.657299,-0.000000,9400.615463
2497.892637,689.485948,1036.288319,8734.430116
2497.892966,612.876398,888.247130,8734.430116
2497.893295,766.095498,592.164754,8882.471304
2497.893625,306.438199,370.102971,8956.491898
2497.893954,76.609550,-296.082377,9030.512492
2497.894283,-459.657299,-740.205942,9326.594869
2497.894612,-766.095498,-1258.350101,9548.656652
2497.894941,-766.095498,-1332.370696,9918.759623
2497.895270,-995.924147,-1110.308913,9474.636058
2497.895600,-459.657299,-222.061783,9622.677246
2497.895929,0.000000,-148.041188,9326.594869
2497.896258,76.609550,666.185348,9104.533087
2497.896587,766.095498,814.226536,8512.368333
2497.896916,1991.848295,296.082377,8882.471304
2497.897245,2298.286494,518.144159,8438.347739
2497.897575,2145.067394,222.061783,8512.368333
2497.897904,2451.505594,-296.082377,8808.450710
2497.898233,2221.676944,-222.061783,8882.471304
2497.898562,1685.410096,-444.123565,9326.594869
2497.898891,1302.362347,-0.000000,9400.615463
2497.899220,919.314598,-222.061783,9400.615463
2497.899550,536.266849,444.123565,9104.533087
2497.899879,383.047749,-0.000000,9178.553681
2497.900208,-306.438199,296.082377,9030.512492
2497.900537,-995.924147,-0.000000,9548.656652
2497.900866,-766.095498,-592.164754,9844.739029
2497.901195,-1149.143247,-1110.308913,9178.553681
2497.901525,-1072.533697,-1184.329507,9548.656652
2497.901854,-919.314598,-1554.432478,9326.594869
2497.902183,-1149.143247,-1258.350101,9252.574275
2497.902512,-766.095498,-740.205942,9474.636058
2497.902841,-459.657299,518.144159,9178.553681
2497.903170,0.000000,148.041188,8882.471304
2497.903500,383.047749,1406.391290,8734.430116
2497.903829,919.314598,1702.473667,8216.285956
2497.904158,1149.143247,1184.329507,8364.327145
2497.904487,1608.800546,888.247130,8290.306550
2497.904816,1532.190996,-0.000000,8586.388927
2497.905145,1532.190996,-592.164754,8216.285956
2497.905475,1608.800546,-888.247130,8438.347739
2497.905804,842.705048,-1258.350101,8956.491898
2497.906133,536.266849,-1184.329507,9178.553681
2497.906462,536.266849,-962.267725,9104.533087
2497.906791,306.438199,-1036.288319,9326.594869
2497.907120,306.438199,-444.123565,9178.553681
2497.907450,536.266849,-0.000000,9326.594869
2497.907779,-383.047749,-0.000000,9474.636058
2497.908108,-536.266849,296.082377,9474.636058
2497.908437,-383.047749,-296.082377,9252.574275
2497.908766,-383.047749,-74.020594,9326.594869
2497.909095,-689.485948,-592.164754,9474.636058
2497.909425,-689.485948,-962.267725,9844.739029
2497.909754,-536.266849,-1406.391290,9992.780217
2497.910083,-459.657299,-1184.329507,9474.636058
2497.910412,-306.438199,-518.144159,9178.553681
2497.910741,76.609550,222.061783,8882.471304
2497.911070,612.876398,592.164754,8734.430116
2497.911400,919.314598,1036.288319,8734.430116
2497.911729,1608.800546,370.102971,8512.368333
2497.912058,1608.800546,-0.000000,8512.368333
2497.912387,1915.238745,-0.000000,8438.347739
2497.912716,1608.800546,-0.000000,9030.512492
2497.913045,1455.581446,-444.123565,8882.471304
2497.913375,1149.143247,-370.102971,9252.574275
2497.913704,1072.533697,-296.082377,9104.533087
2497.914033,1072.533697,-222.061783,9474.636058
2497.914362,689.485948,-148.041188,9474.636058
2497.914691,689.485948,-0.000000,9030.512492
2497.915020,76.609550,444.123565,8956.491898
2497.915349,0.000000,222.061783,8882.471304
2497.915679,-153.219100,-74.020594,8882.471304
2497.916008,-229.828649,-740.205942,8956.491898
2497.916337,-1149.143247,-1184.329507,9178.553681
2497.916666,-383.047749,-1554.432478,9548.656652
2497.916995,0.000000,-1702.473667,9400.615463
2497.917324,-306.438199,-814.226536,9252.574275
2497.917654,0.000000,-296.082377,9400.615463
2497.917983,306.438199,296.082377,9104.533087
2497.918312,689.485948,1036.288319,8808.450710
2497.918641,1072.533697,1480.411884,8364.327145
2497.918970,2221.676944,962.267725,8734.430116
2497.919299,2451.505594,370.102971,8290.306550
2497.919629,1838.629195,296.082377,8364.327145
2497.919958,1608.800546,-148.041188,8808.450710
2497.920287,1608.800546,-592.164754,8882.471304
2497.920616,1378.971896,-814.226536,9104.533087
2497.920945,1302.362347,-1110.308913,9400.615463
2497.921274,766.095498,-814.226536,9474.636058
2497.921604,306.438199,-444.123565,9918.759623
2497.921933,0.000000,-222.061783,9474.636058
2497.922262,-153.219100,-0.000000,9400.615463
2497.922591,-919.314598,-0.000000,9474.636058
2497.922920,-995.924147,-74.020594,9474.636058
2497.923249,-1302.362347,-222.061783,9548.656652
2497.923579,-1149.143247,-1406.391290,9844.739029
2497.923908,-1072.533697,-1184.329507,9474.636058
2497.924237,-1302.362347,-1332.370696,9696.697840
2497.924566,-995.924147,-962.267725,9696.697840
2497.924895,-536.266849,-814.226536,9474.636058
2497.925224,0.000000,222.061783,8808.450710
2497.925554,689.485948,1332.370696,8438.347739
2497.925883,1225.752797,888.247130,7846.182985
2497.926212,1608.800546,1480.411884,7994.224174
2497.926541,1838.629195,888.247130,7846.182985
2497.926870,1532.190996,666.185348,8142.265362
2497.927199,1455.581446,-0.000000,8142.265362
2497.927529,1149.143247,-444.123565,8512.368333
2497.927858,1455.581446,-1036.288319,9104.533087
2497.928187,536.266849,-1406.391290,9326.594869
2497.928516,229.828649,-1406.391290,9474.636058
2497.928845,229.828649,-814.226536,9400.615463
2497.929174,153.219100,-370.102971,9326.594869
2497.929504,0.000000,-0.000000,9030.512492
2497.929833,153.219100,148.041188,9030.512492
2497.930162,-383.047749,518.144159,8882.471304
2497.930491,229.828649,-0.000000,8882.471304
2497.930820,306.438199,-0.000000,9326.594869
2497.931149,-153.219100,-666.185348,9474.636058
2497.931479,-229.828649,-962.267725,9400.615463
2497.931808,-383.047749,-1110.308913,9696.697840
2497.932137,-766.095498,-888.247130,9474.636058
2497.932466,-306.438199,-0.000000,9770.718434
2497.932795,0.000000,296.082377,9326.594869
2497.933124,0.000000,740.205942,8734.430116
2497.933454,612.876398,1036.288319,8882.471304
2497.933783,919.314598,814.226536,8734.430116
2497.934112,1532.190996,518.144159,8734.430116
2497.934441,1838.629195,148.041188,8512.368333
2497.934770,2145.067394,-74.020594,8808.450710
2497.935099,2374.896044,-74.020594,8882.471304
2497.935429,2451.505594,-740.205942,8586.388927
2497.935758,1608.800546,-592.164754,8438.347739
2497.936087,1302.362347,-0.000000,9326.594869
2497.936416,995.924147,-0.000000,9178.553681
2497.936745,229.828649,666.185348,9326.594869
2497.937074,76.609550,370.102971,9770.718434
2497.937404,-459.657299,222.061783,9474.636058
2497.937733,-1838.629195,-0.000000,9252.574275
2497.938062,-995.924147,-370.102971,9400.615463
2497.938391,-1149.143247,-518.144159,9770.718434
2497.938720,-995.924147,-1258.350101,9252.574275
2497.939049,-1072.533697,-1628.453072,9770.718434
2497.939379,-689.485948,-962.267725,9696.697840
2497.939708,153.219100,-592.164754,9178.553681
2497.940037,76.609550,-0.000000,9400.615463
2497.940366,229.828649,814.226536,8586.388927
2497.940695,766.095498,1110.308913,8512.368333
2497.941024,1302.362347,1258.350101,8290.306550
2497.941354,1608.800546,740.205942,8068.244768
2497.941683,1685.410096,370.102971,8734.430116
2497.942012,0.000000,-0.000000,8882.471304
2497.942341,1225.752797,-518.144159,9104.533087
2497.942670,842.705048,-962.267725,9104.533087
2497.942999,612.876398,-1036.288319,9178.553681
2497.943329,229.828649,-1036.288319,9252.574275
2497.943658,0.000000,-518.144159,9474.636058
2497.943987,-612.876398,-370.102971,9474.636058
2497.944316,0.000000,-74.020594,9400.615463
2497.944645,-306.438199,666.185348,9400.615463
2497.944974,-689.485948,-0.000000,9030.512492
2497.945304,-536.266849,-296.082377,8956.491898
2497.945633,-919.314598,-518.144159,9178.553681
2497.945962,-919.314598,-888.247130,9474.636058
2497.946291,-612.876398,-1554.432478,9474.636058
2497.946620,-306.438199,-888.247130,9326.594869
2497.946949,0.000000,-592.164754,9326.594869
2497.947279,-383.047749,-74.020594,9474.636058
2497.947608,0.000000,518.144159,9030.512492
2497.947937,536.266849,814.226536,8586.388927
2497.948266,766.095498,1332.370696,8438.347739
2497.948595,995.924147,1036.288319,7920.203579
2497.948924,2757.943793,814.226536,8290.306550
2497.949254,2374.896044,-0.000000,8142.265362
2497.949583,2068.457845,-0.000000,8364.327145
2497.949912,1608.800546,-518.144159,8660.409521
2497.950241,1302.362347,-740.205942,9104.533087
2497.950570,1149.143247,-888.247130,9326.594869
2497.950899,1378.971896,-1036.288319,9178.553681
2497.951229,612.876398,-296.082377,9400.615463
2497.951558,76.609550,-0.000000,9622.677246
2497.951887,459.657299,222.061783,9178.553681
2497.952216,229.828649,296.082377,9104.533087
2497.952545,0.000000,296.082377,9104.533087
2497.952874,76.609550,-0.000000,9252.574275
2497.953204,-153.219100,-814.226536,9400.615463
2497.953533,-612.876398,-518.144159,9400.615463
2497.953862,-229.828649,-1110.308913,9548.656652
2497.954191,-76.609550,-1110.308913,9622.677246
2497.954520,-383.047749,-518.144159,9474.636058
2497.954849,0.000000,-0.000000,9474.636058
2497.955179,229.828649,-0.000000,9326.594869
2497.955508,766.095498,888.247130,9030.512492
2497.955837,1149.143247,1036.288319,8734.430116
2497.956166,1532.190996,740.205942,9030.512492
2497.956495,1532.190996,666.185348,8660.409521
2497.956824,2145.067394,-0.000000,8660.409521
2497.957154,2068.457845,-222.061783,8586.388927
2497.957483,1608.800546,-518.144159,8734.430116
2497.957812,1225.752797,-370.102971,8956.491898
2497.958141,1302.362347,-296.082377,9400.615463
2497.958470,459.657299,-370.102971,9178.553681
2497.958799,229.828649,-0.000000,9178.553681
2497.959129,-306.438199,222.061783,9104.533087
2497.959458,-689.485948,-0.000000,9252.574275
2497.959787,-919.314598,-0.000000,9178.553681
2497.960116,-1072.533697,-592.164754,9030.512492
2497.960445,-995.924147,-740.205942,9178.553681
2497.960774,-1072.533697,-1480.411884,9548.656652
2497.961104,-1225.752797,-1628.453072,9548.656652
2497.961433,-1072.533697,-1332.370696,9474.636058
2497.961762,-766.095498,-888.247130,9474.636058
2497.962091,-153.219100,-0.000000,8956.491898
2497.962420,76.609550,592.164754,8956.491898
2497.962750,689.485948,1628.453072,8438.347739
2497.963079,1225.752797,1480.411884,8290.306550
2497.963408,1225.752797,888.247130,7846.182985
2497.963737,1149.143247,962.267725,8142.265362
2497.964066,1532.190996,148.041188,8512.368333
2497.964396,689.485948,-444.123565,8586.388927
2497.964725,612.876398,-1184.329507,9326.594869
2497.965054,536.266849,-1184.329507,9770.718434
2497.965383,229.828649,-1702.473667,10140.821405
2497.965712,0.000000,-1702.473667,9770.718434
2497.966041,229.828649,-666.185348,9548.656652
2497.966371,536.266849,-148.041188,9400.615463
2497.966700,459.657299,444.123565,9030.512492
2497.967029,689.485948,666.185348,8956.491898
2497.967358,0.000000,592.164754,8586.388927
2497.967687,536.266849,148.041188,9030.512492
2497.968017,76.609550,370.102971,9252.574275
2497.968346,0.000000,-518.144159,9252.574275
2497.968675,-689.485948,-666.185348,9474.636058
2497.969004,-842.705048,-1110.308913,9548.656652
2497.969333,-995.924147,-592.164754,9696.697840
2497.969663,-383.047749,-296.082377,9474.636058
2497.969992,-229.828649,-0.000000,9474.636058
2497.970321,153.219100,740.205942,8956.491898
2497.970650,612.876398,888.247130,9178.553681
2497.970979,1685.410096,1036.288319,7846.182985
2497.971309,1915.238745,222.061783,9178.553681
2497.971638,2374.896044,-74.020594,8290.306550
2497.971967,2221.676944,-0.000000,8142.265362
2497.972296,2528.115143,-1332.370696,8734.430116
2497.972625,1608.800546,-296.082377,7994.224174
2497.972954,1532.190996,-0.000000,9474.636058
2497.973284,306.438199,-370.102971,9326.594869
2497.973613,459.657299,222.061783,8882.471304
2497.973942,-383.047749,-444.123565,9326.594869
2497.974271,-689.485948,148.041188,9474.636058
2497.974600,-1072.533697,-962.267725,9474.636058
2497.974930,-1685.410096,-1036.288319,9474.636058
2497.975259,-1991.848295,-814.226536,9770.718434
2497.975588,-1225.752797,-1480.411884,10066.800811
2497.975917,-1378.971896,-1998.556043,9474.636058
2497.976246,-919.314598,-1036.288319,9474.636058
2497.976576,0.000000,-1036.288319,9548.656652
2497.976905,0.000000,-0.000000,9548.656652
2497.977234,459.657299,-0.000000,8956.491898
2497.977563,76.609550,740.205942,8734.430116
2497.977892,842.705048,1702.473667,8512.368333
2497.978221,1072.533697,1184.329507,7994.224174
2497.978551,1072.533697,814.226536,8512.368333
2497.978880,1225.752797,-0.000000,8808.450710
2497.979209,1378.971896,-962.267725,8808.450710
2497.979538,995.924147,-1184.329507,9104.533087
2497.979867,612.876398,-1628.453072,8956.491898
2497.980197,383.047749,-1110.308913,9178.553681
2497.980526,383.047749,-888.247130,9178.553681
2497.980855,459.657299,-444.123565,9326.594869
2497.981184,689.485948,-0.000000,9104.533087
2497.981513,153.219100,666.185348,8956.491898
2497.981843,229.828649,518.144159,8956.491898
2497.982172,0.000000,962.267725,8882.471304
2497.982501,-153.219100,370.102971,9104.533087
2497.982830,-76.609550,-370.102971,8956.491898
2497.983159,-459.657299,-592.164754,9252.574275
2497.983488,-459.657299,-1480.411884,9622.677246
2497.983818,-766.095498,-1406.391290,9474.636058
2497.984147,-689.485948,-1036.288319,9548.656652
2497.984476,536.266849,-592.164754,9548.656652
2497.984805,306.438199,296.082377,8956.491898
2497.985134,1072.533697,740.205942,8808.450710
2497.985464,1455.581446,1184.329507,8512.368333
2497.985793,2374.896044,1184.329507,7698.141797
2497.986122,2528.115143,518.144159,8290.306550
2497.986451,2528.115143,-0.000000,8882.471304
2497.986780,2451.505594,-370.102971,8660.409521
2497.987110,1915.238745,-518.144159,8956.491898
2497.987439,1455.581446,-666.185348,9178.553681
2497.987768,919.314598,-666.185348,9474.636058
2497.988097,459.657299,-888.247130,9918.759623
2497.988426,153.219100,-888.247130,9548.656652
2497.988756,76.609550,-370.102971,9548.656652
2497.989085,0.000000,-222.061783,9474.636058
2497.989414,0.000000,-0.000000,9474.636058
2497.989743,-153.219100,-74.020594,9104.533087
2497.990072,-459.657299,-0.000000,9030.512492
2497.990401,0.000000,-666.185348,9400.615463
2497.990731,-459.657299,-1184.329507,8956.491898
2497.991060,153.219100,-592.164754,9622.677246
2497.991389,0.000000,-1036.288319,9326.594869
2497.991718,0.000000,-74.020594,8882.471304
2497.992047,0.000000,444.123565,9104.533087
2497.992377,0.000000,592.164754,9104.533087
2497.992706,0.000000,1184.329507,8808.450710
2497.993035,306.438199,666.185348,8586.388927
2497.993364,1302.362347,-0.000000,8364.327145
2497.993693,766.095498,-444.123565,8808.450710
2497.994023,1072.533697,-222.061783,8438.347739
2497.994352,1685.410096,-814.226536,8808.450710
2497.994681,1455.581446,-666.185348,8734.430116
2497.995010,1302.362347,-444.123565,8512.368333
2497.995339,1149.143247,-370.102971,8660.409521
2497.995668,919.314598,-0.000000,9178.553681
2497.995998,76.609550,-0.000000,9474.636058
2497.996327,153.219100,370.102971,9030.512492
2497.996656,-229.828649,-0.000000,9326.594869
2497.996985,-689.485948,-0.000000,9474.636058
2497.997314,-612.876398,-444.123565,9548.656652
2497.997644,-1072.533697,-1258.350101,9918.759623
2497.997973,-1991.848295,-1406.391290,9548.656652
2497.998302,-1302.362347,-1258.350101,10288.862594
2497.998631,-919.314598,-1406.391290,9918.759623
2497.998960,-995.924147,-1036.288319,9622.677246
2497.999290,-766.095498,-0.000000,9622.677246
2497.999619,0.000000,-74.020594,9400.615463
2497.999948,1302.362347,1184.329507,8216.285956
2498.000277,1838.629195,1480.411884,8142.265362
2498.000606,2221.676944,888.247130,8142.265362
2498.000935,2298.286494,592.164754,8290.306550
2498.001265,2221.676944,518.144159,8290.306550
2498.001594,1762.019645,-370.102971,8364.327145
2498.001923,1149.143247,-518.144159,9030.512492
2498.002252,766.095498,-1184.329507,9400.615463
2498.002581,306.438199,-666.185348,9622.677246
2498.002911,0.000000,-888.247130,9844.739029
2498.003240,0.000000,-222.061783,9400.615463
2498.003569,0.000000,222.061783,9474.636058
2498.003898,-306.438199,148.041188,9326.594869
2498.004227,0.000000,444.123565,8734.430116
2498.004557,76.609550,518.144159,9326.594869
2498.004886,-229.828649,-740.205942,9326.594869
2498.005215,-229.828649,-814.226536,8734.430116
2498.005544,-153.219100,-1036.288319,9104.533087
2498.005873,-306.438199,-1258.350101,9104.533087
2498.006203,-459.657299,-962.267725,9104.533087
2498.006532,-536.266849,-814.226536,9252.574275
2498.006861,-153.219100,-0.000000,9326.594869
2498.007190,383.047749,1184.329507,9178.553681
2498.007519,459.657299,1406.391290,8660.409521
2498.007848,0.000000,1110.308913,8734.430116
2498.008178,995.924147,148.041188,8882.471304
2498.008507,1149.143247,-0.000000,9104.533087
2498.008836,1378.971896,-0.000000,8808.450710
2498.009165,1532.190996,-740.205942,8882.471304
2498.009494,1685.410096,-592.164754,8956.491898
2498.009824,1685.410096,-444.123565,9326.594869
2498.010153,1455.581446,-592.164754,8956.491898
2498.010482,766.095498,-222.061783,9326.594869
2498.010811,689.485948,-518.144159,9400.615463
2498.011140,0.000000,-0.000000,9326.594869
2498.011470,-459.657299,-0.000000,9474.636058
2498.011799,-1302.362347,-222.061783,9474.636058
2498.012128,-1608.800546,-444.123565,9696.697840
2498.012457,-612.876398,-814.226536,9548.656652
2498.012786,-1455.581446,-814.226536,9548.656652
2498.013115,-1608.800546,-1036.288319,9992.780217
2498.013445,-766.095498,-814.226536,9474.636058
2498.013774,-536.266849,-0.000000,9178.553681
2498.014103,-153.219100,444.123565,8660.409521
2498.014432,612.876398,444.123565,8808.450710
2498.014761,1149.143247,1036.288319,8364.327145
2498.015091,1378.971896,1036.288319,7920.203579
2498.015420,1455.581446,814.226536,7698.141797
2498.015749,1455.581446,370.102971,8216.285956
2498.016078,1378.971896,-0.000000,8586.388927
2498.016407,1149.143247,-592.164754,9178.553681
2498.016737,383.047749,-1332.370696,8808.450710
2498.017066,766.095498,-1036.288319,9474.636058
2498.017395,689.485948,-1036.288319,9252.574275
2498.017724,153.219100,-296.082377,9622.677246
2498.018053,306.438199,-0.000000,9326.594869
2498.018382,229.828649,296.082377,9178.553681
2498.018712,0.000000,444.123565,8882.471304
2498.019041,-153.219100,370.102971,8438.347739
2498.019370,153.219100,-296.082377,8660.409521
2498.019699,-612.876398,-888.247130,9400.615463
2498.020028,-766.095498,-1406.391290,9326.594869
2498.020358,-1072.533697,-1924.535449,9474.636058
2498.020687,-919.314598,-1850.514855,9548.656652
2498.021016,-1225.752797,-1258.350101,9548.656652
2498.021345,-919.314598,-1110.308913,9992.780217
2498.021674,-689.485948,-296.082377,9696.697840
2498.022004,1225.752797,518.144159,9104.533087
2498.022333,995.924147,1332.370696,8808.450710
2498.022662,1532.190996,1332.370696,8216.285956
2498.022991,2068.457845,1406.391290,8142.265362
2498.023320,2451.505594,592.164754,7994.224174
2498.023650,2145.067394,-0.000000,8364.327145
2498.023979,1685.410096,-444.123565,8660.409521
2498.024308,1532.190996,-1406.391290,8586.388927
2498.024637,1225.752797,-1258.350101,9252.574275
2498.024966,766.095498,-1036.288319,9400.615463
2498.025295,383.047749,-740.205942,9474.636058
2498.025625,76.609550,-444.123565,9474.636058
2498.025954,459.657299,-0.000000,9474.636058
2498.026283,153.219100,666.185348,9104.533087
2498.026612,0.000000,592.164754,9474.636058
2498.026941,229.828649,296.082377,8808.450710
2498.027271,0.000000,222.061783,9178.553681
2498.027600,306.438199,148.041188,9104.533087
2498.027929,0.000000,-222.061783,9326.594869
2498.028258,-306.438199,-592.164754,9548.656652
2498.028587,76.609550,-148.041188,9104.533087
2498.028917,153.219100,-0.000000,9178.553681
2498.029246,153.219100,296.082377,8956.491898
2498.029575,459.657299,222.061783,8734.430116
2498.029904,612.876398,-0.000000,8734.430116
2498.030233,842.705048,-0.000000,8660.409521
2498.030562,919.314598,-222.061783,8808.450710
2498.030892,1608.800546,-444.123565,8512.368333
2498.031221,1685.410096,-296.082377,8808.450710
2498.031550,1685.410096,-666.185348,8956.491898
2498.031879,1302.362347,-296.082377,9400.615463
2498.032208,1378.971896,-0.000000,9104.533087
2498.032538,919.314598,370.102971,9252.574275
2498.032867,459.657299,-0.000000,9326.594869
2498.033196,0.000000,296.082377,9400.615463
2498.033525,0.000000,296.082377,9030.512492
2498.033854,-1302.362347,-222.061783,9400.615463
2498.034184,-1072.533697,-592.164754,9400.615463
2498.034513,-1455.581446,-1332.370696,9474.636058
2498.034842,-1608.800546,-1554.432478,9548.656652
2498.035171,-1915.238745,-1850.514855,9696.697840
2498.035500,-1532.190996,-1924.535449,9622.677246
2498.035829,-1991.848295,-1110.308913,9622.677246
2498.036159,-689.485948,-592.164754,9030.512492
2498.036488,0.000000,666.185348,9030.512492
2498.036817,766.095498,1332.370696,8586.388927
2498.037146,1225.752797,1628.453072,7920.203579
2498.037475,1685.410096,2146.597232,8216.285956
2498.037805,2374.896044,1184.329507,7994.224174
2498.038134,2068.457845,666.185348,7254.018232
2498.038463,1838.629195,222.061783,7920.203579
2498.038792,1149.143247,-1036.288319,8586.388927
2498.039121,919.314598,-1554.432478,8956.491898
2498.039451,536.266849,-1702.473667,9252.574275
2498.039780,229.828649,-1702.473667,9252.574275
2498.040109,-766.095498,-962.267725,9770.718434
2498.040438,229.828649,-666.185348,9770.718434
2498.040767,0.000000,-74.020594,8956.491898
2498.041097,0.000000,518.144159,9326.594869
2498.041426,153.219100,814.226536,9326.594869
2498.041755,0.000000,592.164754,9252.574275
2498.042084,0.000000,-0.000000,9548.656652
2498.042413,-689.485948,-444.123565,9474.636058
2498.042742,-153.219100,-888.247130,9400.615463
2498.043072,-306.438199,-1036.288319,9844.739029
2498.043401,-383.047749,-888.247130,9548.656652
2498.043730,-383.047749,-518.144159,9474.636058
2498.044059,76.609550,-74.020594,9178.553681
2498.044388,383.047749,444.123565,8808.450710
2498.044718,1378.971896,740.205942,8216.285956
2498.045047,1762.019645,962.267725,8956.491898
2498.045376,1302.362347,666.185348,8956.491898
2498.045705,2298.286494,444.123565,8586.388927
2498.046034,1838.629195,-0.000000,8956.491898
2498.046364,1302.362347,-0.000000,8882.471304
2498.046693,1225.752797,-74.020594,9400.615463
2498.047022,842.705048,-296.082377,9400.615463
2498.047351,306.438199,-296.082377,9696.697840
2498.047680,0.000000,-222.061783,9696.697840
2498.048009,76.609550,148.041188,9326.594869
2498.048339,-536.266849,296.082377,9178.553681
2498.048668,-689.485948,-296.082377,9178.553681
2498.048997,-153.219100,-296.082377,9030.512492
2498.049326,-306.438199,-888.247130,8808.450710
2498.049655,-766.095498,-1036.288319,8882.471304
2498.049985,-229.828649,-1184.329507,9326.594869
2498.050314,-766.095498,-1036.288319,9030.512492
2498.050643,-612.876398,-518.144159,9178.553681
2498.050972,-459.657299,-0.000000,9252.574275
2498.051301,-459.657299,-74.020594,8956.491898
2498.051631,0.000000,518.144159,8734.430116
2498.051960,0.000000,962.267725,8956.491898
2498.052289,306.438199,518.144159,8586.388927
2498.052618,459.657299,296.082377,8734.430116
2498.052947,536.266849,-296.082377,8808.450710
2498.053276,536.266849,-814.226536,8882.471304
2498.053606,306.438199,-1480.411884,8956.491898
2498.053935,766.095498,-1554.432478,9400.615463
2498.054264,1072.533697,-1406.391290,8956.491898
2498.054593,1149.143247,-962.267725,8734.430116
2498.054922,1149.143247,-666.185348,9104.533087
2498.055252,842.705048,-222.061783,9178.553681
2498.055581,612.876398,592.164754,8808.450710
2498.055910,0.000000,666.185348,8956.491898
2498.056239,-459.657299,666.185348,9178.553681
2498.056568,-612.876398,296.082377,9400.615463
2498.056898,-383.047749,-888.247130,9474.636058
2498.057227,-1072.533697,-1332.370696,9104.533087
2498.057556,-1532.190996,-1036.288319,9770.718434
2498.057885,-1149.143247,-1258.350101,9696.697840
2498.058213,-919.314598,-814.226536,9474.636058
2498.058542,-229.828649,-222.061783,9474.636058
2498.058871,459.657299,148.041188,9030.512492
2498.059200,1378.971896,962.267725,8364.327145
2498.059529,1915.238745,888.247130,8290.306550
2498.059858,2528.115143,1332.370696,7698.141797
2498.060187,3217.601092,1406.391290,8068.244768
2498.060516,2911.162892,814.226536,8068.244768
2498.060845,2374.896044,814.226536,8512.368333
2498.061174,2068.457845,-0.000000,8882.471304
2498.061503,1378.971896,-740.205942,9326.594869
2498.061832,1378.971896,-814.226536,9696.697840
2498.062161,919.314598,-1036.288319,9622.677246
2498.062490,306.438199,-370.102971,9696.697840
2498.062820,-306.438199,-222.061783,9474.636058
2498.063149,-229.828649,-148.041188,9474.636058
2498.063478,0.000000,-0.000000,9252.574275
2498.063807,0.000000,-222.061783,9178.553681
2498.064136,0.000000,-666.185348,8956.491898
2498.064465,153.219100,-1332.370696,9252.574275
2498.064794,-459.657299,-1184.329507,9400.615463
2498.065123,-306.438199,-814.226536,9548.656652
2498.065452,-536.266849,-740.205942,9474.636058
2498.065781,-536.266849,-222.061783,9548.656652
2498.066110,-229.828649,148.041188,9252.574275
2498.066439,-153.219100,666.185348,9178.553681
2498.066768,0.000000,666.185348,9104.533087
2498.067097,536.266849,1110.308913,8734.430116
2498.067426,689.485948,518.144159,8734.430116
2498.067755,1225.752797,-0.000000,8734.430116
2498.068085,1225.752797,-222.061783,8512.368333
2498.068414,1302.362347,-888.247130,8438.347739
2498.068743,1302.362347,-1110.308913,8882.471304
2498.069072,1149.143247,-962.267725,8882.471304
2498.069401,842.705048,-666.185348,8808.450710
2498.069730,842.705048,-148.041188,8882.471304
2498.070059,536.266849,-0.000000,9030.512492
2498.070388,383.047749,666.185348,8882.471304
2498.070717,153.219100,222.061783,8734.430116
2498.071046,0.000000,222.061783,9030.512492
2498.071375,-1685.410096,-0.000000,9548.656652
2498.071704,-1455.581446,-888.247130,9178.553681
2498.072033,-1225.752797,-1110.308913,9178.553681
2498.072362,-1302.362347,-1406.391290,9326.594869
2498.072691,-1072.533697,-1332.370696,9474.636058
2498.073020,-766.095498,-1184.329507,9474.636058
2498.073350,0.000000,-444.123565,9400.615463
2498.073679,76.609550,-148.041188,8660.409521
2498.074008,689.485948,592.164754,8438.347739
2498.074337,1378.971896,962.267725,8216.285956
2498.074666,1762.019645,740.205942,7846.182985
2498.074995,2068.457845,888.247130,8068.244768
2498.075324,2221.676944,-74.020594,8734.430116
2498.075653,1991.848295,-740.205942,8660.409521
2498.075982,766.095498,-74.020594,9548.656652
2498.076311,995.924147,-1850.514855,9622.677246
2498.076640,153.219100,-592.164754,8882.471304
2498.076969,306.438199,-296.082377,10214.842000
2498.077298,76.609550,-222.061783,9844.739029
2498.077627,306.438199,222.061783,9400.615463
2498.077956,0.000000,518.144159,9474.636058
2498.078286,0.000000,370.102971,8956.491898
2498.078615,0.000000,-0.000000,9400.615463
2498.078944,0.000000,-222.061783,9178.553681
2498.079273,-306.438199,-518.144159,9400.615463
2498.079602,-459.657299,-1110.308913,9548.656652
2498.079931,-766.095498,-1332.370696,9696.697840
2498.080260,-842.705048,-1036.288319,9622.677246
2498.080589,-229.828649,-592.164754,9770.718434
2498.080918,-306.438199,444.123565,9252.574275
2498.081247,0.000000,814.226536,9104.533087
2498.081576,536.266849,1480.411884,8808.450710
2498.081905,919.314598,1406.391290,8364.327145
2498.082234,1608.800546,518.144159,8364.327145
2498.082563,2068.457845,-0.000000,8364.327145
2498.082892,2068.457845,-0.000000,7846.182985
2498.083221,1762.019645,-518.144159,8364.327145
2498.083551,1378.971896,-888.247130,8586.388927
2498.083880,1149.143247,-592.164754,8956.491898
2498.084209,995.924147,-740.205942,8956.491898
2498.084538,919.314598,-740.205942,9400.615463
2498.084867,153.219100,-666.185348,9400.615463
2498.085196,0.000000,-222.061783,9326.594869
2498.085525,-766.095498,222.061783,9326.594869
2498.085854,-1072.533697,-0.000000,9474.636058
2498.086183,-1072.533697,-148.041188,9474.636058
2498.086512,-995.924147,-592.164754,9326.594869
2498.086841,-766.095498,-814.226536,9252.574275
2498.087170,-612.876398,-1406.391290,9178.553681
2498.087499,-842.705048,-888.247130,9622.677246
2498.087828,-689.485948,-814.226536,9326.594869
2498.088157,-306.438199,-222.061783,8956.491898
2498.088487,76.609550,296.082377,8808.450710
2498.088816,612.876398,814.226536,8586.388927
2498.089145,1225.752797,1036.288319,8512.368333
2498.089474,1149.143247,518.144159,8290.306550
2498.089803,1225.752797,222.061783,8734.430116
2498.090132,1072.533697,-74.020594,9104.533087
2498.090461,689.485948,-370.102971,8956.491898
2498.090790,689.485948,-740.205942,9326.594869
2498.091119,536.266849,-814.226536,9474.636058
2498.091448,536.266849,-592.164754,9622.677246
2498.091777,459.657299,-222.061783,9252.574275
2498.092106,842.705048,222.061783,9252.574275
2498.092435,689.485948,592.164754,9030.512492
2498.092764,766.095498,666.185348,8956.491898
2498.093093,229.828649,740.205942,8438.347739
2498.093422,306.438199,-74.020594,8290.306550
2498.093752,0.000000,-222.061783,8808.450710
2498.094081,-612.876398,-962.267725,9104.533087
2498.094410,-995.924147,-1480.411884,9474.636058
2498.094739,-1225.752797,-1554.432478,9622.677246
2498.095068,-1532.190996,-1480.411884,10140.821405
2498.095397,-1378.971896,-962.267725,9770.718434
2498.095726,-919.314598,-0.000000,9918.759623
2498.096055,0.000000,444.123565,9474.636058
2498.096384,383.047749,1110.308913,9178.553681
2498.096713,1225.752797,1110.308913,8808.450710
2498.097042,1762.019645,1036.288319,8364.327145
2498.097371,1302.362347,1110.308913,8734.430116
2498.097700,2681.334243,-0.000000,8956.491898
2498.098029,2451.505594,-0.000000,7994.224174
2498.098358,2298.286494,-444.123565,8438.347739
2498.098687,1915.238745,-592.164754,8956.491898
2498.099017,1225.752797,-814.226536,9252.574275
2498.099346,459.657299,-518.144159,9918.759623
2498.099675,383.047749,-444.123565,9252.574275
2498.100004,229.828649,148.041188,10288.862594
2498.100333,-459.657299,-0.000000,9696.697840
2498.100662,-995.924147,148.041188,9696.697840
2498.100991,-612.876398,-148.041188,10066.800811
2498.101320,-689.485948,-592.164754,9252.574275
2498.101649,-536.266849,-518.144159,9622.677246
2498.101978,-459.657299,-888.247130,8808.450710
2498.102307,459.657299,-444.123565,8956.491898
2498.102636,536.266849,-0.000000,8438.347739
2498.102965,612.876398,296.082377,8956.491898
2498.103294,1149.143247,222.061783,8512.368333
2498.103623,1302.362347,1480.411884,8142.265362
2498.103953,1838.629195,962.267725,8512.368333
2498.104282,1302.362347,444.123565,8068.244768
2498.104611,1838.629195,-0.000000,8586.388927
2498.104940,1302.362347,-296.082377,8956.491898
2498.105269,1149.143247,-518.144159,8808.450710
2498.105598,842.705048,-1036.288319,9178.553681
2498.105927,842.705048,-740.205942,9104.533087
2498.106256,383.047749,-962.267725,9474.636058
2498.106585,766.095498,-444.123565,9326.594869
2498.106914,1225.752797,-0.000000,8660.409521
2498.107243,995.924147,148.041188,8734.430116
2498.107572,689.485948,518.144159,8364.327145
2498.107901,229.828649,518.144159,8512.368333
2498.108230,0.000000,-444.123565,8808.450710
2498.108559,-919.314598,-1110.308913,9178.553681
2498.108888,-1455.581446,-888.247130,9474.636058
2498.109218,-1838.629195,-2294.638420,10214.842000
2498.109547,-1762.019645,-1850.514855,9918.759623
2498.109876,-1532.190996,-1406.391290,9992.780217
2498.110205,-1532.190996,-888.247130,10066.800811
2498.110534,-1072.533697,-74.020594,9474.636058
2498.110863,0.000000,370.102971,9474.636058
2498.111192,153.219100,1406.391290,8734.430116
2498.111521,1302.362347,1036.288319,8438.347739
2498.111850,1455.581446,1406.391290,7994.224174
2498.112179,1762.019645,888.247130,7772.162391
2498.112508,2298.286494,-0.000000,8142.265362
2498.112837,1991.848295,-518.144159,8216.285956
2498.113166,1685.410096,-1332.370696,8586.388927
2498.113495,1149.143247,-1776.494261,8956.491898
2498.113824,689.485948,-1184.329507,9326.594869
2498.114153,0.000000,-1110.308913,9622.677246
2498.114483,0.000000,-444.123565,9548.656652
2498.114812,-229.828649,296.082377,9770.718434
2498.115141,0.000000,592.164754,9178.553681
2498.115470,0.000000,666.185348,9400.615463
2498.115799,76.609550,-0.000000,9252.574275
2498.116128,-459.657299,-148.041188,9252.574275
2498.116457,-536.266849,-0.000000,9400.615463
2498.116786,-383.047749,-370.102971,9104.533087
2498.117115,-306.438199,-666.185348,9326.594869
2498.117444,-306.438199,-518.144159,9104.533087
2498.117773,306.438199,-296.082377,8956.491898
2498.118102,306.438199,-74.020594,9104.533087
2498.118431,689.485948,-0.000000,8660.409521
2498.118760,842.705048,370.102971,8660.409521
2498.119089,1225.752797,296.082377,8660.409521
2498.119419,1455.581446,370.102971,8808.450710
2498.119748,1838.629195,-0.000000,8808.450710
2498.120077,1378.971896,148.041188,9326.594869
2498.120406,1685.410096,-296.082377,9178.553681
2498.120735,1838.629195,-0.000000,9252.574275
2498.121064,1149.143247,222.061783,9252.574275
2498.121393,919.314598,-0.000000,9548.656652
2498.121722,459.657299,444.123565,9474.636058
2498.122051,229.828649,296.082377,9104.533087
2498.122380,76.609550,296.082377,9400.615463
2498.122709,-689.485948,-148.041188,9474.636058
2498.123038,0.000000,-1110.308913,8882.471304
2498.123367,-689.485948,-888.247130,9252.574275
2498.123696,-612.876398,-962.267725,9474.636058
2498.124025,-995.924147,-1036.288319,9400.615463
2498.124354,-919.314598,-1036.288319,9622.677246
2498.124684,-766.095498,-518.144159,9696.697840
2498.125013,-1455.581446,-0.000000,9844.739029
2498.125342,-459.657299,444.123565,9252.574275
2498.125671,153.219100,1036.288319,8808.450710
2498.126000,383.047749,1554.432478,8660.409521
2498.126329,1149.143247,1406.391290,7994.224174
2498.126658,1149.143247,962.267725,7920.203579
2498.126987,1455.581446,-0.000000,8216.285956
2498.127316,1455.581446,-666.185348,7624.121203
2498.127645,1302.362347,-1480.411884,8216.285956
2498.127974,689.485948,-1480.411884,8734.430116
2498.128303,536.266849,-1554.432478,8734.430116
2498.128632,383.047749,-1406.391290,9178.553681
2498.128961,76.609550,-666.185348,9326.594869
2498.129290,153.219100,-592.164754,9474.636058
2498.129619,-229.828649,-222.061783,8956.491898
2498.129949,-612.876398,-0.000000,9696.697840
2498.130278,-842.705048,-0.000000,9622.677246
2498.130607,-842.705048,-74.020594,9252.574275
2498.130936,-766.095498,-592.164754,9326.594869
2498.131265,-842.705048,-814.226536,9474.636058
2498.131594,-229.828649,-1110.308913,9178.553681
2498.131923,-153.219100,-1110.308913,9326.594869
2498.132252,-306.438199,-1184.329507,9178.553681
2498.132581,76.609550,-518.144159,8882.471304
2498.132910,229.828649,-148.041188,8660.409521
2498.133239,766.095498,222.061783,8512.368333
2498.133568,1378.971896,740.205942,8438.347739
2498.133897,1838.629195,814.226536,8512.368333
2498.134226,1608.800546,444.123565,8512.368333
2498.134555,1915.238745,-0.000000,8660.409521
2498.134885,1838.629195,-222.061783,8734.430116
2498.135214,1685.410096,-518.144159,9326.594869
2498.135543,919.314598,-740.205942,9400.615463
2498.135872,842.705048,-148.041188,9474.636058
2498.136201,995.924147,-0.000000,9400.615463
2498.136530,766.095498,-0.000000,9030.512492
2498.136859,1149.143247,518.144159,8660.409521
2498.137188,919.314598,148.041188,8512.368333
2498.137517,459.657299,370.102971,8364.327145
2498.137846,229.828649,-0.000000,8586.388927
2498.138175,0.000000,-296.082377,9030.512492
2498.138504,-306.438199,-740.205942,9622.677246
2498.138833,-689.485948,-1036.288319,9326.594869
2498.139162,-842.705048,-1184.329507,9622.677246
2498.139491,-612.876398,-666.185348,9992.780217
2498.139820,0.000000,-148.041188,9696.697840
2498.140150,-536.266849,592.164754,9548.656652
2498.140479,-153.219100,666.185348,9326.594869
2498.140808,459.657299,1184.329507,9326.594869
2498.141137,995.924147,962.267725,8734.430116
2498.141466,1302.362347,222.061783,8438.347739
2498.141795,1991.848295,296.082377,8438.347739
2498.142124,2451.505594,-814.226536,8438.347739
2498.142453,2451.505594,-666.185348,8290.306550
2498.142782,1762.019645,-666.185348,8438.347739
2498.143111,1532.190996,-814.226536,8512.368333
2498.143440,689.485948,-740.205942,9030.512492
2498.143769,0.000000,-296.082377,9622.677246
2498.144098,306.438199,-814.226536,9400.615463
2498.144427,-689.485948,-0.000000,9770.718434
2498.144756,-689.485948,-370.102971,9696.697840
2498.145086,-1302.362347,-0.000000,9696.697840
2498.145415,-1378.971896,-518.144159,9844.739029
2498.145744,-1378.971896,-518.144159,9474.636058
2498.146073,-1149.143247,-888.247130,9548.656652
2498.146402,-1302.362347,-1406.391290,9474.636058
2498.146731,-612.876398,-1406.391290,9178.553681
2498.147060,0.000000,-888.247130,9178.553681
2498.147389,0.000000,-222.061783,8808.450710
2498.147718,383.047749,296.082377,8290.306550
2498.148047,919.314598,518.144159,7920.203579
2498.148376,995.924147,666.185348,7698.141797
2498.148705,1532.190996,888.247130,8216.285956
2498.149034,1838.629195,296.082377,8068.244768
2498.149363,1455.581446,-74.020594,8290.306550
2498.149692,1378.971896,-148.041188,8734.430116
2498.150021,612.876398,-888.247130,8882.471304
2498.150351,536.266849,-1110.308913,9326.594869
2498.150680,153.219100,-1036.288319,9474.636058
2498.151009,-383.047749,-518.144159,9844.739029
2498.151338,689.485948,-296.082377,9326.594869
2498.151667,229.828649,518.144159,9104.533087
2498.151996,76.609550,370.102971,8734.430116
2498.152325,0.000000,444.123565,8734.430116
2498.152654,0.000000,-0.000000,8882.471304
2498.152983,-536.266849,-666.185348,9178.553681
2498.153312,-306.438199,-814.226536,9696.697840
2498.153641,-1072.533697,-888.247130,9844.739029
2498.153970,-1378.971896,-1036.288319,10140.821405
2498.154299,-1225.752797,-1036.288319,9770.718434
2498.154628,-689.485948,-444.123565,10362.883188
2498.154957,-306.438199,222.061783,9770.718434
2498.155286,153.219100,888.247130,9400.615463
2498.155616,919.314598,1406.391290,8882.471304
2498.155945,1378.971896,1110.308913,8290.306550
2498.156274,2145.067394,1480.411884,8364.327145
2498.156603,2298.286494,1036.288319,8364.327145
2498.156932,2451.505594,222.061783,8142.265362
2498.157261,2298.286494,-296.082377,8216.285956
2498.157590,1915.238745,-518.144159,8512.368333
2498.157919,1455.581446,-1110.308913,9178.553681
2498.158248,612.876398,-1332.370696,9696.697840
2498.158577,-306.438199,-1258.350101,9548.656652
2498.158906,-229.828649,-666.185348,9622.677246
2498.159235,-383.047749,-296.082377,9696.697840
2498.159564,-766.095498,-0.000000,9474.636058
2498.159893,-766.095498,-0.000000,9474.636058
2498.160222,-689.485948,-0.000000,9622.677246
2498.160552,-689.485948,-148.041188,8882.471304
2498.160881,-459.657299,-148.041188,9030.512492
2498.161210,-459.657299,-592.164754,8956.491898
2498.161539,0.000000,-518.144159,8734.430116
2498.161868,-229.828649,-740.205942,8734.430116
2498.162197,153.219100,-370.102971,8586.388927
2498.162526,229.828649,-74.020594,8660.409521
2498.162855,0.000000,-0.000000,8956.491898
2498.163184,76.609550,370.102971,8586.388927
2498.163513,689.485948,296.082377,8734.430116
2498.163842,766.095498,-148.041188,8956.491898
2498.164171,689.485948,-222.061783,8956.491898
2498.164500,766.095498,-370.102971,9252.574275
2498.164829,766.095498,-666.185348,9622.677246
2498.165158,1455.581446,-592.164754,9474.636058
2498.165487,1072.533697,-370.102971,9104.533087
2498.165817,842.705048,-0.000000,9030.512492
2498.166146,919.314598,296.082377,8734.430116
2498.166475,689.485948,592.164754,8512.368333
2498.166804,689.485948,740.205942,9030.512492
2498.167133,153.219100,-0.000000,9400.615463
2498.167462,0.000000,-592.164754,9030.512492
2498.167791,-1378.971896,-1036.288319,9326.594869
2498.168120,-1302.362347,-1406.391290,9696.697840
2498.168449,-1455.581446,-1480.411884,9918.759623
2498.168778,-1685.410096,-1332.370696,10288.862594
2498.169107,-1455.581446,-1036.288319,10288.862594
2498.169436,-1149.143247,-222.061783,9918.759623
2498.169765,0.000000,370.102971,9474.636058
2498.170094,842.705048,1184.329507,8882.471304
2498.170423,1225.752797,1702.473667,8364.327145
2498.170753,2374.896044,1924.535449,7846.182985
2498.171082,2528.115143,1628.453072,7254.018232
2498.171411,2451.505594,666.185348,7550.100608
2498.171740,2681.334243,370.102971,7624.121203
2498.172069,2374.896044,-518.144159,8290.306550
2498.172398,1838.629195,-518.144159,8956.491898
2498.172727,995.924147,-1406.391290,9178.553681
2498.173056,459.657299,-1332.370696,9548.656652
2498.173385,-153.219100,-1036.288319,10140.821405
2498.173714,229.828649,-888.247130,10140.821405
2498.174043,0.000000,-444.123565,9992.780217
2498.174372,-306.438199,296.082377,9474.636058
2498.174701,229.828649,296.082377,9844.739029
2498.175030,0.000000,-222.061783,9474.636058
2498.175359,0.000000,666.185348,9622.677246
2498.175688,612.876398,-740.205942,9178.553681
2498.176018,-229.828649,-444.123565,8068.244768
2498.176347,306.438199,-592.164754,9474.636058
2498.176676,0.000000,-592.164754,9104.533087
2498.177005,383.047749,-592.164754,8882.471304
2498.177334,0.000000,-296.082377,9252.574275
2498.177663,306.438199,-0.000000,8512.368333
2498.177992,0.000000,296.082377,8808.450710
2498.178321,689.485948,-148.041188,8808.450710
2498.178650,766.095498,-148.041188,8438.347739
2498.178979,1225.752797,-444.123565,9030.512492
2498.179308,1455.581446,-296.082377,9474.636058
2498.179637,1608.800546,-222.061783,8808.450710
2498.179966,1762.019645,-444.123565,9030.512492
2498.180295,1608.800546,-0.000000,8808.450710
2498.180624,1838.629195,-0.000000,8660.409521
2498.180954,1532.190996,444.123565,7994.224174
2498.181283,1532.190996,518.144159,8512.368333
2498.181612,995.924147,518.144159,8438.347739
2498.181941,153.219100,-0.000000,8216.285956
2498.182270,-612.876398,-222.061783,8734.430116
2498.182599,-1302.362347,-1110.308913,9474.636058
2498.182928,-1378.971896,-1628.453072,9622.677246
2498.183257,-1762.019645,-2220.617826,9844.739029
2498.183586,-1915.238745,-1850.514855,10214.842000
2498.183915,-1685.410096,-962.267725,10140.821405
2498.184244,-1302.362347,-740.205942,9992.780217
2498.184573,-383.047749,296.082377,9548.656652
2498.184902,0.000000,814.226536,9326.594869
2498.185231,536.266849,1480.411884,8216.285956
2498.185560,2068.457845,1406.391290,8142.265362
2498.185889,2374.896044,1332.370696,7994.224174
2498.186219,2604.724693,814.226536,7846.182985
2498.186548,2374.896044,370.102971,7624.121203
2498.186877,2145.067394,-296.082377,8734.430116
2498.187206,1302.362347,-1258.350101,8808.450710
2498.187535,229.828649,-1702.473667,9400.615463
2498.187864,-459.657299,-1850.514855,9992.780217
2498.188193,-842.705048,-1258.350101,9992.780217
2498.188522,-1378.971896,-1036.288319,10658.965565
2498.188851,-842.705048,-592.164754,10066.800811
2498.189180,-689.485948,-0.000000,9696.697840
2498.189509,-689.485948,296.082377,9844.739029
2498.189838,-229.828649,444.123565,9474.636058
2498.190167,0.000000,444.123565,9030.512492
2498.190496,153.219100,-0.000000,8956.491898
2498.190825,153.219100,-296.082377,8808.450710
2498.191155,306.438199,-370.102971,9178.553681
2498.191484,689.485948,-518.144159,8586.388927
2498.191813,612.876398,-0.000000,8882.471304
2498.192142,612.876398,-222.061783,8438.347739
2498.192471,383.047749,444.123565,8512.368333
2498.192800,536.266849,296.082377,8512.368333
2498.193129,536.266849,592.164754,8438.347739
2498.193458,1149.143247,-370.102971,8586.388927
2498.193787,689.485948,-444.123565,8512.368333
2498.194116,995.924147,-370.102971,8882.471304
2498.194445,1608.800546,-740.205942,8808.450710
2498.194774,1762.019645,-148.041188,8438.347739
2498.195103,1455.581446,-148.041188,8956.491898
2498.195432,1915.238745,444.123565,8882.471304
2498.195761,1915.238745,740.205942,8512.368333
2498.196090,1685.410096,-0.000000,7994.224174
2498.196420,919.314598,666.185348,8512.368333
2498.196749,76.609550,-74.020594,8882.471304
2498.197078,-536.266849,-370.102971,9178.553681
2498.197407,-919.314598,-888.247130,9474.636058
2498.197736,-1302.362347,-1406.391290,9770.718434
2498.198065,-1838.629195,-1554.432478,10214.842000
2498.198394,-1915.238745,-1480.411884,10510.924376
2498.198723,-1915.238745,-1406.391290,10066.800811
2498.199052,-1149.143247,-222.061783,9918.759623
2498.199381,-612.876398,-0.000000,9622.677246
2498.199710,76.609550,962.267725,9030.512492
2498.200039,919.314598,1480.411884,8512.368333
2498.200368,612.876398,1332.370696,8512.368333
2498.200697,2145.067394,1406.391290,7994.224174
2498.201026,1915.238745,1110.308913,7698.141797
2498.201356,1532.190996,-222.061783,8512.368333
2498.201685,1455.581446,-1184.329507,8882.471304
2498.202014,995.924147,-1776.494261,8882.471304
2498.202343,306.438199,-1776.494261,9474.636058
2498.202672,306.438199,-1702.473667,9474.636058
2498.203001,76.609550,-444.123565,9992.780217
2498.203330,-459.657299,-148.041188,9696.697840
2498.203659,-383.047749,370.102971,9474.636058
2498.203988,0.000000,370.102971,9178.553681
2498.204317,-153.219100,814.226536,8882.471304
2498.204646,0.000000,222.061783,8512.368333
2498.204975,0.000000,148.041188,8734.430116
2498.205304,0.000000,-814.226536,8882.471304
2498.205633,-612.876398,-592.164754,9030.512492
2498.205962,-766.095498,-1036.288319,9104.533087
2498.206291,-536.266849,-1332.370696,9104.533087
2498.206621,-689.485948,-1036.288319,9178.553681
2498.206950,-536.266849,-740.205942,9548.656652
2498.207279,76.609550,-370.102971,9030.512492
2498.207608,306.438199,222.061783,9104.533087
2498.207937,1149.143247,518.144159,8364.327145
2498.208266,1455.581446,962.267725,8216.285956
2498.208595,1838.629195,592.164754,8512.368333
2498.208924,2145.067394,-0.000000,8216.285956
2498.209253,2374.896044,222.061783,8216.285956
2498.209582,2221.676944,-888.247130,8660.409521
2498.209911,1991.848295,-370.102971,8586.388927
2498.210240,1072.533697,-0.000000,9178.553681
2498.210569,766.095498,-74.020594,9178.553681
2498.210898,0.000000,-74.020594,9178.553681
2498.211227,0.000000,-296.082377,9326.594869
