#time,accel_x,accel_y,accel_z
2641.690537,306.438199,-74.020594,8956.491898
2641.690867,229.828649,-0.000000,8734.430116
2641.691196,306.438199,-74.020594,9030.512492
2641.691525,76.609550,-518.144159,9104.533087
2641.691854,153.219100,-296.082377,9178.553681
2641.692183,229.828649,-296.082377,8882.471304
2641.692512,153.219100,-74.020594,9104.533087
2641.692841,306.438199,-148.041188,8882.471304
2641.693170,229.828649,-74.020594,9104.533087
2641.693500,76.609550,-74.020594,9104.533087
2641.693829,536.266849,-666.185348,9104.533087
2641.694158,229.828649,-444.123565,9030.512492
2641.694487,459.657299,-518.144159,9252.574275
2641.694816,383.047749,-148.041188,8956.491898
2641.695145,536.266849,-370.102971,9178.553681
2641.695474,306.438199,-222.061783,9178.553681
2641.695803,383.047749,-518.144159,9104.533087
2641.696133,306.438199,-444.123565,9400.615463
2641.696462,383.047749,-444.123565,8438.347739
2641.696791,612.876398,-296.082377,9400.615463
2641.697120,306.438199,-0.000000,9178.553681
2641.697449,229.828649,-222.061783,9104.533087
2641.697778,459.657299,-148.041188,9326.594869
2641.698107,76.609550,-222.061783,9178.553681
2641.698436,995.924147,-444.123565,9030.512492
2641.698766,919.314598,-148.041188,8808.450710
2641.699095,842.705048,-0.000000,9104.533087
2641.699424,383.047749,-0.000000,9178.553681
2641.699753,383.047749,-222.061783,8882.471304
2641.700082,229.828649,-0.000000,8956.491898
2641.700411,76.609550,-0.000000,8956.491898
2641.700740,383.047749,-222.061783,8956.491898
2641.701069,1149.143247,-148.041188,9178.553681
2641.701399,383.047749,-370.102971,9104.533087
2641.701728,306.438199,-0.000000,9030.512492
2641.702057,306.438199,-0.000000,8882.471304
2641.702386,229.828649,-0.000000,9030.512492
2641.702715,153.219100,-148.041188,8882.471304
2641.703044,153.219100,-0.000000,9104.533087
2641.703373,229.828649,-0.000000,8882.471304
2641.703702,459.657299,-0.000000,8660.409521
2641.704032,383.047749,-222.061783,8956.491898
2641.704361,306.438199,-0.000000,9030.512492
2641.704690,383.047749,-148.041188,8956.491898
2641.705019,459.657299,-444.123565,8956.491898
2641.705348,383.047749,-296.082377,8882.471304
2641.705677,459.657299,-0.000000,9474.636058
2641.706006,842.705048,-148.041188,9326.594869
2641.706336,306.438199,-444.123565,9104.533087
2641.706665,229.828649,-74.020594,9252.574275
2641.706994,459.657299,-148.041188,9178.553681
2641.707323,229.828649,-222.061783,9252.574275
2641.707652,229.828649,-296.082377,9400.615463
2641.707981,229.828649,-370.102971,9030.512492
2641.708310,612.876398,-222.061783,9252.574275
2641.708639,306.438199,-148.041188,9178.553681
2641.708969,383.047749,-222.061783,9104.533087
2641.709298,306.438199,-74.020594,9030.512492
2641.709627,306.438199,-444.123565,9178.553681
2641.709956,306.438199,296.082377,8808.450710
2641.710285,0.000000,-148.041188,9474.636058
2641.710614,383.047749,-444.123565,9030.512492
2641.710943,229.828649,-74.020594,9104.533087
2641.711272,76.609550,-74.020594,9030.512492
2641.711602,229.828649,-148.041188,8956.491898
2641.711931,536.266849,-0.000000,8956.491898
2641.712260,689.485948,-296.082377,9030.512492
2641.712589,459.657299,-0.000000,8882.471304
2641.712918,612.876398,-74.020594,8956.491898
2641.713247,229.828649,-0.000000,8882.471304
2641.713576,459.657299,-0.000000,9030.512492
2641.713905,383.047749,-74.020594,8882.471304
2641.714235,229.828649,-222.061783,8956.491898
2641.714564,153.219100,-222.061783,9178.553681
2641.714893,383.047749,-370.102971,8142.265362
2641.715222,459.657299,-148.041188,9178.553681
2641.715551,459.657299,-296.082377,9104.533087
2641.715880,229.828649,-0.000000,9178.553681
2641.716209,153.219100,-74.020594,9030.512492
2641.716538,459.657299,-148.041188,9178.553681
2641.716868,-459.657299,-148.041188,9400.615463
2641.717197,459.657299,-370.102971,9326.594869
2641.717526,612.876398,-666.185348,9326.594869
2641.717855,459.657299,-148.041188,9178.553681
2641.718184,229.828649,-222.061783,9252.574275
2641.718513,76.609550,-296.082377,9104.533087
2641.718842,306.438199,-296.082377,9326.594869
2641.719171,383.047749,-222.061783,9474.636058
2641.719501,229.828649,740.205942,9696.697840
2641.719830,76.609550,-148.041188,9474.636058
2641.720159,459.657299,-0.000000,9252.574275
2641.720488,383.047749,-74.020594,8956.491898
2641.720817,459.657299,-0.000000,9178.553681
2641.721146,459.657299,-0.000000,9252.574275
2641.721475,306.438199,-0.000000,9104.533087
2641.721805,229.828649,-148.041188,8808.450710
2641.722134,842.705048,-222.061783,9178.553681
2641.722463,229.828649,-148.041188,8808.450710
2641.722792,536.266849,-518.144159,9030.512492
2641.723121,536.266849,-74.020594,9252.574275
2641.723450,306.438199,-0.000000,8956.491898
2641.723779,536.266849,-518.144159,9400.615463
2641.724108,1378.971896,-1110.308913,9400.615463
2641.724438,1532.190996,-740.205942,9474.636058
2641.724767,1762.019645,-592.164754,9622.677246
2641.725096,2604.724693,-444.123565,9030.512492
2641.725425,2987.772442,-0.000000,8512.368333
2641.725754,3753.867940,370.102971,8734.430116
2641.726083,4290.134789,-0.000000,8290.306550
2641.726412,3294.210641,518.144159,8290.306550
2641.726741,3447.429741,148.041188,8290.306550
2641.727071,3064.381992,-0.000000,8512.368333
2641.727400,3140.991542,-444.123565,9400.615463
2641.727729,2374.896044,-740.205942,9104.533087
2641.728058,1225.752797,-962.267725,9844.739029
2641.728387,1762.019645,-2294.638420,10066.800811
2641.728716,2451.505594,-1406.391290,9474.636058
2641.729045,2451.505594,-370.102971,9696.697840
2641.729374,3294.210641,-1332.370696,10140.821405
2641.729704,4213.525239,-148.041188,9178.553681
2641.730033,4903.011187,1036.288319,9548.656652
2641.730362,5592.497135,962.267725,7105.977043
2641.730691,4826.401637,1628.453072,8512.368333
2641.731020,5209.449386,1406.391290,9104.533087
2641.731349,4136.915689,1850.514855,7550.100608
2641.731678,3600.648841,740.205942,9326.594869
2641.732007,3064.381992,-148.041188,8882.471304
2641.732337,2145.067394,-0.000000,9400.615463
2641.732666,1149.143247,-1406.391290,9992.780217
2641.732995,919.314598,-1332.370696,9696.697840
2641.733324,995.924147,-1406.391290,10288.862594
2641.733653,842.705048,-1480.411884,9696.697840
2641.733982,2451.505594,-518.144159,9548.656652
2641.734311,2451.505594,-74.020594,10140.821405
2641.734640,2987.772442,1036.288319,7476.080014
2641.734970,4290.134789,740.205942,9474.636058
2641.735299,4749.792088,1702.473667,7772.162391
2641.735628,4596.572988,1184.329507,7994.224174
2641.735957,4826.401637,1110.308913,8512.368333
2641.736286,4060.306139,-74.020594,8882.471304
2641.736615,3370.820191,-444.123565,8734.430116
2641.736944,3064.381992,-2072.576638,9548.656652
2641.737273,2145.067394,-1776.494261,9844.739029
2641.737603,1838.629195,-2072.576638,10362.883188
2641.737932,1838.629195,-1998.556043,9844.739029
2641.738261,2068.457845,-1924.535449,10214.842000
2641.738590,3064.381992,-740.205942,9992.780217
2641.738919,3524.039291,-222.061783,8734.430116
2641.739248,3294.210641,962.267725,8290.306550
2641.739577,4596.572988,1924.535449,8364.327145
2641.739907,4826.401637,2812.782580,7772.162391
2641.740236,4826.401637,2590.720797,7402.059420
2641.740565,4519.963438,2442.679609,7846.182985
2641.740894,3753.867940,1258.350101,7994.224174
2641.741223,2374.896044,-0.000000,8882.471304
2641.741552,2374.896044,-1480.411884,9548.656652
2641.741881,1915.238745,-2368.659014,10214.842000
2641.742210,1532.190996,-3182.885551,10436.903782
2641.742540,1685.410096,-3256.906145,10881.027347
2641.742869,2528.115143,-2664.741391,10510.924376
2641.743198,3753.867940,-1776.494261,9844.739029
2641.743527,4979.620737,-0.000000,9770.718434
2641.743856,5975.544884,1110.308913,8882.471304
2641.744185,6052.154434,2146.597232,8438.347739
2641.744514,5669.106685,2960.823768,7994.224174
2641.744843,4903.011187,3701.029710,7402.059420
2641.745173,4290.134789,3627.009116,6957.935855
2641.745502,4213.525239,2368.659014,6883.915261
2641.745831,2987.772442,962.267725,7550.100608
2641.746160,1225.752797,-2442.679609,9918.759623
2641.746489,-383.047749,-3775.050304,10658.965565
2641.746818,-766.095498,-4441.235652,11547.212695
2641.747147,-766.095498,-4885.359217,11029.068536
2641.747476,-459.657299,-2072.576638,10214.842000
2641.747806,689.485948,-1628.453072,11177.109724
2641.748135,1072.533697,148.041188,9696.697840
2641.748464,3217.601092,222.061783,11843.295072
2641.748793,6052.154434,1184.329507,8512.368333
2641.749122,7584.345430,1924.535449,7698.141797
2641.749451,5898.935335,962.267725,8142.265362
2641.749780,5898.935335,1628.453072,6661.853478
2641.750109,5822.325785,3330.926739,7698.141797
2641.750439,4903.011187,1776.494261,7105.977043
2641.750768,4826.401637,3034.844362,5551.544565
2641.751097,4826.401637,2738.761985,6661.853478
2641.751426,4903.011187,296.082377,6365.771101
2641.751755,1608.800546,-3552.988522,9326.594869
2641.752084,-383.047749,-7698.141797,12805.562797
2641.752413,-1149.143247,-3627.009116,11399.171507
2641.752742,-1302.362347,-5921.647536,14137.933492
2641.753072,-1915.238745,-4145.153275,11399.171507
2641.753401,229.828649,222.061783,11695.253884
2641.753730,2681.334243,148.041188,11843.295072
2641.754059,4596.572988,2220.617826,9104.533087
2641.754388,7201.297681,666.185348,9252.574275
2641.754717,7660.954980,1406.391290,9178.553681
2641.755046,7584.345430,3108.864956,6661.853478
2641.755375,6741.640382,4293.194464,5329.482782
2641.755705,6971.469032,1480.411884,5773.606348
2641.756034,7124.688131,3330.926739,5033.400406
2641.756363,7277.907231,1702.473667,7105.977043
2641.756692,4366.744339,1258.350101,6069.688724
2641.757021,3907.087040,1628.453072,5847.626942
2641.757350,995.924147,-2664.741391,9844.739029
2641.757679,-1532.190996,-6883.915261,12435.459826
2641.758009,-2604.724693,-814.226536,11177.109724
2641.758338,-1072.533697,-4515.256246,13397.727550
2641.758667,-1532.190996,-3923.091493,9992.780217
2641.758996,842.705048,2294.638420,12731.542202
2641.759325,2528.115143,-74.020594,9918.759623
2641.759654,0.000000,1480.411884,10584.944971
2641.759983,6205.373534,-1184.329507,10436.903782
2641.760312,9269.755526,2220.617826,5181.441594
2641.760642,7584.345430,1332.370696,8216.285956
2641.760971,5822.325785,962.267725,6069.688724
2641.761300,7201.297681,1258.350101,5921.647536
2641.761629,6052.154434,1406.391290,7624.121203
2641.761958,6128.763984,1924.535449,4367.215058
2641.762287,4519.963438,2960.823768,8956.491898
2641.762616,2298.286494,444.123565,6513.812290
2641.762945,2145.067394,-1110.308913,10807.006753
2641.763275,0.000000,-2812.782580,10732.986159
2641.763604,459.657299,-2812.782580,10362.883188
2641.763933,-1149.143247,-2146.597232,12583.501014
2641.764262,-689.485948,-4811.338623,12583.501014
2641.764591,-1608.800546,518.144159,10362.883188
2641.764920,1838.629195,-740.205942,11103.089130
2641.765249,1378.971896,2664.741391,8438.347739
2641.765578,4290.134789,888.247130,8364.327145
2641.765908,5132.839837,1110.308913,7846.182985
2641.766237,4519.963438,962.267725,7328.038826
2641.766566,3907.087040,2072.576638,7031.956449
2641.766895,2987.772442,-518.144159,6957.935855
2641.767224,2987.772442,-666.185348,7772.162391
2641.767553,1072.533697,-1184.329507,8734.430116
2641.767882,383.047749,-1628.453072,10584.944971
2641.768211,-1455.581446,-1036.288319,9178.553681
2641.768541,-766.095498,-740.205942,10214.842000
2641.768870,-306.438199,1184.329507,8734.430116
2641.769199,-383.047749,-0.000000,9770.718434
2641.769528,-612.876398,-0.000000,10140.821405
2641.769857,536.266849,-222.061783,8438.347739
2641.770186,766.095498,1332.370696,8586.388927
2641.770515,919.314598,1110.308913,7846.182985
2641.770844,919.314598,-814.226536,9104.533087
2641.771173,842.705048,-2146.597232,9548.656652
2641.771502,919.314598,-1110.308913,8734.430116
2641.771831,-612.876398,-666.185348,8216.285956
2641.772160,0.000000,-222.061783,9474.636058
2641.772488,153.219100,-666.185348,8956.491898
2641.772817,0.000000,-1480.411884,9770.718434
2641.773146,0.000000,-444.123565,9178.553681
2641.773475,229.828649,222.061783,9548.656652
2641.773804,459.657299,-74.020594,9622.677246
2641.774133,76.609550,370.102971,9178.553681
2641.774462,1532.190996,-296.082377,9178.553681
2641.774791,1915.238745,666.185348,8956.491898
2641.775120,2374.896044,1036.288319,8586.388927
2641.775448,2068.457845,-0.000000,8956.491898
2641.775777,1378.971896,-148.041188,9178.553681
2641.776106,1225.752797,-1110.308913,9918.759623
2641.776435,2451.505594,-222.061783,9326.594869
2641.776764,2528.115143,-0.000000,8512.368333
2641.777093,1685.410096,-444.123565,8068.244768
2641.777422,842.705048,-592.164754,9252.574275
2641.777751,919.314598,-222.061783,9622.677246
2641.778080,1378.971896,1184.329507,8216.285956
2641.778408,1225.752797,1702.473667,9030.512492
2641.778737,-459.657299,1110.308913,9844.739029
2641.779066,-995.924147,-74.020594,9622.677246
2641.779395,-1532.190996,-222.061783,9326.594869
2641.779724,-383.047749,-0.000000,8290.306550
2641.780053,-229.828649,-148.041188,8660.409521
2641.780382,-1149.143247,-666.185348,9178.553681
2641.780711,-1149.143247,-1406.391290,10362.883188
2641.781040,-689.485948,-1924.535449,10140.821405
2641.781368,0.000000,-1184.329507,8808.450710
2641.781697,229.828649,-444.123565,9326.594869
2641.782026,0.000000,-0.000000,8956.491898
2641.782355,383.047749,666.185348,8734.430116
2641.782684,1685.410096,1036.288319,8216.285956
2641.783013,2298.286494,1702.473667,7698.141797
2641.783342,1149.143247,962.267725,7476.080014
2641.783671,-383.047749,-148.041188,10066.800811
2641.784000,-306.438199,-444.123565,9252.574275
2641.784328,-1608.800546,444.123565,8142.265362
2641.784657,-842.705048,-1258.350101,10214.842000
2641.784986,-2834.553343,-962.267725,8956.491898
2641.785315,-1685.410096,-1702.473667,10214.842000
2641.785644,-1915.238745,-1554.432478,9030.512492
2641.785973,383.047749,-814.226536,9252.574275
2641.786302,306.438199,-2072.576638,9400.615463
2641.786631,-612.876398,-370.102971,9326.594869
2641.786960,-1225.752797,-2146.597232,10584.944971
2641.787288,0.000000,-1554.432478,10732.986159
2641.787617,1455.581446,-0.000000,8216.285956
2641.787946,1685.410096,1406.391290,8882.471304
2641.788275,1991.848295,518.144159,8142.265362
2641.788604,2451.505594,1554.432478,8364.327145
2641.788933,3370.820191,1776.494261,7772.162391
2641.789262,2834.553343,2146.597232,6661.853478
2641.789591,1915.238745,592.164754,7550.100608
2641.789920,-383.047749,-666.185348,8882.471304
2641.790249,-612.876398,-740.205942,9770.718434
2641.790577,-995.924147,-1258.350101,9474.636058
2641.790906,-306.438199,-1554.432478,9474.636058
2641.791235,-1072.533697,-1036.288319,9770.718434
2641.791564,-1532.190996,-814.226536,9770.718434
2641.791893,-842.705048,-962.267725,9696.697840
2641.792222,536.266849,-444.123565,9326.594869
2641.792551,766.095498,-0.000000,9104.533087
2641.792880,-459.657299,962.267725,9696.697840
2641.793209,-536.266849,-1332.370696,11103.089130
2641.793537,1072.533697,-296.082377,9030.512492
2641.793866,2757.943793,1258.350101,8290.306550
2641.794195,2298.286494,1332.370696,7624.121203
2641.794524,1685.410096,1406.391290,7698.141797
2641.794853,1225.752797,1036.288319,9326.594869
2641.795182,2451.505594,740.205942,8216.285956
2641.795511,1608.800546,666.185348,8068.244768
2641.795840,-153.219100,-1258.350101,9400.615463
2641.796169,-1762.019645,-1628.453072,9548.656652
2641.796497,-1838.629195,-1110.308913,11251.130318
2641.796826,-1072.533697,-1406.391290,9844.739029
2641.797155,383.047749,-666.185348,9770.718434
2641.797484,-383.047749,444.123565,10362.883188
2641.797813,-1302.362347,518.144159,9696.697840
2641.798142,-383.047749,-518.144159,10214.842000
2641.798471,612.876398,-0.000000,9474.636058
2641.798800,919.314598,666.185348,8956.491898
2641.799129,766.095498,-444.123565,8586.388927
2641.799457,0.000000,-1924.535449,10140.821405
2641.799786,306.438199,-222.061783,9474.636058
2641.800115,1608.800546,666.185348,8290.306550
2641.800444,1225.752797,-0.000000,8142.265362
2641.800773,536.266849,-0.000000,8512.368333
2641.801102,76.609550,-0.000000,9400.615463
2641.801431,536.266849,444.123565,8808.450710
2641.801760,1838.629195,-444.123565,8512.368333
2641.802089,306.438199,-740.205942,8882.471304
2641.802417,-995.924147,-370.102971,9252.574275
2641.802746,-766.095498,-1184.329507,9548.656652
2641.803075,-306.438199,-592.164754,9252.574275
2641.803404,229.828649,-0.000000,9178.553681
2641.803733,-536.266849,444.123565,9030.512492
2641.804062,-1302.362347,-592.164754,9548.656652
2641.804391,-536.266849,-74.020594,9178.553681
2641.804720,1608.800546,-74.020594,9252.574275
2641.805049,919.314598,-0.000000,8438.347739
2641.805377,229.828649,-888.247130,8364.327145
2641.805706,306.438199,-1332.370696,8882.471304
2641.806035,1915.238745,-74.020594,8364.327145
2641.806364,2681.334243,1184.329507,7698.141797
2641.806693,1685.410096,-370.102971,8512.368333
2641.807022,1149.143247,-222.061783,9326.594869
2641.807351,536.266849,-0.000000,8882.471304
2641.807680,842.705048,296.082377,8364.327145
2641.808009,766.095498,-222.061783,8068.244768
2641.808337,-459.657299,-1258.350101,9770.718434
2641.808666,-1225.752797,-962.267725,10288.862594
2641.808995,-612.876398,-518.144159,10066.800811
2641.809324,-229.828649,-444.123565,9622.677246
2641.809653,76.609550,-0.000000,9622.677246
2641.809982,-383.047749,296.082377,9252.574275
2641.810311,-766.095498,-740.205942,9992.780217
2641.810640,536.266849,-444.123565,9030.512492
2641.810969,1685.410096,-296.082377,8882.471304
2641.811297,1838.629195,-222.061783,7994.224174
2641.811626,1762.019645,370.102971,8142.265362
2641.811955,1378.971896,-370.102971,9030.512492
2641.812284,1685.410096,296.082377,8364.327145
2641.812613,2374.896044,1036.288319,8438.347739
2641.812942,1225.752797,740.205942,9104.533087
2641.813271,536.266849,518.144159,9326.594869
2641.813600,-383.047749,-148.041188,9844.739029
2641.813929,0.000000,-148.041188,9474.636058
2641.814257,0.000000,-0.000000,9030.512492
2641.814586,-689.485948,-666.185348,9326.594869
2641.814915,-1608.800546,-888.247130,9474.636058
2641.815244,-1455.581446,-1776.494261,10732.986159
2641.815573,0.000000,-962.267725,9178.553681
2641.815902,153.219100,-370.102971,9030.512492
2641.816231,-842.705048,-592.164754,9474.636058
2641.816560,-1149.143247,-666.185348,9474.636058
2641.816889,0.000000,-444.123565,9474.636058
2641.817217,1302.362347,518.144159,7920.203579
2641.817546,1991.848295,370.102971,8142.265362
2641.817875,842.705048,-222.061783,8512.368333
2641.818204,1072.533697,-814.226536,9696.697840
2641.818533,1455.581446,-74.020594,9326.594869
2641.818862,1685.410096,666.185348,8142.265362
2641.819191,1149.143247,-0.000000,8956.491898
2641.819520,0.000000,-0.000000,9326.594869
2641.819849,153.219100,-148.041188,9400.615463
2641.820177,306.438199,-518.144159,8586.388927
2641.820506,1378.971896,-0.000000,8734.430116
2641.820835,612.876398,-518.144159,8734.430116
2641.821164,-766.095498,-518.144159,9178.553681
2641.821493,-842.705048,-1036.288319,10288.862594
2641.821822,383.047749,-296.082377,8808.450710
2641.822151,0.000000,962.267725,8882.471304
2641.822480,-766.095498,444.123565,8956.491898
2641.822809,-689.485948,-518.144159,9992.780217
2641.823137,766.095498,-0.000000,10066.800811
2641.823466,995.924147,1110.308913,7772.162391
2641.823795,1838.629195,296.082377,8882.471304
2641.824124,536.266849,-370.102971,8956.491898
2641.824453,919.314598,296.082377,9474.636058
2641.824782,1838.629195,-0.000000,8882.471304
2641.825111,2298.286494,592.164754,7846.182985
2641.825440,76.609550,222.061783,9104.533087
2641.825769,0.000000,-0.000000,9622.677246
2641.826098,-536.266849,-962.267725,9104.533087
2641.826426,306.438199,-0.000000,8290.306550
2641.826755,612.876398,-222.061783,8734.430116
2641.827084,-689.485948,-592.164754,9400.615463
2641.827413,-2451.505594,-1480.411884,9918.759623
2641.827742,-1149.143247,-1406.391290,9918.759623
2641.828071,-612.876398,-592.164754,8734.430116
2641.828400,0.000000,-148.041188,9178.553681
2641.828729,-995.924147,-222.061783,9030.512492
2641.829058,-1072.533697,-370.102971,9770.718434
2641.829386,-536.266849,-962.267725,10288.862594
2641.829715,1685.410096,-444.123565,7994.224174
2641.830044,1149.143247,-148.041188,8216.285956
2641.830373,383.047749,-814.226536,8808.450710
2641.830702,536.266849,-1184.329507,9030.512492
2641.831031,1455.581446,-0.000000,8882.471304
2641.831360,1455.581446,444.123565,7624.121203
2641.831689,1762.019645,444.123565,9474.636058
2641.832018,0.000000,-592.164754,9326.594869
2641.832346,76.609550,-0.000000,9400.615463
2641.832675,1378.971896,-222.061783,9178.553681
2641.833004,842.705048,148.041188,7328.038826
2641.833333,-306.438199,-74.020594,9178.553681
2641.833662,-306.438199,-1702.473667,10214.842000
2641.833991,-306.438199,-1406.391290,9474.636058
2641.834320,153.219100,-814.226536,8364.327145
2641.834649,536.266849,-296.082377,8734.430116
2641.834978,-383.047749,296.082377,9548.656652
2641.835306,-689.485948,-814.226536,9474.636058
2641.835635,766.095498,518.144159,8808.450710
2641.835964,1838.629195,444.123565,8586.388927
2641.836293,2068.457845,1110.308913,8142.265362
2641.836622,1685.410096,-370.102971,9030.512492
2641.836951,842.705048,-444.123565,9548.656652
2641.837280,1838.629195,296.082377,8586.388927
2641.837609,2298.286494,-0.000000,9178.553681
2641.837938,1072.533697,-0.000000,9326.594869
2641.838266,766.095498,296.082377,9326.594869
2641.838595,229.828649,-518.144159,9474.636058
2641.838924,536.266849,-222.061783,8808.450710
2641.839253,1378.971896,-148.041188,9548.656652
2641.839582,-306.438199,-444.123565,9474.636058
2641.839911,-1302.362347,-740.205942,9770.718434
2641.840240,-842.705048,-1184.329507,10066.800811
2641.840569,229.828649,370.102971,8512.368333
2641.840898,229.828649,-74.020594,9400.615463
2641.841226,-689.485948,-0.000000,9696.697840
2641.841555,-1149.143247,-444.123565,9622.677246
2641.841884,-536.266849,296.082377,9696.697840
2641.842213,842.705048,1036.288319,8734.430116
2641.842542,842.705048,444.123565,8438.347739
2641.842871,383.047749,-370.102971,9474.636058
2641.843200,919.314598,-592.164754,9326.594869
2641.843529,1302.362347,-296.082377,8808.450710
2641.843858,1302.362347,296.082377,8142.265362
2641.844186,1378.971896,148.041188,8364.327145
2641.844515,229.828649,592.164754,8956.491898
2641.844844,0.000000,296.082377,8882.471304
2641.845173,306.438199,370.102971,8142.265362
2641.845502,766.095498,222.061783,8142.265362
2641.845831,0.000000,-0.000000,8808.450710
2641.846160,-1455.581446,-1332.370696,9548.656652
2641.846489,-1302.362347,-1184.329507,9992.780217
2641.846818,-383.047749,-444.123565,8808.450710
2641.847146,0.000000,-370.102971,8882.471304
2641.847475,-689.485948,222.061783,8808.450710
2641.847804,-995.924147,-814.226536,9844.739029
2641.848133,-612.876398,-1036.288319,9178.553681
2641.848462,842.705048,-0.000000,8882.471304
2641.848791,612.876398,-370.102971,8586.388927
2641.849120,-229.828649,-1332.370696,9326.594869
2641.849449,0.000000,-1036.288319,9918.759623
2641.849778,919.314598,-296.082377,8734.430116
2641.850106,2604.724693,592.164754,7920.203579
2641.850435,2221.676944,962.267725,7846.182985
2641.850764,1302.362347,296.082377,8882.471304
2641.851093,229.828649,-0.000000,9326.594869
2641.851422,1225.752797,-370.102971,8586.388927
2641.851751,919.314598,148.041188,8586.388927
2641.852080,-383.047749,-1110.308913,8882.471304
2641.852409,-2145.067394,-1332.370696,9844.739029
2641.852738,-1302.362347,-444.123565,10510.924376
2641.853066,229.828649,-1036.288319,9178.553681
2641.853395,0.000000,-74.020594,9030.512492
2641.853724,-689.485948,-74.020594,9548.656652
2641.854053,-612.876398,-518.144159,10214.842000
2641.854382,536.266849,-0.000000,9400.615463
2641.854711,1991.848295,666.185348,7698.141797
2641.855040,2911.162892,666.185348,8364.327145
2641.855369,1685.410096,814.226536,8808.450710
2641.855698,1608.800546,-0.000000,9474.636058
2641.856026,2451.505594,592.164754,8882.471304
2641.856355,2451.505594,592.164754,7846.182985
2641.856684,1455.581446,296.082377,8882.471304
2641.857013,-306.438199,-0.000000,9400.615463
2641.857342,153.219100,-222.061783,9696.697840
2641.857671,459.657299,-296.082377,8956.491898
2641.858000,536.266849,-370.102971,8882.471304
2641.858329,-459.657299,-814.226536,9696.697840
2641.858658,-1225.752797,-740.205942,10807.006753
2641.858986,-612.876398,-1332.370696,10214.842000
2641.859315,459.657299,-0.000000,8364.327145
2641.859644,1302.362347,518.144159,9030.512492
2641.859973,-383.047749,592.164754,9252.574275
2641.860302,-842.705048,-222.061783,9844.739029
2641.860631,0.000000,296.082377,9474.636058
2641.860960,842.705048,-0.000000,8290.306550
2641.861289,842.705048,444.123565,8734.430116
2641.861618,0.000000,-962.267725,9178.553681
2641.861947,-536.266849,-740.205942,10140.821405
2641.862275,0.000000,-518.144159,9918.759623
2641.862604,766.095498,-0.000000,8956.491898
2641.862933,306.438199,-148.041188,9178.553681
2641.863262,-459.657299,370.102971,9474.636058
2641.863591,-306.438199,-444.123565,9844.739029
2641.863920,1072.533697,666.185348,8364.327145
2641.864249,1608.800546,296.082377,7920.203579
2641.864578,766.095498,296.082377,8734.430116
2641.864907,0.000000,-814.226536,9178.553681
2641.865235,76.609550,-592.164754,9178.553681
2641.865564,383.047749,-74.020594,8438.347739
2641.865893,306.438199,-370.102971,8734.430116
2641.866222,-536.266849,-222.061783,9622.677246
2641.866551,-1455.581446,-888.247130,9992.780217
2641.866880,-536.266849,-888.247130,9548.656652
2641.867209,229.828649,-0.000000,8586.388927
2641.867538,536.266849,-0.000000,8512.368333
2641.867867,153.219100,-740.205942,9770.718434
2641.868195,459.657299,-666.185348,9474.636058
2641.868524,1762.019645,-148.041188,7920.203579
2641.868853,2681.334243,-0.000000,7698.141797
2641.869182,1302.362347,-0.000000,7994.224174
2641.869511,1072.533697,296.082377,8808.450710
2641.869840,919.314598,-0.000000,8734.430116
2641.870169,1915.238745,148.041188,8216.285956
2641.870498,1762.019645,740.205942,8512.368333
2641.870827,842.705048,222.061783,8956.491898
2641.871156,0.000000,-814.226536,9696.697840
2641.871485,-306.438199,-814.226536,9178.553681
2641.871814,459.657299,-666.185348,8734.430116
2641.872142,0.000000,-1110.308913,8956.491898
2641.872471,-1762.019645,-296.082377,9326.594869
2641.872800,-1532.190996,-1406.391290,10732.986159
2641.873129,-689.485948,-962.267725,9474.636058
2641.873458,306.438199,-222.061783,8660.409521
2641.873787,689.485948,-74.020594,9696.697840
2641.874116,536.266849,-1110.308913,8956.491898
2641.874445,306.438199,-296.082377,10140.821405
2641.874774,1455.581446,296.082377,8882.471304
2641.875103,1532.190996,444.123565,8512.368333
2641.875432,1685.410096,740.205942,8586.388927
2641.875761,766.095498,1184.329507,9474.636058
2641.876089,0.000000,-74.020594,9400.615463
2641.876418,919.314598,666.185348,8512.368333
2641.876747,766.095498,444.123565,8660.409521
2641.877076,-229.828649,-592.164754,9252.574275
2641.877405,-1532.190996,-1036.288319,9622.677246
2641.877734,-1378.971896,-1406.391290,9844.739029
2641.878063,-1072.533697,-962.267725,8882.471304
2641.878392,-1532.190996,-518.144159,9548.656652
2641.878721,-1608.800546,-74.020594,9178.553681
2641.879050,-1991.848295,-592.164754,10288.862594
2641.879379,-919.314598,-74.020594,9844.739029
2641.879708,383.047749,666.185348,8586.388927
2641.880037,536.266849,-0.000000,9104.533087
2641.880365,383.047749,-222.061783,9474.636058
2641.880694,995.924147,-518.144159,9104.533087
2641.881023,2068.457845,296.082377,9178.553681
2641.881352,2604.724693,1036.288319,7624.121203
2641.881681,2451.505594,1258.350101,8660.409521
2641.882010,1608.800546,962.267725,8586.388927
2641.882339,1991.848295,962.267725,8734.430116
2641.882668,2604.724693,888.247130,7550.100608
2641.882997,1915.238745,296.082377,8068.244768
2641.883326,306.438199,-814.226536,9178.553681
2641.883655,-766.095498,-1480.411884,10140.821405
2641.883984,-536.266849,-1850.514855,9918.759623
2641.884313,-383.047749,-1554.432478,9622.677246
2641.884641,-766.095498,-1036.288319,10140.821405
2641.884970,-1378.971896,-666.185348,10066.800811
2641.885299,-766.095498,-1110.308913,10584.944971
2641.885628,536.266849,-518.144159,9474.636058
2641.885957,1302.362347,592.164754,8512.368333
2641.886286,1762.019645,296.082377,8512.368333
2641.886615,1608.800546,-0.000000,8290.306550
2641.886944,2221.676944,-888.247130,9030.512492
2641.887273,2528.115143,666.185348,8438.347739
2641.887602,2681.334243,1036.288319,7698.141797
2641.887931,1685.410096,370.102971,8142.265362
2641.888260,842.705048,-74.020594,8808.450710
2641.888589,383.047749,-0.000000,8882.471304
2641.888917,306.438199,-370.102971,8512.368333
2641.889246,229.828649,-296.082377,9104.533087
2641.889575,-459.657299,-444.123565,9178.553681
2641.889904,-1838.629195,-1406.391290,9548.656652
2641.890233,-919.314598,-1184.329507,9770.718434
2641.890562,-229.828649,-518.144159,9104.533087
2641.890891,-153.219100,370.102971,8512.368333
2641.891220,-1149.143247,222.061783,8956.491898
2641.891549,-919.314598,-740.205942,8956.491898
2641.891878,459.657299,-74.020594,8512.368333
2641.892207,1225.752797,-0.000000,8216.285956
2641.892536,766.095498,-0.000000,7920.203579
2641.892865,229.828649,-666.185348,9400.615463
2641.893193,229.828649,-1036.288319,9696.697840
2641.893522,842.705048,-222.061783,7994.224174
2641.893851,766.095498,666.185348,9252.574275
2641.894180,306.438199,-74.020594,9474.636058
2641.894509,-153.219100,-74.020594,9696.697840
2641.894838,-229.828649,-74.020594,9548.656652
2641.895167,306.438199,-0.000000,8512.368333
2641.895496,995.924147,-148.041188,8068.244768
2641.895825,-153.219100,-592.164754,8956.491898
2641.896154,-1225.752797,-1406.391290,9178.553681
2641.896483,-612.876398,-1406.391290,9992.780217
2641.896812,229.828649,-74.020594,7994.224174
2641.897141,153.219100,-518.144159,8734.430116
2641.897469,-689.485948,148.041188,9844.739029
2641.897798,-689.485948,-518.144159,9770.718434
2641.898127,153.219100,-0.000000,9474.636058
2641.898456,1149.143247,666.185348,8956.491898
2641.898785,995.924147,370.102971,9252.574275
2641.899114,459.657299,148.041188,9474.636058
2641.899443,536.266849,-0.000000,10066.800811
2641.899772,919.314598,1406.391290,9474.636058
2641.900101,2451.505594,444.123565,8586.388927
2641.900430,919.314598,444.123565,8438.347739
2641.900759,612.876398,888.247130,9696.697840
2641.901088,1072.533697,-518.144159,9178.553681
2641.901417,1225.752797,-0.000000,8438.347739
2641.901745,1455.581446,-296.082377,8586.388927
2641.902074,995.924147,-222.061783,8808.450710
2641.902403,229.828649,-740.205942,8290.306550
2641.902732,689.485948,-518.144159,9474.636058
2641.903061,766.095498,-0.000000,8808.450710
2641.903390,536.266849,-0.000000,8438.347739
2641.903719,-153.219100,296.082377,9548.656652
2641.904048,0.000000,-74.020594,9992.780217
2641.904377,383.047749,-444.123565,9326.594869
2641.904706,1378.971896,-0.000000,7994.224174
2641.905035,1302.362347,222.061783,9030.512492
2641.905364,306.438199,-370.102971,8882.471304
2641.905693,536.266849,-592.164754,9474.636058
2641.906021,842.705048,-0.000000,8734.430116
2641.906350,1225.752797,-0.000000,8586.388927
2641.906679,153.219100,-148.041188,8808.450710
2641.907008,-612.876398,-592.164754,9548.656652
2641.907337,-229.828649,-444.123565,9696.697840
2641.907666,536.266849,-0.000000,8512.368333
2641.907995,689.485948,-0.000000,8290.306550
2641.908324,-153.219100,-518.144159,9548.656652
2641.908653,-612.876398,-444.123565,9918.759623
2641.908982,-995.924147,-518.144159,9326.594869
2641.909311,612.876398,148.041188,9326.594869
2641.909640,153.219100,666.185348,8882.471304
2641.909969,-1149.143247,-74.020594,9548.656652
2641.910297,-1378.971896,-888.247130,9474.636058
2641.910626,-919.314598,-666.185348,8956.491898
2641.910955,0.000000,-370.102971,8808.450710
2641.911284,536.266849,-222.061783,8586.388927
2641.911613,-536.266849,-592.164754,9474.636058
2641.911942,-995.924147,-1258.350101,10362.883188
2641.912271,0.000000,-444.123565,9400.615463
2641.912600,612.876398,666.185348,8512.368333
2641.912929,229.828649,666.185348,8882.471304
2641.913258,-229.828649,370.102971,9400.615463
2641.913587,1685.410096,-0.000000,9548.656652
2641.913916,1302.362347,888.247130,8512.368333
2641.914245,1991.848295,296.082377,7846.182985
2641.914573,1225.752797,444.123565,8216.285956
2641.914902,459.657299,-296.082377,9252.574275
2641.915231,459.657299,-666.185348,9474.636058
2641.915560,919.314598,-666.185348,8586.388927
2641.915889,1072.533697,-296.082377,9104.533087
2641.916218,-383.047749,-666.185348,9622.677246
2641.916547,-919.314598,-1406.391290,10066.800811
2641.916876,-306.438199,-666.185348,9474.636058
2641.917205,536.266849,-444.123565,8808.450710
2641.917534,536.266849,-0.000000,8734.430116
2641.917863,689.485948,-814.226536,9474.636058
2641.918192,689.485948,-222.061783,9844.739029
2641.918521,1149.143247,-0.000000,9104.533087
2641.918849,2068.457845,888.247130,8882.471304
2641.919178,1532.190996,666.185348,8512.368333
2641.919507,1225.752797,370.102971,8956.491898
2641.919836,1072.533697,1184.329507,8290.306550
2641.920165,1838.629195,592.164754,8882.471304
2641.920494,2221.676944,-444.123565,9178.553681
2641.920823,689.485948,-592.164754,8660.409521
2641.921152,-153.219100,-1332.370696,10140.821405
2641.921481,-383.047749,-1406.391290,8808.450710
2641.921810,76.609550,-0.000000,8660.409521
2641.922139,0.000000,-0.000000,10214.842000
2641.922468,-1149.143247,-518.144159,9696.697840
2641.922797,-1072.533697,-222.061783,9992.780217
2641.923125,0.000000,-370.102971,9178.553681
2641.923454,536.266849,444.123565,8142.265362
2641.923783,383.047749,-370.102971,8586.388927
2641.924112,-153.219100,-814.226536,9474.636058
2641.924441,76.609550,-592.164754,9104.533087
2641.924770,1378.971896,-148.041188,8734.430116
2641.925099,383.047749,518.144159,8290.306550
2641.925428,1225.752797,148.041188,9178.553681
2641.925757,459.657299,-296.082377,9474.636058
2641.926086,383.047749,-444.123565,8660.409521
2641.926415,1455.581446,-0.000000,8068.244768
2641.926744,1225.752797,-0.000000,8512.368333
2641.927073,306.438199,148.041188,8364.327145
2641.927401,-229.828649,-1036.288319,9622.677246
2641.927730,0.000000,-740.205942,9326.594869
2641.928059,0.000000,592.164754,8290.306550
2641.928388,0.000000,222.061783,9474.636058
2641.928717,-995.924147,-0.000000,9622.677246
2641.929046,-1149.143247,-666.185348,10140.821405
2641.929375,-536.266849,-814.226536,9400.615463
2641.929704,76.609550,296.082377,8142.265362
2641.930033,689.485948,-222.061783,8956.491898
2641.930362,-383.047749,-1332.370696,9030.512492
2641.930691,0.000000,-814.226536,10510.924376
2641.931020,919.314598,-740.205942,9252.574275
2641.931349,1532.190996,296.082377,7846.182985
2641.931677,1072.533697,370.102971,8290.306550
2641.932006,919.314598,444.123565,9622.677246
2641.932335,1302.362347,-592.164754,8882.471304
2641.932664,1685.410096,1036.288319,7105.977043
2641.932993,1455.581446,666.185348,8290.306550
2641.933322,459.657299,-0.000000,8956.491898
2641.933651,-229.828649,-814.226536,9548.656652
2641.933980,-612.876398,-740.205942,9474.636058
2641.934309,689.485948,-370.102971,8734.430116
2641.934638,-306.438199,296.082377,9474.636058
2641.934967,-1302.362347,-74.020594,8956.491898
2641.935296,-1149.143247,-740.205942,9992.780217
2641.935625,-306.438199,-740.205942,9178.553681
2641.935953,842.705048,222.061783,8216.285956
2641.936282,1608.800546,-0.000000,8438.347739
2641.936611,689.485948,-666.185348,8660.409521
2641.936940,689.485948,-74.020594,9474.636058
2641.937269,2528.115143,-370.102971,8660.409521
2641.937598,1532.190996,666.185348,7772.162391
2641.937927,1378.971896,592.164754,9104.533087
2641.938256,766.095498,518.144159,9104.533087
2641.938585,0.000000,-148.041188,9400.615463
2641.938914,383.047749,518.144159,8512.368333
2641.939243,459.657299,-592.164754,8956.491898
2641.939572,-995.924147,-814.226536,9474.636058
2641.939901,-1378.971896,-1258.350101,9548.656652
2641.940229,-229.828649,-1406.391290,9918.759623
2641.940558,-689.485948,-0.000000,8438.347739
2641.940887,-153.219100,-74.020594,9178.553681
2641.941216,-995.924147,-148.041188,9548.656652
2641.941545,-536.266849,-888.247130,9770.718434
2641.941874,842.705048,-666.185348,9474.636058
2641.942203,1378.971896,-0.000000,8068.244768
2641.942532,1225.752797,148.041188,9030.512492
2641.942861,995.924147,-444.123565,9030.512492
2641.943190,842.705048,-148.041188,9326.594869
2641.943519,1608.800546,222.061783,9104.533087
2641.943848,1838.629195,1332.370696,8290.306550
2641.944177,842.705048,296.082377,9104.533087
2641.944505,306.438199,-444.123565,9252.574275
2641.944834,766.095498,-0.000000,9104.533087
2641.945163,766.095498,-222.061783,8660.409521
2641.945492,689.485948,-0.000000,8660.409521
2641.945821,0.000000,-444.123565,8882.471304
2641.946150,-1072.533697,-1258.350101,9474.636058
2641.946479,-153.219100,-1406.391290,9770.718434
2641.946808,0.000000,296.082377,8734.430116
2641.947137,76.609550,-0.000000,8438.347739
2641.947466,-766.095498,-148.041188,9548.656652
2641.947795,-459.657299,-222.061783,9844.739029
2641.948124,536.266849,296.082377,9030.512492
2641.948453,1532.190996,444.123565,7994.224174
2641.948781,1532.190996,-0.000000,8290.306550
2641.949110,1378.971896,222.061783,9326.594869
2641.949439,1685.410096,-518.144159,9030.512492
2641.949768,1149.143247,-0.000000,7846.182985
2641.950097,1225.752797,370.102971,8512.368333
2641.950426,612.876398,-148.041188,9252.574275
2641.950755,-766.095498,-296.082377,9548.656652
2641.951084,0.000000,-1036.288319,9770.718434
2641.951413,0.000000,-0.000000,9030.512492
2641.951742,229.828649,-444.123565,8512.368333
2641.952071,-306.438199,-74.020594,9326.594869
2641.952400,-1072.533697,-1184.329507,9992.780217
2641.952729,-689.485948,-592.164754,10214.842000
2641.953057,0.000000,444.123565,8364.327145
2641.953386,-459.657299,370.102971,9252.574275
2641.953715,-1225.752797,-592.164754,9844.739029
2641.954044,-689.485948,-148.041188,9474.636058
2641.954373,229.828649,-148.041188,9178.553681
2641.954702,842.705048,592.164754,7698.141797
2641.955031,766.095498,-148.041188,8438.347739
2641.955360,0.000000,-518.144159,9326.594869
2641.955689,76.609550,-666.185348,9992.780217
2641.956018,766.095498,-148.041188,9178.553681
2641.956347,1378.971896,222.061783,8364.327145
2641.956676,689.485948,296.082377,9178.553681
2641.957005,0.000000,-0.000000,9400.615463
2641.957333,-383.047749,-148.041188,9326.594869
2641.957662,842.705048,-0.000000,8438.347739
2641.957991,1149.143247,-370.102971,7624.121203
2641.958320,459.657299,-592.164754,8808.450710
2641.958649,-306.438199,-1110.308913,9622.677246
2641.958978,0.000000,-814.226536,8956.491898
2641.959307,689.485948,-0.000000,8438.347739
2641.959636,689.485948,518.144159,8734.430116
2641.959965,-536.266849,148.041188,9696.697840
2641.960294,-1072.533697,-888.247130,10140.821405
2641.960623,459.657299,370.102971,9696.697840
2641.960952,1608.800546,-74.020594,8734.430116
2641.961281,1378.971896,-0.000000,8660.409521
2641.961609,612.876398,-518.144159,9474.636058
2641.961938,842.705048,-666.185348,9992.780217
2641.962267,1915.238745,-296.082377,8734.430116
2641.962596,2145.067394,-74.020594,8586.388927
2641.962925,689.485948,-222.061783,9474.636058
2641.963254,-383.047749,-74.020594,9178.553681
2641.963583,-306.438199,148.041188,8882.471304
2641.963912,1149.143247,-1184.329507,9400.615463
2641.964241,1149.143247,666.185348,7994.224174
2641.964570,0.000000,-814.226536,9104.533087
2641.964899,76.609550,-666.185348,9992.780217
2641.965228,-612.876398,296.082377,10140.821405
2641.965556,919.314598,-0.000000,9770.718434
2641.965885,536.266849,148.041188,8882.471304
2641.966214,-383.047749,-296.082377,8956.491898
2641.966543,-1072.533697,-222.061783,9104.533087
2641.966872,842.705048,444.123565,8882.471304
2641.967201,995.924147,-370.102971,8808.450710
2641.967530,842.705048,-222.061783,8586.388927
2641.967859,536.266849,-296.082377,8956.491898
2641.968188,229.828649,-1332.370696,9178.553681
2641.968517,919.314598,370.102971,8068.244768
2641.968846,1608.800546,-0.000000,8364.327145
2641.969175,306.438199,518.144159,8512.368333
2641.969504,0.000000,222.061783,9252.574275
2641.969832,0.000000,-0.000000,8808.450710
2641.970161,0.000000,-222.061783,9104.533087
2641.970490,919.314598,-296.082377,8882.471304
2641.970819,0.000000,-518.144159,7994.224174
2641.971148,-1225.752797,-814.226536,9918.759623
2641.971477,-689.485948,-888.247130,9770.718434
2641.971806,0.000000,-0.000000,9252.574275
2641.972135,0.000000,-0.000000,9696.697840
2641.972464,-1225.752797,-444.123565,9844.739029
2641.972793,-1532.190996,-888.247130,9844.739029
2641.973122,-383.047749,-74.020594,9178.553681
2641.973451,306.438199,1036.288319,8216.285956
2641.973780,766.095498,-0.000000,8734.430116
2641.974109,-612.876398,-1628.453072,9474.636058
2641.974438,-459.657299,-1036.288319,10140.821405
2641.974767,689.485948,-0.000000,9326.594869
2641.975096,689.485948,222.061783,7254.018232
2641.975425,689.485948,148.041188,9400.615463
2641.975754,0.000000,-74.020594,10214.842000
2641.976083,0.000000,-444.123565,9400.615463
2641.976412,1608.800546,-148.041188,9400.615463
2641.976741,1072.533697,-0.000000,8364.327145
2641.977070,306.438199,-0.000000,9252.574275
2641.977399,76.609550,-1110.308913,10066.800811
2641.977728,229.828649,-222.061783,8882.471304
2641.978057,383.047749,-148.041188,8660.409521
2641.978386,536.266849,222.061783,9252.574275
2641.978715,-459.657299,-148.041188,9400.615463
2641.979044,-153.219100,-740.205942,9992.780217
2641.979373,459.657299,-74.020594,8364.327145
2641.979702,1072.533697,-0.000000,7994.224174
2641.980031,1302.362347,296.082377,8734.430116
2641.980360,842.705048,-148.041188,9030.512492
2641.980689,1378.971896,-740.205942,9400.615463
2641.981018,2221.676944,814.226536,8068.244768
2641.981347,2068.457845,592.164754,8290.306550
2641.981676,1225.752797,296.082377,9104.533087
2641.982005,306.438199,296.082377,9474.636058
2641.982334,842.705048,296.082377,9474.636058
2641.982663,1532.190996,592.164754,8438.347739
2641.982992,842.705048,148.041188,8660.409521
2641.983321,76.609550,-592.164754,9178.553681
2641.983650,-1302.362347,-1776.494261,9992.780217
2641.983979,-689.485948,-1554.432478,9474.636058
2641.984308,-766.095498,-370.102971,8290.306550
2641.984637,-842.705048,-666.185348,9696.697840
2641.984966,-1838.629195,-666.185348,9992.780217
2641.985295,-1532.190996,-1110.308913,10066.800811
2641.985624,-536.266849,-740.205942,10066.800811
2641.985953,689.485948,-0.000000,9178.553681
2641.986282,995.924147,-222.061783,9252.574275
2641.986611,153.219100,-518.144159,9548.656652
2641.986940,689.485948,-148.041188,9252.574275
2641.987269,1838.629195,296.082377,8734.430116
2641.987598,2374.896044,1258.350101,8216.285956
2641.987927,1225.752797,592.164754,8660.409521
2641.988256,459.657299,-74.020594,9178.553681
2641.988585,459.657299,-222.061783,9400.615463
2641.988914,995.924147,-296.082377,8734.430116
2641.989243,76.609550,-148.041188,8142.265362
2641.989572,-1225.752797,-1480.411884,9696.697840
2641.989901,-2068.457845,-2072.576638,10436.903782
2641.990230,-995.924147,-1406.391290,9844.739029
2641.990559,-383.047749,-222.061783,8512.368333
2641.990888,-306.438199,-518.144159,9326.594869
2641.991217,-919.314598,-74.020594,9696.697840
2641.991546,-995.924147,-296.082377,10066.800811
2641.991875,842.705048,-0.000000,8586.388927
2641.992204,2604.724693,814.226536,7920.203579
2641.992533,2145.067394,592.164754,7772.162391
2641.992862,2145.067394,-0.000000,8882.471304
2641.993191,2298.286494,-444.123565,8882.471304
2641.993520,2528.115143,518.144159,8068.244768
2641.993848,2911.162892,1406.391290,7550.100608
2641.994177,1762.019645,740.205942,8734.430116
2641.994506,306.438199,-148.041188,9474.636058
2641.994835,229.828649,-888.247130,9548.656652
2641.995164,383.047749,-666.185348,8956.491898
2641.995493,612.876398,-444.123565,8364.327145
2641.995822,0.000000,-888.247130,9918.759623
2641.996151,-1532.190996,-1554.432478,10732.986159
2641.996480,-919.314598,-1406.391290,9696.697840
2641.996809,76.609550,-0.000000,8808.450710
2641.997138,383.047749,-74.020594,9326.594869
2641.997467,-383.047749,-0.000000,10140.821405
2641.997796,153.219100,-444.123565,10066.800811
2641.998125,1455.581446,296.082377,8882.471304
2641.998454,2451.505594,1036.288319,7920.203579
2641.998783,2451.505594,592.164754,8364.327145
2641.999112,1762.019645,-0.000000,8956.491898
2641.999441,1838.629195,-296.082377,9400.615463
2641.999770,1225.752797,222.061783,8734.430116
2642.000099,1225.752797,666.185348,9252.574275
2642.000428,0.000000,-0.000000,9844.739029
2642.000757,-1685.410096,-296.082377,9696.697840
2642.001086,-1302.362347,-0.000000,9326.594869
2642.001415,-153.219100,-0.000000,8808.450710
2642.001744,0.000000,-74.020594,8438.347739
2642.002073,-689.485948,-74.020594,8882.471304
2642.002402,-1225.752797,-740.205942,10881.027347
2642.002731,-995.924147,-1628.453072,9622.677246
2642.003060,76.609550,740.205942,8142.265362
2642.003389,0.000000,-0.000000,7920.203579
2642.003718,-1455.581446,-148.041188,9030.512492
2642.004047,-612.876398,-814.226536,10807.006753
2642.004376,76.609550,-666.185348,8734.430116
2642.004705,1608.800546,222.061783,7994.224174
2642.005034,1225.752797,-1036.288319,8364.327145
2642.005363,76.609550,-666.185348,9326.594869
2642.005692,153.219100,-296.082377,9400.615463
2642.006021,1455.581446,592.164754,8216.285956
2642.006350,1072.533697,962.267725,8068.244768
2642.006679,689.485948,-148.041188,9178.553681
2642.007008,0.000000,-0.000000,9622.677246
2642.007337,-383.047749,-370.102971,9252.574275
2642.007666,306.438199,-814.226536,8734.430116
2642.007995,459.657299,-444.123565,8956.491898
2642.008324,-383.047749,-962.267725,9474.636058
2642.008653,-995.924147,-1628.453072,10140.821405
2642.008982,383.047749,-1332.370696,10140.821405
2642.009311,536.266849,-1110.308913,8364.327145
2642.009640,306.438199,-0.000000,9178.553681
2642.009969,0.000000,-0.000000,9770.718434
2642.010298,76.609550,-444.123565,9474.636058
2642.010627,1378.971896,148.041188,9104.533087
2642.010956,2911.162892,740.205942,7994.224174
2642.011285,2221.676944,814.226536,7254.018232
2642.011614,1378.971896,444.123565,9696.697840
2642.011943,1455.581446,-0.000000,9178.553681
2642.012272,1685.410096,592.164754,8142.265362
2642.012601,1302.362347,1110.308913,8882.471304
2642.012930,459.657299,592.164754,8586.388927
2642.013259,-842.705048,-444.123565,10214.842000
2642.013588,0.000000,-1406.391290,9844.739029
2642.013917,842.705048,-222.061783,9030.512492
2642.014246,842.705048,-814.226536,8586.388927
2642.014575,0.000000,-518.144159,8290.306550
2642.014904,0.000000,-222.061783,10214.842000
2642.015233,76.609550,-592.164754,9474.636058
2642.015562,995.924147,814.226536,7698.141797
2642.015891,1072.533697,666.185348,9474.636058
2642.016220,306.438199,-0.000000,9030.512492
2642.016549,-383.047749,-518.144159,9178.553681
2642.016878,0.000000,296.082377,9178.553681
2642.017207,842.705048,370.102971,7698.141797
2642.017536,306.438199,-666.185348,9104.533087
2642.017865,-995.924147,-1332.370696,9474.636058
2642.018194,-306.438199,-1406.391290,9844.739029
2642.018523,229.828649,-888.247130,9326.594869
2642.018852,229.828649,-222.061783,8512.368333
2642.019181,-383.047749,-222.061783,9474.636058
2642.019510,-689.485948,-592.164754,9992.780217
2642.019839,0.000000,-296.082377,9252.574275
2642.020168,1378.971896,-0.000000,8216.285956
2642.020497,1455.581446,370.102971,7920.203579
2642.020826,842.705048,-0.000000,8216.285956
2642.021155,-306.438199,-666.185348,9696.697840
2642.021484,0.000000,-740.205942,9030.512492
2642.021813,229.828649,666.185348,8290.306550
2642.022142,0.000000,-0.000000,9474.636058
2642.022471,-1608.800546,-370.102971,9918.759623
2642.022800,-2757.943793,-1332.370696,9992.780217
2642.023129,-153.219100,-666.185348,9548.656652
2642.023458,229.828649,-222.061783,8290.306550
2642.023787,0.000000,-666.185348,8734.430116
2642.024115,-153.219100,-888.247130,9622.677246
2642.024444,229.828649,-296.082377,9178.553681
2642.024773,1838.629195,296.082377,8142.265362
2642.025102,1991.848295,1036.288319,8068.244768
2642.025431,3140.991542,296.082377,8660.409521
2642.025760,1378.971896,1110.308913,9104.533087
2642.026089,1685.410096,370.102971,9326.594869
2642.026418,1915.238745,592.164754,7994.224174
2642.026747,2068.457845,1036.288319,8142.265362
2642.027076,1072.533697,-0.000000,9030.512492
2642.027405,-153.219100,-1924.535449,10510.924376
2642.027734,306.438199,-1332.370696,9474.636058
2642.028063,0.000000,-0.000000,8956.491898
2642.028392,-1072.533697,-518.144159,9844.739029
2642.028721,-2221.676944,-888.247130,10436.903782
2642.029050,-1991.848295,-1258.350101,10362.883188
2642.029379,-536.266849,-148.041188,9622.677246
2642.029708,842.705048,-74.020594,8586.388927
2642.030037,1149.143247,-0.000000,9030.512492
2642.030366,306.438199,-0.000000,9622.677246
2642.030695,1302.362347,444.123565,8956.491898
2642.031024,2604.724693,740.205942,8068.244768
2642.031353,2604.724693,1776.494261,7550.100608
2642.031682,2068.457845,1332.370696,8734.430116
2642.032011,1302.362347,296.082377,9104.533087
2642.032340,1072.533697,-296.082377,8660.409521
2642.032669,1302.362347,-370.102971,8290.306550
2642.032998,766.095498,-0.000000,7994.224174
2642.033327,-842.705048,-814.226536,9474.636058
2642.033656,-2068.457845,-2220.617826,10584.944971
2642.033985,-1378.971896,-1110.308913,9474.636058
2642.034314,-766.095498,-814.226536,8956.491898
2642.034643,-1149.143247,-518.144159,9178.553681
2642.034972,-2451.505594,-296.082377,9622.677246
2642.035301,-1685.410096,-1258.350101,10510.924376
2642.035630,-612.876398,-222.061783,8808.450710
2642.035959,1225.752797,-74.020594,8142.265362
2642.036288,1072.533697,-148.041188,8216.285956
2642.036617,842.705048,-296.082377,9104.533087
2642.036946,1685.410096,-740.205942,9400.615463
2642.037275,2068.457845,148.041188,7846.182985
2642.037604,2528.115143,1110.308913,7550.100608
2642.037933,1532.190996,296.082377,8512.368333
2642.038262,459.657299,-0.000000,9178.553681
2642.038591,612.876398,-74.020594,8882.471304
2642.038920,1685.410096,-222.061783,8734.430116
2642.039249,0.000000,-518.144159,8512.368333
2642.039578,153.219100,-296.082377,9400.615463
2642.039907,-919.314598,-1258.350101,10140.821405
2642.040236,-766.095498,-814.226536,9178.553681
2642.040565,-153.219100,-444.123565,8882.471304
2642.040894,-612.876398,-0.000000,9474.636058
2642.041223,-1838.629195,-222.061783,10214.842000
2642.041552,-1378.971896,-1110.308913,10510.924376
2642.041881,0.000000,-370.102971,9770.718434
2642.042210,1149.143247,-0.000000,9030.512492
2642.042539,919.314598,-0.000000,9104.533087
2642.042868,995.924147,-148.041188,9696.697840
2642.043197,1762.019645,370.102971,9252.574275
2642.043526,2834.553343,1850.514855,8290.306550
2642.043855,3524.039291,1554.432478,7920.203579
2642.044184,2068.457845,592.164754,8364.327145
2642.044513,383.047749,666.185348,9104.533087
2642.044842,536.266849,296.082377,8956.491898
2642.045171,1608.800546,-0.000000,8956.491898
2642.045500,536.266849,-148.041188,9104.533087
2642.045829,-1455.581446,-1702.473667,9030.512492
2642.046158,-1072.533697,-1776.494261,10584.944971
2642.046487,-919.314598,-666.185348,9696.697840
2642.046816,0.000000,-370.102971,8512.368333
2642.047145,-536.266849,518.144159,7920.203579
2642.047474,-1532.190996,148.041188,9474.636058
2642.047803,-1225.752797,-592.164754,10140.821405
2642.048132,536.266849,-592.164754,8586.388927
2642.048461,919.314598,-222.061783,7920.203579
2642.048790,459.657299,222.061783,9030.512492
2642.049119,306.438199,-222.061783,9326.594869
2642.049448,612.876398,-666.185348,9326.594869
2642.049777,1762.019645,592.164754,8808.450710
2642.050106,1838.629195,814.226536,7920.203579
2642.050435,612.876398,444.123565,8142.265362
2642.050764,0.000000,-666.185348,10066.800811
2642.051093,536.266849,-1036.288319,9252.574275
2642.051422,229.828649,-222.061783,8882.471304
2642.051751,1072.533697,-1406.391290,8808.450710
2642.052080,-766.095498,-962.267725,8142.265362
2642.052409,-842.705048,-1110.308913,10658.965565
2642.052738,-459.657299,-740.205942,9252.574275
2642.053067,0.000000,-0.000000,8512.368333
2642.053396,-383.047749,-444.123565,9844.739029
2642.053725,-919.314598,-0.000000,9104.533087
2642.054054,-1149.143247,-592.164754,10066.800811
2642.054382,229.828649,-518.144159,9400.615463
2642.054711,995.924147,148.041188,8216.285956
2642.055040,1072.533697,-0.000000,8882.471304
2642.055369,383.047749,-740.205942,9918.759623
2642.055698,689.485948,-0.000000,9770.718434
2642.056027,1838.629195,-0.000000,8660.409521
2642.056356,1915.238745,1258.350101,7994.224174
2642.056685,1378.971896,-0.000000,8512.368333
2642.057014,306.438199,-0.000000,8956.491898
2642.057343,842.705048,148.041188,9326.594869
2642.057672,1915.238745,-518.144159,7920.203579
2642.058001,1455.581446,-0.000000,8512.368333
2642.058330,0.000000,-74.020594,8882.471304
2642.058659,0.000000,-666.185348,9696.697840
2642.058988,0.000000,-0.000000,8808.450710
2642.059317,306.438199,370.102971,8734.430116
2642.059646,383.047749,296.082377,9770.718434
2642.059975,-919.314598,-296.082377,9400.615463
2642.060304,-1225.752797,-1110.308913,10288.862594
2642.060633,0.000000,-0.000000,9474.636058
2642.060962,842.705048,-222.061783,8290.306550
2642.061291,229.828649,-296.082377,8586.388927
2642.061620,-306.438199,-962.267725,9400.615463
2642.061949,0.000000,-814.226536,9474.636058
2642.062278,1225.752797,444.123565,8290.306550
2642.062607,1685.410096,296.082377,8586.388927
2642.062936,536.266849,-74.020594,8808.450710
2642.063265,-229.828649,-0.000000,9918.759623
2642.063594,76.609550,-666.185348,9474.636058
2642.063923,383.047749,-0.000000,8734.430116
2642.064252,842.705048,-0.000000,9104.533087
2642.064581,-306.438199,-296.082377,9474.636058
2642.064910,-766.095498,-814.226536,9992.780217
2642.065239,-689.485948,-148.041188,9548.656652
2642.065568,-153.219100,-0.000000,8512.368333
2642.065897,-306.438199,-222.061783,9178.553681
2642.066226,-1072.533697,-74.020594,9474.636058
2642.066555,-612.876398,-888.247130,10066.800811
2642.066884,0.000000,-962.267725,9252.574275
2642.067213,1685.410096,-296.082377,8660.409521
2642.067542,536.266849,-148.041188,8142.265362
2642.067871,76.609550,-444.123565,9622.677246
2642.068200,459.657299,-444.123565,9696.697840
2642.068529,1685.410096,518.144159,8512.368333
2642.068858,2145.067394,814.226536,8290.306550
2642.069187,1225.752797,666.185348,8734.430116
2642.069516,689.485948,222.061783,9548.656652
2642.069845,1608.800546,222.061783,8956.491898
2642.070174,2145.067394,814.226536,7624.121203
2642.070504,2068.457845,370.102971,8142.265362
2642.070833,536.266849,-296.082377,8586.388927
2642.071162,153.219100,-1110.308913,9400.615463
2642.071491,306.438199,-814.226536,8882.471304
2642.071820,766.095498,-740.205942,8290.306550
2642.072149,0.000000,-296.082377,9770.718434
2642.072479,-1302.362347,-666.185348,10288.862594
2642.072808,-995.924147,-1480.411884,10288.862594
2642.073137,0.000000,-962.267725,9400.615463
2642.073466,1072.533697,-148.041188,8734.430116
2642.073795,766.095498,-0.000000,9400.615463
2642.074125,0.000000,-962.267725,9918.759623
2642.074454,536.266849,-666.185348,9696.697840
2642.074783,1455.581446,-0.000000,8512.368333
2642.075112,1608.800546,962.267725,7920.203579
2642.075441,1225.752797,518.144159,8512.368333
2642.075771,536.266849,518.144159,9178.553681
2642.076100,1455.581446,518.144159,8512.368333
2642.076429,2451.505594,-0.000000,7105.977043
2642.076758,1532.190996,222.061783,8660.409521
2642.077087,306.438199,-0.000000,9104.533087
2642.077416,-612.876398,-444.123565,8956.491898
2642.077746,0.000000,-296.082377,9178.553681
2642.078075,0.000000,-0.000000,8734.430116
2642.078404,0.000000,-296.082377,9400.615463
2642.078733,-1915.238745,-444.123565,9992.780217
2642.079062,-2068.457845,-1036.288319,10066.800811
2642.079392,-689.485948,-666.185348,9104.533087
2642.079721,76.609550,-148.041188,8660.409521
2642.080050,-306.438199,-148.041188,8882.471304
2642.080379,-766.095498,-0.000000,9178.553681
2642.080708,-153.219100,-296.082377,9474.636058
2642.081038,1302.362347,-74.020594,8586.388927
2642.081367,459.657299,148.041188,8882.471304
2642.081696,383.047749,296.082377,8364.327145
2642.082025,-536.266849,-592.164754,9252.574275
2642.082354,153.219100,-296.082377,8142.265362
2642.082683,1225.752797,370.102971,9252.574275
2642.083013,612.876398,-518.144159,9178.553681
2642.083342,459.657299,-666.185348,8956.491898
2642.083671,229.828649,-1184.329507,9844.739029
2642.084000,0.000000,-222.061783,8808.450710
2642.084329,766.095498,-0.000000,8216.285956
2642.084659,-153.219100,296.082377,9178.553681
2642.084988,-842.705048,-0.000000,9326.594869
2642.085317,-612.876398,-1110.308913,9992.780217
2642.085646,-306.438199,-444.123565,8956.491898
2642.085975,842.705048,-74.020594,8956.491898
2642.086305,459.657299,-666.185348,9474.636058
2642.086634,-612.876398,-814.226536,9474.636058
2642.086963,383.047749,-962.267725,9844.739029
2642.087292,1378.971896,-0.000000,8956.491898
2642.087621,1532.190996,814.226536,8734.430116
2642.087950,1838.629195,444.123565,8808.450710
2642.088280,1225.752797,296.082377,9992.780217
2642.088609,1608.800546,592.164754,8882.471304
2642.088938,2451.505594,962.267725,7994.224174
2642.089267,1762.019645,740.205942,7920.203579
2642.089596,536.266849,518.144159,9030.512492
2642.089926,536.266849,-370.102971,9252.574275
2642.090255,1455.581446,-222.061783,8512.368333
2642.090584,459.657299,518.144159,8216.285956
2642.090913,76.609550,-148.041188,9178.553681
2642.091242,-1455.581446,-666.185348,9696.697840
2642.091571,-1915.238745,-740.205942,10066.800811
2642.091901,-153.219100,-1628.453072,9992.780217
2642.092230,0.000000,-296.082377,8808.450710
2642.092559,995.924147,296.082377,9474.636058
2642.092888,612.876398,-148.041188,9622.677246
2642.093217,919.314598,-296.082377,9326.594869
2642.093547,1991.848295,1184.329507,8586.388927
2642.093876,2374.896044,1406.391290,8068.244768
2642.094205,1149.143247,1110.308913,9104.533087
2642.094534,306.438199,370.102971,9326.594869
2642.094863,766.095498,666.185348,9178.553681
2642.095193,919.314598,-296.082377,8808.450710
2642.095522,229.828649,-74.020594,8734.430116
2642.095851,-995.924147,-1036.288319,9400.615463
2642.096180,-1532.190996,-1628.453072,10288.862594
2642.096509,-1608.800546,-1184.329507,9548.656652
2642.096838,-995.924147,-740.205942,9104.533087
2642.097168,-1302.362347,-148.041188,9918.759623
2642.097497,-2221.676944,-592.164754,10066.800811
2642.097826,-1685.410096,-1110.308913,9992.780217
2642.098155,-306.438199,-666.185348,9030.512492
2642.098484,995.924147,444.123565,8734.430116
2642.098814,536.266849,-0.000000,9104.533087
2642.099143,306.438199,-444.123565,9326.594869
2642.099472,1762.019645,-592.164754,8808.450710
2642.099801,2298.286494,296.082377,7328.038826
2642.100130,2298.286494,1036.288319,7920.203579
2642.100460,995.924147,148.041188,8438.347739
2642.100789,459.657299,-148.041188,9030.512492
2642.101118,766.095498,-296.082377,8734.430116
2642.101447,919.314598,-74.020594,8216.285956
2642.101776,766.095498,-518.144159,8734.430116
2642.102105,-306.438199,-814.226536,9252.574275
2642.102435,-995.924147,-1036.288319,9548.656652
2642.102764,-536.266849,-740.205942,9104.533087
2642.103093,-459.657299,-370.102971,8956.491898
2642.103422,-842.705048,592.164754,9104.533087
2642.103751,-612.876398,148.041188,9844.739029
2642.104081,-612.876398,-1110.308913,9992.780217
2642.104410,1072.533697,-0.000000,9474.636058
2642.104739,2451.505594,518.144159,8882.471304
2642.105068,2374.896044,-0.000000,7698.141797
2642.105397,1915.238745,-0.000000,8734.430116
2642.105727,2528.115143,296.082377,8882.471304
2642.106056,3140.991542,814.226536,8068.244768
2642.106385,2298.286494,1184.329507,8808.450710
2642.106714,1762.019645,222.061783,8734.430116
2642.107043,0.000000,-592.164754,10066.800811
2642.107372,229.828649,-962.267725,9474.636058
2642.107702,1072.533697,-370.102971,9326.594869
2642.108031,-153.219100,-1110.308913,9548.656652
2642.108360,-1302.362347,-444.123565,9844.739029
2642.108689,-689.485948,-74.020594,10436.903782
2642.109018,-766.095498,-1036.288319,9474.636058
2642.109348,76.609550,1184.329507,8882.471304
2642.109677,153.219100,-222.061783,9696.697840
2642.110006,-842.705048,444.123565,9178.553681
2642.110335,-306.438199,-1036.288319,9992.780217
2642.110664,536.266849,444.123565,8882.471304
2642.110994,995.924147,296.082377,8364.327145
2642.111323,1302.362347,-0.000000,8734.430116
2642.111652,459.657299,-148.041188,9400.615463
2642.111981,1149.143247,-962.267725,9918.759623
2642.112310,919.314598,222.061783,8734.430116
2642.112639,919.314598,592.164754,8734.430116
2642.112969,0.000000,-0.000000,8734.430116
2642.113298,-842.705048,-296.082377,9474.636058
2642.113627,-459.657299,-814.226536,9548.656652
2642.113956,76.609550,-666.185348,8142.265362
2642.114285,459.657299,-444.123565,8290.306550
2642.114615,-383.047749,-592.164754,8142.265362
2642.114944,-612.876398,-888.247130,9030.512492
2642.115273,-536.266849,-666.185348,8882.471304
2642.115602,0.000000,-222.061783,8364.327145
2642.115931,0.000000,-0.000000,8808.450710
2642.116260,-689.485948,-444.123565,9104.533087
2642.116590,-153.219100,-1332.370696,9918.759623
2642.116919,0.000000,-370.102971,9178.553681
2642.117248,1225.752797,-0.000000,8734.430116
2642.117577,459.657299,-222.061783,8438.347739
2642.117906,76.609550,-666.185348,9252.574275
2642.118236,842.705048,-740.205942,9030.512492
2642.118565,1225.752797,148.041188,7624.121203
2642.118894,1149.143247,148.041188,8660.409521
2642.119223,536.266849,-666.185348,8808.450710
2642.119552,0.000000,-444.123565,9326.594869
2642.119882,459.657299,-148.041188,9326.594869
2642.120211,842.705048,296.082377,7994.224174
2642.120540,383.047749,-296.082377,9326.594869
2642.120869,306.438199,-370.102971,9770.718434
2642.121198,76.609550,-444.123565,10140.821405
2642.121527,-766.095498,-74.020594,9844.739029
2642.121857,1149.143247,148.041188,8956.491898
2642.122186,536.266849,1184.329507,9400.615463
2642.122515,-383.047749,592.164754,9030.512492
2642.122844,612.876398,-444.123565,9622.677246
2642.123173,1302.362347,-0.000000,9104.533087
2642.123503,1149.143247,296.082377,8068.244768
2642.123832,1455.581446,296.082377,8216.285956
2642.124161,383.047749,-592.164754,9104.533087
2642.124490,153.219100,-148.041188,9326.594869
2642.124819,1608.800546,-0.000000,8734.430116
2642.125149,1762.019645,444.123565,8882.471304
2642.125478,995.924147,222.061783,8660.409521
2642.125807,0.000000,222.061783,9770.718434
2642.126136,-383.047749,-148.041188,9548.656652
2642.126465,766.095498,222.061783,8586.388927
2642.126794,459.657299,296.082377,9252.574275
2642.127124,0.000000,-370.102971,9178.553681
2642.127453,0.000000,-814.226536,9770.718434
2642.127782,0.000000,-1332.370696,9844.739029
2642.128111,612.876398,-0.000000,7920.203579
2642.128440,-229.828649,-148.041188,9252.574275
2642.128770,-612.876398,-1184.329507,10140.821405
2642.129099,-919.314598,-888.247130,9548.656652
2642.129428,-536.266849,-814.226536,9178.553681
2642.129757,919.314598,-1406.391290,9178.553681
2642.130086,995.924147,-370.102971,8734.430116
2642.130416,-153.219100,-814.226536,9104.533087
2642.130745,76.609550,-0.000000,9622.677246
2642.131074,919.314598,370.102971,8808.450710
2642.131403,1225.752797,1110.308913,8216.285956
2642.131732,842.705048,592.164754,8882.471304
2642.132061,536.266849,-74.020594,9696.697840
2642.132391,383.047749,222.061783,9104.533087
2642.132720,766.095498,-222.061783,9178.553681
2642.133049,536.266849,-296.082377,8734.430116
2642.133378,76.609550,-444.123565,8734.430116
2642.133707,-842.705048,-962.267725,9844.739029
2642.134037,0.000000,-888.247130,9178.553681
2642.134366,459.657299,-0.000000,7994.224174
2642.134695,76.609550,-0.000000,8882.471304
2642.135024,-536.266849,-666.185348,9844.739029
2642.135353,-536.266849,-444.123565,9770.718434
2642.135683,689.485948,148.041188,8956.491898
2642.136012,919.314598,518.144159,8364.327145
2642.136341,1149.143247,-222.061783,9104.533087
2642.136670,919.314598,-444.123565,9252.574275
2642.136999,1685.410096,-814.226536,9104.533087
2642.137328,2451.505594,814.226536,8808.450710
2642.137658,2068.457845,1258.350101,8142.265362
2642.137987,1532.190996,592.164754,8512.368333
2642.138316,919.314598,518.144159,9326.594869
2642.138645,1225.752797,-74.020594,8808.450710
2642.138974,1072.533697,-444.123565,8734.430116
2642.139304,919.314598,-0.000000,8512.368333
2642.139633,-536.266849,-518.144159,8956.491898
2642.139962,-1915.238745,-814.226536,10658.965565
2642.140291,-1072.533697,-296.082377,9474.636058
2642.140620,-689.485948,-222.061783,9178.553681
2642.140949,-1608.800546,-0.000000,9400.615463
2642.141279,-1685.410096,-962.267725,10140.821405
2642.141608,-1838.629195,-1258.350101,10288.862594
2642.141937,-1685.410096,-1036.288319,9918.759623
2642.142266,153.219100,-666.185348,8882.471304
2642.142595,689.485948,-0.000000,8364.327145
2642.142925,612.876398,-370.102971,8956.491898
2642.143254,1762.019645,370.102971,8660.409521
2642.143583,2604.724693,666.185348,8068.244768
2642.143912,2757.943793,1332.370696,7550.100608
2642.144241,1378.971896,148.041188,8586.388927
2642.144571,229.828649,-0.000000,8734.430116
2642.144900,459.657299,-222.061783,8660.409521
2642.145229,536.266849,-444.123565,8512.368333
2642.145558,-459.657299,-1036.288319,8808.450710
2642.145887,-1302.362347,-1702.473667,10362.883188
2642.146216,-1685.410096,-2368.659014,10584.944971
2642.146546,-1455.581446,-1036.288319,9104.533087
2642.146875,-919.314598,-592.164754,9326.594869
2642.147204,-766.095498,-0.000000,8808.450710
2642.147533,-1378.971896,-222.061783,9696.697840
2642.147862,-306.438199,-592.164754,9548.656652
2642.148192,1455.581446,-0.000000,7994.224174
2642.148521,2451.505594,148.041188,8438.347739
2642.148850,1915.238745,444.123565,8142.265362
2642.149179,2298.286494,-370.102971,9178.553681
2642.149508,1838.629195,370.102971,8734.430116
2642.149838,2528.115143,666.185348,8660.409521
2642.150167,1685.410096,1110.308913,8808.450710
2642.150496,842.705048,666.185348,9400.615463
2642.150825,76.609550,-222.061783,9992.780217
2642.151154,0.000000,-518.144159,9474.636058
2642.151483,842.705048,-74.020594,8734.430116
2642.151813,76.609550,-444.123565,9178.553681
2642.152142,-306.438199,-962.267725,9622.677246
2642.152471,-383.047749,-740.205942,9474.636058
2642.152800,0.000000,-740.205942,8956.491898
2642.153129,153.219100,-0.000000,8808.450710
2642.153459,306.438199,-0.000000,8882.471304
2642.153788,-153.219100,-0.000000,9548.656652
2642.154117,-536.266849,-148.041188,10066.800811
2642.154446,842.705048,-148.041188,9326.594869
2642.154775,1378.971896,370.102971,8438.347739
2642.155105,1302.362347,-0.000000,9030.512492
2642.155434,919.314598,-0.000000,9548.656652
2642.155763,1608.800546,-0.000000,9326.594869
2642.156092,1685.410096,444.123565,8808.450710
2642.156421,2834.553343,1332.370696,8438.347739
2642.156750,153.219100,1036.288319,8808.450710
2642.157080,153.219100,-222.061783,8882.471304
2642.157409,1302.362347,-296.082377,8956.491898
2642.157738,-229.828649,1184.329507,6661.853478
2642.158067,0.000000,-1406.391290,8808.450710
2642.158396,-919.314598,-592.164754,9474.636058
2642.158726,-1532.190996,-1702.473667,8808.450710
2642.159055,0.000000,-1110.308913,9474.636058
2642.159384,-689.485948,-222.061783,8734.430116
2642.159713,-919.314598,148.041188,10288.862594
2642.160042,-1149.143247,-518.144159,10140.821405
2642.160372,-995.924147,-1036.288319,9622.677246
2642.160701,76.609550,-888.247130,8808.450710
2642.161030,1608.800546,444.123565,8512.368333
2642.161359,1225.752797,148.041188,8512.368333
2642.161688,1072.533697,-1036.288319,9400.615463
2642.162017,995.924147,74.020594,8142.265362
2642.162347,1762.019645,370.102971,8216.285956
2642.162676,1455.581446,518.144159,8364.327145
2642.163005,229.828649,-148.041188,8808.450710
2642.163334,-689.485948,-518.144159,10362.883188
2642.163663,0.000000,-1184.329507,8660.409521
2642.163993,306.438199,-0.000000,8364.327145
2642.164322,-612.876398,-1406.391290,8216.285956
2642.164651,-995.924147,-1184.329507,9770.718434
2642.164980,-842.705048,-888.247130,10510.924376
2642.165309,306.438199,-518.144159,8882.471304
2642.165638,1072.533697,444.123565,8512.368333
2642.165968,766.095498,444.123565,8660.409521
2642.166297,-153.219100,296.082377,9030.512492
2642.166626,76.609550,-74.020594,9696.697840
2642.166955,1455.581446,-222.061783,8216.285956
2642.167284,1455.581446,1184.329507,7994.224174
2642.167614,536.266849,222.061783,8660.409521
2642.167943,153.219100,-222.061783,9326.594869
2642.168272,689.485948,518.144159,9474.636058
2642.168601,1225.752797,-370.102971,8808.450710
2642.168930,1149.143247,222.061783,8734.430116
2642.169260,0.000000,-592.164754,9104.533087
2642.169589,-612.876398,-0.000000,9252.574275
2642.169918,306.438199,-222.061783,9326.594869
2642.170247,1302.362347,-222.061783,8216.285956
2642.170576,1302.362347,518.144159,7920.203579
2642.170905,919.314598,222.061783,9770.718434
2642.171235,0.000000,-0.000000,9178.553681
2642.171564,995.924147,370.102971,8882.471304
2642.171893,536.266849,1184.329507,9474.636058
2642.172222,-612.876398,518.144159,10066.800811
2642.172551,-995.924147,-74.020594,10362.883188
2642.172881,-1378.971896,-1036.288319,10362.883188
2642.173210,-766.095498,-518.144159,10066.800811
2642.173539,-306.438199,-444.123565,9474.636058
2642.173868,-153.219100,-1110.308913,9030.512492
2642.174198,-612.876398,-1184.329507,9696.697840
2642.174527,229.828649,-962.267725,10066.800811
2642.174856,1225.752797,-296.082377,8290.306550
2642.175185,919.314598,222.061783,8512.368333
2642.175514,1149.143247,666.185348,8734.430116
2642.175844,766.095498,-0.000000,9326.594869
2642.176173,1378.971896,222.061783,8808.450710
2642.176502,1991.848295,-0.000000,8142.265362
2642.176831,995.924147,518.144159,7920.203579
2642.177161,153.219100,-444.123565,9696.697840
2642.177490,0.000000,-1036.288319,9474.636058
2642.177819,-153.219100,-296.082377,9178.553681
2642.178148,-229.828649,-0.000000,8808.450710
2642.178477,-842.705048,-666.185348,8956.491898
2642.178807,-1608.800546,-666.185348,9918.759623
2642.179136,-1455.581446,-1702.473667,9474.636058
2642.179465,153.219100,-740.205942,8660.409521
2642.179794,76.609550,-1184.329507,8068.244768
2642.180123,995.924147,-592.164754,8734.430116
2642.180453,995.924147,-296.082377,8660.409521
2642.180782,1915.238745,-0.000000,8512.368333
2642.181111,2604.724693,592.164754,6957.935855
2642.181440,2451.505594,1702.473667,8068.244768
2642.181770,2068.457845,370.102971,8734.430116
2642.182099,1685.410096,-0.000000,8660.409521
2642.182428,1455.581446,-518.144159,8956.491898
2642.182757,1378.971896,592.164754,7846.182985
2642.183086,919.314598,-148.041188,8586.388927
2642.183416,-306.438199,-814.226536,9474.636058
2642.183745,-612.876398,-1554.432478,9696.697840
2642.184074,-842.705048,-1702.473667,9622.677246
2642.184403,-1072.533697,-814.226536,9622.677246
2642.184733,-842.705048,-814.226536,9474.636058
2642.185062,-1915.238745,-592.164754,9770.718434
2642.185391,-1455.581446,-888.247130,10658.965565
2642.185720,-383.047749,-0.000000,9400.615463
2642.186049,536.266849,-148.041188,9030.512492
2642.186379,306.438199,-0.000000,9400.615463
2642.186708,306.438199,-296.082377,10140.821405
2642.187037,612.876398,-0.000000,9622.677246
2642.187366,1378.971896,1258.350101,8364.327145
2642.187695,1532.190996,1258.350101,8512.368333
2642.188025,383.047749,1184.329507,9104.533087
2642.188354,0.000000,518.144159,9400.615463
2642.188683,306.438199,222.061783,9104.533087
2642.189012,612.876398,222.061783,8734.430116
2642.189342,229.828649,-222.061783,8586.388927
2642.189671,-1302.362347,-370.102971,9474.636058
2642.190000,-1915.238745,-1628.453072,10658.965565
2642.190329,-1532.190996,-1480.411884,9770.718434
2642.190658,-842.705048,-74.020594,8364.327145
2642.190988,-1225.752797,-296.082377,9474.636058
2642.191317,-1838.629195,-592.164754,9622.677246
2642.191646,-1072.533697,-1258.350101,9474.636058
2642.191975,-153.219100,-0.000000,9104.533087
2642.192304,1072.533697,-0.000000,8512.368333
2642.192634,689.485948,222.061783,8142.265362
2642.192963,76.609550,-0.000000,8734.430116
2642.193292,689.485948,-222.061783,8586.388927
2642.193621,766.095498,592.164754,8290.306550
2642.193951,0.000000,1036.288319,8438.347739
2642.194280,-919.314598,740.205942,8660.409521
2642.194609,-2068.457845,-370.102971,9400.615463
2642.194938,-2145.067394,-592.164754,9104.533087
2642.195267,-2221.676944,-518.144159,8290.306550
2642.195597,-2451.505594,-814.226536,9104.533087
2642.195926,-2451.505594,-1850.514855,9400.615463
2642.196255,-3447.429741,-1258.350101,10510.924376
2642.196584,-3447.429741,-2590.720797,9992.780217
2642.196914,-2911.162892,-518.144159,8882.471304
2642.197243,-3140.991542,370.102971,9400.615463
2642.197572,-2911.162892,-222.061783,9326.594869
2642.197901,-2451.505594,-740.205942,9474.636058
2642.198230,-1838.629195,-296.082377,9992.780217
2642.198560,-1838.629195,296.082377,8734.430116
2642.198889,-1915.238745,518.144159,8660.409521
2642.199218,-1915.238745,-74.020594,8586.388927
2642.199547,-1608.800546,-1110.308913,9474.636058
2642.199876,-766.095498,-1332.370696,9104.533087
2642.200206,-995.924147,-74.020594,7402.059420
2642.200535,-306.438199,1332.370696,7846.182985
2642.200864,-995.924147,444.123565,8290.306550
2642.201193,-536.266849,-0.000000,8734.430116
2642.201523,-842.705048,-222.061783,8882.471304
2642.201852,-1149.143247,-74.020594,8808.450710
2642.202181,-1685.410096,1258.350101,8364.327145
2642.202510,-1838.629195,740.205942,8068.244768
2642.202839,-1302.362347,-0.000000,9252.574275
2642.203169,-2298.286494,-1184.329507,9474.636058
2642.203498,-3064.381992,-1110.308913,9548.656652
2642.203827,-3753.867940,-74.020594,9326.594869
2642.204156,-3600.648841,888.247130,8364.327145
2642.204486,-3600.648841,1258.350101,7994.224174
2642.204815,-4060.306139,-74.020594,9030.512492
2642.205144,-3753.867940,-740.205942,9474.636058
2642.205473,-4596.572988,-1480.411884,9918.759623
2642.205802,-5132.839837,-1406.391290,9844.739029
2642.206132,-4979.620737,-1628.453072,10436.903782
2642.206461,-4979.620737,-1628.453072,10140.821405
2642.206790,-4673.182538,-1850.514855,10140.821405
2642.207119,-3600.648841,-1776.494261,10510.924376
2642.207448,-3217.601092,-222.061783,9548.656652
2642.207778,-1685.410096,148.041188,8364.327145
2642.208107,-2145.067394,1480.411884,7772.162391
2642.208436,-1991.848295,1110.308913,8956.491898
2642.208765,-2834.553343,962.267725,8882.471304
2642.209095,-2451.505594,666.185348,9104.533087
2642.209424,-2451.505594,814.226536,8068.244768
2642.209753,-1762.019645,-0.000000,9178.553681
2642.210082,-1991.848295,-370.102971,9104.533087
2642.210411,-2221.676944,592.164754,8290.306550
2642.210741,-2221.676944,-0.000000,9474.636058
2642.211070,-1991.848295,-0.000000,8808.450710
2642.211399,-1762.019645,-0.000000,8512.368333
2642.211728,-2068.457845,-296.082377,8808.450710
2642.212057,-2374.896044,-814.226536,8808.450710
2642.212387,-2451.505594,-1184.329507,9474.636058
2642.212716,-2757.943793,-888.247130,9474.636058
2642.213045,-3140.991542,-0.000000,9326.594869
2642.213374,-3677.258390,-222.061783,9548.656652
2642.213704,-3447.429741,962.267725,8882.471304
2642.214033,-3447.429741,740.205942,8956.491898
2642.214362,-3830.477490,-666.185348,9326.594869
2642.214691,-3677.258390,-1258.350101,9104.533087
2642.215020,-2604.724693,-1554.432478,9770.718434
2642.215350,-2145.067394,-1702.473667,9474.636058
2642.215679,-689.485948,-1332.370696,8882.471304
2642.216008,-1149.143247,-370.102971,7772.162391
2642.216337,-842.705048,-222.061783,9474.636058
2642.216667,1225.752797,-0.000000,8956.491898
2642.216996,1149.143247,2146.597232,5255.462188
2642.217325,2068.457845,1850.514855,8216.285956
2642.217654,0.000000,2368.659014,6439.791695
2642.217983,-153.219100,1480.411884,8660.409521
2642.218313,-2834.553343,444.123565,8512.368333
2642.218642,-3294.210641,-1628.453072,9474.636058
2642.218971,-3677.258390,-2738.761985,10807.006753
2642.219300,-5209.449386,-1110.308913,7550.100608
2642.219629,-6741.640382,-3256.906145,11917.315666
2642.219959,-7967.393179,-2516.700203,11325.150913
2642.220288,-5592.497135,-2368.659014,11695.253884
2642.220617,-4903.011187,-2146.597232,10881.027347
2642.220946,-2834.553343,-148.041188,9400.615463
2642.221276,-536.266849,222.061783,8512.368333
2642.221605,-766.095498,1480.411884,5625.565159
2642.221934,0.000000,1406.391290,9474.636058
2642.222263,1915.238745,888.247130,8734.430116
2642.222592,3294.210641,3034.844362,4367.215058
2642.222922,2987.772442,1998.556043,6365.771101
2642.223251,0.000000,2442.679609,5847.626942
2642.223580,536.266849,-0.000000,9252.574275
2642.223909,-2374.896044,-444.123565,8808.450710
2642.224238,-2221.676944,-888.247130,10510.924376
2642.224568,-3677.258390,-1258.350101,10066.800811
2642.224897,-5286.058936,222.061783,7624.121203
2642.225226,-7277.907231,-3034.844362,11991.336260
2642.225555,-8580.269578,-1332.370696,10955.047942
2642.225885,-5669.106685,-2516.700203,11473.192101
2642.226214,-5822.325785,-2812.782580,9918.759623
2642.226543,-3370.820191,-1184.329507,9770.718434
2642.226872,-3677.258390,-592.164754,9030.512492
2642.227201,-2757.943793,-888.247130,7846.182985
2642.227531,-1455.581446,888.247130,8734.430116
2642.227860,-1225.752797,1036.288319,8290.306550
2642.228189,-1608.800546,444.123565,9030.512492
2642.228518,-2681.334243,370.102971,9918.759623
2642.228848,-2451.505594,740.205942,8734.430116
2642.229177,-2911.162892,370.102971,8364.327145
2642.229506,-2451.505594,740.205942,8438.347739
2642.229835,-2757.943793,1332.370696,9474.636058
2642.230164,-2374.896044,518.144159,8808.450710
2642.230494,-3294.210641,1332.370696,8364.327145
2642.230823,-3600.648841,370.102971,9030.512492
2642.231152,-2757.943793,-444.123565,8364.327145
2642.231481,-2451.505594,-0.000000,7772.162391
2642.231810,-2451.505594,-0.000000,8142.265362
2642.232140,-2298.286494,740.205942,8290.306550
2642.232469,-2451.505594,740.205942,8882.471304
2642.232798,-2451.505594,2294.638420,8660.409521
2642.233127,-3217.601092,2072.576638,8882.471304
2642.233457,-3447.429741,592.164754,9474.636058
2642.233786,-3524.039291,1554.432478,9770.718434
2642.234115,-3830.477490,370.102971,10436.903782
2642.234444,-4443.353888,-0.000000,11473.192101
2642.234773,-3064.381992,-0.000000,10658.965565
2642.235103,-1838.629195,592.164754,9696.697840
2642.235432,-383.047749,148.041188,9178.553681
2642.235761,-229.828649,1332.370696,7550.100608
2642.236090,-383.047749,-0.000000,11843.295072
2642.236420,1378.971896,1998.556043,8956.491898
2642.236749,3064.381992,4071.132681,5551.544565
2642.237078,4213.525239,3849.070898,7328.038826
2642.237407,2681.334243,4737.318029,6143.709319
2642.237736,3830.477490,4441.235652,8734.430116
2642.238066,2374.896044,4663.297435,6439.791695
2642.238395,3294.210641,3997.112087,7846.182985
2642.238724,1149.143247,2146.597232,10214.842000
2642.239053,-306.438199,2368.659014,10214.842000
2642.239382,-1762.019645,592.164754,11325.150913
2642.239712,-1838.629195,-0.000000,11325.150913
2642.240041,-1378.971896,1332.370696,10436.903782
2642.240370,-1225.752797,1258.350101,11769.274478
2642.240699,0.000000,3404.947333,11029.068536
2642.241029,229.828649,2738.761985,8882.471304
2642.241358,1915.238745,2368.659014,8290.306550
2642.241687,2911.162892,5477.523971,6661.853478
2642.242016,2145.067394,4885.359217,6513.812290
2642.242345,1991.848295,4959.379811,7402.059420
2642.242675,1225.752797,5255.462188,7179.997637
2642.243004,76.609550,3775.050304,8956.491898
2642.243333,-1915.238745,1850.514855,8808.450710
2642.243662,-2987.772442,1702.473667,9844.739029
2642.243991,-2987.772442,-0.000000,12287.418637
2642.244321,-3447.429741,3404.947333,8882.471304
2642.244650,-3140.991542,2590.720797,10362.883188
2642.244979,-3677.258390,1702.473667,10955.047942
2642.245308,-3140.991542,2812.782580,11695.253884
2642.245638,-2145.067394,1554.432478,10881.027347
2642.245967,-1072.533697,2368.659014,8586.388927
2642.246296,-612.876398,3404.947333,7698.141797
2642.246625,-1072.533697,3701.029710,9252.574275
2642.246954,-1302.362347,1924.535449,10881.027347
2642.247284,2451.505594,2960.823768,8734.430116
2642.247613,4213.525239,4441.235652,6069.688724
2642.247942,3753.867940,5181.441594,6143.709319
2642.248271,2604.724693,5699.585753,5995.668130
2642.248601,3140.991542,7179.997637,8586.388927
2642.248930,1838.629195,5773.606348,6439.791695
2642.249259,1608.800546,6809.894666,6809.894666
2642.249588,229.828649,4737.318029,9326.594869
2642.249917,0.000000,5625.565159,7031.956449
2642.250247,-766.095498,2442.679609,10140.821405
2642.250576,-2221.676944,-1110.308913,11103.089130
2642.250905,-1685.410096,962.267725,10214.842000
2642.251234,-1762.019645,148.041188,12065.356855
2642.251563,-1685.410096,1110.308913,10584.944971
2642.251893,-1072.533697,4367.215058,11473.192101
2642.252222,2145.067394,3330.926739,7772.162391
2642.252551,2604.724693,5921.647536,7772.162391
2642.252880,3370.820191,4219.173869,7772.162391
2642.253210,3983.696590,4737.318029,7846.182985
2642.253539,2221.676944,5255.462188,6957.935855
2642.253868,1685.410096,4737.318029,7031.956449
2642.254197,-383.047749,2072.576638,8290.306550
2642.254526,-1378.971896,-1258.350101,12361.439231
2642.254856,-3064.381992,370.102971,10214.842000
2642.255185,-1532.190996,592.164754,12657.521608
2642.255514,-2528.115143,222.061783,8882.471304
2642.255843,-1149.143247,2294.638420,10881.027347
2642.256173,-1149.143247,2960.823768,8734.430116
2642.256502,-1149.143247,2664.741391,9548.656652
2642.256831,-536.266849,1184.329507,11029.068536
2642.257160,3064.381992,592.164754,9770.718434
2642.257489,4213.525239,2590.720797,6069.688724
2642.257819,3907.087040,3034.844362,7179.997637
2642.258148,1991.848295,2146.597232,6439.791695
2642.258477,3753.867940,3552.988522,8660.409521
2642.258806,2604.724693,4737.318029,6587.832884
2642.259135,2604.724693,4441.235652,5921.647536
2642.259465,1762.019645,4071.132681,8290.306550
2642.259794,-1608.800546,1332.370696,7698.141797
2642.260123,-2757.943793,-4293.194464,13175.665768
2642.260452,-3753.867940,370.102971,10955.047942
2642.260782,-2528.115143,-3701.029710,11547.212695
2642.261111,-3524.039291,-0.000000,9474.636058
2642.261440,-1685.410096,2960.823768,11843.295072
2642.261769,-536.266849,2590.720797,8808.450710
2642.262098,-229.828649,3108.864956,8808.450710
2642.262428,4366.744339,2886.803174,10436.903782
2642.262757,3294.210641,3849.070898,5255.462188
2642.263086,3677.258390,4293.194464,8586.388927
2642.263415,2604.724693,6217.729913,4219.173869
2642.263744,4366.744339,4219.173869,7105.977043
2642.264074,2145.067394,3775.050304,6809.894666
2642.264403,2757.943793,5033.400406,6217.729913
2642.264732,2528.115143,4071.132681,7402.059420
2642.265061,-459.657299,6365.771101,5995.668130
2642.265391,-3140.991542,962.267725,9400.615463
2642.265720,-5209.449386,-3701.029710,13175.665768
2642.266049,-3600.648841,3552.988522,9696.697840
2642.266378,-1991.848295,-2812.782580,10362.883188
2642.266707,-3370.820191,-1332.370696,10955.047942
2642.267037,-2068.457845,3330.926739,13545.768739
2642.267366,-383.047749,1554.432478,8068.244768
2642.267695,-2604.724693,5403.503377,8142.265362
2642.268024,-229.828649,1554.432478,10955.047942
2642.268354,3830.477490,2516.700203,9400.615463
2642.268683,2604.724693,6069.688724,4885.359217
2642.269012,2451.505594,3404.947333,7105.977043
2642.269341,1608.800546,4219.173869,6143.709319
2642.269670,2068.457845,5551.544565,9548.656652
2642.270000,-536.266849,5033.400406,7105.977043
2642.270329,306.438199,7328.038826,8808.450710
2642.270658,-1685.410096,3923.091493,8882.471304
2642.270987,-1149.143247,1702.473667,9992.780217
2642.271316,-3753.867940,148.041188,12509.480420
2642.271646,-2757.943793,370.102971,11547.212695
2642.271975,-1302.362347,-1406.391290,11473.192101
2642.272304,-842.705048,-2368.659014,11917.315666
2642.272633,-842.705048,1776.494261,10436.903782
2642.272963,1149.143247,2072.576638,7994.224174
2642.273292,1762.019645,3627.009116,8364.327145
2642.273621,3524.039291,6291.750507,7402.059420
2642.273950,3370.820191,5921.647536,7994.224174
2642.274279,1685.410096,3627.009116,9178.553681
2642.274608,919.314598,4663.297435,8734.430116
2642.274937,766.095498,3923.091493,7179.997637
2642.275266,536.266849,814.226536,9474.636058
2642.275595,-612.876398,-1480.411884,10732.986159
2642.275925,-536.266849,-2220.617826,13323.706956
2642.276254,-2068.457845,-1480.411884,11547.212695
2642.276583,-1838.629195,-1628.453072,10362.883188
2642.276912,-1532.190996,1332.370696,9474.636058
2642.277241,1378.971896,2738.761985,8660.409521
2642.277570,1532.190996,4737.318029,7476.080014
2642.277899,2451.505594,2220.617826,7994.224174
2642.278228,2987.772442,1702.473667,7994.224174
2642.278557,3907.087040,3182.885551,7105.977043
2642.278886,3600.648841,2812.782580,6883.915261
2642.279215,2604.724693,814.226536,7105.977043
2642.279544,2451.505594,518.144159,9252.574275
2642.279874,76.609550,814.226536,7772.162391
2642.280203,-229.828649,-592.164754,9696.697840
2642.280532,-1072.533697,-0.000000,8734.430116
2642.280861,-1225.752797,-1702.473667,10214.842000
2642.281190,-3140.991542,-1480.411884,9696.697840
2642.281519,-3064.381992,-2516.700203,10955.047942
2642.281848,-2298.286494,-3552.988522,10436.903782
2642.282177,-689.485948,-1332.370696,9474.636058
2642.282506,689.485948,-814.226536,8290.306550
2642.282835,1915.238745,-888.247130,8290.306550
2642.283164,2374.896044,-666.185348,7920.203579
2642.283493,2604.724693,-296.082377,7254.018232
2642.283823,2298.286494,814.226536,7254.018232
2642.284152,1685.410096,740.205942,8216.285956
2642.284481,1302.362347,814.226536,8586.388927
2642.284810,1149.143247,-296.082377,9104.533087
2642.285139,459.657299,-2886.803174,9252.574275
2642.285468,-1532.190996,-2812.782580,10436.903782
2642.285797,-2145.067394,-2886.803174,11621.233289
2642.286126,-3370.820191,-2516.700203,11251.130318
2642.286455,-2528.115143,-1850.514855,10362.883188
2642.286784,-919.314598,-2146.597232,9474.636058
2642.287113,-459.657299,-666.185348,8808.450710
2642.287442,-536.266849,592.164754,8512.368333
2642.287772,0.000000,-74.020594,7476.080014
2642.288101,1991.848295,296.082377,7698.141797
2642.288430,2298.286494,814.226536,7698.141797
2642.288759,1225.752797,-518.144159,8438.347739
2642.289088,76.609550,-1480.411884,9252.574275
2642.289417,0.000000,-2220.617826,9622.677246
2642.289746,842.705048,-1406.391290,9770.718434
2642.290075,612.876398,-222.061783,9696.697840
2642.290404,-153.219100,1184.329507,9696.697840
2642.290733,-1455.581446,2368.659014,9474.636058
2642.291062,-766.095498,2146.597232,8956.491898
2642.291391,459.657299,666.185348,8438.347739
2642.291721,766.095498,444.123565,8438.347739
2642.292050,995.924147,-370.102971,9400.615463
2642.292379,919.314598,-222.061783,9252.574275
2642.292708,153.219100,-1332.370696,8438.347739
2642.293037,612.876398,-814.226536,8808.450710
2642.293366,536.266849,444.123565,8956.491898
2642.293695,-153.219100,666.185348,8882.471304
2642.294024,0.000000,1332.370696,8438.347739
2642.294353,1608.800546,1258.350101,9104.533087
2642.294682,1915.238745,888.247130,9252.574275
2642.295011,1072.533697,-0.000000,10140.821405
2642.295340,0.000000,148.041188,10066.800811
2642.295670,76.609550,-518.144159,10288.862594
2642.295999,842.705048,296.082377,9770.718434
2642.296328,1072.533697,444.123565,9622.677246
2642.296657,842.705048,1184.329507,9696.697840
2642.296986,0.000000,888.247130,8956.491898
2642.297315,842.705048,962.267725,8068.244768
2642.297644,1302.362347,888.247130,8734.430116
2642.297973,1302.362347,296.082377,8512.368333
2642.298302,229.828649,-1184.329507,9474.636058
2642.298631,-306.438199,-962.267725,10140.821405
2642.298960,0.000000,-1776.494261,9474.636058
2642.299289,1149.143247,-1406.391290,10288.862594
2642.299619,842.705048,-444.123565,9474.636058
2642.299948,-306.438199,592.164754,9548.656652
2642.300277,-229.828649,1998.556043,9548.656652
2642.300606,612.876398,2368.659014,8438.347739
2642.300935,1608.800546,1554.432478,8512.368333
2642.301264,1455.581446,1258.350101,8660.409521
2642.301593,383.047749,-888.247130,9474.636058
2642.301922,153.219100,-518.144159,9474.636058
2642.302251,0.000000,-1332.370696,8808.450710
2642.302580,0.000000,-1036.288319,8734.430116
2642.302909,-1072.533697,-962.267725,8512.368333
2642.303238,-1225.752797,-518.144159,9326.594869
2642.303568,-1225.752797,-1184.329507,9104.533087
2642.303897,612.876398,-962.267725,8068.244768
2642.304226,995.924147,-148.041188,7698.141797
2642.304555,306.438199,-296.082377,9030.512492
2642.304884,153.219100,-814.226536,9474.636058
2642.305213,766.095498,-1036.288319,8882.471304
2642.305542,1302.362347,-444.123565,8364.327145
2642.305871,536.266849,-0.000000,8882.471304
2642.306200,0.000000,962.267725,9400.615463
2642.306529,-383.047749,148.041188,8586.388927
2642.306858,229.828649,-444.123565,8216.285956
2642.307187,842.705048,-592.164754,8956.491898
2642.307517,0.000000,-1332.370696,8586.388927
2642.307846,-1378.971896,-2072.576638,9326.594869
2642.308175,-842.705048,-2590.720797,9844.739029
2642.308504,383.047749,-2590.720797,9474.636058
2642.308833,536.266849,-1554.432478,8512.368333
2642.309162,-153.219100,-518.144159,9252.574275
2642.309491,0.000000,-0.000000,9104.533087
2642.309820,766.095498,370.102971,8808.450710
2642.310149,2298.286494,296.082377,8216.285956
2642.310478,2145.067394,-0.000000,8438.347739
2642.310807,919.314598,-0.000000,9474.636058
2642.311136,0.000000,-518.144159,9918.759623
2642.311466,0.000000,-1258.350101,9770.718434
2642.311795,306.438199,-1184.329507,9474.636058
2642.312124,0.000000,-1036.288319,9326.594869
2642.312453,-995.924147,-222.061783,9178.553681
2642.312782,-1225.752797,-148.041188,9474.636058
2642.313111,-229.828649,-962.267725,8660.409521
2642.313440,1149.143247,-1258.350101,8956.491898
2642.313769,919.314598,-666.185348,9104.533087
2642.314098,383.047749,-518.144159,9030.512492
2642.314427,689.485948,-370.102971,9178.553681
2642.314756,1149.143247,-370.102971,9178.553681
2642.315085,1685.410096,-74.020594,8438.347739
2642.315415,1532.190996,592.164754,8660.409521
2642.315744,76.609550,1554.432478,9178.553681
2642.316073,536.266849,1554.432478,9104.533087
2642.316402,1455.581446,666.185348,8734.430116
2642.316731,995.924147,222.061783,8512.368333
2642.317060,0.000000,-814.226536,9696.697840
2642.317389,-612.876398,-1776.494261,9844.739029
2642.317718,0.000000,-1628.453072,9696.697840
2642.318047,1149.143247,-1258.350101,8882.471304
2642.318376,0.000000,222.061783,8734.430116
2642.318705,-689.485948,888.247130,8882.471304
2642.319034,-229.828649,1258.350101,8586.388927
2642.319364,919.314598,962.267725,8586.388927
2642.319693,919.314598,1110.308913,8290.306550
2642.320022,1149.143247,-0.000000,9030.512492
2642.320351,76.609550,-222.061783,9548.656652
2642.320680,0.000000,-1036.288319,9474.636058
2642.321009,383.047749,-222.061783,9252.574275
2642.321338,383.047749,-0.000000,8808.450710
2642.321667,-459.657299,666.185348,9104.533087
2642.321996,-1149.143247,1628.453072,9030.512492
2642.322325,459.657299,814.226536,8142.265362
2642.322654,1149.143247,-74.020594,7994.224174
2642.322983,229.828649,296.082377,8660.409521
2642.323313,-612.876398,-888.247130,9770.718434
2642.323642,-1149.143247,-666.185348,9548.656652
2642.323971,-766.095498,-1036.288319,9696.697840
2642.324300,1072.533697,-1702.473667,9474.636058
2642.324629,0.000000,-296.082377,9178.553681
2642.324958,-536.266849,666.185348,10140.821405
2642.325287,689.485948,1480.411884,9400.615463
2642.325616,1149.143247,1332.370696,8216.285956
2642.325945,2145.067394,1184.329507,9326.594869
2642.326274,1685.410096,592.164754,8290.306550
2642.326603,383.047749,-666.185348,9622.677246
2642.326932,383.047749,-592.164754,9178.553681
2642.327262,689.485948,-1406.391290,8956.491898
2642.327591,919.314598,-740.205942,9696.697840
2642.327920,306.438199,-74.020594,9178.553681
2642.328249,-536.266849,-148.041188,9474.636058
2642.328578,-229.828649,-370.102971,9104.533087
2642.328907,919.314598,-370.102971,8216.285956
2642.329236,995.924147,-592.164754,9030.512492
2642.329565,306.438199,-592.164754,9030.512492
2642.329894,-229.828649,-1702.473667,10214.842000
2642.330223,153.219100,-1776.494261,9992.780217
2642.330552,995.924147,-1332.370696,9326.594869
2642.330881,995.924147,-0.000000,9400.615463
2642.331211,76.609550,888.247130,9326.594869
2642.331540,306.438199,1258.350101,8660.409521
2642.331869,1991.848295,222.061783,8660.409521
2642.332198,2298.286494,592.164754,7772.162391
2642.332527,919.314598,-296.082377,9104.533087
2642.332856,-306.438199,-814.226536,9548.656652
2642.333185,-383.047749,-1110.308913,8956.491898
2642.333514,229.828649,-1850.514855,9474.636058
2642.333843,229.828649,-1480.411884,8808.450710
2642.334172,-995.924147,-1406.391290,9992.780217
2642.334501,-2145.067394,-518.144159,9474.636058
2642.334830,-459.657299,-592.164754,8364.327145
2642.335160,0.000000,-74.020594,8660.409521
2642.335489,383.047749,-222.061783,8512.368333
2642.335818,-612.876398,-666.185348,9474.636058
2642.336147,-612.876398,-1480.411884,9918.759623
2642.336476,306.438199,-1628.453072,9030.512492
2642.336805,1532.190996,-1480.411884,9178.553681
2642.337134,689.485948,-74.020594,8734.430116
2642.337463,306.438199,-0.000000,9178.553681
2642.337792,306.438199,1332.370696,8586.388927
2642.338121,1455.581446,740.205942,7624.121203
2642.338450,1915.238745,-0.000000,8364.327145
2642.338779,1532.190996,-444.123565,8438.347739
2642.339109,0.000000,-666.185348,9104.533087
2642.339438,-612.876398,-1110.308913,9326.594869
2642.339767,153.219100,-814.226536,9622.677246
2642.340096,0.000000,-740.205942,9696.697840
2642.340425,-612.876398,-222.061783,9696.697840
2642.340754,-919.314598,592.164754,9400.615463
2642.341083,0.000000,-0.000000,9030.512492
2642.341412,766.095498,296.082377,8956.491898
2642.341741,1302.362347,-74.020594,9178.553681
2642.342070,0.000000,222.061783,9918.759623
2642.342399,0.000000,-0.000000,9622.677246
2642.342729,612.876398,-296.082377,9326.594869
2642.343058,1225.752797,222.061783,8956.491898
2642.343387,1149.143247,370.102971,9400.615463
2642.343716,306.438199,1258.350101,9030.512492
2642.344045,0.000000,962.267725,9104.533087
2642.344374,1455.581446,1258.350101,9030.512492
2642.344703,1915.238745,962.267725,8142.265362
2642.345032,766.095498,1036.288319,8808.450710
2642.345361,0.000000,444.123565,9474.636058
2642.345690,76.609550,222.061783,9770.718434
2642.346019,842.705048,-592.164754,9696.697840
2642.346348,459.657299,-148.041188,9622.677246
2642.346678,0.000000,370.102971,9696.697840
2642.347007,-1072.533697,666.185348,9400.615463
2642.347336,0.000000,148.041188,8808.450710
2642.347665,842.705048,592.164754,8142.265362
2642.347994,689.485948,-0.000000,8586.388927
2642.348323,383.047749,-296.082377,9622.677246
2642.348652,-306.438199,-518.144159,9326.594869
2642.348981,0.000000,-888.247130,9104.533087
2642.349310,459.657299,-518.144159,9252.574275
2642.349639,76.609550,-0.000000,9104.533087
2642.349968,-842.705048,148.041188,9474.636058
2642.350297,-383.047749,888.247130,9104.533087
2642.350627,919.314598,370.102971,8438.347739
2642.350956,2145.067394,-0.000000,8808.450710
2642.351285,1072.533697,-296.082377,8956.491898
2642.351614,0.000000,-814.226536,9770.718434
2642.351943,0.000000,-592.164754,9400.615463
2642.352272,689.485948,-814.226536,9326.594869
2642.352601,1149.143247,-518.144159,9326.594869
2642.352930,0.000000,148.041188,9474.636058
2642.353259,-153.219100,222.061783,9400.615463
2642.353588,383.047749,1036.288319,8438.347739
2642.353917,995.924147,592.164754,8364.327145
2642.354246,459.657299,-0.000000,9030.512492
2642.354576,-306.438199,-666.185348,9844.739029
2642.354905,-1302.362347,-1332.370696,9770.718434
2642.355234,0.000000,-2590.720797,9474.636058
2642.355563,612.876398,-1406.391290,9030.512492
2642.355892,0.000000,-592.164754,8956.491898
2642.356221,-612.876398,740.205942,9104.533087
2642.356550,0.000000,1184.329507,8734.430116
2642.356879,1225.752797,814.226536,8216.285956
2642.357208,2374.896044,1036.288319,8216.285956
2642.357537,1608.800546,296.082377,8512.368333
2642.357866,536.266849,-814.226536,9400.615463
2642.358195,0.000000,-370.102971,9178.553681
2642.358525,1302.362347,-1110.308913,9326.594869
2642.358854,1225.752797,-592.164754,8956.491898
2642.359183,383.047749,148.041188,9030.512492
2642.359512,0.000000,222.061783,9104.533087
2642.359841,76.609550,222.061783,8956.491898
2642.360170,383.047749,-148.041188,8808.450710
2642.360499,612.876398,-518.144159,8808.450710
2642.360828,-612.876398,-444.123565,9918.759623
2642.361157,-1072.533697,-1332.370696,10288.862594
2642.361486,-459.657299,-1998.556043,9474.636058
2642.361815,1072.533697,-1110.308913,9474.636058
2642.362144,383.047749,-222.061783,9400.615463
2642.362474,-306.438199,148.041188,9622.677246
2642.362803,229.828649,962.267725,9326.594869
2642.363132,1455.581446,888.247130,8216.285956
2642.363461,2451.505594,592.164754,7920.203579
2642.363790,1455.581446,518.144159,8956.491898
2642.364119,842.705048,-814.226536,9622.677246
2642.364448,229.828649,-1184.329507,9696.697840
2642.364777,995.924147,-1184.329507,9548.656652
2642.365106,689.485948,-1406.391290,9622.677246
2642.365435,-229.828649,-0.000000,9548.656652
2642.365764,-919.314598,444.123565,9400.615463
2642.366093,-459.657299,148.041188,8586.388927
2642.366423,842.705048,-296.082377,7624.121203
2642.366752,689.485948,-740.205942,8734.430116
2642.367081,-536.266849,-1184.329507,9326.594869
2642.367410,-919.314598,-592.164754,9770.718434
2642.367739,-766.095498,-1554.432478,8808.450710
2642.368068,0.000000,-666.185348,8586.388927
2642.368397,-153.219100,-0.000000,9178.553681
2642.368726,-153.219100,-0.000000,9326.594869
2642.369055,-995.924147,-0.000000,8882.471304
2642.369384,995.924147,296.082377,8438.347739
2642.369713,1455.581446,666.185348,8068.244768
2642.370042,766.095498,296.082377,8808.450710
2642.370372,229.828649,-74.020594,9252.574275
2642.370701,76.609550,-296.082377,9400.615463
2642.371030,689.485948,-222.061783,8956.491898
2642.371359,1149.143247,518.144159,8216.285956
2642.371688,1149.143247,962.267725,9030.512492
2642.372017,0.000000,1554.432478,8734.430116
2642.372346,383.047749,814.226536,8808.450710
2642.372675,1225.752797,888.247130,8438.347739
2642.373004,842.705048,-74.020594,8882.471304
2642.373333,76.609550,-592.164754,9474.636058
2642.373662,-1149.143247,-1110.308913,9696.697840
2642.373991,0.000000,-1110.308913,10140.821405
2642.374321,229.828649,-666.185348,9474.636058
2642.374650,76.609550,740.205942,9178.553681
2642.374979,-306.438199,1184.329507,9548.656652
2642.375308,-229.828649,888.247130,9400.615463
2642.375637,1302.362347,296.082377,8882.471304
2642.375966,2451.505594,148.041188,8512.368333
2642.376295,2681.334243,-0.000000,8882.471304
2642.376624,689.485948,-296.082377,10362.883188
2642.376953,842.705048,-222.061783,9326.594869
2642.377282,1378.971896,-518.144159,9030.512492
2642.377611,1762.019645,666.185348,8660.409521
2642.377940,459.657299,666.185348,9326.594869
2642.378270,-766.095498,222.061783,9474.636058
2642.378599,-383.047749,-0.000000,9104.533087
2642.378928,689.485948,-444.123565,9326.594869
2642.379257,229.828649,-1110.308913,9030.512492
2642.379586,-919.314598,-1480.411884,9696.697840
2642.379915,-1915.238745,-2220.617826,10066.800811
2642.380244,-689.485948,-2590.720797,9770.718434
2642.380573,842.705048,-2146.597232,9030.512492
2642.380902,-153.219100,-888.247130,8734.430116
2642.381232,-383.047749,518.144159,9104.533087
2642.381561,76.609550,-0.000000,9104.533087
2642.381890,1302.362347,296.082377,7772.162391
2642.382219,1685.410096,222.061783,7476.080014
2642.382548,1455.581446,-0.000000,8290.306550
2642.382877,459.657299,-814.226536,9252.574275
2642.383206,689.485948,-814.226536,9474.636058
2642.383535,1455.581446,-1036.288319,8586.388927
2642.383864,919.314598,-296.082377,8142.265362
2642.384194,-459.657299,1110.308913,8586.388927
2642.384523,-995.924147,962.267725,8734.430116
2642.384852,-383.047749,-0.000000,8956.491898
2642.385181,766.095498,-444.123565,8364.327145
2642.385510,919.314598,-1554.432478,9104.533087
2642.385839,-842.705048,-1480.411884,9474.636058
2642.386168,-1378.971896,-1332.370696,9844.739029
2642.386497,-536.266849,-1554.432478,9178.553681
2642.386826,153.219100,-444.123565,9474.636058
2642.387155,689.485948,222.061783,9030.512492
2642.387485,76.609550,444.123565,8808.450710
2642.387814,612.876398,1480.411884,8734.430116
2642.388143,1072.533697,814.226536,8216.285956
2642.388472,2145.067394,962.267725,8290.306550
2642.388801,1455.581446,370.102971,8660.409521
2642.389130,306.438199,-444.123565,9474.636058
2642.389459,76.609550,-518.144159,9696.697840
2642.389788,1225.752797,-814.226536,9178.553681
2642.390117,1455.581446,-666.185348,9474.636058
2642.390447,306.438199,814.226536,8956.491898
2642.390776,-995.924147,1110.308913,9474.636058
2642.391105,-229.828649,740.205942,8808.450710
2642.391434,766.095498,222.061783,8956.491898
2642.391763,766.095498,-444.123565,9178.553681
2642.392092,0.000000,-1628.453072,9474.636058
2642.392421,-689.485948,-1554.432478,10510.924376
2642.392750,-306.438199,-2442.679609,9918.759623
2642.393079,612.876398,-1110.308913,9326.594869
2642.393409,0.000000,-0.000000,9178.553681
2642.393738,-612.876398,888.247130,9030.512492
2642.394067,0.000000,1036.288319,8956.491898
2642.394396,1302.362347,-0.000000,7920.203579
2642.394725,2221.676944,-0.000000,8290.306550
2642.395054,1225.752797,-518.144159,9252.574275
2642.395383,0.000000,-1258.350101,9474.636058
2642.395712,-153.219100,-1332.370696,9696.697840
2642.396041,842.705048,-1628.453072,9474.636058
2642.396370,919.314598,-74.020594,8364.327145
2642.396700,306.438199,222.061783,9474.636058
2642.397029,153.219100,1184.329507,8512.368333
2642.397358,459.657299,592.164754,8734.430116
2642.397687,1378.971896,888.247130,8290.306550
2642.398016,995.924147,-74.020594,8290.306550
2642.398345,-229.828649,-592.164754,9474.636058
2642.398674,-1149.143247,-740.205942,9696.697840
2642.399003,-383.047749,-2072.576638,10140.821405
2642.399332,153.219100,-1184.329507,9030.512492
2642.399662,306.438199,-222.061783,9030.512492
2642.399991,-842.705048,962.267725,9252.574275
2642.400320,-612.876398,814.226536,9104.533087
2642.400649,766.095498,814.226536,8290.306550
2642.400978,1532.190996,-0.000000,7994.224174
2642.401307,995.924147,518.144159,8586.388927
2642.401636,229.828649,-666.185348,9400.615463
2642.401965,383.047749,-888.247130,9474.636058
2642.402294,612.876398,-1036.288319,9104.533087
2642.402624,1225.752797,-222.061783,8808.450710
2642.402953,536.266849,962.267725,8956.491898
2642.403282,0.000000,1036.288319,8586.388927
2642.403611,766.095498,1406.391290,8438.347739
2642.403940,1685.410096,518.144159,8586.388927
2642.404269,1225.752797,-518.144159,8438.347739
2642.404598,-459.657299,-592.164754,9474.636058
2642.404927,-689.485948,-1184.329507,9696.697840
2642.405256,-459.657299,-2072.576638,9548.656652
2642.405585,0.000000,-1036.288319,9326.594869
2642.405915,306.438199,-814.226536,9474.636058
2642.406244,-842.705048,666.185348,9696.697840
2642.406573,-842.705048,-0.000000,9696.697840
2642.406902,842.705048,-444.123565,9104.533087
2642.407231,1608.800546,-0.000000,8512.368333
2642.407560,919.314598,296.082377,8734.430116
2642.407889,383.047749,-74.020594,9548.656652
2642.408218,536.266849,-814.226536,10066.800811
2642.408547,1302.362347,-1258.350101,9474.636058
2642.408877,1762.019645,-296.082377,9178.553681
2642.409206,536.266849,518.144159,8808.450710
2642.409535,-229.828649,962.267725,8808.450710
2642.409864,306.438199,592.164754,9252.574275
2642.410193,1225.752797,370.102971,8438.347739
2642.410522,1302.362347,-740.205942,9252.574275
2642.410851,-995.924147,-222.061783,9548.656652
2642.411180,-1072.533697,-1406.391290,9622.677246
2642.411509,-919.314598,-1332.370696,9992.780217
2642.411839,0.000000,-888.247130,9326.594869
2642.412168,0.000000,-0.000000,8882.471304
2642.412497,-995.924147,592.164754,9474.636058
2642.412826,-842.705048,1036.288319,9030.512492
2642.413155,306.438199,666.185348,8586.388927
2642.413484,1532.190996,740.205942,8142.265362
2642.413813,1072.533697,-148.041188,8364.327145
2642.414142,0.000000,-222.061783,9178.553681
2642.414471,229.828649,-444.123565,9474.636058
2642.414800,995.924147,-370.102971,9104.533087
2642.415130,842.705048,-592.164754,8808.450710
2642.415459,229.828649,814.226536,8808.450710
2642.415788,-229.828649,1184.329507,8660.409521
2642.416117,153.219100,1184.329507,8808.450710
2642.416446,1225.752797,962.267725,7994.224174
2642.416775,1225.752797,-444.123565,9326.594869
2642.417104,0.000000,-0.000000,8956.491898
2642.417433,0.000000,-1776.494261,9548.656652
2642.417762,-153.219100,-1480.411884,9400.615463
2642.418092,0.000000,-666.185348,9474.636058
2642.418421,229.828649,-518.144159,9474.636058
2642.418750,-919.314598,-0.000000,9474.636058
2642.419079,-383.047749,740.205942,9030.512492
2642.419408,536.266849,-0.000000,8660.409521
2642.419737,2068.457845,444.123565,8586.388927
2642.420066,1072.533697,-0.000000,9252.574275
2642.420395,842.705048,-814.226536,10436.903782
2642.420724,689.485948,-444.123565,9104.533087
2642.421054,1532.190996,-1110.308913,8882.471304
2642.421383,1608.800546,-0.000000,9326.594869
2642.421712,995.924147,592.164754,8808.450710
2642.422041,153.219100,1184.329507,9030.512492
2642.422370,153.219100,1406.391290,8364.327145
2642.422699,1455.581446,296.082377,9178.553681
2642.423028,1072.533697,-148.041188,8956.491898
2642.423357,-612.876398,-666.185348,9400.615463
2642.423686,-1302.362347,-1332.370696,9844.739029
2642.424015,-766.095498,-1998.556043,9696.697840
2642.424345,0.000000,-592.164754,9326.594869
2642.424674,-76.609550,-814.226536,9992.780217
2642.425003,-995.924147,444.123565,9622.677246
2642.425332,-689.485948,962.267725,8882.471304
2642.425661,995.924147,1184.329507,8512.368333
2642.425990,1915.238745,666.185348,8068.244768
2642.426319,1378.971896,666.185348,8956.491898
2642.426648,689.485948,-444.123565,9696.697840
2642.426977,306.438199,-444.123565,9104.533087
2642.427307,1149.143247,-1036.288319,9400.615463
2642.427636,842.705048,-222.061783,8808.450710
2642.427965,0.000000,518.144159,8956.491898
2642.428294,-689.485948,888.247130,8734.430116
2642.428623,76.609550,-0.000000,8808.450710
2642.428952,842.705048,-74.020594,8586.388927
2642.429281,842.705048,-592.164754,8660.409521
2642.429610,76.609550,-1184.329507,9252.574275
2642.429939,-1302.362347,-1184.329507,9622.677246
2642.430269,0.000000,-1554.432478,9844.739029
2642.430598,306.438199,-592.164754,8660.409521
2642.430927,76.609550,-592.164754,9326.594869
2642.431256,0.000000,962.267725,9474.636058
2642.431585,-229.828649,296.082377,9178.553681
2642.431914,612.876398,222.061783,8364.327145
2642.432243,1378.971896,-222.061783,7920.203579
2642.432572,612.876398,-370.102971,9178.553681
2642.432901,-689.485948,-888.247130,9696.697840
2642.433230,-306.438199,-1184.329507,9548.656652
2642.433560,536.266849,-1184.329507,9178.553681
2642.433889,995.924147,-518.144159,8882.471304
2642.434218,0.000000,296.082377,9030.512492
2642.434547,-153.219100,444.123565,8512.368333
2642.434876,536.266849,666.185348,8586.388927
2642.435205,1608.800546,740.205942,8290.306550
2642.435534,1455.581446,-0.000000,8364.327145
2642.435863,689.485948,-666.185348,9474.636058
2642.436192,76.609550,-962.267725,9696.697840
2642.436522,-76.609550,-888.247130,9770.718434
2642.436851,842.705048,-222.061783,9474.636058
2642.437180,383.047749,666.185348,9104.533087
2642.437509,-536.266849,888.247130,9622.677246
2642.437838,-383.047749,962.267725,9400.615463
2642.438167,766.095498,-0.000000,8660.409521
2642.438496,1455.581446,444.123565,8734.430116
2642.438825,995.924147,-74.020594,9252.574275
2642.439154,229.828649,-370.102971,9918.759623
2642.439484,0.000000,-740.205942,9844.739029
2642.439813,1072.533697,-962.267725,9400.615463
2642.440142,1225.752797,-0.000000,8660.409521
2642.440471,612.876398,962.267725,9400.615463
2642.440800,-842.705048,1110.308913,9030.512492
2642.441129,766.095498,814.226536,8956.491898
2642.441458,1762.019645,296.082377,8660.409521
2642.441787,1378.971896,-74.020594,8734.430116
2642.442116,76.609550,-222.061783,9770.718434
2642.442445,-995.924147,-1480.411884,9696.697840
2642.442775,-766.095498,-1406.391290,9622.677246
2642.443104,689.485948,-1998.556043,10214.842000
2642.443433,0.000000,74.020594,8808.450710
2642.443762,-689.485948,296.082377,10288.862594
2642.444091,-842.705048,962.267725,8808.450710
2642.444420,383.047749,222.061783,7772.162391
2642.444749,1149.143247,962.267725,8142.265362
2642.445078,919.314598,-1110.308913,8586.388927
2642.445407,-383.047749,-1184.329507,9696.697840
2642.445737,-536.266849,-962.267725,9400.615463
2642.446066,612.876398,-1924.535449,8808.450710
2642.446395,306.438199,-592.164754,8882.471304
2642.446724,-229.828649,222.061783,8808.450710
2642.447053,-383.047749,518.144159,9030.512492
2642.447382,383.047749,518.144159,8734.430116
2642.447711,1685.410096,296.082377,7920.203579
2642.448040,1225.752797,-0.000000,8808.450710
2642.448369,0.000000,-0.000000,8956.491898
2642.448699,-383.047749,-888.247130,9474.636058
2642.449028,0.000000,-1406.391290,9474.636058
2642.449357,459.657299,-888.247130,9104.533087
2642.449686,229.828649,-888.247130,9252.574275
2642.450015,-383.047749,592.164754,9178.553681
2642.450344,0.000000,592.164754,8142.265362
2642.450673,1072.533697,888.247130,8290.306550
2642.451002,1608.800546,666.185348,8512.368333
2642.451331,536.266849,-0.000000,8586.388927
2642.451660,-306.438199,-592.164754,9844.739029
2642.451990,0.000000,-1110.308913,9548.656652
2642.452319,536.266849,-1554.432478,9992.780217
2642.452648,995.924147,-222.061783,9178.553681
2642.452977,153.219100,444.123565,9178.553681
2642.453306,-306.438199,1036.288319,9992.780217
2642.453635,536.266849,1110.308913,8734.430116
2642.453964,1685.410096,296.082377,8290.306550
2642.454293,1762.019645,370.102971,8734.430116
2642.454622,306.438199,-518.144159,9548.656652
2642.454952,0.000000,-1406.391290,9770.718434
2642.455281,0.000000,-1184.329507,9474.636058
2642.455610,995.924147,-814.226536,9400.615463
2642.455939,0.000000,666.185348,8956.491898
2642.456268,-995.924147,-0.000000,9696.697840
2642.456597,0.000000,444.123565,9104.533087
2642.456926,536.266849,-0.000000,8364.327145
2642.457255,919.314598,-0.000000,8290.306550
2642.457584,-459.657299,-222.061783,9178.553681
2642.457914,-459.657299,-444.123565,9474.636058
2642.458243,-153.219100,-962.267725,9474.636058
2642.458572,689.485948,-1036.288319,8956.491898
2642.458901,1302.362347,-518.144159,8068.244768
2642.459230,229.828649,296.082377,8660.409521
2642.459559,-229.828649,-0.000000,9326.594869
2642.459888,459.657299,-370.102971,9104.533087
2642.460217,2068.457845,-148.041188,7994.224174
2642.460546,1072.533697,-518.144159,8216.285956
2642.460875,0.000000,-296.082377,9252.574275
2642.461205,-995.924147,-888.247130,9770.718434
2642.461534,0.000000,-962.267725,9252.574275
2642.461863,306.438199,-814.226536,8660.409521
2642.462192,-229.828649,-0.000000,8882.471304
2642.462521,0.000000,518.144159,9474.636058
2642.462850,-383.047749,888.247130,9030.512492
2642.463179,612.876398,148.041188,8438.347739
2642.463508,1455.581446,-296.082377,8216.285956
2642.463837,612.876398,-666.185348,8808.450710
2642.464167,0.000000,-222.061783,9622.677246
2642.464496,536.266849,-1110.308913,9400.615463
2642.464825,612.876398,-888.247130,9252.574275
2642.465154,612.876398,-148.041188,9400.615463
2642.465483,153.219100,592.164754,9326.594869
2642.465812,-383.047749,1332.370696,9474.636058
2642.466141,229.828649,888.247130,8586.388927
2642.466470,1149.143247,740.205942,7994.224174
2642.466799,1149.143247,222.061783,9030.512492
2642.467129,612.876398,-148.041188,9696.697840
2642.467458,-536.266849,-1110.308913,9696.697840
2642.467787,0.000000,-1036.288319,9400.615463
2642.468116,612.876398,-592.164754,9252.574275
2642.468445,76.609550,-74.020594,9104.533087
2642.468774,-612.876398,444.123565,9326.594869
2642.469103,0.000000,296.082377,9178.553681
2642.469432,919.314598,-370.102971,8586.388927
2642.469761,1608.800546,-0.000000,8512.368333
2642.470090,1072.533697,-592.164754,8956.491898
2642.470420,0.000000,-1184.329507,9992.780217
2642.470749,76.609550,-888.247130,9178.553681
2642.471078,1072.533697,-1850.514855,9548.656652
2642.471407,1149.143247,-222.061783,8734.430116
2642.471736,0.000000,-0.000000,8512.368333
2642.472065,-306.438199,1332.370696,9104.533087
2642.472394,-153.219100,518.144159,8438.347739
2642.472723,1302.362347,-222.061783,8142.265362
2642.473052,995.924147,-666.185348,8438.347739
2642.473382,0.000000,-1036.288319,9326.594869
2642.473711,-766.095498,-2146.597232,10362.883188
2642.474040,-306.438199,-2664.741391,9326.594869
2642.474369,229.828649,-1554.432478,9474.636058
2642.474698,153.219100,-296.082377,8956.491898
2642.475027,-459.657299,444.123565,9326.594869
2642.475356,0.000000,1036.288319,9178.553681
2642.475685,1455.581446,666.185348,8290.306550
2642.476014,2451.505594,666.185348,7994.224174
2642.476344,995.924147,-148.041188,8734.430116
2642.476673,0.000000,-592.164754,9696.697840
2642.477002,0.000000,-666.185348,9474.636058
2642.477331,919.314598,-1406.391290,9326.594869
2642.477660,306.438199,-0.000000,8734.430116
2642.477989,-229.828649,148.041188,9030.512492
2642.478318,-766.095498,444.123565,9474.636058
2642.478647,-459.657299,-148.041188,8512.368333
2642.478977,919.314598,296.082377,7624.121203
2642.479306,383.047749,-592.164754,8956.491898
2642.479635,-536.266849,-518.144159,9622.677246
2642.479964,-919.314598,-1036.288319,9696.697840
2642.480293,0.000000,-1332.370696,9474.636058
2642.480622,612.876398,-0.000000,8808.450710
2642.480951,0.000000,-0.000000,9474.636058
2642.481280,153.219100,666.185348,9104.533087
2642.481610,383.047749,1184.329507,8808.450710
2642.481939,1685.410096,1258.350101,8364.327145
2642.482268,2068.457845,888.247130,7772.162391
2642.482597,1378.971896,370.102971,8956.491898
2642.482926,153.219100,-814.226536,9326.594869
2642.483255,689.485948,-666.185348,9178.553681
2642.483584,1302.362347,-592.164754,9400.615463
2642.483913,766.095498,-518.144159,8512.368333
2642.484243,0.000000,740.205942,9030.512492
2642.484572,-842.705048,296.082377,9548.656652
2642.484901,0.000000,-74.020594,9178.553681
2642.485230,919.314598,-444.123565,8586.388927
2642.485559,1532.190996,-148.041188,8364.327145
2642.485888,383.047749,-0.000000,9770.718434
2642.486217,-459.657299,-1036.288319,10214.842000
2642.486546,229.828649,-1110.308913,9622.677246
2642.486875,1225.752797,-74.020594,9326.594869
2642.487205,919.314598,592.164754,9104.533087
2642.487534,306.438199,888.247130,9104.533087
2642.487863,306.438199,740.205942,9252.574275
2642.488192,1762.019645,592.164754,8216.285956
2642.488521,2068.457845,-0.000000,8142.265362
2642.488850,919.314598,-74.020594,9030.512492
2642.489179,-612.876398,-814.226536,9696.697840
2642.489508,-383.047749,-444.123565,9844.739029
2642.489838,-536.266849,-1258.350101,9622.677246
2642.490167,306.438199,-740.205942,9548.656652
2642.490496,-612.876398,-0.000000,9474.636058
2642.490825,-1225.752797,518.144159,8734.430116
2642.491154,-306.438199,296.082377,8512.368333
2642.491483,842.705048,592.164754,8290.306550
2642.491812,766.095498,-0.000000,8586.388927
2642.492141,-536.266849,-444.123565,9400.615463
2642.492471,-766.095498,-1406.391290,9770.718434
2642.492800,-306.438199,-1776.494261,9696.697840
2642.493129,689.485948,-814.226536,9178.553681
2642.493458,229.828649,-148.041188,8956.491898
2642.493787,-612.876398,222.061783,8882.471304
2642.494116,0.000000,1184.329507,8882.471304
2642.494445,1532.190996,888.247130,8216.285956
2642.494774,2068.457845,296.082377,8290.306550
2642.495103,995.924147,740.205942,8734.430116
2642.495433,229.828649,-1036.288319,9474.636058
2642.495762,229.828649,-888.247130,9844.739029
2642.496091,612.876398,-1850.514855,8956.491898
2642.496420,612.876398,-740.205942,9104.533087
2642.496749,0.000000,-0.000000,9474.636058
2642.497078,-459.657299,592.164754,9104.533087
2642.497407,766.095498,-222.061783,8660.409521
2642.497736,1378.971896,296.082377,8438.347739
2642.498066,1378.971896,148.041188,8290.306550
2642.498395,306.438199,-0.000000,9474.636058
2642.498724,-766.095498,-592.164754,9696.697840
2642.499053,229.828649,-1628.453072,9844.739029
2642.499382,995.924147,-592.164754,9104.533087
2642.499711,919.314598,-148.041188,8956.491898
2642.500040,0.000000,666.185348,9178.553681
2642.500369,153.219100,666.185348,8808.450710
2642.500699,1455.581446,666.185348,7994.224174
2642.501028,1838.629195,1036.288319,8068.244768
2642.501357,1149.143247,592.164754,8290.306550
2642.501686,-153.219100,-370.102971,9400.615463
2642.502015,0.000000,-1036.288319,9844.739029
2642.502344,229.828649,-2220.617826,9178.553681
2642.502673,689.485948,-1184.329507,9474.636058
2642.503002,-1302.362347,-370.102971,9326.594869
2642.503332,-1072.533697,-222.061783,9474.636058
2642.503661,0.000000,-0.000000,9104.533087
2642.503990,689.485948,-0.000000,8364.327145
2642.504319,842.705048,-74.020594,8808.450710
2642.504648,-383.047749,-518.144159,9252.574275
2642.504977,-1915.238745,-1480.411884,9992.780217
2642.505306,0.000000,-1776.494261,10066.800811
2642.505635,459.657299,-1332.370696,8808.450710
2642.505964,0.000000,-740.205942,9178.553681
2642.506294,-459.657299,592.164754,9326.594869
2642.506623,153.219100,592.164754,9326.594869
2642.506952,1685.410096,518.144159,8512.368333
2642.507281,2068.457845,296.082377,7920.203579
2642.507610,1225.752797,296.082377,9252.574275
2642.507939,76.609550,-0.000000,9474.636058
2642.508268,76.609550,-518.144159,9104.533087
2642.508597,612.876398,-740.205942,9400.615463
2642.508927,459.657299,222.061783,8808.450710
2642.509256,0.000000,-0.000000,9918.759623
2642.509585,-306.438199,888.247130,9474.636058
2642.509914,-229.828649,518.144159,8586.388927
2642.510243,689.485948,962.267725,8142.265362
2642.510572,536.266849,1036.288319,8956.491898
2642.510901,0.000000,-74.020594,9622.677246
2642.511230,-612.876398,-370.102971,9622.677246
2642.511560,153.219100,-518.144159,9548.656652
2642.511889,919.314598,-370.102971,9104.533087
2642.512218,459.657299,370.102971,8882.471304
2642.512547,0.000000,1110.308913,8882.471304
2642.512876,76.609550,888.247130,9252.574275
2642.513205,1302.362347,888.247130,8216.285956
2642.513534,1991.848295,666.185348,7772.162391
2642.513863,1685.410096,-0.000000,8734.430116
2642.514193,459.657299,-0.000000,9548.656652
2642.514522,0.000000,-370.102971,9918.759623
2642.514851,689.485948,-1184.329507,9178.553681
2642.515180,842.705048,-296.082377,9400.615463
2642.515509,0.000000,-296.082377,9326.594869
2642.515838,-536.266849,296.082377,9104.533087
2642.516167,459.657299,-518.144159,9474.636058
2642.516496,842.705048,-0.000000,8512.368333
2642.516825,766.095498,-148.041188,9030.512492
2642.517155,-383.047749,-148.041188,9548.656652
2642.517484,-689.485948,-740.205942,9770.718434
2642.517813,0.000000,-1332.370696,9918.759623
2642.518142,536.266849,-1554.432478,9030.512492
2642.518471,612.876398,-1036.288319,9030.512492
2642.518800,-459.657299,-0.000000,9992.780217
2642.519129,229.828649,-518.144159,9400.615463
2642.519458,1225.752797,518.144159,8364.327145
2642.519788,1991.848295,296.082377,7772.162391
2642.520117,1455.581446,296.082377,8734.430116
2642.520446,0.000000,-592.164754,10066.800811
2642.520775,306.438199,-1036.288319,9992.780217
2642.521104,1302.362347,-1110.308913,8882.471304
2642.521433,919.314598,-0.000000,8956.491898
2642.521762,153.219100,-74.020594,8956.491898
2642.522091,-842.705048,518.144159,8956.491898
2642.522421,0.000000,-0.000000,8438.347739
2642.522750,1149.143247,370.102971,8290.306550
2642.523079,612.876398,-74.020594,8290.306550
2642.523408,-766.095498,-518.144159,9326.594869
2642.523737,-1762.019645,-1258.350101,9770.718434
2642.524066,-612.876398,-1406.391290,9696.697840
2642.524395,0.000000,-740.205942,9030.512492
2642.524724,-229.828649,-518.144159,9104.533087
2642.525053,-612.876398,370.102971,9104.533087
2642.525383,0.000000,-222.061783,9400.615463
2642.525712,1302.362347,-0.000000,8142.265362
2642.526041,1685.410096,296.082377,7846.182985
