#time,accel_x,accel_y,accel_z
2638.674526,459.657299,-296.082377,9326.594869
2638.674855,459.657299,-148.041188,9252.574275
2638.675184,842.705048,-0.000000,9400.615463
2638.675513,459.657299,-148.041188,8956.491898
2638.675842,689.485948,-74.020594,9178.553681
2638.676171,383.047749,-222.061783,9030.512492
2638.676500,536.266849,-222.061783,9030.512492
2638.676829,153.219100,-74.020594,9178.553681
2638.677159,153.219100,-592.164754,9104.533087
2638.677488,766.095498,-74.020594,9178.553681
2638.677817,612.876398,-222.061783,9030.512492
2638.678146,306.438199,-0.000000,9178.553681
2638.678475,306.438199,-0.000000,8808.450710
2638.678804,459.657299,-0.000000,8882.471304
2638.679133,459.657299,-0.000000,8882.471304
2638.679462,536.266849,148.041188,9252.574275
2638.679791,-766.095498,-0.000000,9178.553681
2638.680120,536.266849,-74.020594,9178.553681
2638.680450,383.047749,-0.000000,9030.512492
2638.680779,306.438199,-222.061783,8956.491898
2638.681108,459.657299,-148.041188,9104.533087
2638.681437,536.266849,-222.061783,9104.533087
2638.681766,76.609550,-222.061783,9400.615463
2638.682095,306.438199,-370.102971,8956.491898
2638.682424,0.000000,-0.000000,9104.533087
2638.682753,306.438199,-0.000000,9252.574275
2638.683082,536.266849,-74.020594,9178.553681
2638.683411,383.047749,-0.000000,9178.553681
2638.683740,459.657299,-296.082377,9030.512492
2638.684070,383.047749,-666.185348,9326.594869
2638.684399,919.314598,-296.082377,9252.574275
2638.684728,766.095498,-444.123565,8882.471304
2638.685057,229.828649,-74.020594,9178.553681
2638.685386,229.828649,-222.061783,9326.594869
2638.685715,229.828649,-0.000000,9178.553681
2638.686044,229.828649,-148.041188,9326.594869
2638.686373,229.828649,-74.020594,9474.636058
2638.686702,306.438199,-370.102971,9326.594869
2638.687031,459.657299,-370.102971,9326.594869
2638.687360,459.657299,-148.041188,9178.553681
2638.687690,229.828649,-0.000000,9178.553681
2638.688019,229.828649,-148.041188,8808.450710
2638.688348,536.266849,-0.000000,9030.512492
2638.688677,536.266849,-0.000000,9104.533087
2638.689006,0.000000,-222.061783,8956.491898
2638.689335,459.657299,-74.020594,8808.450710
2638.689664,306.438199,148.041188,8882.471304
2638.689993,306.438199,-0.000000,8808.450710
2638.690322,76.609550,-0.000000,8956.491898
2638.690651,229.828649,-0.000000,8882.471304
2638.690980,459.657299,-370.102971,8808.450710
2638.691310,612.876398,-148.041188,8956.491898
2638.691639,612.876398,-0.000000,8882.471304
2638.691968,383.047749,-148.041188,8734.430116
2638.692297,229.828649,-74.020594,8808.450710
2638.692626,383.047749,-222.061783,9030.512492
2638.692955,459.657299,-74.020594,8882.471304
2638.693284,612.876398,-222.061783,9104.533087
2638.693613,612.876398,-518.144159,9252.574275
2638.693942,153.219100,-444.123565,9104.533087
2638.694271,383.047749,-444.123565,9252.574275
2638.694600,383.047749,-148.041188,9326.594869
2638.694930,306.438199,-296.082377,9326.594869
2638.695259,229.828649,-296.082377,9104.533087
2638.695588,229.828649,-296.082377,9326.594869
2638.695917,229.828649,-518.144159,9400.615463
2638.696246,842.705048,-518.144159,8956.491898
2638.696575,459.657299,-296.082377,9030.512492
2638.696904,459.657299,-222.061783,9178.553681
2638.697233,536.266849,-148.041188,9030.512492
2638.697562,306.438199,-222.061783,9178.553681
2638.697891,306.438199,-370.102971,9030.512492
2638.698220,229.828649,-592.164754,8956.491898
2638.698550,459.657299,-0.000000,9326.594869
2638.698879,229.828649,-74.020594,9252.574275
2638.699208,383.047749,-148.041188,8808.450710
2638.699537,229.828649,-74.020594,9030.512492
2638.699866,383.047749,-0.000000,8808.450710
2638.700195,153.219100,-444.123565,9030.512492
2638.700524,459.657299,-74.020594,8956.491898
2638.700853,76.609550,-74.020594,9030.512492
2638.701182,383.047749,-0.000000,8512.368333
2638.701511,229.828649,-0.000000,8882.471304
2638.701841,153.219100,-0.000000,8956.491898
2638.702170,229.828649,-148.041188,8956.491898
2638.702499,76.609550,-74.020594,9030.512492
2638.702828,1455.581446,-222.061783,9178.553681
2638.703157,919.314598,-592.164754,8882.471304
2638.703486,229.828649,-148.041188,9178.553681
2638.703815,383.047749,-0.000000,8956.491898
2638.704144,229.828649,-296.082377,8808.450710
2638.704473,306.438199,-148.041188,9104.533087
2638.704802,612.876398,-222.061783,9178.553681
2638.705131,536.266849,-74.020594,9326.594869
2638.705461,689.485948,-592.164754,9104.533087
2638.705790,536.266849,-444.123565,9178.553681
2638.706119,536.266849,-444.123565,9030.512492
2638.706448,536.266849,-222.061783,9104.533087
2638.706777,383.047749,-74.020594,9178.553681
2638.707106,153.219100,-222.061783,9104.533087
2638.707435,383.047749,-592.164754,8882.471304
2638.707764,536.266849,-222.061783,9252.574275
2638.708093,459.657299,-370.102971,9178.553681
2638.708422,229.828649,-222.061783,9178.553681
2638.708751,383.047749,-370.102971,9104.533087
2638.709081,306.438199,-222.061783,9252.574275
2638.709410,0.000000,-592.164754,9326.594869
2638.709739,536.266849,-592.164754,8956.491898
2638.710068,842.705048,-296.082377,9178.553681
2638.710397,306.438199,-0.000000,9178.553681
2638.710726,383.047749,-0.000000,8882.471304
2638.711055,306.438199,-0.000000,8956.491898
2638.711384,383.047749,-0.000000,8808.450710
2638.711713,306.438199,-148.041188,8808.450710
2638.712042,153.219100,-444.123565,8808.450710
2638.712371,229.828649,-0.000000,8734.430116
2638.712701,153.219100,-666.185348,9252.574275
2638.713030,459.657299,-444.123565,9030.512492
2638.713359,383.047749,-74.020594,8660.409521
2638.713688,153.219100,-148.041188,8882.471304
2638.714017,306.438199,-296.082377,9326.594869
2638.714346,1072.533697,-1036.288319,9696.697840
2638.714675,1915.238745,-962.267725,9474.636058
2638.715004,1455.581446,-592.164754,9474.636058
2638.715333,1225.752797,-296.082377,9474.636058
2638.715662,2068.457845,-0.000000,8808.450710
2638.715991,3447.429741,592.164754,8882.471304
2638.716321,4060.306139,-74.020594,8882.471304
2638.716650,3907.087040,-0.000000,8512.368333
2638.716979,3524.039291,370.102971,8956.491898
2638.717308,2911.162892,1110.308913,8216.285956
2638.717637,2604.724693,-444.123565,9844.739029
2638.717966,2451.505594,-518.144159,9474.636058
2638.718295,995.924147,-666.185348,9548.656652
2638.718624,1455.581446,-1554.432478,10436.903782
2638.718953,2374.896044,-2072.576638,9474.636058
2638.719282,2451.505594,-444.123565,9548.656652
2638.719611,2528.115143,-1332.370696,10362.883188
2638.719941,3370.820191,-888.247130,9400.615463
2638.720270,4060.306139,666.185348,9548.656652
2638.720599,5592.497135,1184.329507,7772.162391
2638.720928,5209.449386,1406.391290,7772.162391
2638.721257,4749.792088,1258.350101,9104.533087
2638.721586,5669.106685,1110.308913,7698.141797
2638.721915,4290.134789,666.185348,8142.265362
2638.722244,3294.210641,-370.102971,8956.491898
2638.722573,1915.238745,-148.041188,8882.471304
2638.722902,1762.019645,-222.061783,9622.677246
2638.723232,766.095498,-1554.432478,9548.656652
2638.723561,1532.190996,-814.226536,9992.780217
2638.723890,536.266849,-1406.391290,9844.739029
2638.724219,1455.581446,-296.082377,9622.677246
2638.724548,995.924147,-888.247130,9992.780217
2638.724877,2987.772442,370.102971,8364.327145
2638.725206,3370.820191,-0.000000,8586.388927
2638.725535,4596.572988,1702.473667,8882.471304
2638.725864,4519.963438,888.247130,7846.182985
2638.726193,4673.182538,1110.308913,8290.306550
2638.726522,4673.182538,222.061783,9030.512492
2638.726852,3907.087040,-74.020594,8364.327145
2638.727181,2911.162892,-740.205942,9400.615463
2638.727510,2451.505594,-1702.473667,9770.718434
2638.727839,2145.067394,-1480.411884,10510.924376
2638.728168,1608.800546,-2146.597232,9844.739029
2638.728497,2451.505594,-1998.556043,10140.821405
2638.728826,2757.943793,-1332.370696,9696.697840
2638.729155,3830.477490,-296.082377,9400.615463
2638.729484,3830.477490,296.082377,8216.285956
2638.729813,4366.744339,1702.473667,8882.471304
2638.730142,4213.525239,2368.659014,7994.224174
2638.730472,4673.182538,2516.700203,7698.141797
2638.730801,4213.525239,2590.720797,7920.203579
2638.731130,3524.039291,1776.494261,8068.244768
2638.731459,3370.820191,814.226536,8068.244768
2638.731788,2528.115143,-74.020594,9326.594869
2638.732117,2451.505594,-1776.494261,9918.759623
2638.732446,1838.629195,-2664.741391,10214.842000
2638.732775,1685.410096,-2738.761985,10732.986159
2638.733104,2528.115143,-2960.823768,10510.924376
2638.733433,3677.258390,-2072.576638,10214.842000
2638.733762,3983.696590,-0.000000,9918.759623
2638.734092,5362.668486,592.164754,9252.574275
2638.734421,5745.716235,1554.432478,8438.347739
2638.734750,5822.325785,2442.679609,7920.203579
2638.735079,4826.401637,3108.864956,7402.059420
2638.735408,4749.792088,4071.132681,6809.894666
2638.735737,4519.963438,2442.679609,6883.915261
2638.736066,4136.915689,1924.535449,6513.812290
2638.736395,1838.629195,-74.020594,9252.574275
2638.736724,0.000000,-4441.235652,10881.027347
2638.737053,-1072.533697,-3552.988522,10510.924376
2638.737382,-459.657299,-5551.544565,11843.295072
2638.737712,-919.314598,-3256.906145,10140.821405
2638.738041,-383.047749,-1998.556043,11103.089130
2638.738370,689.485948,-1036.288319,10510.924376
2638.738699,1915.238745,518.144159,10362.883188
2638.739028,4749.792088,370.102971,10436.903782
2638.739357,6971.469032,1776.494261,7846.182985
2638.739686,7124.688131,1258.350101,8438.347739
2638.740015,5286.058936,592.164754,6957.935855
2638.740344,5975.544884,1776.494261,6957.935855
2638.740673,5898.935335,2368.659014,7328.038826
2638.741003,5592.497135,2220.617826,6069.688724
2638.741332,4749.792088,3330.926739,6809.894666
2638.741661,4979.620737,1924.535449,6217.729913
2638.741990,4290.134789,-0.000000,7179.997637
2638.742319,1302.362347,-5033.400406,9696.697840
2638.742648,383.047749,-6883.915261,12953.603985
2638.742977,-1149.143247,-3404.947333,11325.150913
2638.743306,-1072.533697,-6439.791695,13915.871710
2638.743635,-1608.800546,-1998.556043,10732.986159
2638.743964,1149.143247,-0.000000,12139.377449
2638.744293,3524.039291,814.226536,10955.047942
2638.744623,4979.620737,2368.659014,8956.491898
2638.744952,7354.516781,740.205942,9252.574275
2638.745281,7277.907231,2368.659014,8142.265362
2638.745610,7737.564530,4219.173869,5329.482782
2638.745939,7737.564530,3182.885551,5403.503377
2638.746268,7354.516781,592.164754,5773.606348
2638.746597,6818.249932,3108.864956,5033.400406
2638.746926,6358.592633,296.082377,7550.100608
2638.747255,2528.115143,2072.576638,5699.585753
2638.747584,4903.011187,-0.000000,7402.059420
2638.747913,229.828649,-4071.132681,11769.274478
2638.748243,-1915.238745,-5921.647536,12287.418637
2638.748572,-2528.115143,-0.000000,12065.356855
2638.748901,-842.705048,-8142.265362,13101.645173
2638.749230,-1225.752797,-296.082377,9844.739029
2638.749559,2298.286494,814.226536,13101.645173
2638.749888,1149.143247,814.226536,9992.780217
2638.750217,1149.143247,444.123565,14285.974681
2638.750546,6971.469032,-888.247130,8290.306550
2638.750875,10265.679673,2368.659014,7698.141797
2638.751204,6511.811733,1628.453072,6735.874072
2638.751533,7201.297681,1924.535449,4885.359217
2638.751863,6741.640382,1776.494261,7920.203579
2638.752192,5975.544884,814.226536,7550.100608
2638.752521,5515.887586,2812.782580,4737.318029
2638.752850,3600.648841,2368.659014,9104.533087
2638.753179,1838.629195,-592.164754,8882.471304
2638.753508,842.705048,-962.267725,11325.150913
2638.753837,153.219100,-3478.967927,10214.842000
2638.754166,0.000000,-1406.391290,10807.006753
2638.754495,-459.657299,-5255.462188,13767.830521
2638.754824,-1149.143247,-1776.494261,9844.739029
2638.755153,536.266849,-74.020594,11547.212695
2638.755483,2298.286494,888.247130,9696.697840
2638.755812,2604.724693,2812.782580,7920.203579
2638.756141,4749.792088,444.123565,7846.182985
2638.756470,4519.963438,1850.514855,7105.977043
2638.756799,3753.867940,1480.411884,7402.059420
2638.757128,2528.115143,518.144159,6291.750507
2638.757457,2374.896044,-1258.350101,7920.203579
2638.757786,842.705048,-1776.494261,8364.327145
2638.758115,0.000000,-2812.782580,9474.636058
2638.758444,-1685.410096,-1998.556043,10807.006753
2638.758773,-2298.286494,-1924.535449,9992.780217
2638.759103,-383.047749,-0.000000,10066.800811
2638.759432,-766.095498,-0.000000,8808.450710
2638.759761,-459.657299,148.041188,9622.677246
2638.760090,0.000000,-0.000000,9696.697840
2638.760420,1149.143247,370.102971,8364.327145
2638.760749,1685.410096,1924.535449,7772.162391
2638.761078,2068.457845,740.205942,7994.224174
2638.761407,1685.410096,-1184.329507,9252.574275
2638.761737,842.705048,-1406.391290,8882.471304
2638.762066,229.828649,-592.164754,8734.430116
2638.762395,-459.657299,-888.247130,9104.533087
2638.762724,-995.924147,-666.185348,9918.759623
2638.763054,-995.924147,-1480.411884,10214.842000
2638.763383,-1455.581446,-1480.411884,10362.883188
2638.763712,-842.705048,-888.247130,9474.636058
2638.764042,-229.828649,-0.000000,9622.677246
2638.764371,0.000000,296.082377,10955.047942
2638.764700,919.314598,-222.061783,9622.677246
2638.765029,2298.286494,814.226536,8586.388927
2638.765359,3600.648841,1628.453072,8142.265362
2638.765688,3524.039291,1702.473667,8216.285956
2638.766017,3064.381992,962.267725,8660.409521
2638.766347,1991.848295,-148.041188,9030.512492
2638.766676,2528.115143,-222.061783,9104.533087
2638.767005,2528.115143,370.102971,8586.388927
2638.767334,1685.410096,-148.041188,8808.450710
2638.767664,306.438199,-1184.329507,9474.636058
2638.767993,-612.876398,-1554.432478,9622.677246
2638.768322,76.609550,-518.144159,9548.656652
2638.768651,0.000000,148.041188,8956.491898
2638.768981,-459.657299,888.247130,9474.636058
2638.769310,-995.924147,1184.329507,9252.574275
2638.769639,-919.314598,-0.000000,9696.697840
2638.769969,-383.047749,148.041188,8142.265362
2638.770298,383.047749,888.247130,8290.306550
2638.770627,0.000000,444.123565,9104.533087
2638.770956,-306.438199,-1110.308913,9474.636058
2638.771286,-306.438199,-1998.556043,9770.718434
2638.771615,229.828649,-1036.288319,9326.594869
2638.771944,766.095498,-296.082377,9104.533087
2638.772274,536.266849,-0.000000,9030.512492
2638.772603,306.438199,-0.000000,9252.574275
2638.772932,689.485948,-0.000000,9400.615463
2638.773261,1455.581446,962.267725,8808.450710
2638.773591,766.095498,1036.288319,7846.182985
2638.773920,0.000000,444.123565,8808.450710
2638.774249,-1072.533697,-0.000000,9400.615463
2638.774579,-1455.581446,-962.267725,9696.697840
2638.774908,-1072.533697,-592.164754,9400.615463
2638.775237,-1225.752797,296.082377,8586.388927
2638.775566,-2374.896044,-1628.453072,9474.636058
2638.775896,-1532.190996,-1702.473667,10362.883188
2638.776225,-1149.143247,-962.267725,9030.512492
2638.776554,229.828649,-1850.514855,9030.512492
2638.776883,612.876398,-666.185348,9326.594869
2638.777213,383.047749,-296.082377,9696.697840
2638.777542,-306.438199,-2664.741391,10658.965565
2638.777871,995.924147,-888.247130,9622.677246
2638.778201,2374.896044,-74.020594,7105.977043
2638.778530,3370.820191,2516.700203,7772.162391
2638.778859,2298.286494,1554.432478,7772.162391
2638.779188,1685.410096,1110.308913,8216.285956
2638.779518,1378.971896,1332.370696,7476.080014
2638.779847,1991.848295,1406.391290,7402.059420
2638.780176,383.047749,-592.164754,7624.121203
2638.780506,-842.705048,-962.267725,9326.594869
2638.780835,-2068.457845,-2886.803174,10362.883188
2638.781164,-1149.143247,-2220.617826,9770.718434
2638.781493,-76.609550,-1184.329507,8734.430116
2638.781823,-306.438199,-740.205942,9548.656652
2638.782152,-1302.362347,-0.000000,9400.615463
2638.782481,-842.705048,-592.164754,9622.677246
2638.782811,842.705048,-296.082377,9622.677246
2638.783140,1762.019645,370.102971,8956.491898
2638.783469,1762.019645,-0.000000,9178.553681
2638.783798,1532.190996,-74.020594,8734.430116
2638.784128,1915.238745,-148.041188,8586.388927
2638.784457,2451.505594,962.267725,7772.162391
2638.784786,2221.676944,1258.350101,7772.162391
2638.785115,1532.190996,740.205942,8438.347739
2638.785445,-689.485948,-0.000000,9474.636058
2638.785774,0.000000,-0.000000,9474.636058
2638.786103,0.000000,-518.144159,9326.594869
2638.786433,-842.705048,-518.144159,9622.677246
2638.786762,-229.828649,-1628.453072,9474.636058
2638.787091,-1915.238745,-1406.391290,10066.800811
2638.787420,0.000000,-666.185348,11177.109724
2638.787750,536.266849,-0.000000,9400.615463
2638.788079,0.000000,296.082377,9400.615463
2638.788408,-306.438199,888.247130,9770.718434
2638.788738,-383.047749,148.041188,9400.615463
2638.789067,229.828649,370.102971,8808.450710
2638.789396,1685.410096,1036.288319,8882.471304
2638.789725,1838.629195,-0.000000,9030.512492
2638.790055,536.266849,-740.205942,8142.265362
2638.790384,153.219100,-1110.308913,9770.718434
2638.790713,919.314598,-0.000000,8290.306550
2638.791042,689.485948,222.061783,8142.265362
2638.791372,0.000000,-0.000000,9992.780217
2638.791701,-1378.971896,-592.164754,9326.594869
2638.792030,-306.438199,-1258.350101,10066.800811
2638.792360,459.657299,-592.164754,8882.471304
2638.792689,1225.752797,-0.000000,7994.224174
2638.793018,0.000000,-518.144159,9104.533087
2638.793347,0.000000,-592.164754,9474.636058
2638.793677,0.000000,-222.061783,9030.512492
2638.794006,459.657299,-518.144159,8882.471304
2638.794335,919.314598,370.102971,8586.388927
2638.794665,-383.047749,-0.000000,9178.553681
2638.794994,-995.924147,-814.226536,9844.739029
2638.795323,-383.047749,-740.205942,9178.553681
2638.795652,766.095498,222.061783,8586.388927
2638.795982,919.314598,-148.041188,8660.409521
2638.796311,383.047749,-814.226536,9326.594869
2638.796640,536.266849,-1110.308913,9622.677246
2638.796970,1685.410096,-222.061783,8586.388927
2638.797299,2757.943793,-0.000000,7031.956449
2638.797628,2374.896044,296.082377,8290.306550
2638.797957,1225.752797,-0.000000,8216.285956
2638.798287,842.705048,-666.185348,9030.512492
2638.798616,1455.581446,444.123565,7920.203579
2638.798945,1225.752797,444.123565,8068.244768
2638.799274,0.000000,-518.144159,9548.656652
2638.799604,-1302.362347,-1258.350101,10066.800811
2638.799933,-612.876398,-1702.473667,10584.944971
2638.800262,0.000000,-444.123565,9696.697840
2638.800592,0.000000,-0.000000,8882.471304
2638.800921,-842.705048,-0.000000,9474.636058
2638.801250,-689.485948,-0.000000,9622.677246
2638.801579,536.266849,-888.247130,9696.697840
2638.801909,1149.143247,-0.000000,8364.327145
2638.802238,1991.848295,888.247130,7994.224174
2638.802567,1685.410096,-0.000000,8068.244768
2638.802897,1302.362347,-0.000000,8216.285956
2638.803226,1991.848295,-74.020594,8808.450710
2638.803555,2145.067394,740.205942,8068.244768
2638.803884,1608.800546,888.247130,8512.368333
2638.804214,536.266849,-148.041188,9104.533087
2638.804543,-842.705048,-370.102971,9696.697840
2638.804872,-842.705048,-740.205942,9548.656652
2638.805202,-383.047749,-222.061783,9252.574275
2638.805531,-229.828649,-296.082377,9252.574275
2638.805860,-1225.752797,-888.247130,9104.533087
2638.806189,-1762.019645,-1258.350101,10288.862594
2638.806519,-1072.533697,-1628.453072,10436.903782
2638.806848,-153.219100,-444.123565,9474.636058
2638.807177,-766.095498,-0.000000,9400.615463
2638.807506,-1072.533697,-296.082377,9400.615463
2638.807836,-995.924147,-740.205942,9992.780217
2638.808165,76.609550,-222.061783,9326.594869
2638.808494,995.924147,296.082377,8216.285956
2638.808824,1455.581446,-0.000000,8956.491898
2638.809153,1225.752797,-0.000000,9104.533087
2638.809482,1302.362347,222.061783,9326.594869
2638.809811,1915.238745,1184.329507,8216.285956
2638.810141,1838.629195,1480.411884,8364.327145
2638.810470,1302.362347,592.164754,9400.615463
2638.810799,0.000000,370.102971,9252.574275
2638.811129,0.000000,-296.082377,9252.574275
2638.811458,306.438199,-370.102971,9030.512492
2638.811787,612.876398,-0.000000,8956.491898
2638.812116,-306.438199,-1184.329507,9178.553681
2638.812446,-842.705048,-1480.411884,9696.697840
2638.812775,0.000000,-1702.473667,9474.636058
2638.813104,919.314598,-222.061783,8882.471304
2638.813433,229.828649,666.185348,8586.388927
2638.813763,229.828649,148.041188,9178.553681
2638.814092,153.219100,296.082377,9622.677246
2638.814421,1455.581446,1554.432478,8882.471304
2638.814751,2068.457845,1776.494261,7994.224174
2638.815080,1762.019645,666.185348,8660.409521
2638.815409,1455.581446,-518.144159,9918.759623
2638.815738,153.219100,-222.061783,9548.656652
2638.816068,1455.581446,-0.000000,9104.533087
2638.816397,1991.848295,-592.164754,8660.409521
2638.816726,689.485948,740.205942,9030.512492
2638.817056,0.000000,-666.185348,9696.697840
2638.817385,-306.438199,-1036.288319,8956.491898
2638.817714,153.219100,-0.000000,8512.368333
2638.818043,919.314598,-814.226536,8290.306550
2638.818373,-689.485948,-592.164754,8438.347739
2638.818702,-1532.190996,-1628.453072,10066.800811
2638.819031,-842.705048,-1184.329507,9844.739029
2638.819361,-306.438199,-518.144159,8882.471304
2638.819690,-383.047749,814.226536,9104.533087
2638.820019,-612.876398,-222.061783,9178.553681
2638.820348,-2145.067394,-222.061783,9992.780217
2638.820678,-689.485948,-1480.411884,10140.821405
2638.821007,612.876398,296.082377,7920.203579
2638.821336,689.485948,-222.061783,8808.450710
2638.821665,383.047749,-444.123565,9104.533087
2638.821995,536.266849,-1036.288319,9030.512492
2638.822324,1072.533697,-444.123565,9252.574275
2638.822653,2298.286494,740.205942,7846.182985
2638.822983,1838.629195,592.164754,7994.224174
2638.823312,536.266849,518.144159,7994.224174
2638.823641,76.609550,-74.020594,9178.553681
2638.823970,1378.971896,-148.041188,8734.430116
2638.824300,919.314598,-0.000000,7920.203579
2638.824629,-689.485948,-370.102971,9104.533087
2638.824958,-1302.362347,-1406.391290,10214.842000
2638.825288,-1455.581446,-1554.432478,10140.821405
2638.825617,-306.438199,-1110.308913,9326.594869
2638.825946,306.438199,-74.020594,9178.553681
2638.826275,-459.657299,-0.000000,9326.594869
2638.826605,-919.314598,962.267725,8956.491898
2638.826934,0.000000,-444.123565,10288.862594
2638.827263,842.705048,-370.102971,7994.224174
2638.827593,1608.800546,666.185348,8882.471304
2638.827922,1685.410096,-370.102971,9992.780217
2638.828251,1149.143247,-740.205942,8364.327145
2638.828580,1991.848295,-148.041188,9178.553681
2638.828910,2374.896044,444.123565,8364.327145
2638.829239,2145.067394,666.185348,9326.594869
2638.829568,1149.143247,148.041188,9548.656652
2638.829897,306.438199,814.226536,9400.615463
2638.830227,229.828649,-222.061783,10140.821405
2638.830556,229.828649,518.144159,8808.450710
2638.830885,536.266849,222.061783,9178.553681
2638.831215,-536.266849,-962.267725,10066.800811
2638.831544,-766.095498,-1702.473667,10881.027347
2638.831873,-536.266849,-1554.432478,10214.842000
2638.832202,536.266849,-666.185348,9548.656652
2638.832532,-229.828649,518.144159,9030.512492
2638.832861,-459.657299,222.061783,9474.636058
2638.833190,0.000000,-0.000000,9474.636058
2638.833520,842.705048,1258.350101,8290.306550
2638.833849,1762.019645,2146.597232,7550.100608
2638.834178,1532.190996,444.123565,8438.347739
2638.834507,1149.143247,-962.267725,9030.512492
2638.834837,1149.143247,-518.144159,9474.636058
2638.835166,1225.752797,-148.041188,8216.285956
2638.835495,1072.533697,666.185348,7994.224174
2638.835824,153.219100,296.082377,9474.636058
2638.836154,-536.266849,-444.123565,9548.656652
2638.836483,-612.876398,-740.205942,8364.327145
2638.836812,0.000000,-370.102971,8734.430116
2638.837142,0.000000,-222.061783,8660.409521
2638.837471,-536.266849,-222.061783,8882.471304
2638.837800,-612.876398,-1702.473667,9696.697840
2638.838129,-689.485948,-1406.391290,9400.615463
2638.838459,536.266849,-370.102971,8882.471304
2638.838788,76.609550,-0.000000,8216.285956
2638.839117,-612.876398,-0.000000,9400.615463
2638.839447,-995.924147,-814.226536,9252.574275
2638.839776,-383.047749,-666.185348,8956.491898
2638.840105,689.485948,-74.020594,8512.368333
2638.840434,919.314598,-0.000000,8142.265362
2638.840764,-459.657299,-666.185348,9104.533087
2638.841093,-766.095498,-1628.453072,9992.780217
2638.841422,612.876398,-814.226536,9400.615463
2638.841752,1378.971896,444.123565,8808.450710
2638.842081,1455.581446,222.061783,8808.450710
2638.842410,0.000000,814.226536,8734.430116
2638.842739,0.000000,-0.000000,9252.574275
2638.843069,459.657299,-0.000000,8142.265362
2638.843398,1225.752797,296.082377,8290.306550
2638.843727,0.000000,-148.041188,9104.533087
2638.844056,-919.314598,-740.205942,9400.615463
2638.844386,-995.924147,-1850.514855,10066.800811
2638.844715,0.000000,-666.185348,9178.553681
2638.845044,229.828649,222.061783,8956.491898
2638.845374,-536.266849,370.102971,9104.533087
2638.845703,-1225.752797,-296.082377,9548.656652
2638.846032,0.000000,-0.000000,10214.842000
2638.846361,919.314598,-74.020594,8586.388927
2638.846691,1455.581446,518.144159,8660.409521
2638.847020,1302.362347,-666.185348,9548.656652
2638.847349,1225.752797,-148.041188,9178.553681
2638.847679,2604.724693,-148.041188,9104.533087
2638.848008,2528.115143,296.082377,8142.265362
2638.848337,2528.115143,740.205942,8364.327145
2638.848666,1302.362347,1036.288319,9326.594869
2638.848996,766.095498,592.164754,8734.430116
2638.849325,995.924147,222.061783,8734.430116
2638.849654,689.485948,222.061783,8586.388927
2638.849983,1072.533697,-148.041188,9474.636058
2638.850313,-689.485948,-1036.288319,10214.842000
2638.850642,-1302.362347,-2368.659014,10288.862594
2638.850971,-689.485948,-1850.514855,10362.883188
2638.851301,-306.438199,-592.164754,9474.636058
2638.851630,-612.876398,-0.000000,8956.491898
2638.851959,-689.485948,-0.000000,9918.759623
2638.852288,-1455.581446,-1480.411884,9918.759623
2638.852618,-612.876398,-814.226536,9696.697840
2638.852947,76.609550,370.102971,8882.471304
2638.853276,0.000000,-1628.453072,8882.471304
2638.853606,-306.438199,-148.041188,10510.924376
2638.853935,306.438199,-444.123565,8882.471304
2638.854264,1225.752797,-0.000000,8290.306550
2638.854593,2145.067394,2072.576638,7920.203579
2638.854923,1915.238745,1184.329507,8808.450710
2638.855252,995.924147,740.205942,9104.533087
2638.855581,766.095498,-0.000000,8142.265362
2638.855911,766.095498,592.164754,7550.100608
2638.856240,1072.533697,222.061783,8142.265362
2638.856569,76.609550,-0.000000,8586.388927
2638.856898,-536.266849,-1998.556043,9918.759623
2638.857228,-612.876398,-1554.432478,9400.615463
2638.857557,-383.047749,-1702.473667,8882.471304
2638.857886,-919.314598,-148.041188,9178.553681
2638.858215,-1532.190996,222.061783,9326.594869
2638.858545,-1608.800546,-888.247130,10288.862594
2638.858874,-612.876398,-0.000000,9400.615463
2638.859203,306.438199,592.164754,8438.347739
2638.859533,995.924147,-0.000000,8512.368333
2638.859862,766.095498,-814.226536,8956.491898
2638.860191,1072.533697,-1332.370696,9326.594869
2638.860520,2145.067394,-370.102971,8290.306550
2638.860850,2451.505594,444.123565,7994.224174
2638.861179,1838.629195,592.164754,8290.306550
2638.861508,1838.629195,518.144159,8438.347739
2638.861837,1302.362347,-518.144159,8586.388927
2638.862167,1378.971896,1184.329507,9104.533087
2638.862496,1762.019645,148.041188,7994.224174
2638.862825,612.876398,-222.061783,8808.450710
2638.863154,0.000000,-592.164754,9696.697840
2638.863483,-153.219100,-1406.391290,9770.718434
2638.863813,229.828649,-888.247130,8956.491898
2638.864142,-536.266849,-444.123565,9252.574275
2638.864471,-1302.362347,-296.082377,11177.109724
2638.864800,-2221.676944,-814.226536,10288.862594
2638.865129,-995.924147,-0.000000,9696.697840
2638.865459,-689.485948,814.226536,8660.409521
2638.865788,612.876398,296.082377,9474.636058
2638.866117,0.000000,-1036.288319,9030.512492
2638.866446,229.828649,-962.267725,10510.924376
2638.866775,1685.410096,-1036.288319,9844.739029
2638.867104,1838.629195,-0.000000,7624.121203
2638.867434,2145.067394,1628.453072,7550.100608
2638.867763,1685.410096,1628.453072,9030.512492
2638.868092,1532.190996,962.267725,8734.430116
2638.868421,1149.143247,1110.308913,7920.203579
2638.868750,1915.238745,592.164754,8142.265362
2638.869080,76.609550,-296.082377,8512.368333
2638.869409,-1608.800546,-1480.411884,9474.636058
2638.869738,-2221.676944,-2072.576638,10288.862594
2638.870067,-1762.019645,-2146.597232,9992.780217
2638.870396,-842.705048,-1184.329507,9622.677246
2638.870726,-1532.190996,-222.061783,9326.594869
2638.871055,-1608.800546,-592.164754,9770.718434
2638.871384,-1378.971896,-518.144159,10362.883188
2638.871713,-306.438199,-0.000000,9252.574275
2638.872042,306.438199,444.123565,8660.409521
2638.872371,153.219100,-518.144159,9326.594869
2638.872701,76.609550,-1036.288319,10140.821405
2638.873030,2145.067394,-888.247130,9178.553681
2638.873359,2987.772442,962.267725,7476.080014
2638.873688,2681.334243,962.267725,7846.182985
2638.874017,2757.943793,1110.308913,8216.285956
2638.874347,1685.410096,1184.329507,8956.491898
2638.874676,1608.800546,814.226536,8142.265362
2638.875005,1532.190996,296.082377,7920.203579
2638.875334,536.266849,-148.041188,8808.450710
2638.875663,-153.219100,-1406.391290,9178.553681
2638.875993,-1532.190996,-2664.741391,10955.047942
2638.876322,-1072.533697,-2664.741391,10214.842000
2638.876651,-536.266849,-1258.350101,9474.636058
2638.876980,-306.438199,-592.164754,9696.697840
2638.877309,-919.314598,518.144159,9400.615463
2638.877638,-842.705048,-518.144159,9696.697840
2638.877968,536.266849,-296.082377,9696.697840
2638.878297,1225.752797,1184.329507,7550.100608
2638.878626,1991.848295,1480.411884,7994.224174
2638.878955,2374.896044,370.102971,8364.327145
2638.879284,2681.334243,-0.000000,8512.368333
2638.879614,2834.553343,296.082377,7698.141797
2638.879943,2145.067394,518.144159,7772.162391
2638.880272,1991.848295,74.020594,8660.409521
2638.880601,459.657299,-74.020594,8660.409521
2638.880930,-153.219100,-148.041188,9548.656652
2638.881260,0.000000,-444.123565,9104.533087
2638.881589,0.000000,-518.144159,8734.430116
2638.881918,-689.485948,-592.164754,9104.533087
2638.882247,-1302.362347,-1628.453072,9696.697840
2638.882576,-995.924147,-1406.391290,9474.636058
2638.882905,-383.047749,-814.226536,9030.512492
2638.883235,0.000000,370.102971,8882.471304
2638.883564,-842.705048,444.123565,9252.574275
2638.883893,-995.924147,-222.061783,9474.636058
2638.884222,0.000000,222.061783,9104.533087
2638.884551,766.095498,740.205942,8290.306550
2638.884881,536.266849,296.082377,8438.347739
2638.885210,229.828649,-444.123565,9252.574275
2638.885539,459.657299,-1406.391290,9992.780217
2638.885868,612.876398,-888.247130,9252.574275
2638.886197,689.485948,-518.144159,8956.491898
2638.886526,919.314598,-74.020594,9474.636058
2638.886856,0.000000,370.102971,9400.615463
2638.887185,-306.438199,-296.082377,9474.636058
2638.887514,306.438199,-148.041188,8660.409521
2638.887843,536.266849,148.041188,7994.224174
2638.888172,766.095498,-0.000000,8660.409521
2638.888502,-612.876398,-518.144159,9474.636058
2638.888831,-919.314598,-1480.411884,10140.821405
2638.889160,-306.438199,-814.226536,9178.553681
2638.889489,76.609550,-0.000000,8586.388927
2638.889818,-459.657299,-0.000000,8882.471304
2638.890148,-536.266849,-370.102971,9474.636058
2638.890477,-536.266849,-1036.288319,9992.780217
2638.890806,-306.438199,-296.082377,9178.553681
2638.891135,919.314598,-0.000000,7920.203579
2638.891464,536.266849,-296.082377,8882.471304
2638.891793,229.828649,-518.144159,9548.656652
2638.892123,1455.581446,-0.000000,9326.594869
2638.892452,2451.505594,296.082377,8438.347739
2638.892781,1915.238745,1554.432478,8216.285956
2638.893110,2068.457845,1036.288319,9326.594869
2638.893439,842.705048,518.144159,9252.574275
2638.893769,995.924147,370.102971,8882.471304
2638.894098,1608.800546,814.226536,8216.285956
2638.894427,1149.143247,370.102971,8734.430116
2638.894756,229.828649,-962.267725,9696.697840
2638.895085,0.000000,-1554.432478,9992.780217
2638.895415,383.047749,-1332.370696,9696.697840
2638.895744,306.438199,-592.164754,8882.471304
2638.896073,0.000000,296.082377,9326.594869
2638.896402,-612.876398,296.082377,9622.677246
2638.896731,0.000000,-296.082377,9696.697840
2638.897060,689.485948,444.123565,9104.533087
2638.897390,1378.971896,962.267725,8512.368333
2638.897719,1072.533697,518.144159,9104.533087
2638.898048,459.657299,-888.247130,9622.677246
2638.898377,689.485948,-888.247130,9696.697840
2638.898706,536.266849,-222.061783,8512.368333
2638.899036,153.219100,-0.000000,9030.512492
2638.899365,229.828649,370.102971,9474.636058
2638.899694,-612.876398,-814.226536,10066.800811
2638.900023,-1072.533697,-222.061783,9400.615463
2638.900352,766.095498,-0.000000,8660.409521
2638.900682,383.047749,444.123565,8068.244768
2638.901011,-383.047749,296.082377,8734.430116
2638.901340,-689.485948,-814.226536,9696.697840
2638.901669,383.047749,-666.185348,9992.780217
2638.901998,153.219100,518.144159,8290.306550
2638.902327,229.828649,222.061783,8142.265362
2638.902657,-1072.533697,444.123565,9252.574275
2638.902986,-1072.533697,-592.164754,9474.636058
2638.903315,-842.705048,-666.185348,9178.553681
2638.903644,0.000000,-370.102971,8068.244768
2638.903973,0.000000,-592.164754,8808.450710
2638.904303,-995.924147,-962.267725,9474.636058
2638.904632,-536.266849,-1554.432478,10362.883188
2638.904961,76.609550,-1184.329507,9178.553681
2638.905290,842.705048,296.082377,8142.265362
2638.905619,306.438199,296.082377,8956.491898
2638.905949,76.609550,444.123565,9474.636058
2638.906278,612.876398,-222.061783,9178.553681
2638.906607,919.314598,-0.000000,8586.388927
2638.906936,1838.629195,592.164754,8438.347739
2638.907265,1302.362347,444.123565,8216.285956
2638.907594,76.609550,-444.123565,9400.615463
2638.907924,76.609550,-1110.308913,9770.718434
2638.908253,612.876398,-740.205942,8586.388927
2638.908582,689.485948,-0.000000,9030.512492
2638.908911,0.000000,-222.061783,9844.739029
2638.909240,-229.828649,-666.185348,10066.800811
2638.909570,-306.438199,-1184.329507,10362.883188
2638.909899,459.657299,-0.000000,9030.512492
2638.910228,842.705048,370.102971,8438.347739
2638.910557,536.266849,-592.164754,9400.615463
2638.910886,459.657299,-444.123565,9400.615463
2638.911216,1378.971896,-592.164754,9400.615463
2638.911545,2298.286494,740.205942,8142.265362
2638.911874,2298.286494,370.102971,8142.265362
2638.912203,919.314598,1110.308913,8512.368333
2638.912532,842.705048,-0.000000,8438.347739
2638.912861,1838.629195,370.102971,7624.121203
2638.913191,1378.971896,1258.350101,7698.141797
2638.913520,842.705048,-666.185348,9474.636058
2638.913849,383.047749,-666.185348,9400.615463
2638.914178,-689.485948,-1184.329507,9104.533087
2638.914507,-229.828649,-0.000000,8734.430116
2638.914837,459.657299,-740.205942,9326.594869
2638.915166,-689.485948,222.061783,9474.636058
2638.915495,-536.266849,-148.041188,10140.821405
2638.915824,-1072.533697,-370.102971,9992.780217
2638.916153,-842.705048,-0.000000,8734.430116
2638.916483,-153.219100,-0.000000,8660.409521
2638.916812,0.000000,-592.164754,9178.553681
2638.917141,-383.047749,-666.185348,9474.636058
2638.917470,0.000000,-1406.391290,9770.718434
2638.917799,1225.752797,-296.082377,9104.533087
2638.918128,995.924147,-0.000000,8956.491898
2638.918458,383.047749,-74.020594,9474.636058
2638.918787,0.000000,-296.082377,9178.553681
2638.919116,306.438199,-666.185348,9400.615463
2638.919445,1225.752797,592.164754,7550.100608
2638.919774,1608.800546,518.144159,8364.327145
2638.920104,306.438199,-0.000000,8660.409521
2638.920433,0.000000,-814.226536,9622.677246
2638.920762,-306.438199,-814.226536,9252.574275
2638.921091,76.609550,518.144159,8956.491898
2638.921420,-306.438199,592.164754,8512.368333
2638.921750,-1225.752797,-296.082377,9474.636058
2638.922079,-1532.190996,-888.247130,9326.594869
2638.922408,-383.047749,-370.102971,8808.450710
2638.922737,536.266849,-0.000000,8734.430116
2638.923066,-459.657299,-814.226536,8290.306550
2638.923395,-612.876398,-1184.329507,10436.903782
2638.923725,153.219100,-2072.576638,10584.944971
2638.924054,1302.362347,-592.164754,7772.162391
2638.924383,2145.067394,814.226536,7846.182985
2638.924712,2451.505594,1258.350101,8364.327145
2638.925041,1915.238745,1036.288319,8808.450710
2638.925371,1532.190996,740.205942,8956.491898
2638.925700,3064.381992,1480.411884,6883.915261
2638.926029,2145.067394,740.205942,7624.121203
2638.926358,1302.362347,222.061783,8216.285956
2638.926687,-383.047749,-1036.288319,9474.636058
2638.927017,-919.314598,-2442.679609,10436.903782
2638.927346,-459.657299,-1184.329507,8956.491898
2638.927675,-1225.752797,-1258.350101,9474.636058
2638.928004,-1838.629195,-1406.391290,10288.862594
2638.928333,-2221.676944,-1258.350101,10658.965565
2638.928662,-766.095498,-1406.391290,10362.883188
2638.928992,0.000000,-0.000000,9326.594869
2638.929321,1302.362347,666.185348,9104.533087
2638.929650,1608.800546,370.102971,8438.347739
2638.929979,1455.581446,-74.020594,8882.471304
2638.930308,3294.210641,370.102971,8660.409521
2638.930638,3064.381992,1628.453072,7328.038826
2638.930967,2374.896044,1554.432478,8216.285956
2638.931296,1302.362347,1110.308913,8956.491898
2638.931625,306.438199,-0.000000,9030.512492
2638.931954,0.000000,-74.020594,8882.471304
2638.932284,-766.095498,-296.082377,8882.471304
2638.932613,-689.485948,-1258.350101,9474.636058
2638.932942,-1915.238745,-2294.638420,10288.862594
2638.933271,-2145.067394,-2368.659014,10288.862594
2638.933600,-1225.752797,-1258.350101,9844.739029
2638.933929,-689.485948,148.041188,8808.450710
2638.934259,-766.095498,370.102971,9178.553681
2638.934588,-1838.629195,-0.000000,9696.697840
2638.934917,689.485948,-222.061783,9622.677246
2638.935246,1455.581446,444.123565,7920.203579
2638.935575,1762.019645,888.247130,7624.121203
2638.935905,1915.238745,148.041188,8216.285956
2638.936234,1302.362347,-518.144159,8660.409521
2638.936563,1455.581446,-1110.308913,8956.491898
2638.936892,1608.800546,-0.000000,7994.224174
2638.937221,1225.752797,518.144159,8290.306550
2638.937551,306.438199,444.123565,9178.553681
2638.937880,-766.095498,-814.226536,9992.780217
2638.938209,-383.047749,-518.144159,9548.656652
2638.938538,76.609550,-444.123565,8290.306550
2638.938867,-459.657299,-222.061783,9474.636058
2638.939196,-459.657299,-888.247130,9178.553681
2638.939526,-383.047749,-1036.288319,9844.739029
2638.939855,306.438199,-1036.288319,9400.615463
2638.940184,612.876398,-370.102971,8586.388927
2638.940513,306.438199,814.226536,8586.388927
2638.940842,-153.219100,-74.020594,9326.594869
2638.941172,0.000000,370.102971,10066.800811
2638.941501,1149.143247,148.041188,9474.636058
2638.941830,1915.238745,592.164754,8364.327145
2638.942159,919.314598,-370.102971,9400.615463
2638.942488,612.876398,-0.000000,9400.615463
2638.942818,689.485948,-444.123565,9844.739029
2638.943147,1225.752797,-296.082377,8808.450710
2638.943476,1149.143247,296.082377,8290.306550
2638.943805,1762.019645,666.185348,9548.656652
2638.944134,536.266849,-148.041188,9252.574275
2638.944463,459.657299,-0.000000,8956.491898
2638.944793,766.095498,444.123565,7994.224174
2638.945122,612.876398,592.164754,8068.244768
2638.945451,0.000000,-0.000000,9326.594869
2638.945780,-1072.533697,-1258.350101,9844.739029
2638.946109,0.000000,-1110.308913,10066.800811
2638.946439,-229.828649,-518.144159,8956.491898
2638.946768,-459.657299,-0.000000,9326.594869
2638.947097,-612.876398,-222.061783,9178.553681
2638.947426,-842.705048,-0.000000,9474.636058
2638.947755,0.000000,518.144159,8586.388927
2638.948085,995.924147,592.164754,8586.388927
2638.948414,1455.581446,1184.329507,8512.368333
2638.948743,1532.190996,-222.061783,8734.430116
2638.949072,612.876398,-1332.370696,9252.574275
2638.949401,1072.533697,-518.144159,8882.471304
2638.949730,1302.362347,296.082377,8512.368333
2638.950060,536.266849,740.205942,8956.491898
2638.950389,-536.266849,-0.000000,9918.759623
2638.950718,-612.876398,-888.247130,9770.718434
2638.951047,536.266849,-592.164754,8364.327145
2638.951376,689.485948,-296.082377,8882.471304
2638.951706,-153.219100,-962.267725,9030.512492
2638.952035,-1149.143247,-1554.432478,9844.739029
2638.952364,-689.485948,-1332.370696,10140.821405
2638.952693,76.609550,-296.082377,8882.471304
2638.953022,459.657299,222.061783,8660.409521
2638.953351,229.828649,-0.000000,9474.636058
2638.953681,-229.828649,296.082377,9252.574275
2638.954010,536.266849,-518.144159,9474.636058
2638.954339,1532.190996,370.102971,8068.244768
2638.954668,1915.238745,370.102971,8364.327145
2638.954997,1762.019645,-222.061783,8512.368333
2638.955327,995.924147,-518.144159,9400.615463
2638.955656,1225.752797,-666.185348,9104.533087
2638.955985,1455.581446,-0.000000,8364.327145
2638.956314,1225.752797,666.185348,9104.533087
2638.956643,229.828649,-0.000000,9104.533087
2638.956973,-612.876398,-0.000000,9030.512492
2638.957302,-383.047749,-296.082377,8068.244768
2638.957631,383.047749,-1628.453072,8808.450710
2638.957960,0.000000,-0.000000,8290.306550
2638.958289,-766.095498,-1332.370696,8512.368333
2638.958618,-536.266849,-2220.617826,10140.821405
2638.958948,383.047749,-1036.288319,9992.780217
2638.959277,536.266849,-0.000000,8882.471304
2638.959606,229.828649,814.226536,8586.388927
2638.959935,229.828649,-74.020594,9252.574275
2638.960264,612.876398,-0.000000,8216.285956
2638.960594,1762.019645,1554.432478,7846.182985
2638.960923,2068.457845,962.267725,7550.100608
2638.961252,1608.800546,-0.000000,8512.368333
2638.961581,766.095498,-148.041188,9326.594869
2638.961910,306.438199,-1406.391290,9104.533087
2638.962240,919.314598,-592.164754,8808.450710
2638.962569,-383.047749,-296.082377,9548.656652
2638.962898,-536.266849,-0.000000,9992.780217
2638.963227,-1302.362347,-592.164754,9770.718434
2638.963556,-842.705048,-592.164754,9918.759623
2638.963885,-459.657299,-0.000000,9252.574275
2638.964215,229.828649,222.061783,8882.471304
2638.964544,-612.876398,-518.144159,8734.430116
2638.964873,-459.657299,-962.267725,10066.800811
2638.965202,0.000000,-962.267725,9696.697840
2638.965531,306.438199,444.123565,8512.368333
2638.965860,-229.828649,444.123565,8956.491898
2638.966189,-766.095498,-0.000000,9918.759623
2638.966518,-1149.143247,-592.164754,9992.780217
2638.966847,-612.876398,-0.000000,9696.697840
2638.967177,459.657299,444.123565,7920.203579
2638.967506,766.095498,518.144159,8882.471304
2638.967835,459.657299,-666.185348,9622.677246
2638.968164,383.047749,-1110.308913,9252.574275
2638.968493,1149.143247,-222.061783,8290.306550
2638.968822,2068.457845,740.205942,7105.977043
2638.969151,842.705048,1184.329507,9326.594869
2638.969480,-459.657299,666.185348,9400.615463
2638.969810,842.705048,-592.164754,9030.512492
2638.970139,919.314598,-296.082377,8586.388927
2638.970468,766.095498,962.267725,8068.244768
2638.970797,612.876398,-666.185348,9030.512492
2638.971126,-995.924147,-1258.350101,9474.636058
2638.971455,-306.438199,-1184.329507,9918.759623
2638.971784,612.876398,-444.123565,8734.430116
2638.972113,-919.314598,-0.000000,8734.430116
2638.972442,-842.705048,-0.000000,9918.759623
2638.972772,-995.924147,-518.144159,9548.656652
2638.973101,0.000000,-296.082377,9252.574275
2638.973430,1302.362347,-0.000000,7624.121203
2638.973759,1532.190996,222.061783,8068.244768
2638.974088,1225.752797,-0.000000,9992.780217
2638.974417,1225.752797,-666.185348,9548.656652
2638.974746,2068.457845,-222.061783,8956.491898
2638.975075,2145.067394,740.205942,8216.285956
2638.975404,995.924147,1480.411884,9030.512492
2638.975734,766.095498,370.102971,10066.800811
2638.976063,0.000000,-0.000000,9696.697840
2638.976392,229.828649,-370.102971,9400.615463
2638.976721,1378.971896,296.082377,8734.430116
2638.977050,-306.438199,-0.000000,8882.471304
2638.977379,-1225.752797,-666.185348,9622.677246
2638.977708,-995.924147,-1480.411884,10362.883188
2638.978037,-689.485948,-1110.308913,8660.409521
2638.978367,-459.657299,740.205942,8808.450710
2638.978696,-919.314598,-444.123565,9400.615463
2638.979025,-1915.238745,-222.061783,9474.636058
2638.979354,-1072.533697,-666.185348,10510.924376
2638.979683,0.000000,-0.000000,9030.512492
2638.980012,612.876398,222.061783,8438.347739
2638.980341,459.657299,222.061783,9104.533087
2638.980670,919.314598,-518.144159,9104.533087
2638.980999,1302.362347,-444.123565,9178.553681
2638.981329,1532.190996,592.164754,8956.491898
2638.981658,1608.800546,1924.535449,8438.347739
2638.981987,689.485948,-0.000000,9178.553681
2638.982316,-229.828649,-148.041188,9474.636058
2638.982645,0.000000,-222.061783,9104.533087
2638.982974,612.876398,-962.267725,8586.388927
2638.983303,0.000000,-444.123565,8734.430116
2638.983632,-1225.752797,-1702.473667,9622.677246
2638.983962,-2604.724693,-1776.494261,10584.944971
2638.984291,-383.047749,-1702.473667,9918.759623
2638.984620,0.000000,-296.082377,9252.574275
2638.984949,-383.047749,444.123565,9252.574275
2638.985278,-536.266849,-0.000000,9474.636058
2638.985607,-383.047749,-222.061783,9992.780217
2638.985936,1455.581446,370.102971,8882.471304
2638.986265,2528.115143,1036.288319,7920.203579
2638.986594,2604.724693,666.185348,8290.306550
2638.986924,1762.019645,148.041188,9252.574275
2638.987253,2221.676944,-74.020594,8956.491898
2638.987582,2757.943793,-0.000000,7846.182985
2638.987911,2528.115143,666.185348,7994.224174
2638.988240,1455.581446,592.164754,9474.636058
2638.988569,0.000000,-296.082377,9844.739029
2638.988898,-229.828649,-666.185348,9474.636058
2638.989227,842.705048,-444.123565,8438.347739
2638.989556,459.657299,222.061783,8734.430116
2638.989886,-306.438199,-0.000000,9474.636058
2638.990215,-919.314598,-740.205942,10066.800811
2638.990544,0.000000,-1480.411884,9770.718434
2638.990873,383.047749,-74.020594,8734.430116
2638.991202,76.609550,740.205942,8882.471304
2638.991531,-536.266849,-0.000000,9252.574275
2638.991860,0.000000,-0.000000,9474.636058
2638.992189,459.657299,222.061783,9104.533087
2638.992519,1685.410096,518.144159,7920.203579
2638.992848,1915.238745,296.082377,7846.182985
2638.993177,1608.800546,-296.082377,8808.450710
2638.993506,766.095498,-740.205942,9696.697840
2638.993835,995.924147,-444.123565,9104.533087
2638.994164,1302.362347,370.102971,8438.347739
2638.994493,536.266849,1110.308913,9104.533087
2638.994822,-459.657299,-0.000000,9696.697840
2638.995151,-1149.143247,-370.102971,9696.697840
2638.995481,0.000000,-444.123565,9992.780217
2638.995810,-536.266849,-370.102971,8882.471304
2638.996139,-536.266849,-666.185348,8956.491898
2638.996468,-1991.848295,-1184.329507,9992.780217
2638.996797,-2068.457845,-1924.535449,10732.986159
2638.997126,-1608.800546,-592.164754,9622.677246
2638.997455,229.828649,370.102971,8808.450710
2638.997784,-995.924147,-0.000000,8660.409521
2638.998114,-1608.800546,-0.000000,10288.862594
2638.998443,-536.266849,-962.267725,10584.944971
2638.998772,76.609550,-74.020594,7772.162391
2638.999101,1149.143247,370.102971,7105.977043
2638.999430,995.924147,-0.000000,8734.430116
2638.999759,612.876398,-592.164754,9548.656652
2639.000088,1072.533697,-148.041188,9178.553681
2639.000417,1762.019645,444.123565,8142.265362
2639.000746,1455.581446,370.102971,8364.327145
2639.001076,766.095498,518.144159,8956.491898
2639.001405,-306.438199,-0.000000,9178.553681
2639.001734,612.876398,-740.205942,9326.594869
2639.002063,842.705048,-0.000000,8142.265362
2639.002392,306.438199,-296.082377,9030.512492
2639.002721,76.609550,-1036.288319,9770.718434
2639.003050,-536.266849,-1110.308913,9844.739029
2639.003379,0.000000,-1036.288319,9252.574275
2639.003708,0.000000,-740.205942,9030.512492
2639.004038,-536.266849,-370.102971,9696.697840
2639.004367,-1302.362347,-962.267725,9770.718434
2639.004696,153.219100,-962.267725,10288.862594
2639.005025,1378.971896,-370.102971,8068.244768
2639.005354,2681.334243,1110.308913,8216.285956
2639.005683,2604.724693,-0.000000,8290.306550
2639.006012,2451.505594,-0.000000,8808.450710
2639.006341,2987.772442,148.041188,8142.265362
2639.006671,3753.867940,518.144159,7772.162391
2639.007000,2528.115143,1184.329507,8216.285956
2639.007329,1608.800546,1406.391290,9104.533087
2639.007658,459.657299,222.061783,9548.656652
2639.007987,0.000000,-518.144159,9844.739029
2639.008316,-229.828649,-0.000000,9178.553681
2639.008645,0.000000,-740.205942,9992.780217
2639.008974,-1072.533697,-1554.432478,9030.512492
2639.009303,-2221.676944,-1776.494261,10584.944971
2639.009633,-1455.581446,-2368.659014,11325.150913
2639.009962,-612.876398,-666.185348,8734.430116
2639.010291,0.000000,370.102971,8734.430116
2639.010620,0.000000,814.226536,9178.553681
2639.010949,-383.047749,-518.144159,9474.636058
2639.011278,842.705048,518.144159,9252.574275
2639.011607,2451.505594,962.267725,7772.162391
2639.011936,1149.143247,888.247130,8438.347739
2639.012266,995.924147,-148.041188,8438.347739
2639.012595,459.657299,-296.082377,9326.594869
2639.012924,459.657299,-222.061783,9178.553681
2639.013253,612.876398,518.144159,8068.244768
2639.013582,-536.266849,222.061783,8882.471304
2639.013911,-1378.971896,-444.123565,9770.718434
2639.014240,-1149.143247,-1036.288319,9474.636058
2639.014569,-1149.143247,-740.205942,8586.388927
2639.014898,-383.047749,-370.102971,8290.306550
2639.015228,-383.047749,-592.164754,8290.306550
2639.015557,-919.314598,-1036.288319,9474.636058
2639.015886,-153.219100,-1406.391290,9696.697840
2639.016215,229.828649,-296.082377,8512.368333
2639.016544,536.266849,-0.000000,8882.471304
2639.016873,-229.828649,370.102971,9030.512492
2639.017202,-766.095498,-0.000000,9844.739029
2639.017531,-383.047749,-148.041188,9770.718434
2639.017861,459.657299,-74.020594,8364.327145
2639.018190,306.438199,-0.000000,8882.471304
2639.018519,229.828649,-444.123565,9104.533087
2639.018848,383.047749,-1258.350101,9474.636058
2639.019177,689.485948,-666.185348,9400.615463
2639.019506,1762.019645,-0.000000,8364.327145
2639.019835,1225.752797,-0.000000,8068.244768
2639.020164,919.314598,592.164754,9474.636058
2639.020493,689.485948,370.102971,9030.512492
2639.020823,1762.019645,-296.082377,8586.388927
2639.021152,1838.629195,740.205942,7846.182985
2639.021481,1225.752797,592.164754,8364.327145
2639.021810,536.266849,-148.041188,9474.636058
2639.022139,383.047749,-814.226536,10214.842000
2639.022468,459.657299,-518.144159,9104.533087
2639.022797,689.485948,444.123565,9030.512492
2639.023126,-153.219100,-0.000000,9400.615463
2639.023455,-995.924147,-74.020594,10066.800811
2639.023785,-766.095498,-444.123565,10140.821405
2639.024114,76.609550,-74.020594,8956.491898
2639.024443,766.095498,296.082377,8734.430116
2639.024772,995.924147,-0.000000,8808.450710
2639.025101,766.095498,-518.144159,9178.553681
2639.025430,2145.067394,-592.164754,9252.574275
2639.025759,2451.505594,-0.000000,8290.306550
2639.026088,2221.676944,1036.288319,8438.347739
2639.026418,1302.362347,1184.329507,8734.430116
2639.026747,612.876398,444.123565,9474.636058
2639.027076,536.266849,-444.123565,9252.574275
2639.027405,919.314598,296.082377,8290.306550
2639.027734,995.924147,222.061783,8216.285956
2639.028063,-995.924147,-740.205942,9696.697840
2639.028392,-1072.533697,-2220.617826,9844.739029
2639.028721,-1072.533697,-1036.288319,9844.739029
2639.029050,-919.314598,-962.267725,8956.491898
2639.029380,-1532.190996,-370.102971,9326.594869
2639.029709,-2221.676944,-740.205942,10066.800811
2639.030038,-1915.238745,-1332.370696,10362.883188
2639.030367,-766.095498,-1480.411884,9770.718434
2639.030696,0.000000,-518.144159,8808.450710
2639.031025,229.828649,-370.102971,8956.491898
2639.031354,306.438199,-518.144159,9400.615463
2639.031683,766.095498,-814.226536,9104.533087
2639.032013,1991.848295,296.082377,8364.327145
2639.032342,2834.553343,1406.391290,7772.162391
2639.032671,2298.286494,1628.453072,8290.306550
2639.033000,766.095498,1036.288319,8734.430116
2639.033329,1072.533697,962.267725,8290.306550
2639.033658,1149.143247,740.205942,8142.265362
2639.033987,995.924147,814.226536,8734.430116
2639.034316,-229.828649,-740.205942,8808.450710
2639.034645,-1455.581446,-2072.576638,10510.924376
2639.034975,-1685.410096,-1998.556043,9844.739029
2639.035304,-1532.190996,-1776.494261,9104.533087
2639.035633,-1302.362347,-888.247130,8882.471304
2639.035962,-1608.800546,-148.041188,9104.533087
2639.036291,-1608.800546,-666.185348,9844.739029
2639.036620,-536.266849,-888.247130,9474.636058
2639.036949,766.095498,444.123565,8808.450710
2639.037278,1838.629195,592.164754,9400.615463
2639.037607,2374.896044,222.061783,8882.471304
2639.037937,2145.067394,370.102971,9178.553681
2639.038266,2987.772442,814.226536,8660.409521
2639.038595,3294.210641,1924.535449,7772.162391
2639.038924,2911.162892,2442.679609,8290.306550
2639.039253,1762.019645,888.247130,9030.512492
2639.039582,995.924147,-592.164754,9178.553681
2639.039911,842.705048,-740.205942,8956.491898
2639.040240,995.924147,-666.185348,8586.388927
2639.040570,-229.828649,-1332.370696,8956.491898
2639.040899,-1225.752797,-1702.473667,10066.800811
2639.041228,-1302.362347,-2220.617826,10288.862594
2639.041557,-995.924147,-1332.370696,9548.656652
2639.041886,-919.314598,-444.123565,9992.780217
2639.042215,-1225.752797,-0.000000,9918.759623
2639.042544,-1532.190996,-0.000000,10584.944971
2639.042873,-229.828649,-444.123565,9696.697840
2639.043202,1149.143247,518.144159,8364.327145
2639.043532,2757.943793,1406.391290,8808.450710
2639.043861,1838.629195,666.185348,8734.430116
2639.044190,2374.896044,-370.102971,8734.430116
2639.044519,1838.629195,-666.185348,8290.306550
2639.044848,2528.115143,962.267725,7550.100608
2639.045177,1838.629195,962.267725,8142.265362
2639.045506,689.485948,-0.000000,8586.388927
2639.045835,-536.266849,-1110.308913,9844.739029
2639.046165,-766.095498,-74.020594,9400.615463
2639.046494,-1072.533697,-1406.391290,8956.491898
2639.046823,-689.485948,-1998.556043,9992.780217
2639.047152,-1378.971896,-1332.370696,8734.430116
2639.047481,-1991.848295,-1924.535449,9696.697840
2639.047810,-919.314598,-1924.535449,10140.821405
2639.048139,-306.438199,-0.000000,8512.368333
2639.048468,-229.828649,370.102971,8808.450710
2639.048797,153.219100,-0.000000,9252.574275
2639.049127,76.609550,-962.267725,9770.718434
2639.049456,1225.752797,370.102971,8438.347739
2639.049785,2298.286494,518.144159,7476.080014
2639.050114,1532.190996,518.144159,7920.203579
2639.050443,1072.533697,-0.000000,8956.491898
2639.050772,995.924147,-296.082377,9622.677246
2639.051101,919.314598,-222.061783,8734.430116
2639.051430,459.657299,-0.000000,8808.450710
2639.051759,-229.828649,-74.020594,9622.677246
2639.052089,-995.924147,-1110.308913,9918.759623
2639.052418,-1225.752797,-1332.370696,9622.677246
2639.052747,76.609550,-888.247130,9104.533087
2639.053076,612.876398,-666.185348,8734.430116
2639.053405,0.000000,-518.144159,9326.594869
2639.053734,0.000000,-1110.308913,9622.677246
2639.054063,919.314598,-518.144159,8956.491898
2639.054392,1838.629195,666.185348,8290.306550
2639.054722,1225.752797,1184.329507,8808.450710
2639.055051,459.657299,518.144159,8808.450710
2639.055380,306.438199,370.102971,9696.697840
2639.055709,612.876398,-0.000000,9252.574275
2639.056038,919.314598,1036.288319,8364.327145
2639.056367,536.266849,296.082377,8882.471304
2639.056696,-459.657299,-592.164754,9400.615463
2639.057025,-612.876398,-814.226536,10140.821405
2639.057354,-229.828649,-962.267725,9622.677246
2639.057684,-229.828649,-518.144159,8660.409521
2639.058013,-842.705048,518.144159,9474.636058
2639.058342,-1225.752797,-296.082377,9474.636058
2639.058671,0.000000,-444.123565,9474.636058
2639.059000,689.485948,-0.000000,8512.368333
2639.059329,1455.581446,1036.288319,8068.244768
2639.059658,1455.581446,888.247130,8512.368333
2639.059987,383.047749,-148.041188,9326.594869
2639.060317,306.438199,-592.164754,9474.636058
2639.060646,919.314598,296.082377,7994.224174
2639.060975,612.876398,592.164754,8364.327145
2639.061304,-459.657299,296.082377,9400.615463
2639.061633,-1302.362347,-740.205942,9992.780217
2639.061962,-842.705048,-1110.308913,9992.780217
2639.062291,0.000000,-888.247130,8882.471304
2639.062620,76.609550,-296.082377,9474.636058
2639.062949,-459.657299,-962.267725,9326.594869
2639.063278,-383.047749,-1110.308913,9770.718434
2639.063608,0.000000,-1332.370696,9178.553681
2639.063937,1149.143247,-222.061783,8512.368333
2639.064266,1608.800546,592.164754,9030.512492
2639.064595,995.924147,-0.000000,9178.553681
2639.064924,612.876398,-0.000000,9844.739029
2639.065253,2374.896044,-0.000000,8660.409521
2639.065582,2604.724693,1332.370696,7328.038826
2639.065911,2145.067394,888.247130,8586.388927
2639.066240,995.924147,-74.020594,8882.471304
2639.066569,766.095498,-518.144159,9178.553681
2639.066898,1072.533697,-666.185348,8660.409521
2639.067227,689.485948,-0.000000,7994.224174
2639.067557,0.000000,-0.000000,9696.697840
2639.067886,-1225.752797,-518.144159,9696.697840
2639.068215,-1072.533697,-1258.350101,9622.677246
2639.068544,0.000000,-518.144159,8882.471304
2639.068873,0.000000,-222.061783,8734.430116
2639.069202,76.609550,-148.041188,9474.636058
2639.069531,-612.876398,-1332.370696,9400.615463
2639.069860,1302.362347,-962.267725,8808.450710
2639.070189,1685.410096,740.205942,8142.265362
2639.070518,1762.019645,666.185348,8438.347739
2639.070847,1302.362347,814.226536,8512.368333
2639.071176,766.095498,518.144159,8512.368333
2639.071506,1302.362347,-0.000000,8438.347739
2639.071835,2451.505594,222.061783,8290.306550
2639.072164,995.924147,592.164754,8142.265362
2639.072493,76.609550,-148.041188,9104.533087
2639.072822,-689.485948,-740.205942,9918.759623
2639.073151,-766.095498,-592.164754,9918.759623
2639.073480,-612.876398,-74.020594,9030.512492
2639.073809,-1225.752797,-222.061783,9770.718434
2639.074138,-2145.067394,-666.185348,9548.656652
2639.074467,-1532.190996,-962.267725,10584.944971
2639.074796,-995.924147,-1184.329507,9548.656652
2639.075126,-306.438199,-148.041188,8586.388927
2639.075455,76.609550,-74.020594,9622.677246
2639.075784,-459.657299,-148.041188,9474.636058
2639.076113,459.657299,-962.267725,9992.780217
2639.076442,1302.362347,-0.000000,8142.265362
2639.076771,1838.629195,1110.308913,8586.388927
2639.077100,1072.533697,888.247130,8734.430116
2639.077429,306.438199,740.205942,9770.718434
2639.077758,76.609550,-518.144159,10214.842000
2639.078087,153.219100,-0.000000,9030.512492
2639.078416,689.485948,222.061783,9104.533087
2639.078745,-842.705048,-1258.350101,7994.224174
2639.079075,-689.485948,-666.185348,9696.697840
2639.079404,-919.314598,-1554.432478,10955.047942
2639.079733,-842.705048,-1406.391290,9030.512492
2639.080062,-689.485948,-0.000000,9030.512492
2639.080391,-1225.752797,-814.226536,9474.636058
2639.080720,-536.266849,-296.082377,9326.594869
2639.081049,536.266849,-740.205942,9178.553681
2639.081378,1762.019645,-0.000000,7698.141797
2639.081707,1762.019645,740.205942,8438.347739
2639.082036,2298.286494,-0.000000,8364.327145
2639.082365,2068.457845,-148.041188,8290.306550
2639.082694,2451.505594,222.061783,8142.265362
2639.083024,2068.457845,592.164754,7920.203579
2639.083353,1302.362347,444.123565,8364.327145
2639.083682,1072.533697,296.082377,9474.636058
2639.084011,766.095498,-666.185348,9992.780217
2639.084340,459.657299,-444.123565,9474.636058
2639.084669,229.828649,-666.185348,8586.388927
2639.084998,0.000000,-592.164754,9178.553681
2639.085327,-1225.752797,-1110.308913,9622.677246
2639.085656,-536.266849,-1554.432478,10066.800811
2639.085985,919.314598,-1258.350101,9400.615463
2639.086314,383.047749,592.164754,8956.491898
2639.086643,306.438199,814.226536,9178.553681
2639.086973,0.000000,296.082377,9326.594869
2639.087302,0.000000,148.041188,8956.491898
2639.087631,1838.629195,-0.000000,9326.594869
2639.087960,1378.971896,1184.329507,7846.182985
2639.088289,0.000000,-0.000000,8956.491898
2639.088618,689.485948,-1110.308913,9844.739029
2639.088947,612.876398,-370.102971,8956.491898
2639.089276,536.266849,-0.000000,8808.450710
2639.089605,536.266849,1332.370696,9178.553681
2639.089934,-459.657299,-74.020594,10140.821405
2639.090263,-2145.067394,444.123565,9622.677246
2639.090592,0.000000,-518.144159,9844.739029
2639.090922,-383.047749,-296.082377,8882.471304
2639.091251,-153.219100,518.144159,8808.450710
2639.091580,-536.266849,-518.144159,9178.553681
2639.091909,-995.924147,-1480.411884,9622.677246
2639.092238,0.000000,-296.082377,9474.636058
2639.092567,0.000000,148.041188,9104.533087
2639.092896,0.000000,148.041188,8956.491898
2639.093225,-536.266849,-296.082377,8808.450710
2639.093554,-689.485948,-518.144159,10066.800811
2639.093883,153.219100,-0.000000,9178.553681
2639.094212,689.485948,444.123565,8364.327145
2639.094541,306.438199,148.041188,8882.471304
2639.094871,306.438199,-444.123565,9622.677246
2639.095200,612.876398,-888.247130,9918.759623
2639.095529,1225.752797,-666.185348,8882.471304
2639.095858,1302.362347,518.144159,8438.347739
2639.096187,536.266849,148.041188,8956.491898
2639.096516,-229.828649,-0.000000,9474.636058
2639.096845,0.000000,-1480.411884,10066.800811
2639.097174,1225.752797,-444.123565,8290.306550
2639.097503,1302.362347,-222.061783,7846.182985
2639.097832,612.876398,-518.144159,8808.450710
2639.098161,0.000000,-888.247130,9326.594869
2639.098491,459.657299,-592.164754,9030.512492
2639.098820,766.095498,-0.000000,8808.450710
2639.099149,919.314598,370.102971,8438.347739
2639.099478,383.047749,-0.000000,8956.491898
2639.099807,153.219100,-0.000000,9474.636058
2639.100136,612.876398,-740.205942,9326.594869
2639.100465,1378.971896,-0.000000,7920.203579
2639.100794,1991.848295,-0.000000,8808.450710
2639.101123,1149.143247,-222.061783,9030.512492
2639.101452,459.657299,-740.205942,9178.553681
2639.101781,1532.190996,-370.102971,8882.471304
2639.102110,1532.190996,-0.000000,8364.327145
2639.102440,766.095498,1110.308913,8808.450710
2639.102769,1072.533697,-518.144159,9474.636058
2639.103098,536.266849,-518.144159,9178.553681
2639.103427,1072.533697,-0.000000,8660.409521
2639.103756,1455.581446,888.247130,7920.203579
2639.104085,1149.143247,518.144159,8586.388927
2639.104414,0.000000,-0.000000,9474.636058
2639.104743,229.828649,-592.164754,9548.656652
2639.105072,612.876398,-0.000000,8734.430116
2639.105401,459.657299,592.164754,8882.471304
2639.105730,-842.705048,222.061783,9770.718434
2639.106059,-1302.362347,-0.000000,10066.800811
2639.106389,-1149.143247,-1258.350101,10066.800811
2639.106718,0.000000,-370.102971,9474.636058
2639.107047,153.219100,-74.020594,9474.636058
2639.107376,-383.047749,-888.247130,9326.594869
2639.107705,-306.438199,-888.247130,9548.656652
2639.108034,153.219100,-1480.411884,9992.780217
2639.108363,536.266849,-0.000000,8512.368333
2639.108692,76.609550,666.185348,8956.491898
2639.109021,-383.047749,-222.061783,9474.636058
2639.109350,-689.485948,-0.000000,9474.636058
2639.109679,153.219100,-518.144159,9622.677246
2639.110008,612.876398,-444.123565,8882.471304
2639.110338,0.000000,-74.020594,8660.409521
2639.110667,-766.095498,-740.205942,9104.533087
2639.110996,-1225.752797,-814.226536,9622.677246
2639.111325,-536.266849,-888.247130,9178.553681
2639.111654,-306.438199,-74.020594,8364.327145
2639.111983,-1302.362347,-296.082377,9400.615463
2639.112312,-536.266849,-740.205942,9918.759623
2639.112641,-383.047749,-888.247130,9326.594869
2639.112970,1072.533697,-296.082377,7772.162391
2639.113299,1455.581446,740.205942,7624.121203
2639.113628,612.876398,666.185348,7624.121203
2639.113957,1532.190996,-518.144159,8808.450710
2639.114287,2221.676944,-1036.288319,7772.162391
2639.114616,1225.752797,-148.041188,8512.368333
2639.114945,1225.752797,-0.000000,8808.450710
2639.115274,383.047749,592.164754,8512.368333
2639.115603,-383.047749,-296.082377,9474.636058
2639.115932,306.438199,-296.082377,9622.677246
2639.116261,766.095498,-888.247130,9104.533087
2639.116590,612.876398,592.164754,8808.450710
2639.116919,919.314598,-296.082377,9252.574275
2639.117248,0.000000,-1332.370696,9844.739029
2639.117577,306.438199,-888.247130,9474.636058
2639.117906,1455.581446,592.164754,9400.615463
2639.118236,536.266849,-0.000000,9030.512492
2639.118565,842.705048,444.123565,9474.636058
2639.118894,1149.143247,-370.102971,9548.656652
2639.119223,1302.362347,-74.020594,9030.512492
2639.119552,1915.238745,666.185348,7994.224174
2639.119881,1991.848295,444.123565,8660.409521
2639.120210,1378.971896,-0.000000,8586.388927
2639.120539,995.924147,-74.020594,9770.718434
2639.120868,1225.752797,-0.000000,9030.512492
2639.121197,766.095498,-148.041188,8586.388927
2639.121526,459.657299,592.164754,9696.697840
2639.121856,0.000000,-222.061783,9696.697840
2639.122185,-536.266849,-1184.329507,9918.759623
2639.122514,0.000000,-518.144159,9104.533087
2639.122843,229.828649,222.061783,8956.491898
2639.123172,-459.657299,-518.144159,9104.533087
2639.123501,-536.266849,-1110.308913,8956.491898
2639.123830,0.000000,-888.247130,9326.594869
2639.124159,383.047749,-222.061783,8808.450710
2639.124488,306.438199,518.144159,8438.347739
2639.124817,-153.219100,518.144159,8364.327145
2639.125146,-459.657299,-0.000000,9474.636058
2639.125475,0.000000,-666.185348,9252.574275
2639.125805,76.609550,444.123565,7476.080014
2639.126134,1685.410096,-148.041188,8956.491898
2639.126463,76.609550,-444.123565,8068.244768
2639.126792,-1149.143247,-1332.370696,9548.656652
2639.127121,76.609550,-1628.453072,9918.759623
2639.127450,383.047749,-0.000000,8364.327145
2639.127779,-229.828649,-0.000000,8956.491898
2639.128108,76.609550,-296.082377,9474.636058
2639.128437,-383.047749,-888.247130,10214.842000
2639.128766,842.705048,-222.061783,8808.450710
2639.129095,1685.410096,-0.000000,7772.162391
2639.129424,766.095498,-0.000000,8438.347739
2639.129754,459.657299,-296.082377,9030.512492
2639.130083,842.705048,-296.082377,9474.636058
2639.130412,1072.533697,-740.205942,8660.409521
2639.130741,919.314598,814.226536,8290.306550
2639.131070,-153.219100,-0.000000,9548.656652
2639.131399,-1072.533697,-444.123565,10436.903782
2639.131728,-689.485948,-1036.288319,9548.656652
2639.132057,0.000000,-444.123565,9252.574275
2639.132386,76.609550,-0.000000,9622.677246
2639.132715,1072.533697,-1332.370696,9326.594869
2639.133044,76.609550,-740.205942,9622.677246
2639.133373,1072.533697,-74.020594,9252.574275
2639.133703,2068.457845,-0.000000,8808.450710
2639.134032,1915.238745,1628.453072,7994.224174
2639.134361,1838.629195,1554.432478,8808.450710
2639.134690,1838.629195,740.205942,9400.615463
2639.135019,1838.629195,370.102971,8882.471304
2639.135348,1915.238745,296.082377,8438.347739
2639.135677,919.314598,740.205942,8438.347739
2639.136006,76.609550,-370.102971,8882.471304
2639.136335,-1225.752797,-1036.288319,9770.718434
2639.136664,-612.876398,-888.247130,9696.697840
2639.136993,-306.438199,-962.267725,8882.471304
2639.137322,-995.924147,666.185348,9030.512492
2639.137652,-1532.190996,296.082377,10066.800811
2639.137981,-1762.019645,-1480.411884,9992.780217
2639.138310,-689.485948,-370.102971,8734.430116
2639.138639,229.828649,-444.123565,9104.533087
2639.138968,459.657299,-370.102971,9104.533087
2639.139297,612.876398,-518.144159,8438.347739
2639.139626,1685.410096,-888.247130,9548.656652
2639.139955,2221.676944,-0.000000,8068.244768
2639.140284,2145.067394,814.226536,8290.306550
2639.140613,842.705048,-74.020594,8882.471304
2639.140942,459.657299,-0.000000,8882.471304
2639.141271,-229.828649,-814.226536,9548.656652
2639.141601,76.609550,-518.144159,8290.306550
2639.141930,689.485948,-518.144159,8956.491898
2639.142259,-1072.533697,-1776.494261,9696.697840
2639.142588,-1685.410096,-2072.576638,9770.718434
2639.142917,-1838.629195,-1998.556043,10214.842000
2639.143246,-995.924147,-888.247130,8586.388927
2639.143575,-1149.143247,296.082377,8586.388927
2639.143904,-1532.190996,-222.061783,9696.697840
2639.144233,-1302.362347,-888.247130,10066.800811
2639.144562,919.314598,-0.000000,9178.553681
2639.144891,1838.629195,592.164754,7698.141797
2639.145221,2068.457845,1184.329507,7772.162391
2639.145550,2221.676944,370.102971,8142.265362
2639.145879,2374.896044,222.061783,8660.409521
2639.146208,2681.334243,370.102971,8290.306550
2639.146537,1838.629195,1184.329507,8142.265362
2639.146866,1532.190996,-0.000000,8956.491898
2639.147195,0.000000,296.082377,9548.656652
2639.147524,-383.047749,-296.082377,10140.821405
2639.147853,-229.828649,-1332.370696,9326.594869
2639.148182,-306.438199,-444.123565,8956.491898
2639.148511,-536.266849,-444.123565,9696.697840
2639.148840,-383.047749,-2146.597232,9622.677246
2639.149170,-1149.143247,-1850.514855,9918.759623
2639.149499,229.828649,-1036.288319,9104.533087
2639.149828,459.657299,444.123565,8734.430116
2639.150157,153.219100,444.123565,8586.388927
2639.150486,229.828649,148.041188,9326.594869
2639.150815,1072.533697,-0.000000,8956.491898
2639.151144,2221.676944,888.247130,7994.224174
2639.151473,1991.848295,370.102971,8364.327145
2639.151802,1455.581446,-74.020594,8882.471304
2639.152131,1455.581446,-0.000000,9844.739029
2639.152460,1225.752797,-0.000000,9474.636058
2639.152789,995.924147,296.082377,9104.533087
2639.153119,1072.533697,1184.329507,9474.636058
2639.153448,0.000000,-0.000000,9770.718434
2639.153777,-1455.581446,-74.020594,9474.636058
2639.154106,0.000000,-370.102971,9400.615463
2639.154435,153.219100,-222.061783,9030.512492
2639.154764,0.000000,-518.144159,9178.553681
2639.155093,-919.314598,-962.267725,9548.656652
2639.155422,-919.314598,-1998.556043,9844.739029
2639.155751,-766.095498,-1406.391290,9474.636058
2639.156080,76.609550,-74.020594,8512.368333
2639.156409,0.000000,814.226536,8512.368333
2639.156738,-766.095498,-0.000000,9252.574275
2639.157068,-153.219100,-222.061783,10807.006753
2639.157397,1149.143247,-222.061783,8586.388927
2639.157726,1149.143247,518.144159,7105.977043
2639.158055,1762.019645,1406.391290,8734.430116
2639.158384,459.657299,-296.082377,8956.491898
2639.158713,1149.143247,-148.041188,8734.430116
2639.159042,1455.581446,-0.000000,8364.327145
2639.159371,919.314598,814.226536,7698.141797
2639.159700,0.000000,-222.061783,8734.430116
2639.160029,-1149.143247,-740.205942,10066.800811
2639.160358,-995.924147,-1628.453072,9696.697840
2639.160687,229.828649,-962.267725,9030.512492
2639.161017,-459.657299,-740.205942,8882.471304
2639.161346,-536.266849,-1110.308913,9696.697840
2639.161675,-229.828649,-740.205942,9918.759623
2639.162004,689.485948,-962.267725,9178.553681
2639.162333,1455.581446,592.164754,8142.265362
2639.162662,842.705048,518.144159,8142.265362
2639.162991,76.609550,-0.000000,9104.533087
2639.163320,383.047749,-0.000000,9104.533087
2639.163649,919.314598,-0.000000,8808.450710
2639.163978,995.924147,-0.000000,8216.285956
2639.164307,689.485948,-222.061783,8660.409521
2639.164637,-383.047749,-962.267725,9474.636058
2639.164966,153.219100,-1258.350101,9918.759623
2639.165295,766.095498,-814.226536,8956.491898
2639.165624,1072.533697,-0.000000,8734.430116
2639.165953,0.000000,1036.288319,8438.347739
2639.166282,229.828649,-0.000000,9622.677246
2639.166611,153.219100,-592.164754,9474.636058
2639.166940,1225.752797,1036.288319,8956.491898
2639.167269,1302.362347,-0.000000,8734.430116
2639.167599,459.657299,370.102971,8142.265362
2639.167928,766.095498,814.226536,9326.594869
2639.168257,766.095498,-0.000000,9474.636058
2639.168586,1072.533697,222.061783,8142.265362
2639.168915,76.609550,740.205942,9104.533087
2639.169244,-536.266849,222.061783,10066.800811
2639.169573,-1532.190996,-1110.308913,10066.800811
2639.169902,-1225.752797,-1406.391290,10140.821405
2639.170231,-919.314598,-592.164754,9548.656652
2639.170561,0.000000,-592.164754,9622.677246
2639.170890,-536.266849,-1036.288319,9474.636058
2639.171219,76.609550,-740.205942,9548.656652
2639.171548,919.314598,-1036.288319,9696.697840
2639.171877,1455.581446,592.164754,8068.244768
2639.172206,1608.800546,962.267725,8660.409521
2639.172535,1072.533697,518.144159,8808.450710
2639.172864,1455.581446,-296.082377,9178.553681
2639.173193,1378.971896,-0.000000,8660.409521
2639.173523,1302.362347,-444.123565,8290.306550
2639.173852,536.266849,-0.000000,9030.512492
2639.174181,0.000000,-962.267725,9696.697840
2639.174510,-1149.143247,-1406.391290,10362.883188
2639.174839,0.000000,-1110.308913,9474.636058
2639.175168,-689.485948,-74.020594,8734.430116
2639.175497,-1072.533697,370.102971,9474.636058
2639.175826,-1072.533697,-888.247130,9844.739029
2639.176155,-689.485948,-888.247130,9326.594869
2639.176485,76.609550,-962.267725,8734.430116
2639.176814,689.485948,-0.000000,8512.368333
2639.177143,1378.971896,-518.144159,8290.306550
2639.177472,995.924147,-0.000000,8808.450710
2639.177801,1685.410096,-518.144159,8512.368333
2639.178130,2374.896044,444.123565,7920.203579
2639.178459,1685.410096,888.247130,8068.244768
2639.178788,1302.362347,518.144159,8882.471304
2639.179118,536.266849,-0.000000,9400.615463
2639.179447,612.876398,-592.164754,8808.450710
2639.179776,766.095498,296.082377,8290.306550
2639.180105,842.705048,-222.061783,8808.450710
2639.180434,0.000000,-444.123565,8808.450710
2639.180763,-383.047749,-1628.453072,9770.718434
2639.181092,0.000000,-1184.329507,9104.533087
2639.181421,0.000000,-518.144159,8882.471304
2639.181750,-306.438199,-518.144159,8734.430116
2639.182080,-842.705048,-0.000000,9178.553681
2639.182409,-689.485948,-518.144159,9548.656652
2639.182738,-306.438199,-222.061783,9178.553681
2639.183067,842.705048,-296.082377,8734.430116
2639.183396,536.266849,296.082377,8364.327145
2639.183725,612.876398,-74.020594,9548.656652
2639.184054,536.266849,-592.164754,9770.718434
2639.184383,536.266849,296.082377,9104.533087
2639.184712,1302.362347,888.247130,9178.553681
2639.185042,229.828649,1332.370696,9326.594869
2639.185371,0.000000,296.082377,9770.718434
2639.185700,153.219100,-0.000000,9548.656652
2639.186029,383.047749,-148.041188,9178.553681
2639.186358,612.876398,-444.123565,9104.533087
2639.186687,-306.438199,-518.144159,8808.450710
2639.187016,-1225.752797,-1480.411884,9992.780217
2639.187345,-1532.190996,-1406.391290,9770.718434
2639.187674,-842.705048,-888.247130,9548.656652
2639.188004,-1072.533697,-814.226536,9104.533087
2639.188333,-1225.752797,-296.082377,9844.739029
2639.188662,-1685.410096,-740.205942,9992.780217
2639.188991,-919.314598,-888.247130,9696.697840
2639.189320,229.828649,148.041188,8882.471304
2639.189649,689.485948,518.144159,8512.368333
2639.189978,459.657299,148.041188,8512.368333
2639.190307,1072.533697,296.082377,9400.615463
2639.190637,1532.190996,370.102971,8290.306550
2639.190966,1838.629195,740.205942,7476.080014
2639.191295,1225.752797,1554.432478,7550.100608
2639.191624,0.000000,888.247130,8438.347739
2639.191953,-1072.533697,-148.041188,8956.491898
2639.192282,-995.924147,-148.041188,8734.430116
2639.192611,-1608.800546,-370.102971,8142.265362
2639.192940,-1915.238745,-1184.329507,9104.533087
2639.193269,-3753.867940,-2072.576638,9770.718434
2639.193599,-3830.477490,-1998.556043,9918.759623
2639.193928,-3447.429741,-2664.741391,9548.656652
2639.194257,-3524.039291,-592.164754,8734.430116
2639.194586,-3217.601092,-0.000000,8586.388927
2639.194915,-3217.601092,-0.000000,9622.677246
2639.195244,-2987.772442,-1554.432478,9474.636058
2639.195573,-2221.676944,-1110.308913,9770.718434
2639.195902,-1915.238745,444.123565,8660.409521
2639.196231,-2145.067394,222.061783,8660.409521
2639.196561,-2374.896044,-740.205942,9178.553681
2639.196890,-459.657299,-518.144159,9474.636058
2639.197219,-995.924147,-814.226536,9178.553681
2639.197548,-536.266849,518.144159,8734.430116
2639.197877,-383.047749,1924.535449,7920.203579
2639.198206,-766.095498,962.267725,7846.182985
2639.198535,-919.314598,-0.000000,8734.430116
2639.198864,-1302.362347,-666.185348,9326.594869
2639.199193,-1608.800546,-1110.308913,9030.512492
2639.199523,-2145.067394,444.123565,8734.430116
2639.199852,-2068.457845,296.082377,8364.327145
2639.200181,-1915.238745,-814.226536,9400.615463
2639.200510,-1991.848295,-1110.308913,9474.636058
2639.200839,-2681.334243,-1036.288319,9622.677246
2639.201168,-3677.258390,296.082377,9474.636058
2639.201497,-2834.553343,1184.329507,8882.471304
2639.201826,-2757.943793,1480.411884,7920.203579
2639.202155,-3370.820191,888.247130,8882.471304
2639.202485,-3677.258390,-740.205942,9474.636058
2639.202814,-4519.963438,-962.267725,9104.533087
2639.203143,-4136.915689,-740.205942,8586.388927
2639.203472,-3830.477490,-592.164754,8586.388927
2639.203801,-4749.792088,-1628.453072,9326.594869
2639.204130,-4903.011187,-1924.535449,10140.821405
2639.204459,-4903.011187,-2368.659014,10510.924376
2639.204788,-4749.792088,-2220.617826,9992.780217
2639.205118,-4596.572988,-962.267725,9252.574275
2639.205447,-3370.820191,148.041188,8956.491898
2639.205776,-3140.991542,296.082377,8512.368333
2639.206105,-2757.943793,740.205942,9474.636058
2639.206434,-2451.505594,1110.308913,8660.409521
2639.206763,-2145.067394,666.185348,9178.553681
2639.207092,-1915.238745,370.102971,9326.594869
2639.207421,-1991.848295,-370.102971,8882.471304
2639.207750,-2298.286494,-666.185348,9326.594869
2639.208080,-2374.896044,-74.020594,8956.491898
2639.208409,-1915.238745,-0.000000,8364.327145
2639.208738,-1532.190996,-0.000000,7846.182985
2639.209067,-1838.629195,-296.082377,8068.244768
2639.209396,-1532.190996,-1332.370696,9326.594869
2639.209725,-2221.676944,-518.144159,8068.244768
2639.210054,-2987.772442,-666.185348,9326.594869
2639.210383,-3447.429741,-592.164754,9696.697840
2639.210712,-3447.429741,740.205942,9696.697840
2639.211042,-3524.039291,814.226536,9474.636058
2639.211371,-2757.943793,1554.432478,9030.512492
2639.211700,-2757.943793,740.205942,9326.594869
2639.212029,-2451.505594,1036.288319,9326.594869
2639.212358,-1685.410096,-1110.308913,9548.656652
2639.212687,-2374.896044,-1406.391290,10066.800811
2639.213016,-1378.971896,-1776.494261,9400.615463
2639.213345,-995.924147,-740.205942,8956.491898
2639.213674,-1225.752797,-296.082377,8660.409521
2639.214004,-1532.190996,-148.041188,9030.512492
2639.214333,842.705048,-148.041188,9104.533087
2639.214662,612.876398,1110.308913,6439.791695
2639.214991,1072.533697,1332.370696,7846.182985
2639.215320,-383.047749,1628.453072,6957.935855
2639.215649,-1608.800546,888.247130,8956.491898
2639.215978,-2987.772442,-74.020594,9326.594869
2639.216307,-3677.258390,-1776.494261,9770.718434
2639.216636,-3524.039291,-1480.411884,10214.842000
2639.216966,-4213.525239,-666.185348,8956.491898
2639.217295,-4903.011187,-1258.350101,9548.656652
2639.217624,-5286.058936,-1110.308913,10584.944971
2639.217953,-3907.087040,-1036.288319,10288.862594
2639.218282,-3217.601092,-888.247130,10140.821405
2639.218611,-1915.238745,-0.000000,8734.430116
2639.218940,-1225.752797,-0.000000,8882.471304
2639.219269,-1455.581446,148.041188,7105.977043
2639.219599,-1072.533697,-0.000000,9918.759623
2639.219928,-1072.533697,-444.123565,9992.780217
2639.220257,0.000000,592.164754,7994.224174
2639.220586,-306.438199,1258.350101,7920.203579
2639.220915,-1149.143247,1554.432478,7105.977043
2639.221244,-1838.629195,740.205942,8290.306550
2639.221573,-2528.115143,222.061783,9400.615463
2639.221902,-2298.286494,-222.061783,9548.656652
2639.222231,-2911.162892,296.082377,8808.450710
2639.222561,-3830.477490,-0.000000,7920.203579
2639.222890,-4903.011187,-518.144159,8734.430116
2639.223219,-5515.887586,-1036.288319,9844.739029
2639.223548,-5439.278036,-2220.617826,10214.842000
2639.223877,-4290.134789,-2960.823768,10362.883188
2639.224206,-4519.963438,-2220.617826,10362.883188
2639.224535,-4673.182538,-1628.453072,9770.718434
2639.224864,-4060.306139,-1998.556043,9548.656652
2639.225193,-3294.210641,-814.226536,9622.677246
2639.225523,-2068.457845,222.061783,8808.450710
2639.225852,-1685.410096,888.247130,9326.594869
2639.226181,-2145.067394,1184.329507,8808.450710
2639.226510,-2145.067394,1554.432478,8882.471304
2639.226839,-2221.676944,962.267725,7550.100608
2639.227168,-2221.676944,666.185348,8290.306550
2639.227497,-2145.067394,666.185348,8216.285956
2639.227826,-2298.286494,592.164754,7994.224174
2639.228155,-2451.505594,592.164754,8290.306550
2639.228485,-1762.019645,-0.000000,8142.265362
2639.228814,-2068.457845,444.123565,7994.224174
2639.229143,-2374.896044,-0.000000,8068.244768
2639.229472,-2374.896044,592.164754,8364.327145
2639.229801,-3140.991542,592.164754,8882.471304
2639.230130,-3370.820191,1258.350101,9104.533087
2639.230459,-4060.306139,1776.494261,9474.636058
2639.230788,-4060.306139,962.267725,10584.944971
2639.231117,-3907.087040,1110.308913,10214.842000
2639.231447,-3907.087040,444.123565,10140.821405
2639.231776,-3830.477490,-0.000000,11103.089130
2639.232105,-2757.943793,-148.041188,10732.986159
2639.232434,-1838.629195,1110.308913,9622.677246
2639.232763,76.609550,1184.329507,9252.574275
2639.233092,-459.657299,2294.638420,7772.162391
2639.233421,-229.828649,222.061783,11621.233289
2639.233750,1608.800546,1776.494261,9326.594869
2639.234080,3064.381992,3849.070898,5847.626942
2639.234409,4213.525239,3849.070898,7402.059420
2639.234738,3370.820191,4885.359217,5847.626942
2639.235067,3983.696590,5033.400406,8956.491898
2639.235396,2374.896044,4367.215058,7031.956449
2639.235725,2911.162892,4441.235652,8364.327145
2639.236054,689.485948,1998.556043,9770.718434
2639.236383,-383.047749,2220.617826,9918.759623
2639.236712,-2145.067394,1110.308913,11547.212695
2639.237042,-1762.019645,-0.000000,11177.109724
2639.237371,-766.095498,-0.000000,10066.800811
2639.237700,-1378.971896,962.267725,10955.047942
2639.238029,0.000000,2368.659014,10214.842000
2639.238358,153.219100,2960.823768,8068.244768
2639.238687,2221.676944,2590.720797,8438.347739
2639.239016,3370.820191,5477.523971,6513.812290
2639.239345,2451.505594,5033.400406,6439.791695
2639.239674,2145.067394,5329.482782,7550.100608
2639.240004,1072.533697,5329.482782,7105.977043
2639.240333,0.000000,3552.988522,8808.450710
2639.240662,-1915.238745,2072.576638,9474.636058
2639.240991,-2911.162892,1184.329507,10214.842000
2639.241320,-3447.429741,-666.185348,11917.315666
2639.241649,-3370.820191,2738.761985,9104.533087
2639.241978,-3064.381992,1998.556043,10214.842000
2639.242307,-3677.258390,1480.411884,10807.006753
2639.242636,-3370.820191,2664.741391,11473.192101
2639.242966,-2374.896044,1702.473667,11399.171507
2639.243295,-1532.190996,2294.638420,9252.574275
2639.243624,-612.876398,2886.803174,8142.265362
2639.243953,-766.095498,3404.947333,8956.491898
2639.244282,-1302.362347,2664.741391,10881.027347
2639.244611,2451.505594,2664.741391,9992.780217
2639.244940,4213.525239,5403.503377,4811.338623
2639.245269,3983.696590,4959.379811,7698.141797
2639.245599,2451.505594,6069.688724,6069.688724
2639.245928,3370.820191,7476.080014,7402.059420
2639.246257,1915.238745,5477.523971,6513.812290
2639.246586,2145.067394,6439.791695,6291.750507
2639.246915,383.047749,4737.318029,9474.636058
2639.247244,-229.828649,5551.544565,7105.977043
2639.247573,-1608.800546,1998.556043,9844.739029
2639.247902,-2681.334243,-1036.288319,11399.171507
2639.248231,-842.705048,1110.308913,10140.821405
2639.248561,-1455.581446,-222.061783,11843.295072
2639.248890,-2068.457845,888.247130,10732.986159
2639.249219,-842.705048,3775.050304,11843.295072
2639.249548,1455.581446,2442.679609,8290.306550
2639.249877,2145.067394,5921.647536,7550.100608
2639.250206,3294.210641,4737.318029,7328.038826
2639.250535,4213.525239,4589.276840,7994.224174
2639.250864,1991.848295,5107.421000,6809.894666
2639.251193,2068.457845,4885.359217,6809.894666
2639.251523,-306.438199,2146.597232,8882.471304
2639.251852,-1838.629195,-222.061783,12731.542202
2639.252181,-2298.286494,296.082377,10955.047942
2639.252510,-2298.286494,962.267725,12509.480420
2639.252839,-2911.162892,-0.000000,9696.697840
2639.253168,-1685.410096,1776.494261,9992.780217
2639.253497,-1378.971896,2516.700203,9400.615463
2639.253826,-1225.752797,2960.823768,10658.965565
2639.254155,-689.485948,888.247130,11251.130318
2639.254485,3140.991542,1110.308913,9326.594869
2639.254814,4443.353888,3108.864956,5995.668130
2639.255143,4136.915689,3552.988522,7624.121203
2639.255472,1915.238745,2590.720797,6291.750507
2639.255801,4060.306139,3849.070898,8660.409521
2639.256130,2834.553343,4589.276840,6957.935855
2639.256459,2298.286494,3775.050304,6291.750507
2639.256788,1072.533697,4293.194464,8364.327145
2639.257117,-1225.752797,1850.514855,7476.080014
2639.257447,-2757.943793,-3701.029710,12509.480420
2639.257776,-3140.991542,814.226536,10658.965565
2639.258105,-1915.238745,-2812.782580,11843.295072
2639.258434,-3447.429741,-0.000000,9474.636058
2639.258763,-1762.019645,3034.844362,11103.089130
2639.259092,0.000000,2738.761985,7920.203579
2639.259421,-306.438199,3627.009116,8512.368333
2639.259750,3907.087040,3256.906145,10807.006753
2639.260080,2681.334243,3923.091493,4663.297435
2639.260409,3217.601092,4145.153275,8068.244768
2639.260738,3370.820191,5995.668130,4367.215058
2639.261067,4826.401637,4663.297435,7031.956449
2639.261396,2374.896044,3552.988522,6809.894666
2639.261725,3064.381992,4737.318029,5847.626942
2639.262054,2911.162892,3997.112087,8512.368333
2639.262383,-842.705048,3849.070898,9104.533087
2639.262712,-4366.744339,-1184.329507,14878.139434
2639.263042,-5056.230287,-1554.432478,13619.789333
2639.263371,-3217.601092,1554.432478,11399.171507
2639.263700,-2374.896044,-3182.885551,12583.501014
2639.264029,-3677.258390,592.164754,9104.533087
2639.264358,-1608.800546,2146.597232,12213.398043
2639.264687,-2221.676944,2738.761985,8882.471304
2639.265016,-2068.457845,4219.173869,9030.512492
2639.265345,0.000000,1110.308913,11399.171507
2639.265674,3524.039291,2664.741391,8364.327145
2639.266003,3140.991542,5995.668130,6883.915261
2639.266332,2987.772442,3256.906145,5329.482782
2639.266661,2298.286494,5033.400406,6439.791695
2639.266990,2145.067394,6291.750507,9548.656652
2639.267319,153.219100,5033.400406,7772.162391
2639.267649,0.000000,6291.750507,8364.327145
2639.267978,-153.219100,962.267725,11547.212695
2639.268307,-2987.772442,814.226536,11547.212695
2639.268636,-3524.039291,-148.041188,12435.459826
2639.268965,-2451.505594,740.205942,11695.253884
2639.269294,-1225.752797,-3849.070898,12065.356855
2639.269623,-1302.362347,666.185348,9474.636058
2639.269952,766.095498,1184.329507,9400.615463
2639.270281,229.828649,3182.885551,7105.977043
2639.270610,2374.896044,3627.009116,7994.224174
2639.270939,4290.134789,6735.874072,7402.059420
2639.271268,3524.039291,4811.338623,7402.059420
2639.271597,1991.848295,3849.070898,8586.388927
2639.271927,1378.971896,3034.844362,7624.121203
2639.272256,612.876398,3034.844362,8290.306550
2639.272585,-306.438199,518.144159,9622.677246
2639.272914,153.219100,-1628.453072,11769.274478
2639.273243,-1225.752797,-296.082377,11843.295072
2639.273572,-1378.971896,-2220.617826,11251.130318
2639.273901,-2145.067394,740.205942,9474.636058
2639.274230,-995.924147,-0.000000,10288.862594
2639.274559,1532.190996,2442.679609,8660.409521
2639.274888,2374.896044,3775.050304,7105.977043
2639.275217,2987.772442,2590.720797,7920.203579
2639.275546,3140.991542,1924.535449,8290.306550
2639.275875,3064.381992,1998.556043,7624.121203
2639.276204,3600.648841,2442.679609,6587.832884
2639.276534,2451.505594,-518.144159,8216.285956
2639.276863,153.219100,-1036.288319,9992.780217
2639.277192,-1072.533697,148.041188,9770.718434
2639.277521,-1302.362347,-222.061783,10584.944971
2639.277850,-1838.629195,-1332.370696,10362.883188
2639.278179,-919.314598,222.061783,10140.821405
2639.278508,-2068.457845,-814.226536,9696.697840
2639.278837,-2911.162892,-2220.617826,11251.130318
2639.279166,-1072.533697,-2220.617826,9918.759623
2639.279495,1455.581446,-1110.308913,8734.430116
2639.279824,2374.896044,-0.000000,7105.977043
2639.280153,2145.067394,-148.041188,6809.894666
2639.280482,2221.676944,-1036.288319,7624.121203
2639.280812,2145.067394,222.061783,6661.853478
2639.281141,2604.724693,444.123565,7254.018232
2639.281470,995.924147,-148.041188,8882.471304
2639.281799,-306.438199,-740.205942,9030.512492
2639.282128,-612.876398,-2368.659014,10140.821405
2639.282457,-766.095498,-2516.700203,9918.759623
2639.282786,-1225.752797,-3627.009116,9844.739029
2639.283115,-2451.505594,-3108.864956,11103.089130
2639.283444,-2451.505594,-1628.453072,10807.006753
2639.283773,-1532.190996,-740.205942,9326.594869
2639.284102,0.000000,-1480.411884,8734.430116
2639.284431,459.657299,666.185348,8216.285956
2639.284760,1532.190996,1036.288319,7105.977043
2639.285089,1532.190996,1628.453072,6883.915261
2639.285419,1455.581446,148.041188,6957.935855
2639.285748,2068.457845,-370.102971,7550.100608
2639.286077,1149.143247,-1850.514855,8512.368333
2639.286406,-306.438199,-3256.906145,9548.656652
2639.286735,-1302.362347,-3108.864956,10584.944971
2639.287064,-995.924147,-1702.473667,10584.944971
2639.287393,-612.876398,-222.061783,9770.718434
2639.287722,-383.047749,592.164754,10066.800811
2639.288051,-1455.581446,1924.535449,9844.739029
2639.288380,-766.095498,1998.556043,9252.574275
2639.288709,995.924147,888.247130,9178.553681
2639.289038,1685.410096,-0.000000,8364.327145
2639.289367,2145.067394,-74.020594,9030.512492
2639.289697,919.314598,-0.000000,8364.327145
2639.290026,0.000000,-74.020594,9178.553681
2639.290355,842.705048,-518.144159,8660.409521
2639.290684,1149.143247,740.205942,8512.368333
2639.291013,459.657299,740.205942,9104.533087
2639.291342,0.000000,-0.000000,9104.533087
2639.291671,0.000000,-0.000000,9770.718434
2639.292000,919.314598,-148.041188,9622.677246
2639.292329,995.924147,-296.082377,9474.636058
2639.292658,459.657299,444.123565,10288.862594
2639.292987,459.657299,-222.061783,10584.944971
2639.293316,1072.533697,740.205942,9918.759623
2639.293645,1455.581446,1036.288319,8660.409521
2639.293974,1838.629195,1406.391290,8216.285956
2639.294304,919.314598,2146.597232,8586.388927
2639.294633,306.438199,1554.432478,8512.368333
2639.294962,842.705048,814.226536,8216.285956
2639.295291,1608.800546,-740.205942,7994.224174
2639.295620,1225.752797,-1776.494261,9104.533087
2639.295949,0.000000,-1850.514855,9400.615463
2639.296278,-842.705048,-2072.576638,10140.821405
2639.296607,0.000000,-1850.514855,9622.677246
2639.296936,383.047749,-370.102971,9474.636058
2639.297265,612.876398,1332.370696,9548.656652
2639.297594,76.609550,1776.494261,9400.615463
2639.297923,76.609550,2146.597232,8882.471304
2639.298252,1072.533697,1702.473667,8808.450710
2639.298582,1915.238745,1110.308913,8438.347739
2639.298911,536.266849,-444.123565,9474.636058
2639.299240,-306.438199,-1036.288319,9622.677246
2639.299569,-919.314598,-1776.494261,9400.615463
2639.299898,-689.485948,-1554.432478,8512.368333
2639.300227,-306.438199,-962.267725,8660.409521
2639.300556,-842.705048,-666.185348,8882.471304
2639.300885,-1838.629195,-0.000000,8512.368333
2639.301214,76.609550,-74.020594,8734.430116
2639.301543,766.095498,-666.185348,8290.306550
2639.301872,1149.143247,-0.000000,8290.306550
2639.302201,612.876398,-444.123565,9030.512492
2639.302530,76.609550,-814.226536,9400.615463
2639.302859,0.000000,-74.020594,8808.450710
2639.303189,1378.971896,-444.123565,8734.430116
2639.303518,919.314598,888.247130,8882.471304
2639.303847,76.609550,222.061783,8660.409521
2639.304176,-689.485948,592.164754,8438.347739
2639.304505,0.000000,-0.000000,8290.306550
2639.304834,459.657299,-1036.288319,8882.471304
2639.305163,689.485948,-1998.556043,8660.409521
2639.305492,-536.266849,-2886.803174,9400.615463
2639.305821,-459.657299,-2590.720797,9770.718434
2639.306150,306.438199,-1998.556043,9030.512492
2639.306479,842.705048,-888.247130,8882.471304
2639.306808,383.047749,518.144159,9252.574275
2639.307137,229.828649,962.267725,8808.450710
2639.307467,612.876398,1332.370696,8808.450710
2639.307796,1455.581446,592.164754,9030.512492
2639.308125,2221.676944,148.041188,8882.471304
2639.308454,1149.143247,-222.061783,9252.574275
2639.308783,0.000000,-1406.391290,9918.759623
2639.309112,0.000000,-1480.411884,9918.759623
2639.309441,0.000000,-1998.556043,9622.677246
2639.309770,459.657299,-1258.350101,9400.615463
2639.310099,0.000000,-592.164754,9400.615463
2639.310428,-689.485948,-0.000000,9030.512492
2639.310757,-153.219100,-0.000000,8734.430116
2639.311086,1762.019645,222.061783,8216.285956
2639.311415,1685.410096,-222.061783,8512.368333
2639.311744,1149.143247,-666.185348,9178.553681
2639.312074,766.095498,-1110.308913,9400.615463
2639.312403,995.924147,-1258.350101,9326.594869
2639.312732,1302.362347,-296.082377,9178.553681
2639.313061,689.485948,370.102971,8734.430116
2639.313390,-229.828649,814.226536,9474.636058
2639.313719,-383.047749,1776.494261,8808.450710
2639.314048,229.828649,740.205942,8142.265362
2639.314377,536.266849,-0.000000,8438.347739
2639.314706,612.876398,-1480.411884,9104.533087
2639.315035,-383.047749,-2220.617826,9844.739029
2639.315364,-689.485948,-1998.556043,9178.553681
2639.315693,-229.828649,-1554.432478,9326.594869
2639.316022,76.609550,-444.123565,8438.347739
2639.316352,76.609550,222.061783,8956.491898
2639.316681,536.266849,1258.350101,8882.471304
2639.317010,766.095498,1036.288319,8290.306550
2639.317339,1302.362347,1332.370696,8438.347739
2639.317668,1915.238745,962.267725,8364.327145
2639.317997,1225.752797,370.102971,9030.512492
2639.318326,229.828649,-148.041188,9474.636058
2639.318655,0.000000,-518.144159,9770.718434
2639.318984,0.000000,-592.164754,9474.636058
2639.319313,-306.438199,-0.000000,9696.697840
2639.319642,-306.438199,444.123565,9326.594869
2639.319971,-1302.362347,666.185348,8956.491898
2639.320300,-919.314598,740.205942,8512.368333
2639.320629,153.219100,-0.000000,8512.368333
2639.320959,0.000000,-0.000000,8956.491898
2639.321288,0.000000,-888.247130,9474.636058
2639.321617,-766.095498,-962.267725,9696.697840
2639.321946,612.876398,-1258.350101,9770.718434
2639.322275,919.314598,-1036.288319,9474.636058
2639.322604,919.314598,-148.041188,9474.636058
2639.322933,76.609550,1184.329507,8808.450710
2639.323262,383.047749,1332.370696,8734.430116
2639.323591,1225.752797,1628.453072,8734.430116
2639.323920,2298.286494,1332.370696,7994.224174
2639.324249,1455.581446,592.164754,8142.265362
2639.324578,229.828649,-740.205942,9400.615463
2639.324907,0.000000,-666.185348,9474.636058
2639.325237,153.219100,-2146.597232,9696.697840
2639.325566,-229.828649,-1110.308913,8216.285956
2639.325895,-383.047749,-592.164754,9696.697840
2639.326224,-919.314598,-222.061783,9622.677246
2639.326553,-612.876398,-592.164754,8438.347739
2639.326882,1225.752797,-0.000000,8882.471304
2639.327211,1455.581446,-74.020594,8364.327145
2639.327540,995.924147,-222.061783,9474.636058
2639.327869,76.609550,-962.267725,9918.759623
2639.328198,383.047749,-888.247130,10066.800811
2639.328527,1149.143247,-222.061783,10066.800811
2639.328856,1072.533697,370.102971,9474.636058
2639.329185,459.657299,-0.000000,9622.677246
2639.329514,306.438199,592.164754,8956.491898
2639.329844,995.924147,740.205942,8142.265362
2639.330173,1838.629195,740.205942,8216.285956
2639.330502,1302.362347,-888.247130,8586.388927
2639.330831,76.609550,-1258.350101,9252.574275
2639.331160,-153.219100,-1332.370696,9622.677246
2639.331489,76.609550,-1702.473667,9696.697840
2639.331818,229.828649,-888.247130,8734.430116
2639.332147,0.000000,-1036.288319,9400.615463
2639.332476,-766.095498,444.123565,9104.533087
2639.332805,-459.657299,-74.020594,9178.553681
2639.333134,306.438199,518.144159,8512.368333
2639.333463,766.095498,888.247130,8808.450710
2639.333792,306.438199,-148.041188,9326.594869
2639.334122,-536.266849,-1332.370696,9548.656652
2639.334451,-383.047749,-1776.494261,9326.594869
2639.334780,0.000000,-1998.556043,9326.594869
2639.335109,459.657299,-1036.288319,8734.430116
2639.335438,0.000000,-518.144159,9178.553681
2639.335767,-919.314598,1110.308913,8808.450710
2639.336096,-306.438199,444.123565,8290.306550
2639.336425,1149.143247,-222.061783,8142.265362
2639.336754,1302.362347,-0.000000,8216.285956
2639.337083,689.485948,-814.226536,9178.553681
2639.337412,153.219100,-1332.370696,9104.533087
2639.337741,306.438199,-1850.514855,9548.656652
2639.338070,766.095498,-1406.391290,9474.636058
2639.338399,0.000000,296.082377,9548.656652
2639.338729,-229.828649,962.267725,9474.636058
2639.339058,0.000000,1554.432478,8734.430116
2639.339387,612.876398,1702.473667,8734.430116
2639.339716,1838.629195,666.185348,8882.471304
2639.340045,689.485948,-592.164754,9548.656652
2639.340374,0.000000,-1406.391290,10066.800811
2639.340703,-612.876398,-1554.432478,10066.800811
2639.341032,0.000000,-1258.350101,9548.656652
2639.341361,536.266849,-1036.288319,9622.677246
2639.341690,689.485948,222.061783,9326.594869
2639.342019,383.047749,1184.329507,9474.636058
2639.342348,842.705048,1850.514855,8438.347739
2639.342677,1608.800546,1998.556043,8142.265362
2639.343006,2298.286494,1924.535449,8808.450710
2639.343336,2068.457845,1110.308913,9104.533087
2639.343665,766.095498,-222.061783,9474.636058
2639.343994,689.485948,-518.144159,9696.697840
2639.344323,1072.533697,-740.205942,9622.677246
2639.344652,919.314598,-666.185348,10066.800811
2639.344981,-229.828649,518.144159,9474.636058
2639.345310,-689.485948,740.205942,9474.636058
2639.345639,-766.095498,1258.350101,8808.450710
2639.345968,306.438199,222.061783,8586.388927
2639.346297,229.828649,-444.123565,9030.512492
2639.346626,229.828649,-814.226536,9178.553681
2639.346955,-766.095498,-1332.370696,9918.759623
2639.347284,0.000000,-2072.576638,9474.636058
2639.347614,153.219100,-1332.370696,9252.574275
2639.347943,536.266849,222.061783,8956.491898
2639.348272,76.609550,592.164754,8882.471304
2639.348601,306.438199,1406.391290,8808.450710
2639.348930,1532.190996,814.226536,7624.121203
2639.349259,2068.457845,1184.329507,8290.306550
2639.349588,1532.190996,370.102971,8438.347739
2639.349917,76.609550,-962.267725,9104.533087
2639.350246,-459.657299,-1110.308913,9474.636058
2639.350575,229.828649,-1554.432478,9178.553681
2639.350904,0.000000,-1332.370696,9474.636058
2639.351233,-459.657299,-666.185348,8956.491898
2639.351562,-919.314598,-296.082377,9326.594869
2639.351891,-1225.752797,-0.000000,9178.553681
2639.352221,306.438199,-740.205942,9030.512492
2639.352550,536.266849,-444.123565,8438.347739
2639.352879,229.828649,-222.061783,9104.533087
2639.353208,-306.438199,-666.185348,9844.739029
2639.353537,-229.828649,-1554.432478,9622.677246
2639.353866,536.266849,-592.164754,9400.615463
2639.354195,1532.190996,518.144159,9474.636058
2639.354524,842.705048,1628.453072,9252.574275
2639.354853,0.000000,1702.473667,8882.471304
2639.355182,995.924147,814.226536,8882.471304
2639.355511,1991.848295,740.205942,8142.265362
2639.355840,1915.238745,-0.000000,9104.533087
2639.356169,842.705048,-814.226536,8882.471304
2639.356499,459.657299,-1258.350101,9770.718434
2639.356828,229.828649,-1036.288319,9548.656652
2639.357157,766.095498,-888.247130,9252.574275
2639.357486,766.095498,-296.082377,9474.636058
2639.357815,153.219100,296.082377,9178.553681
2639.358144,0.000000,592.164754,9104.533087
2639.358473,306.438199,444.123565,8882.471304
2639.358802,1302.362347,370.102971,8068.244768
2639.359131,766.095498,518.144159,8882.471304
2639.359460,536.266849,-370.102971,9622.677246
2639.359789,-229.828649,-814.226536,10288.862594
2639.360118,76.609550,-962.267725,9548.656652
2639.360447,153.219100,-1406.391290,9326.594869
2639.360776,0.000000,-0.000000,9474.636058
2639.361106,-766.095498,148.041188,9474.636058
2639.361435,-689.485948,-0.000000,8808.450710
2639.361764,689.485948,222.061783,9030.512492
2639.362093,2374.896044,-518.144159,8734.430116
2639.362422,1225.752797,-962.267725,8882.471304
2639.362751,536.266849,-666.185348,9400.615463
2639.363080,766.095498,-962.267725,9030.512492
2639.363409,1149.143247,-444.123565,8882.471304
2639.363738,1762.019645,444.123565,8882.471304
2639.364067,612.876398,222.061783,9178.553681
2639.364396,-383.047749,666.185348,9178.553681
2639.364725,-153.219100,666.185348,8956.491898
2639.365054,76.609550,-0.000000,8364.327145
2639.365385,-153.219100,-888.247130,9104.533087
2639.365714,-1225.752797,-1554.432478,9770.718434
2639.366043,-1915.238745,-2072.576638,9548.656652
2639.366372,-1532.190996,-1776.494261,9992.780217
2639.366702,-536.266849,-1776.494261,9326.594869
2639.367031,0.000000,-0.000000,8882.471304
2639.367360,-306.438199,666.185348,8586.388927
2639.367689,0.000000,1480.411884,8364.327145
2639.368018,1378.971896,1258.350101,8216.285956
2639.368347,2451.505594,1036.288319,7772.162391
2639.368677,2528.115143,814.226536,8364.327145
2639.369006,1225.752797,1036.288319,8438.347739
2639.369335,689.485948,-148.041188,9104.533087
2639.369664,1378.971896,-370.102971,9104.533087
2639.369993,1072.533697,148.041188,8734.430116
2639.370323,383.047749,592.164754,9326.594869
2639.370652,-995.924147,592.164754,9104.533087
2639.370981,-919.314598,-0.000000,9104.533087
2639.371310,-153.219100,-222.061783,8734.430116
2639.371639,153.219100,-814.226536,8808.450710
2639.371968,-153.219100,-1036.288319,9622.677246
2639.372298,-995.924147,-888.247130,9400.615463
2639.372627,-689.485948,-740.205942,9992.780217
2639.372956,383.047749,-1110.308913,9474.636058
2639.373285,1225.752797,-592.164754,8882.471304
2639.373614,1149.143247,888.247130,9474.636058
2639.373943,842.705048,888.247130,8882.471304
2639.374273,1302.362347,1258.350101,9104.533087
2639.374602,2528.115143,814.226536,8364.327145
2639.374931,2604.724693,592.164754,8882.471304
2639.375260,1302.362347,-370.102971,9918.759623
2639.375589,-76.609550,-962.267725,9696.697840
2639.375919,766.095498,-1480.411884,9326.594869
2639.376248,689.485948,-74.020594,9030.512492
2639.376577,536.266849,-222.061783,9104.533087
2639.376906,-306.438199,-0.000000,9326.594869
2639.377235,-1149.143247,444.123565,8882.471304
2639.377564,-229.828649,-296.082377,8364.327145
2639.377894,612.876398,-370.102971,7920.203579
2639.378223,383.047749,-814.226536,8734.430116
2639.378552,-842.705048,-1924.535449,9474.636058
2639.378881,-1149.143247,-2072.576638,9844.739029
2639.379210,-383.047749,-1850.514855,9178.553681
2639.379539,153.219100,-962.267725,9030.512492
2639.379869,153.219100,-0.000000,9030.512492
2639.380198,-153.219100,-444.123565,9104.533087
2639.380527,306.438199,444.123565,8882.471304
2639.380856,1838.629195,370.102971,7772.162391
2639.381185,2145.067394,-370.102971,8142.265362
2639.381515,1608.800546,-0.000000,8216.285956
2639.381844,306.438199,-666.185348,8586.388927
2639.382173,153.219100,-148.041188,8660.409521
2639.382502,1072.533697,-518.144159,8290.306550
2639.382831,689.485948,-518.144159,8882.471304
2639.383160,-459.657299,-74.020594,8734.430116
2639.383490,-1072.533697,666.185348,8290.306550
2639.383819,-459.657299,-444.123565,8734.430116
2639.384148,0.000000,-296.082377,8882.471304
2639.384477,76.609550,-1258.350101,9696.697840
2639.384806,-1072.533697,-1776.494261,9548.656652
2639.385135,-995.924147,-1998.556043,10066.800811
2639.385465,-536.266849,-1036.288319,10140.821405
2639.385794,612.876398,-296.082377,9178.553681
2639.386123,306.438199,962.267725,8882.471304
2639.386452,0.000000,1332.370696,9400.615463
2639.386781,306.438199,1332.370696,9030.512492
2639.387111,2068.457845,740.205942,8438.347739
2639.387440,2528.115143,-0.000000,8142.265362
2639.387769,1762.019645,592.164754,9030.512492
2639.388098,689.485948,-0.000000,9548.656652
2639.388427,0.000000,-814.226536,9474.636058
2639.388756,306.438199,-814.226536,9326.594869
2639.389086,1225.752797,-370.102971,9252.574275
2639.389415,0.000000,444.123565,9326.594869
2639.389744,-229.828649,962.267725,9696.697840
2639.390073,612.876398,-0.000000,8586.388927
2639.390402,842.705048,-370.102971,8660.409521
2639.390731,1455.581446,-148.041188,9474.636058
2639.391061,766.095498,-888.247130,9104.533087
2639.391390,-459.657299,-814.226536,8956.491898
2639.391719,0.000000,-592.164754,9400.615463
2639.392048,612.876398,-1554.432478,9474.636058
2639.392377,0.000000,-148.041188,9400.615463
2639.392707,-229.828649,-0.000000,9178.553681
2639.393036,-766.095498,962.267725,8660.409521
2639.393365,-229.828649,592.164754,8808.450710
2639.393694,1149.143247,-0.000000,8734.430116
2639.394023,1302.362347,-444.123565,9030.512492
2639.394352,153.219100,-666.185348,9548.656652
2639.394682,0.000000,-740.205942,9622.677246
2639.395011,689.485948,-444.123565,9178.553681
2639.395340,1532.190996,-0.000000,8512.368333
2639.395669,1302.362347,814.226536,9030.512492
2639.395998,229.828649,962.267725,8956.491898
2639.396327,153.219100,666.185348,9178.553681
2639.396657,1455.581446,888.247130,8512.368333
2639.396986,1455.581446,-518.144159,8142.265362
2639.397315,383.047749,-740.205942,9104.533087
2639.397644,-919.314598,-1332.370696,9992.780217
2639.397973,-1225.752797,-1332.370696,9622.677246
2639.398303,-995.924147,-1776.494261,9252.574275
2639.398632,-383.047749,-222.061783,9252.574275
2639.398961,-689.485948,-0.000000,9326.594869
2639.399290,-1072.533697,222.061783,9326.594869
2639.399619,-76.609550,740.205942,8734.430116
2639.399948,919.314598,-0.000000,8290.306550
2639.400278,1378.971896,296.082377,8290.306550
2639.400607,689.485948,-222.061783,8734.430116
2639.400936,689.485948,-1554.432478,9770.718434
2639.401265,383.047749,-888.247130,9400.615463
2639.401594,995.924147,-1110.308913,8808.450710
2639.401923,1225.752797,-0.000000,8438.347739
2639.402253,306.438199,888.247130,8586.388927
2639.402582,0.000000,370.102971,8882.471304
2639.402911,842.705048,370.102971,8290.306550
2639.403240,1302.362347,-370.102971,8068.244768
2639.403569,995.924147,-444.123565,8808.450710
2639.403899,0.000000,-1258.350101,9326.594869
2639.404228,-995.924147,-1702.473667,9992.780217
2639.404557,-536.266849,-2072.576638,9178.553681
2639.404886,0.000000,-962.267725,8956.491898
2639.405215,0.000000,-296.082377,8882.471304
2639.405544,-306.438199,962.267725,9178.553681
2639.405874,-229.828649,444.123565,8882.471304
2639.406203,1225.752797,444.123565,8956.491898
2639.406532,2068.457845,-222.061783,8956.491898
2639.406861,1225.752797,-592.164754,8660.409521
2639.407190,306.438199,-1554.432478,10066.800811
2639.407519,0.000000,-1776.494261,9696.697840
2639.407849,919.314598,-1776.494261,9622.677246
2639.408178,1455.581446,-592.164754,9326.594869
2639.408507,612.876398,518.144159,8586.388927
2639.408836,-306.438199,1924.535449,8956.491898
2639.409165,536.266849,1406.391290,8438.347739
2639.409495,1378.971896,814.226536,7994.224174
2639.409824,1532.190996,-370.102971,8956.491898
2639.410153,153.219100,-518.144159,9326.594869
2639.410482,-1225.752797,-1184.329507,10140.821405
2639.410811,-1149.143247,-1184.329507,9622.677246
2639.411140,0.000000,-518.144159,9770.718434
2639.411470,0.000000,-74.020594,9548.656652
2639.411799,-995.924147,666.185348,9178.553681
2639.412128,-1072.533697,962.267725,8956.491898
2639.412457,0.000000,1258.350101,8956.491898
2639.412786,1149.143247,962.267725,9104.533087
2639.413115,1378.971896,-0.000000,8882.471304
2639.413445,76.609550,-888.247130,9918.759623
2639.413774,-153.219100,-370.102971,9548.656652
2639.414103,459.657299,-1332.370696,9622.677246
2639.414432,1225.752797,222.061783,8290.306550
2639.414761,1072.533697,222.061783,8882.471304
2639.415091,76.609550,1628.453072,8586.388927
2639.415420,229.828649,1332.370696,8586.388927
2639.415749,842.705048,1110.308913,7846.182985
2639.416078,1149.143247,-0.000000,8290.306550
2639.416407,536.266849,-0.000000,8734.430116
2639.416736,-1225.752797,-1110.308913,9548.656652
2639.417066,-1072.533697,-1258.350101,10214.842000
2639.417395,-1608.800546,-1998.556043,9696.697840
2639.417724,-153.219100,-888.247130,9918.759623
2639.418053,-383.047749,296.082377,9326.594869
2639.418382,-689.485948,814.226536,8956.491898
2639.418711,-229.828649,1480.411884,8734.430116
2639.419041,1608.800546,1110.308913,9326.594869
2639.419370,995.924147,666.185348,8586.388927
2639.419699,1225.752797,-518.144159,9474.636058
2639.420028,689.485948,-666.185348,9844.739029
2639.420357,1225.752797,-740.205942,9030.512492
2639.420687,1302.362347,-0.000000,8660.409521
2639.421016,1455.581446,296.082377,8956.491898
2639.421345,689.485948,1554.432478,9104.533087
2639.421674,306.438199,1406.391290,8882.471304
2639.422003,1072.533697,1036.288319,8438.347739
2639.422332,1378.971896,222.061783,7994.224174
2639.422662,842.705048,-148.041188,9104.533087
2639.422991,-459.657299,-1332.370696,9770.718434
2639.423320,-1149.143247,-2072.576638,10510.924376
2639.423649,-306.438199,-2072.576638,9918.759623
2639.423978,76.609550,-1702.473667,9178.553681
2639.424307,536.266849,-370.102971,9474.636058
2639.424637,-153.219100,-0.000000,9326.594869
2639.424966,229.828649,1036.288319,8734.430116
2639.425295,1302.362347,592.164754,8512.368333
2639.425624,2145.067394,444.123565,8512.368333
2639.425953,1838.629195,-296.082377,9178.553681
2639.426283,459.657299,-1110.308913,9178.553681
2639.426612,153.219100,-1406.391290,9178.553681
2639.426941,536.266849,-1480.411884,8808.450710
2639.427270,766.095498,-444.123565,9252.574275
2639.427599,0.000000,740.205942,9252.574275
2639.427928,-919.314598,666.185348,9326.594869
2639.428258,-383.047749,-0.000000,8882.471304
2639.428587,995.924147,-1036.288319,7994.224174
2639.428916,689.485948,-666.185348,9474.636058
2639.429245,0.000000,-1924.535449,9474.636058
2639.429574,-1225.752797,-1480.411884,9844.739029
2639.429903,-689.485948,-1702.473667,9696.697840
2639.430233,612.876398,-1184.329507,8882.471304
2639.430562,919.314598,-296.082377,9548.656652
2639.430891,0.000000,-148.041188,8956.491898
2639.431220,0.000000,888.247130,8586.388927
2639.431549,995.924147,1332.370696,8216.285956
2639.431879,1225.752797,1110.308913,8068.244768
2639.432208,612.876398,-0.000000,9400.615463
2639.432537,-306.438199,-666.185348,9622.677246
2639.432866,-383.047749,-1184.329507,9252.574275
2639.433195,153.219100,-1258.350101,9844.739029
2639.433524,919.314598,-592.164754,9474.636058
2639.433854,306.438199,-0.000000,9252.574275
2639.434183,0.000000,1110.308913,9030.512492
2639.434512,383.047749,1406.391290,8216.285956
2639.434841,1455.581446,740.205942,7624.121203
2639.435170,1455.581446,888.247130,8216.285956
2639.435499,1762.019645,-74.020594,8290.306550
2639.435829,612.876398,-296.082377,9474.636058
2639.436158,0.000000,-1258.350101,9474.636058
2639.436487,306.438199,-1406.391290,9474.636058
2639.436816,76.609550,-814.226536,9326.594869
2639.437145,-459.657299,-0.000000,9326.594869
2639.437475,-842.705048,370.102971,9474.636058
2639.437804,0.000000,-0.000000,8956.491898
2639.438133,1072.533697,666.185348,8586.388927
2639.438462,1455.581446,592.164754,8882.471304
2639.438791,536.266849,-0.000000,9326.594869
2639.439120,229.828649,-518.144159,9992.780217
2639.439450,689.485948,-444.123565,9400.615463
2639.439779,1149.143247,-296.082377,9178.553681
2639.440108,1685.410096,518.144159,8808.450710
2639.440437,689.485948,888.247130,9326.594869
2639.440766,459.657299,888.247130,9178.553681
2639.441095,1149.143247,962.267725,8660.409521
2639.441425,1455.581446,-370.102971,8882.471304
2639.441754,383.047749,-74.020594,8882.471304
2639.442083,-459.657299,-740.205942,10362.883188
2639.442412,-536.266849,-1554.432478,10362.883188
2639.442741,-766.095498,-2072.576638,9622.677246
2639.443071,0.000000,-888.247130,9770.718434
2639.443400,-383.047749,-0.000000,9030.512492
2639.443729,-919.314598,1258.350101,9400.615463
2639.444058,-153.219100,1184.329507,8660.409521
2639.444387,842.705048,518.144159,8216.285956
2639.444716,1455.581446,518.144159,9178.553681
2639.445046,459.657299,-444.123565,8660.409521
2639.445375,-612.876398,-1110.308913,9696.697840
2639.445704,76.609550,-1110.308913,9474.636058
2639.446033,612.876398,-1702.473667,8586.388927
2639.446362,383.047749,-0.000000,8956.491898
2639.446691,0.000000,814.226536,9030.512492
2639.447021,-229.828649,666.185348,9030.512492
2639.447350,0.000000,1480.411884,8438.347739
2639.447679,1532.190996,-0.000000,8438.347739
2639.448008,842.705048,-444.123565,8956.491898
2639.448337,0.000000,-1184.329507,9696.697840
2639.448667,-689.485948,-1036.288319,9474.636058
2639.448996,-306.438199,-1776.494261,9030.512492
2639.449325,0.000000,-740.205942,9548.656652
2639.449654,383.047749,-518.144159,9400.615463
2639.449983,-153.219100,-0.000000,9252.574275
2639.450312,0.000000,1406.391290,8364.327145
2639.450642,1149.143247,1110.308913,8290.306550
2639.450971,1838.629195,888.247130,8512.368333
2639.451300,1455.581446,148.041188,8734.430116
2639.451629,612.876398,-518.144159,9400.615463
2639.451958,229.828649,-888.247130,9178.553681
2639.452287,919.314598,-1702.473667,9696.697840
2639.452617,842.705048,-1184.329507,8660.409521
2639.452946,0.000000,-296.082377,9400.615463
2639.453275,-383.047749,518.144159,9474.636058
2639.453604,-383.047749,370.102971,8364.327145
2639.453933,383.047749,518.144159,8586.388927
2639.454263,919.314598,-0.000000,9030.512492
2639.454592,612.876398,-1036.288319,9474.636058
2639.454921,0.000000,-1480.411884,10362.883188
2639.455250,-306.438199,-1184.329507,9548.656652
2639.455579,689.485948,-1110.308913,9178.553681
2639.455908,536.266849,-0.000000,8956.491898
2639.456238,383.047749,370.102971,9030.512492
2639.456567,-229.828649,1258.350101,8808.450710
2639.456896,689.485948,296.082377,8290.306550
2639.457225,1762.019645,296.082377,8290.306550
2639.457554,1608.800546,-74.020594,8512.368333
2639.457883,153.219100,-370.102971,9252.574275
2639.458213,-612.876398,-1702.473667,9770.718434
2639.458542,-306.438199,-1776.494261,9696.697840
2639.458871,306.438199,-1110.308913,8882.471304
2639.459200,0.000000,-222.061783,8956.491898
2639.459529,-842.705048,592.164754,9696.697840
2639.459859,-306.438199,296.082377,9030.512492
2639.460188,842.705048,222.061783,8734.430116
2639.460517,1149.143247,296.082377,7994.224174
2639.460846,842.705048,-0.000000,8808.450710
2639.461175,0.000000,-888.247130,9326.594869
2639.461504,0.000000,-518.144159,9474.636058
2639.461834,229.828649,-1110.308913,9030.512492
2639.462163,842.705048,-74.020594,8586.388927
2639.462492,-306.438199,666.185348,9178.553681
2639.462821,-689.485948,444.123565,9030.512492
2639.463150,-459.657299,740.205942,8586.388927
2639.463479,536.266849,-518.144159,8734.430116
2639.463809,919.314598,-518.144159,8808.450710
2639.464138,612.876398,-74.020594,9548.656652
2639.464467,-536.266849,-592.164754,9622.677246
2639.464796,153.219100,-518.144159,9992.780217
2639.465125,1072.533697,-74.020594,9178.553681
2639.465454,1072.533697,296.082377,9326.594869
2639.465783,459.657299,1036.288319,9474.636058
2639.466113,0.000000,1702.473667,8216.285956
2639.466442,1378.971896,518.144159,8512.368333
2639.466771,1685.410096,1184.329507,8808.450710
2639.467100,1149.143247,666.185348,8956.491898
2639.467429,0.000000,-592.164754,9474.636058
2639.467758,-842.705048,-666.185348,9622.677246
2639.468087,0.000000,-1406.391290,9622.677246
2639.468416,0.000000,-1332.370696,9474.636058
2639.468746,0.000000,-444.123565,9474.636058
2639.469075,-612.876398,-0.000000,9844.739029
2639.469404,0.000000,814.226536,8438.347739
2639.469733,1072.533697,148.041188,8364.327145
2639.470062,1991.848295,-296.082377,8364.327145
2639.470391,1608.800546,-74.020594,8512.368333
2639.470720,76.609550,-962.267725,9474.636058
2639.471049,76.609550,-1258.350101,9474.636058
2639.471379,612.876398,-1258.350101,9178.553681
2639.471708,1149.143247,-518.144159,9030.512492
2639.472037,153.219100,-0.000000,8586.388927
2639.472366,-536.266849,518.144159,8882.471304
2639.472695,0.000000,148.041188,8438.347739
2639.473024,1072.533697,-444.123565,8364.327145
2639.473353,536.266849,-370.102971,8734.430116
2639.473683,0.000000,-1332.370696,9326.594869
2639.474012,-1608.800546,-1184.329507,9548.656652
2639.474341,-919.314598,-1776.494261,9992.780217
2639.474670,76.609550,-1332.370696,9252.574275
2639.474999,689.485948,-740.205942,9178.553681
2639.475328,383.047749,-444.123565,9030.512492
2639.475657,153.219100,222.061783,8364.327145
2639.475986,1302.362347,370.102971,8586.388927
2639.476316,2068.457845,518.144159,7476.080014
2639.476645,1608.800546,814.226536,8512.368333
2639.476974,689.485948,-74.020594,9252.574275
2639.477303,153.219100,-740.205942,9326.594869
2639.477632,76.609550,-1554.432478,9474.636058
2639.477961,383.047749,-1036.288319,9252.574275
2639.478290,0.000000,-74.020594,9770.718434
2639.478619,-995.924147,-0.000000,8882.471304
2639.478949,-1225.752797,740.205942,9030.512492
2639.479278,0.000000,444.123565,9030.512492
2639.479607,459.657299,-0.000000,8364.327145
2639.479936,-383.047749,-222.061783,9178.553681
2639.480265,-612.876398,-518.144159,9918.759623
2639.480594,0.000000,-1036.288319,9696.697840
2639.480923,459.657299,-1110.308913,9326.594869
2639.481253,1149.143247,-0.000000,9252.574275
2639.481582,1072.533697,666.185348,9400.615463
2639.481911,76.609550,962.267725,9030.512492
2639.482240,1685.410096,518.144159,8512.368333
2639.482569,2451.505594,1184.329507,8734.430116
2639.482898,2374.896044,666.185348,8512.368333
2639.483227,919.314598,-0.000000,9178.553681
2639.483556,0.000000,-222.061783,9918.759623
2639.483886,0.000000,-740.205942,9622.677246
2639.484215,536.266849,-962.267725,8660.409521
2639.484544,459.657299,-148.041188,8734.430116
2639.484873,-383.047749,-0.000000,9474.636058
2639.485202,-842.705048,370.102971,8808.450710
2639.485531,76.609550,-222.061783,8808.450710
2639.485860,919.314598,-888.247130,8216.285956
2639.486189,459.657299,-370.102971,8956.491898
2639.486519,-383.047749,-740.205942,9178.553681
2639.486848,-306.438199,-740.205942,9918.759623
2639.487177,536.266849,-1406.391290,9770.718434
2639.487506,1378.971896,-666.185348,8512.368333
2639.487835,919.314598,666.185348,8956.491898
2639.488164,229.828649,1036.288319,9696.697840
2639.488493,306.438199,1036.288319,8734.430116
2639.488823,1455.581446,592.164754,8068.244768
2639.489152,1991.848295,444.123565,8068.244768
2639.489481,1225.752797,-148.041188,8586.388927
2639.489810,0.000000,-518.144159,9548.656652
2639.490139,-229.828649,-962.267725,9474.636058
2639.490468,306.438199,-1184.329507,8808.450710
2639.490797,153.219100,-222.061783,9030.512492
2639.491126,-536.266849,518.144159,9252.574275
2639.491456,-1608.800546,518.144159,9104.533087
2639.491785,-842.705048,-0.000000,9104.533087
2639.492114,76.609550,-370.102971,8660.409521
2639.492443,689.485948,-518.144159,8882.471304
2639.492772,-229.828649,-962.267725,9474.636058
2639.493101,-1072.533697,-1702.473667,10214.842000
2639.493430,0.000000,-1036.288319,9770.718434
2639.493759,612.876398,-592.164754,9178.553681
2639.494089,842.705048,296.082377,9178.553681
2639.494418,229.828649,814.226536,8808.450710
2639.494747,842.705048,1406.391290,8808.450710
2639.495076,1532.190996,1480.411884,8364.327145
2639.495405,2374.896044,592.164754,8438.347739
2639.495734,1149.143247,444.123565,9104.533087
2639.496063,229.828649,-222.061783,9400.615463
2639.496392,-306.438199,-814.226536,9696.697840
2639.496722,306.438199,-1480.411884,9474.636058
2639.497051,306.438199,-888.247130,8956.491898
2639.497380,-383.047749,-0.000000,10066.800811
2639.497709,-919.314598,1110.308913,9326.594869
2639.498038,-689.485948,740.205942,9030.512492
2639.498367,383.047749,-74.020594,8956.491898
2639.498696,1225.752797,148.041188,8216.285956
2639.499026,689.485948,-592.164754,9104.533087
2639.499355,-536.266849,-518.144159,9548.656652
2639.499684,-153.219100,-962.267725,9992.780217
2639.500013,1149.143247,-1110.308913,9474.636058
2639.500342,1149.143247,-0.000000,8290.306550
2639.500671,842.705048,592.164754,9030.512492
2639.501000,76.609550,888.247130,8734.430116
2639.501329,1225.752797,444.123565,8734.430116
2639.501659,1991.848295,148.041188,7846.182985
2639.501988,1915.238745,-0.000000,7994.224174
2639.502317,0.000000,-444.123565,9696.697840
2639.502646,-306.438199,-1258.350101,9474.636058
2639.502975,0.000000,-1480.411884,9326.594869
2639.503304,383.047749,-1258.350101,9104.533087
2639.503633,153.219100,-296.082377,9030.512492
2639.503962,-766.095498,-370.102971,9992.780217
2639.504292,-1685.410096,-74.020594,9548.656652
2639.504621,459.657299,-666.185348,7772.162391
2639.504950,1149.143247,-0.000000,7402.059420
2639.505279,919.314598,-148.041188,9030.512492
2639.505608,0.000000,-592.164754,9474.636058
2639.505937,-536.266849,-1184.329507,9326.594869
2639.506266,995.924147,-1110.308913,9400.615463
2639.506596,919.314598,-518.144159,8734.430116
2639.506925,0.000000,444.123565,9104.533087
2639.507254,-459.657299,592.164754,9104.533087
2639.507583,76.609550,-0.000000,9104.533087
2639.507912,1225.752797,222.061783,8290.306550
2639.508241,1532.190996,-0.000000,8660.409521
2639.508570,-383.047749,-222.061783,9770.718434
2639.508899,-612.876398,-444.123565,9474.636058
2639.509229,306.438199,-962.267725,9474.636058
2639.509558,383.047749,-962.267725,8808.450710
