#time,accel_x,accel_y,accel_z
2686.974304,612.876398,-222.061783,9252.574275
2686.974633,383.047749,-148.041188,8882.471304
2686.974962,459.657299,-74.020594,9178.553681
2686.975291,229.828649,-222.061783,9178.553681
2686.975620,306.438199,222.061783,9252.574275
2686.975949,229.828649,-296.082377,9622.677246
2686.976278,306.438199,-444.123565,9696.697840
2686.976607,229.828649,-592.164754,9400.615463
2686.976936,229.828649,-222.061783,9474.636058
2686.977265,306.438199,-296.082377,9104.533087
2686.977594,459.657299,-74.020594,9252.574275
2686.977922,383.047749,-0.000000,9178.553681
2686.978251,459.657299,-0.000000,8882.471304
2686.978580,536.266849,-0.000000,9474.636058
2686.978909,-229.828649,-0.000000,9622.677246
2686.979238,459.657299,-0.000000,9030.512492
2686.979567,229.828649,-0.000000,9030.512492
2686.979896,306.438199,-148.041188,9030.512492
2686.980225,612.876398,-148.041188,9104.533087
2686.980554,536.266849,-444.123565,9030.512492
2686.980883,459.657299,-222.061783,8956.491898
2686.981212,536.266849,-296.082377,9030.512492
2686.981541,229.828649,-0.000000,9030.512492
2686.981870,383.047749,-0.000000,8808.450710
2686.982199,612.876398,-148.041188,8734.430116
2686.982528,459.657299,-0.000000,8808.450710
2686.982857,689.485948,-444.123565,9178.553681
2686.983186,766.095498,-74.020594,8290.306550
2686.983515,153.219100,-148.041188,9178.553681
2686.983844,229.828649,-0.000000,9104.533087
2686.984172,229.828649,-222.061783,9104.533087
2686.984501,383.047749,-74.020594,9104.533087
2686.984830,383.047749,-74.020594,9252.574275
2686.985159,536.266849,-296.082377,9178.553681
2686.985488,536.266849,-222.061783,9030.512492
2686.985817,306.438199,-0.000000,9326.594869
2686.986146,459.657299,-222.061783,8956.491898
2686.986475,306.438199,-74.020594,9104.533087
2686.986804,459.657299,-74.020594,9178.553681
2686.987133,612.876398,-296.082377,9178.553681
2686.987462,306.438199,-222.061783,9400.615463
2686.987791,459.657299,-518.144159,9030.512492
2686.988120,383.047749,-370.102971,9030.512492
2686.988449,229.828649,-370.102971,9400.615463
2686.988778,383.047749,-222.061783,9178.553681
2686.989107,306.438199,-296.082377,9178.553681
2686.989436,306.438199,-444.123565,9178.553681
2686.989765,383.047749,-518.144159,9178.553681
2686.990093,-229.828649,-148.041188,9400.615463
2686.990422,306.438199,-148.041188,9474.636058
2686.990751,229.828649,-74.020594,9104.533087
2686.991080,306.438199,-74.020594,9252.574275
2686.991409,229.828649,-148.041188,8956.491898
2686.991738,229.828649,-148.041188,8956.491898
2686.992067,153.219100,222.061783,9104.533087
2686.992396,153.219100,-74.020594,9178.553681
2686.992725,76.609550,-74.020594,9104.533087
2686.993054,153.219100,-222.061783,8734.430116
2686.993383,229.828649,-0.000000,9030.512492
2686.993712,306.438199,148.041188,8808.450710
2686.994041,459.657299,-0.000000,8808.450710
2686.994370,536.266849,-0.000000,8956.491898
2686.994699,536.266849,-148.041188,9030.512492
2686.995028,383.047749,-296.082377,8808.450710
2686.995357,229.828649,-148.041188,8956.491898
2686.995686,229.828649,-0.000000,9030.512492
2686.996015,383.047749,-148.041188,9104.533087
2686.996343,306.438199,-222.061783,9030.512492
2686.996672,459.657299,-518.144159,9326.594869
2686.997001,-153.219100,-296.082377,9252.574275
2686.997330,306.438199,-296.082377,9326.594869
2686.997659,306.438199,-148.041188,9326.594869
2686.997988,383.047749,-0.000000,9326.594869
2686.998317,536.266849,-74.020594,9030.512492
2686.998646,306.438199,-222.061783,9178.553681
2686.998975,459.657299,-740.205942,9252.574275
2686.999304,383.047749,-222.061783,9178.553681
2686.999633,995.924147,-592.164754,8734.430116
2686.999962,459.657299,-444.123565,9104.533087
2687.000291,229.828649,-296.082377,9104.533087
2687.000620,306.438199,-148.041188,9178.553681
2687.000949,383.047749,-0.000000,9178.553681
2687.001278,383.047749,-74.020594,9178.553681
2687.001607,459.657299,-296.082377,8734.430116
2687.001936,383.047749,-148.041188,9178.553681
2687.002264,306.438199,-222.061783,9178.553681
2687.002593,919.314598,-1036.288319,9474.636058
2687.002922,1302.362347,-740.205942,9252.574275
2687.003251,1608.800546,-296.082377,9474.636058
2687.003580,1225.752797,-444.123565,9252.574275
2687.003909,1838.629195,-148.041188,8808.450710
2687.004238,3294.210641,-0.000000,8956.491898
2687.004567,3830.477490,-74.020594,8586.388927
2687.004896,3600.648841,222.061783,8216.285956
2687.005225,2987.772442,740.205942,8586.388927
2687.005554,3064.381992,518.144159,8142.265362
2687.005883,3294.210641,-148.041188,8734.430116
2687.006212,3983.696590,-222.061783,8956.491898
2687.006541,1762.019645,-592.164754,9326.594869
2687.006870,1685.410096,-1628.453072,10140.821405
2687.007199,2451.505594,-1850.514855,9326.594869
2687.007528,2604.724693,-0.000000,9400.615463
2687.007857,2451.505594,-1406.391290,9992.780217
2687.008186,3140.991542,-814.226536,8808.450710
2687.008514,3907.087040,444.123565,9474.636058
2687.008843,5439.278036,444.123565,7994.224174
2687.009172,4903.011187,1258.350101,7624.121203
2687.009501,4749.792088,1036.288319,9474.636058
2687.009830,4903.011187,1110.308913,7698.141797
2687.010159,3983.696590,888.247130,8364.327145
2687.010488,4060.306139,-0.000000,9178.553681
2687.010817,2451.505594,296.082377,8364.327145
2687.011146,1915.238745,-296.082377,9844.739029
2687.011475,995.924147,-1258.350101,9696.697840
2687.011804,2068.457845,-444.123565,9992.780217
2687.012133,153.219100,-1554.432478,9770.718434
2687.012462,1915.238745,-518.144159,9918.759623
2687.012791,1455.581446,-666.185348,10140.821405
2687.013120,3140.991542,666.185348,8438.347739
2687.013449,4136.915689,-0.000000,9104.533087
2687.013778,4213.525239,1480.411884,9104.533087
2687.014107,4979.620737,666.185348,8290.306550
2687.014435,4290.134789,1406.391290,7994.224174
2687.014764,4366.744339,1036.288319,9104.533087
2687.015093,3677.258390,-0.000000,8660.409521
2687.015422,3294.210641,-666.185348,8882.471304
2687.015751,3064.381992,-1110.308913,9696.697840
2687.016080,2987.772442,-1406.391290,9992.780217
2687.016409,3064.381992,-2220.617826,9474.636058
2687.016738,2911.162892,-1850.514855,10140.821405
2687.017067,2451.505594,-888.247130,9548.656652
2687.017396,3217.601092,-0.000000,9326.594869
2687.017725,3294.210641,222.061783,8438.347739
2687.018054,4519.963438,888.247130,8290.306550
2687.018383,4903.011187,1998.556043,8068.244768
2687.018712,4366.744339,2072.576638,7698.141797
2687.019041,4136.915689,1924.535449,7328.038826
2687.019370,3677.258390,1628.453072,7920.203579
2687.019699,3217.601092,518.144159,8068.244768
2687.020028,2374.896044,-666.185348,9030.512492
2687.020357,2451.505594,-1924.535449,9992.780217
2687.020685,2068.457845,-2886.803174,10066.800811
2687.021014,2221.676944,-3034.844362,10732.986159
2687.021343,2451.505594,-2812.782580,10732.986159
2687.021672,3524.039291,-2072.576638,10362.883188
2687.022001,4366.744339,-296.082377,9770.718434
2687.022330,5592.497135,740.205942,9400.615463
2687.022659,5669.106685,1332.370696,8586.388927
2687.022988,5439.278036,1998.556043,8068.244768
2687.023317,4979.620737,3108.864956,7846.182985
2687.023646,4749.792088,3478.967927,7105.977043
2687.023975,4366.744339,2590.720797,6957.935855
2687.024304,3294.210641,1776.494261,7105.977043
2687.024633,1762.019645,-962.267725,9400.615463
2687.024962,0.000000,-4145.153275,10436.903782
2687.025291,-995.924147,-3552.988522,11029.068536
2687.025620,-1072.533697,-5847.626942,12065.356855
2687.025949,-612.876398,-2886.803174,9622.677246
2687.026278,0.000000,-1850.514855,11399.171507
2687.026606,766.095498,-518.144159,9696.697840
2687.026935,3370.820191,962.267725,10436.903782
2687.027264,5975.544884,1110.308913,8956.491898
2687.027593,7431.126331,1110.308913,8586.388927
2687.027922,6205.373534,888.247130,7920.203579
2687.028251,5975.544884,2146.597232,6439.791695
2687.028580,5515.887586,2664.741391,7328.038826
2687.028909,5286.058936,2220.617826,7031.956449
2687.029238,5056.230287,3108.864956,5625.565159
2687.029567,4290.134789,2294.638420,6883.915261
2687.029896,4366.744339,1332.370696,6365.771101
2687.030225,3447.429741,-2368.659014,9326.594869
2687.030554,76.609550,-6365.771101,12287.418637
2687.030883,-766.095498,-5773.606348,11843.295072
2687.031212,-2221.676944,-3923.091493,12953.603985
2687.031541,-1378.971896,-6957.935855,14137.933492
2687.031870,-1532.190996,-444.123565,9844.739029
2687.032199,2834.553343,-370.102971,12657.521608
2687.032528,3677.258390,1258.350101,9918.759623
2687.032856,6665.030833,1480.411884,9474.636058
2687.033185,7737.564530,1110.308913,9474.636058
2687.033514,7277.907231,3034.844362,7624.121203
2687.033843,8427.050478,3923.091493,6217.729913
2687.034172,7048.078582,2738.761985,4737.318029
2687.034501,7354.516781,1850.514855,5921.647536
2687.034830,6971.469032,3034.844362,5995.668130
2687.035159,6128.763984,666.185348,7105.977043
2687.035488,3447.429741,1850.514855,5255.462188
2687.035817,4979.620737,-1406.391290,9030.512492
2687.036146,229.828649,-4811.338623,12953.603985
2687.036475,-2221.676944,-5625.565159,11917.315666
2687.036804,-2374.896044,-1776.494261,13693.809927
2687.037133,-1378.971896,-7254.018232,12657.521608
2687.037462,-1608.800546,1850.514855,10436.903782
2687.037791,1991.848295,518.144159,11917.315666
2687.038120,153.219100,2368.659014,9178.553681
2687.038449,3294.210641,1258.350101,12805.562797
2687.038777,7431.126331,222.061783,7031.956449
2687.039106,9806.022374,2960.823768,8290.306550
2687.039435,6511.811733,888.247130,7105.977043
2687.039764,7048.078582,1702.473667,4737.318029
2687.040093,5286.058936,962.267725,7698.141797
2687.040422,5286.058936,1258.350101,6143.709319
2687.040751,5209.449386,1850.514855,6365.771101
2687.041080,3753.867940,1480.411884,7920.203579
2687.041409,3677.258390,-222.061783,8438.347739
2687.041738,2221.676944,-814.226536,9326.594869
2687.042067,1378.971896,-4737.318029,11325.150913
2687.042396,0.000000,-1036.288319,10658.965565
2687.042725,383.047749,-3627.009116,13249.686362
2687.043054,-919.314598,-2368.659014,10510.924376
2687.043383,536.266849,962.267725,11103.089130
2687.043712,2451.505594,1480.411884,10288.862594
2687.044041,1991.848295,2072.576638,8290.306550
2687.044370,3677.258390,370.102971,7994.224174
2687.044699,3983.696590,740.205942,8882.471304
2687.045027,3677.258390,1036.288319,7994.224174
2687.045356,2987.772442,-0.000000,7328.038826
2687.045685,3370.820191,-1924.535449,8956.491898
2687.046014,2834.553343,-1702.473667,8956.491898
2687.046343,2298.286494,-2220.617826,10288.862594
2687.046672,1991.848295,-1406.391290,11029.068536
2687.047001,1532.190996,-814.226536,10140.821405
2687.047330,3217.601092,592.164754,10510.924376
2687.047659,3217.601092,962.267725,8956.491898
2687.047988,4060.306139,222.061783,9992.780217
2687.048317,4979.620737,1554.432478,8438.347739
2687.048646,5822.325785,2220.617826,7476.080014
2687.048975,5439.278036,2368.659014,8216.285956
2687.049304,5362.668486,2146.597232,7698.141797
2687.049633,4213.525239,592.164754,7550.100608
2687.049963,3524.039291,-370.102971,8290.306550
2687.050292,2298.286494,-518.144159,8660.409521
2687.050621,689.485948,-1480.411884,9696.697840
2687.050950,-306.438199,-3034.844362,10732.986159
2687.051279,0.000000,-2294.638420,11399.171507
2687.051608,1072.533697,-2442.679609,10732.986159
2687.051937,1608.800546,-1036.288319,9548.656652
2687.052266,1455.581446,-666.185348,10362.883188
2687.052595,3140.991542,444.123565,10510.924376
2687.052924,5132.839837,1332.370696,8512.368333
2687.053253,6971.469032,2146.597232,8364.327145
2687.053582,6818.249932,1776.494261,8216.285956
2687.053911,4979.620737,1850.514855,8808.450710
2687.054240,4903.011187,1332.370696,8290.306550
2687.054569,5592.497135,740.205942,7179.997637
2687.054898,5898.935335,888.247130,7624.121203
2687.055227,4213.525239,-74.020594,8808.450710
2687.055556,2221.676944,-1702.473667,9696.697840
2687.055885,1838.629195,-2590.720797,9178.553681
2687.056215,1378.971896,-1036.288319,9400.615463
2687.056544,-153.219100,-2072.576638,10288.862594
2687.056873,-919.314598,-148.041188,9104.533087
2687.057202,0.000000,148.041188,9474.636058
2687.057531,-689.485948,1332.370696,9104.533087
2687.057860,459.657299,-1406.391290,10584.944971
2687.058189,689.485948,-148.041188,8808.450710
2687.058518,842.705048,1332.370696,7624.121203
2687.058847,1455.581446,740.205942,8290.306550
2687.059176,1072.533697,-592.164754,8068.244768
2687.059505,1378.971896,666.185348,8808.450710
2687.059834,1762.019645,370.102971,8512.368333
2687.060163,459.657299,-666.185348,7402.059420
2687.060492,0.000000,-1628.453072,9030.512492
2687.060821,-306.438199,-666.185348,9918.759623
2687.061150,76.609550,-518.144159,9104.533087
2687.061479,-689.485948,-296.082377,8438.347739
2687.061808,-1608.800546,-0.000000,9326.594869
2687.062137,-1072.533697,-0.000000,9474.636058
2687.062467,-689.485948,148.041188,8956.491898
2687.062796,-842.705048,-592.164754,8956.491898
2687.063125,-1378.971896,-888.247130,9474.636058
2687.063454,-612.876398,-1554.432478,9844.739029
2687.063783,-306.438199,-1332.370696,9326.594869
2687.064112,306.438199,-296.082377,8882.471304
2687.064441,995.924147,-0.000000,8956.491898
2687.064770,2451.505594,296.082377,8660.409521
2687.065099,2528.115143,296.082377,7994.224174
2687.065428,3294.210641,-148.041188,8734.430116
2687.065757,2681.334243,814.226536,7994.224174
2687.066086,2451.505594,1036.288319,8216.285956
2687.066415,842.705048,1332.370696,8586.388927
2687.066744,1072.533697,814.226536,8882.471304
2687.067073,229.828649,962.267725,8734.430116
2687.067402,-306.438199,592.164754,9548.656652
2687.067731,-1072.533697,-1110.308913,10362.883188
2687.068060,-2068.457845,-1480.411884,10510.924376
2687.068389,-2068.457845,-1258.350101,9474.636058
2687.068718,-842.705048,148.041188,9252.574275
2687.069048,-1838.629195,-1850.514855,10362.883188
2687.069377,-1608.800546,-666.185348,9400.615463
2687.069706,0.000000,-518.144159,9474.636058
2687.070035,-612.876398,-518.144159,9104.533087
2687.070364,0.000000,-888.247130,9474.636058
2687.070693,842.705048,-370.102971,9400.615463
2687.071022,842.705048,740.205942,8290.306550
2687.071351,1608.800546,1332.370696,8586.388927
2687.071680,766.095498,1628.453072,7624.121203
2687.072009,1685.410096,1924.535449,8216.285956
2687.072338,1149.143247,1480.411884,8586.388927
2687.072667,536.266849,518.144159,8512.368333
2687.072996,-383.047749,-148.041188,9326.594869
2687.073325,-995.924147,-1480.411884,9696.697840
2687.073654,-919.314598,-962.267725,9474.636058
2687.073983,-383.047749,-1184.329507,8438.347739
2687.074312,-153.219100,-1480.411884,9844.739029
2687.074641,0.000000,-1406.391290,8586.388927
2687.074970,1072.533697,-814.226536,8734.430116
2687.075300,689.485948,-1554.432478,9844.739029
2687.075629,1149.143247,-888.247130,9030.512492
2687.075958,2298.286494,222.061783,8142.265362
2687.076287,2068.457845,888.247130,8364.327145
2687.076616,1378.971896,1184.329507,8068.244768
2687.076945,2451.505594,1184.329507,9030.512492
2687.077274,2374.896044,1480.411884,7994.224174
2687.077603,2068.457845,370.102971,8586.388927
2687.077932,536.266849,-592.164754,9474.636058
2687.078261,-536.266849,-1924.535449,10362.883188
2687.078590,-689.485948,-1850.514855,10288.862594
2687.078919,-766.095498,-888.247130,9474.636058
2687.079248,-766.095498,-1998.556043,9548.656652
2687.079577,-612.876398,-222.061783,9104.533087
2687.079906,766.095498,-148.041188,9326.594869
2687.080235,766.095498,-370.102971,8364.327145
2687.080564,1302.362347,-296.082377,8956.491898
2687.080893,1915.238745,518.144159,8216.285956
2687.081222,1915.238745,1184.329507,7624.121203
2687.081552,1455.581446,592.164754,8068.244768
2687.081881,-306.438199,814.226536,8216.285956
2687.082210,536.266849,1036.288319,9474.636058
2687.082539,-383.047749,814.226536,8734.430116
2687.082868,-1455.581446,-814.226536,9696.697840
2687.083197,-1455.581446,-1628.453072,10066.800811
2687.083526,-919.314598,-1258.350101,9474.636058
2687.083855,-919.314598,-222.061783,9548.656652
2687.084184,-995.924147,-592.164754,8882.471304
2687.084513,-612.876398,-222.061783,8956.491898
2687.084842,153.219100,-148.041188,9178.553681
2687.085171,0.000000,-296.082377,8808.450710
2687.085500,-1072.533697,-1332.370696,9178.553681
2687.085829,-1302.362347,-1036.288319,9844.739029
2687.086158,-306.438199,-222.061783,9474.636058
2687.086487,689.485948,-222.061783,8290.306550
2687.086816,919.314598,296.082377,7698.141797
2687.087145,1532.190996,1406.391290,7920.203579
2687.087474,1991.848295,1850.514855,7254.018232
2687.087804,1455.581446,962.267725,7920.203579
2687.088133,459.657299,-222.061783,9696.697840
2687.088462,612.876398,-0.000000,9400.615463
2687.088791,383.047749,-0.000000,9696.697840
2687.089120,-689.485948,-740.205942,9918.759623
2687.089449,0.000000,-1110.308913,10436.903782
2687.089778,919.314598,222.061783,9622.677246
2687.090107,1302.362347,-444.123565,9252.574275
2687.090436,842.705048,-592.164754,9548.656652
2687.090765,1072.533697,222.061783,9992.780217
2687.091094,1608.800546,1184.329507,8068.244768
2687.091423,2068.457845,-148.041188,8290.306550
2687.091752,1302.362347,444.123565,8364.327145
2687.092081,536.266849,222.061783,8660.409521
2687.092410,1225.752797,370.102971,8734.430116
2687.092739,0.000000,-296.082377,8512.368333
2687.093068,-919.314598,-1184.329507,9770.718434
2687.093397,-383.047749,-666.185348,9918.759623
2687.093726,0.000000,-814.226536,9770.718434
2687.094056,-536.266849,296.082377,9030.512492
2687.094385,0.000000,-888.247130,9326.594869
2687.094714,536.266849,-0.000000,8882.471304
2687.095043,1149.143247,444.123565,8216.285956
2687.095372,1149.143247,-222.061783,8438.347739
2687.095701,153.219100,296.082377,8216.285956
2687.096030,612.876398,518.144159,8808.450710
2687.096359,0.000000,-0.000000,8512.368333
2687.096688,-1455.581446,444.123565,7994.224174
2687.097017,-766.095498,-962.267725,9474.636058
2687.097346,-919.314598,-1554.432478,8734.430116
2687.097675,-1302.362347,-666.185348,9548.656652
2687.098004,-1532.190996,-2738.761985,10955.047942
2687.098333,-1149.143247,-1628.453072,10140.821405
2687.098662,-383.047749,-518.144159,9400.615463
2687.098991,-383.047749,296.082377,9030.512492
2687.099320,-536.266849,-814.226536,10140.821405
2687.099649,995.924147,-370.102971,9474.636058
2687.099978,2528.115143,-518.144159,8882.471304
2687.100308,1685.410096,-0.000000,8216.285956
2687.100637,3064.381992,296.082377,8216.285956
2687.100966,2221.676944,1702.473667,7550.100608
2687.101295,2298.286494,1258.350101,7920.203579
2687.101624,1685.410096,666.185348,7772.162391
2687.101953,1225.752797,-0.000000,8438.347739
2687.102282,766.095498,-592.164754,9844.739029
2687.102611,-689.485948,-1258.350101,10140.821405
2687.102940,-1915.238745,-1480.411884,9474.636058
2687.103269,-1225.752797,-1924.535449,10807.006753
2687.103598,306.438199,-1258.350101,10362.883188
2687.103927,459.657299,-296.082377,9474.636058
2687.104256,612.876398,-0.000000,9474.636058
2687.104585,1685.410096,814.226536,9252.574275
2687.104914,2681.334243,592.164754,8290.306550
2687.105243,2834.553343,1036.288319,7994.224174
2687.105572,2145.067394,1184.329507,7402.059420
2687.105901,2834.553343,1110.308913,8438.347739
2687.106230,1455.581446,740.205942,7920.203579
2687.106560,459.657299,-592.164754,8216.285956
2687.106889,-306.438199,-1998.556043,9326.594869
2687.107218,-2298.286494,-1332.370696,9696.697840
2687.107547,-1225.752797,-3034.844362,10584.944971
2687.107876,-2451.505594,-2146.597232,9696.697840
2687.108205,-2451.505594,-1036.288319,9844.739029
2687.108534,-1225.752797,-888.247130,10807.006753
2687.108863,0.000000,666.185348,9400.615463
2687.109192,-995.924147,518.144159,9918.759623
2687.109521,0.000000,-444.123565,9548.656652
2687.109850,1685.410096,1110.308913,9104.533087
2687.110179,2451.505594,1406.391290,7476.080014
2687.110508,2604.724693,1406.391290,7698.141797
2687.110837,1762.019645,1332.370696,7772.162391
2687.111166,1762.019645,1406.391290,7698.141797
2687.111495,612.876398,740.205942,8290.306550
2687.111824,-229.828649,-592.164754,9104.533087
2687.112153,-1072.533697,-1110.308913,9400.615463
2687.112482,-1302.362347,-1628.453072,10732.986159
2687.112812,-2374.896044,-1776.494261,9400.615463
2687.113141,-2374.896044,-1998.556043,10807.006753
2687.113470,-919.314598,-1850.514855,11029.068536
2687.113799,0.000000,-296.082377,9474.636058
2687.114128,0.000000,296.082377,9326.594869
2687.114457,0.000000,-148.041188,9326.594869
2687.114786,1762.019645,-296.082377,9400.615463
2687.115115,2068.457845,962.267725,8142.265362
2687.115444,2451.505594,1110.308913,7254.018232
2687.115773,2604.724693,296.082377,7550.100608
2687.116102,3064.381992,1406.391290,6661.853478
2687.116431,2681.334243,814.226536,7772.162391
2687.116760,689.485948,-296.082377,7624.121203
2687.117089,842.705048,-888.247130,7550.100608
2687.117418,-229.828649,-1258.350101,9548.656652
2687.117747,-1685.410096,-1332.370696,9992.780217
2687.118076,-1225.752797,-1924.535449,11029.068536
2687.118405,-1378.971896,-1924.535449,10658.965565
2687.118734,-995.924147,-1110.308913,10584.944971
2687.119064,-995.924147,-148.041188,10288.862594
2687.119393,0.000000,888.247130,9548.656652
2687.119722,1532.190996,592.164754,9474.636058
2687.120051,1915.238745,1332.370696,7994.224174
2687.120380,2374.896044,1480.411884,8586.388927
2687.120709,1149.143247,-0.000000,7994.224174
2687.121038,2374.896044,814.226536,8438.347739
2687.121367,919.314598,-0.000000,8142.265362
2687.121696,76.609550,-296.082377,8068.244768
2687.122025,-842.705048,-1406.391290,9622.677246
2687.122354,-995.924147,-962.267725,10140.821405
2687.122683,-1072.533697,-1036.288319,10140.821405
2687.123012,-1762.019645,-1110.308913,10066.800811
2687.123341,-1455.581446,-1258.350101,10807.006753
2687.123670,-995.924147,-148.041188,10732.986159
2687.123999,-536.266849,-148.041188,10214.842000
2687.124328,-536.266849,296.082377,9474.636058
2687.124657,612.876398,296.082377,9030.512492
2687.124986,1685.410096,-518.144159,9400.615463
2687.125316,1838.629195,148.041188,8216.285956
2687.125645,2757.943793,-0.000000,8512.368333
2687.125974,2911.162892,444.123565,7328.038826
2687.126303,2911.162892,1628.453072,6439.791695
2687.126632,1838.629195,518.144159,7994.224174
2687.126961,612.876398,-0.000000,7698.141797
2687.127290,1149.143247,-0.000000,8068.244768
2687.127619,-306.438199,-1332.370696,10658.965565
2687.127948,-1378.971896,-2146.597232,11473.192101
2687.128277,-2451.505594,-3034.844362,10881.027347
2687.128606,-1762.019645,-814.226536,10955.047942
2687.128935,-766.095498,-1702.473667,9178.553681
2687.129264,-766.095498,148.041188,8808.450710
2687.129593,612.876398,296.082377,9622.677246
2687.129922,1072.533697,-1184.329507,9178.553681
2687.130251,2451.505594,1406.391290,7698.141797
2687.130580,2451.505594,370.102971,7772.162391
2687.130909,2374.896044,814.226536,7179.997637
2687.131238,2681.334243,962.267725,7328.038826
2687.131568,1762.019645,592.164754,6735.874072
2687.131897,689.485948,370.102971,8068.244768
2687.132226,612.876398,-1628.453072,8956.491898
2687.132555,-1378.971896,-1184.329507,9178.553681
2687.132884,-1302.362347,-2146.597232,11177.109724
2687.133213,-2757.943793,-1924.535449,10362.883188
2687.133542,-1915.238745,-666.185348,10510.924376
2687.133871,-1455.581446,-222.061783,10732.986159
2687.134200,-1838.629195,444.123565,10214.842000
2687.134529,-536.266849,1776.494261,9326.594869
2687.134858,306.438199,1184.329507,9696.697840
2687.135187,0.000000,-740.205942,10362.883188
2687.135516,-536.266849,-74.020594,10955.047942
2687.135845,383.047749,-888.247130,9326.594869
2687.136174,842.705048,666.185348,7254.018232
2687.136503,1685.410096,592.164754,8068.244768
2687.136832,536.266849,592.164754,7254.018232
2687.137161,1149.143247,666.185348,8882.471304
2687.137490,766.095498,-0.000000,8956.491898
2687.137820,76.609550,-444.123565,8882.471304
2687.138149,-1072.533697,-1332.370696,10140.821405
2687.138478,-1378.971896,-1406.391290,10881.027347
2687.138807,-1072.533697,-296.082377,10066.800811
2687.139136,-536.266849,-370.102971,9770.718434
2687.139465,842.705048,-444.123565,9548.656652
2687.139794,1838.629195,1480.411884,8290.306550
2687.140123,3064.381992,592.164754,8364.327145
2687.140452,2528.115143,1110.308913,8216.285956
2687.140781,2834.553343,666.185348,8216.285956
2687.141110,2681.334243,1332.370696,7550.100608
2687.141439,1762.019645,888.247130,7476.080014
2687.141768,766.095498,-814.226536,8882.471304
2687.142097,-153.219100,-1258.350101,8512.368333
2687.142426,0.000000,-888.247130,9696.697840
2687.142755,-1072.533697,-2590.720797,10510.924376
2687.143084,-1302.362347,-2516.700203,11103.089130
2687.143413,-1915.238745,-1776.494261,10732.986159
2687.143742,-536.266849,-592.164754,10436.903782
2687.144072,-1302.362347,-444.123565,9992.780217
2687.144401,842.705048,518.144159,10066.800811
2687.144730,2374.896044,1184.329507,7920.203579
2687.145059,3830.477490,2220.617826,7254.018232
2687.145388,3524.039291,962.267725,7179.997637
2687.145717,3064.381992,2368.659014,7105.977043
2687.146046,2987.772442,740.205942,8290.306550
2687.146375,1532.190996,2220.617826,6735.874072
2687.146704,842.705048,-148.041188,8068.244768
2687.147034,-995.924147,-888.247130,9400.615463
2687.147363,-1149.143247,-1702.473667,9548.656652
2687.147692,-2145.067394,-1554.432478,9548.656652
2687.148021,-1991.848295,-1924.535449,9918.759623
2687.148351,-2068.457845,-2368.659014,10955.047942
2687.148680,-1838.629195,-1036.288319,9992.780217
2687.149009,-536.266849,-444.123565,10658.965565
2687.149339,-1532.190996,-74.020594,9918.759623
2687.149668,0.000000,222.061783,9326.594869
2687.149997,383.047749,592.164754,9474.636058
2687.150326,306.438199,-222.061783,9844.739029
2687.150656,1838.629195,-74.020594,8216.285956
2687.150985,2757.943793,1258.350101,7105.977043
2687.151314,3140.991542,1628.453072,6069.688724
2687.151643,2221.676944,2368.659014,5847.626942
2687.151973,2374.896044,1036.288319,7920.203579
2687.152302,1302.362347,296.082377,7550.100608
2687.152631,612.876398,-444.123565,8660.409521
2687.152961,-1915.238745,-2738.761985,10658.965565
2687.153290,-1762.019645,-2960.823768,11029.068536
2687.153619,-2221.676944,-2368.659014,11473.192101
2687.153948,-1072.533697,-1258.350101,10955.047942
2687.154278,-1072.533697,-1554.432478,9548.656652
2687.154607,-383.047749,-148.041188,9474.636058
2687.154936,76.609550,-0.000000,9696.697840
2687.155265,-229.828649,-962.267725,10436.903782
2687.155595,1378.971896,-888.247130,9622.677246
2687.155924,2834.553343,2294.638420,8290.306550
2687.156253,2681.334243,1332.370696,7254.018232
2687.156583,2068.457845,2294.638420,7328.038826
2687.156912,2451.505594,1998.556043,8290.306550
2687.157241,2068.457845,1628.453072,7476.080014
2687.157570,1608.800546,-0.000000,8216.285956
2687.157900,-459.657299,-1480.411884,10214.842000
2687.158229,-2834.553343,-1998.556043,11177.109724
2687.158558,-1915.238745,-2072.576638,11547.212695
2687.158887,-1608.800546,-1036.288319,8882.471304
2687.159217,-1762.019645,-1702.473667,10732.986159
2687.159546,-1072.533697,-740.205942,10288.862594
2687.159875,76.609550,-0.000000,8882.471304
2687.160205,-612.876398,-370.102971,8586.388927
2687.160534,0.000000,-0.000000,9400.615463
2687.160863,612.876398,666.185348,9918.759623
2687.161192,766.095498,1850.514855,7994.224174
2687.161522,1685.410096,740.205942,7179.997637
2687.161851,1302.362347,592.164754,7105.977043
2687.162180,1302.362347,1776.494261,7105.977043
2687.162509,1532.190996,-148.041188,7328.038826
2687.162839,-1225.752797,-74.020594,7994.224174
2687.163168,229.828649,-2886.803174,8956.491898
2687.163497,-766.095498,-1184.329507,9252.574275
2687.163827,-2451.505594,-814.226536,10807.006753
2687.164156,-383.047749,-2294.638420,10436.903782
2687.164485,-766.095498,-1332.370696,9844.739029
2687.164814,-612.876398,-74.020594,8734.430116
2687.165144,1455.581446,370.102971,9844.739029
2687.165473,919.314598,-1998.556043,10066.800811
2687.165802,2145.067394,2146.597232,8290.306550
2687.166131,3677.258390,1184.329507,7920.203579
2687.166461,1149.143247,2072.576638,6735.874072
2687.166790,2681.334243,592.164754,8216.285956
2687.167119,2681.334243,370.102971,8660.409521
2687.167449,76.609550,-0.000000,7254.018232
2687.167778,-153.219100,-1776.494261,9696.697840
2687.168107,-2068.457845,-2516.700203,9992.780217
2687.168436,-1762.019645,-2294.638420,11547.212695
2687.168766,-1378.971896,-1406.391290,10436.903782
2687.169095,-842.705048,-888.247130,9992.780217
2687.169424,-536.266849,-74.020594,10140.821405
2687.169753,306.438199,814.226536,10066.800811
2687.170083,1915.238745,-0.000000,9030.512492
2687.170412,2221.676944,740.205942,7402.059420
2687.170741,2604.724693,1406.391290,7920.203579
2687.171071,2451.505594,1850.514855,7994.224174
2687.171400,1838.629195,1258.350101,8364.327145
2687.171729,919.314598,666.185348,8512.368333
2687.172058,766.095498,444.123565,7846.182985
2687.172388,-229.828649,-1184.329507,8734.430116
2687.172717,-1608.800546,-1332.370696,9474.636058
2687.173046,-1915.238745,-2516.700203,10807.006753
2687.173375,-2221.676944,-1258.350101,10510.924376
2687.173705,-1608.800546,-1702.473667,10362.883188
2687.174034,-1225.752797,-444.123565,9918.759623
2687.174363,-995.924147,-444.123565,9474.636058
2687.174693,0.000000,-148.041188,9696.697840
2687.175022,689.485948,-0.000000,9622.677246
2687.175351,1149.143247,444.123565,8216.285956
2687.175680,2451.505594,592.164754,8512.368333
2687.176010,2681.334243,1850.514855,7994.224174
2687.176339,2604.724693,1406.391290,7476.080014
2687.176668,2374.896044,1036.288319,7624.121203
2687.176997,1685.410096,1258.350101,7402.059420
2687.177327,1685.410096,518.144159,7624.121203
2687.177656,-306.438199,-888.247130,9104.533087
2687.177985,-1378.971896,-2442.679609,10510.924376
2687.178315,-1762.019645,-2664.741391,10436.903782
2687.178644,-919.314598,-1776.494261,10066.800811
2687.178973,-1072.533697,-1332.370696,9918.759623
2687.179302,-689.485948,-592.164754,10881.027347
2687.179632,0.000000,-0.000000,9474.636058
2687.179961,612.876398,148.041188,9548.656652
2687.180290,1532.190996,-0.000000,8364.327145
2687.180619,2145.067394,1332.370696,7698.141797
2687.180949,2528.115143,1628.453072,8068.244768
2687.181278,2604.724693,1332.370696,7698.141797
2687.181607,1762.019645,1184.329507,7550.100608
2687.181937,1225.752797,-74.020594,8216.285956
2687.182266,1991.848295,-74.020594,7402.059420
2687.182595,0.000000,-592.164754,8808.450710
2687.182924,-1532.190996,-1850.514855,9622.677246
2687.183254,-1608.800546,-2220.617826,10658.965565
2687.183583,-1149.143247,-2146.597232,10288.862594
2687.183912,-766.095498,-1184.329507,9696.697840
2687.184241,-995.924147,-1110.308913,9178.553681
2687.184571,-1455.581446,-296.082377,9844.739029
2687.184900,-383.047749,666.185348,9696.697840
2687.185229,766.095498,-222.061783,9474.636058
2687.185559,842.705048,296.082377,8512.368333
2687.185888,1302.362347,1332.370696,8808.450710
2687.186217,1455.581446,1332.370696,8290.306550
2687.186546,1225.752797,592.164754,8512.368333
2687.186876,306.438199,814.226536,8882.471304
2687.187205,919.314598,-148.041188,7920.203579
2687.187534,229.828649,-222.061783,8882.471304
2687.187863,-689.485948,-1332.370696,9770.718434
2687.188193,-919.314598,-1702.473667,10732.986159
2687.188522,-842.705048,-1480.411884,10658.965565
2687.188851,0.000000,-814.226536,10214.842000
2687.189181,76.609550,-962.267725,9104.533087
2687.189510,536.266849,-148.041188,9548.656652
2687.189839,1378.971896,518.144159,8364.327145
2687.190168,2221.676944,1110.308913,7772.162391
2687.190498,1838.629195,814.226536,8660.409521
2687.190827,1991.848295,1554.432478,8808.450710
2687.191156,459.657299,962.267725,9178.553681
2687.191485,0.000000,-222.061783,9474.636058
2687.191815,0.000000,-0.000000,9104.533087
2687.192144,0.000000,-666.185348,9548.656652
2687.192473,-383.047749,-592.164754,8808.450710
2687.192803,-383.047749,-1110.308913,9622.677246
2687.193132,-536.266849,-2368.659014,9622.677246
2687.193461,0.000000,-1110.308913,9918.759623
2687.193790,0.000000,-1036.288319,10066.800811
2687.194120,689.485948,-592.164754,8808.450710
2687.194449,919.314598,370.102971,7920.203579
2687.194778,1991.848295,1258.350101,7550.100608
2687.195107,2068.457845,1406.391290,7698.141797
2687.195437,1455.581446,518.144159,8808.450710
2687.195766,459.657299,1110.308913,8364.327145
2687.196095,1149.143247,666.185348,8142.265362
2687.196425,-229.828649,-888.247130,9104.533087
2687.196754,-1915.238745,-962.267725,9400.615463
2687.197083,-1455.581446,-1776.494261,10214.842000
2687.197412,-1838.629195,-1332.370696,9918.759623
2687.197742,-1532.190996,-1628.453072,9104.533087
2687.198071,-1532.190996,-1258.350101,10288.862594
2687.198400,-766.095498,-1332.370696,10436.903782
2687.198729,-229.828649,-74.020594,9474.636058
2687.199059,229.828649,-592.164754,9696.697840
2687.199388,1072.533697,592.164754,7846.182985
2687.199717,2298.286494,1406.391290,8290.306550
2687.200047,3217.601092,2220.617826,7328.038826
2687.200376,2298.286494,1184.329507,7550.100608
2687.200705,1532.190996,370.102971,9252.574275
2687.201034,766.095498,814.226536,8364.327145
2687.201364,0.000000,-0.000000,8734.430116
2687.201693,-1991.848295,-1036.288319,9770.718434
2687.202022,-1378.971896,-1998.556043,11991.336260
2687.202351,-1302.362347,-2516.700203,10362.883188
2687.202681,-1302.362347,-1332.370696,10214.842000
2687.203010,-995.924147,-2960.823768,10214.842000
2687.203339,-1149.143247,-888.247130,9844.739029
2687.203669,919.314598,296.082377,11251.130318
2687.203998,1149.143247,296.082377,8882.471304
2687.204327,2451.505594,1036.288319,7920.203579
2687.204656,3294.210641,1554.432478,7328.038826
2687.204986,4060.306139,2294.638420,6513.812290
2687.205315,2374.896044,1184.329507,7846.182985
2687.205644,1685.410096,-0.000000,8290.306550
2687.205973,1149.143247,-0.000000,8882.471304
2687.206303,306.438199,-740.205942,8364.327145
2687.206632,-1378.971896,-1406.391290,8882.471304
2687.206961,-1838.629195,-1850.514855,10066.800811
2687.207291,-1072.533697,-1036.288319,10436.903782
2687.207620,-766.095498,-518.144159,9696.697840
2687.207949,-1149.143247,-518.144159,8882.471304
2687.208278,-1685.410096,-1110.308913,10362.883188
2687.208608,229.828649,-666.185348,10955.047942
2687.208937,766.095498,518.144159,8068.244768
2687.209266,1608.800546,-296.082377,9178.553681
2687.209595,2221.676944,666.185348,8290.306550
2687.209925,2451.505594,1776.494261,7846.182985
2687.210254,1915.238745,740.205942,7772.162391
2687.210583,1762.019645,888.247130,7698.141797
2687.210913,995.924147,-296.082377,8734.430116
2687.211242,0.000000,-0.000000,8808.450710
2687.211571,-1225.752797,-1406.391290,9696.697840
2687.211900,-2911.162892,-1332.370696,10510.924376
2687.212230,-1302.362347,-814.226536,9992.780217
2687.212559,-766.095498,-888.247130,10066.800811
2687.212888,-1762.019645,-1110.308913,9474.636058
2687.213217,-995.924147,-666.185348,10066.800811
2687.213547,-229.828649,-962.267725,10288.862594
2687.213876,689.485948,-0.000000,9474.636058
2687.214205,995.924147,-74.020594,8364.327145
2687.214535,2451.505594,888.247130,8438.347739
2687.214864,2298.286494,2072.576638,7550.100608
2687.215193,2528.115143,1628.453072,7254.018232
2687.215522,1762.019645,666.185348,7772.162391
2687.215852,1685.410096,592.164754,8142.265362
2687.216181,612.876398,518.144159,8216.285956
2687.216510,-612.876398,-888.247130,9104.533087
2687.216839,-2451.505594,-962.267725,10066.800811
2687.217169,-1608.800546,-1258.350101,11029.068536
2687.217498,-1225.752797,-1184.329507,9252.574275
2687.217827,-1532.190996,-592.164754,9918.759623
2687.218157,-1149.143247,-1776.494261,10732.986159
2687.218486,-689.485948,-296.082377,10140.821405
2687.218815,306.438199,-518.144159,10584.944971
2687.219144,1072.533697,-0.000000,9178.553681
2687.219474,1991.848295,1184.329507,8068.244768
2687.219803,2451.505594,1406.391290,7920.203579
2687.220132,2681.334243,2220.617826,7031.956449
2687.220461,2145.067394,1480.411884,7624.121203
2687.220791,1838.629195,592.164754,7624.121203
2687.221120,536.266849,-0.000000,8512.368333
2687.221449,-995.924147,-518.144159,9548.656652
2687.221779,-2298.286494,-1480.411884,9548.656652
2687.222108,-2987.772442,-2442.679609,11325.150913
2687.222437,-1608.800546,-1036.288319,10066.800811
2687.222766,-1302.362347,-814.226536,9696.697840
2687.223096,-2221.676944,-2072.576638,10807.006753
2687.223425,-1225.752797,-370.102971,10658.965565
2687.223754,-1072.533697,-888.247130,11103.089130
2687.224083,-536.266849,-296.082377,9548.656652
2687.224413,383.047749,-518.144159,9770.718434
2687.224742,1302.362347,444.123565,9252.574275
2687.225071,2911.162892,1628.453072,7031.956449
2687.225401,3370.820191,1480.411884,8290.306550
2687.225730,2987.772442,1480.411884,6957.935855
2687.226059,2911.162892,1184.329507,7328.038826
2687.226388,2145.067394,1258.350101,7402.059420
2687.226718,766.095498,-0.000000,8438.347739
2687.227047,-536.266849,-2220.617826,9770.718434
2687.227376,-1532.190996,-1924.535449,9918.759623
2687.227705,-1378.971896,-1480.411884,10510.924376
2687.228035,-1608.800546,-3108.864956,9844.739029
2687.228364,-612.876398,-2368.659014,10732.986159
2687.228693,1302.362347,-1406.391290,9622.677246
2687.229023,2757.943793,-74.020594,8364.327145
2687.229352,2681.334243,1036.288319,8142.265362
2687.229681,4136.915689,1480.411884,7179.997637
2687.230010,4596.572988,3701.029710,7031.956449
2687.230340,3524.039291,2812.782580,6661.853478
2687.230669,2604.724693,962.267725,8068.244768
2687.230998,1302.362347,-666.185348,9252.574275
2687.231327,-459.657299,-0.000000,9844.739029
2687.231657,-1378.971896,-2886.803174,10362.883188
2687.231986,-2298.286494,-1924.535449,9918.759623
2687.232315,-2068.457845,-2072.576638,11473.192101
2687.232645,-1685.410096,-1258.350101,10584.944971
2687.232974,-1762.019645,-1480.411884,9400.615463
2687.233303,-1838.629195,-1702.473667,10288.862594
2687.233632,306.438199,-592.164754,9918.759623
2687.233962,1378.971896,370.102971,8068.244768
2687.234291,2374.896044,1110.308913,7994.224174
2687.234620,2911.162892,1998.556043,7105.977043
2687.234949,2911.162892,2960.823768,6957.935855
2687.235279,2451.505594,2072.576638,7550.100608
2687.235608,842.705048,962.267725,8512.368333
2687.235937,306.438199,-222.061783,10066.800811
2687.236267,-1378.971896,-666.185348,9178.553681
2687.236596,-2451.505594,-1924.535449,10362.883188
2687.236925,-3294.210641,-2664.741391,10288.862594
2687.237254,-2374.896044,-962.267725,9474.636058
2687.237584,-1455.581446,-518.144159,9696.697840
2687.237913,-2528.115143,-1036.288319,10140.821405
2687.238242,-766.095498,-296.082377,10288.862594
2687.238571,-459.657299,-518.144159,10288.862594
2687.238901,0.000000,-592.164754,9770.718434
2687.239230,612.876398,888.247130,7624.121203
2687.239559,2451.505594,888.247130,8068.244768
2687.239889,2374.896044,1258.350101,6883.915261
2687.240218,2757.943793,2072.576638,7772.162391
2687.240547,2528.115143,814.226536,8586.388927
2687.240876,2298.286494,-222.061783,7476.080014
2687.241206,1762.019645,740.205942,8290.306550
2687.241535,-842.705048,-1184.329507,9474.636058
2687.241864,-1685.410096,-1406.391290,9844.739029
2687.242193,-1915.238745,-1924.535449,11325.150913
2687.242523,-919.314598,-1184.329507,9622.677246
2687.242852,-1608.800546,-1776.494261,10510.924376
2687.243181,-1225.752797,-2516.700203,11621.233289
2687.243511,-306.438199,-1184.329507,9474.636058
2687.243840,995.924147,-0.000000,9474.636058
2687.244169,1302.362347,-0.000000,8586.388927
2687.244498,2374.896044,1924.535449,7698.141797
2687.244828,3447.429741,1998.556043,8068.244768
2687.245157,3140.991542,1480.411884,6883.915261
2687.245486,2528.115143,592.164754,6809.894666
2687.245815,2221.676944,370.102971,8142.265362
2687.246145,919.314598,296.082377,8438.347739
2687.246474,-612.876398,-962.267725,9178.553681
2687.246803,-2068.457845,-1924.535449,9992.780217
2687.247133,-2145.067394,-1184.329507,10658.965565
2687.247462,-1532.190996,-1036.288319,10658.965565
2687.247791,-2298.286494,-1702.473667,9104.533087
2687.248120,-2451.505594,-740.205942,10214.842000
2687.248450,-1225.752797,-1406.391290,10510.924376
2687.248779,-689.485948,222.061783,8882.471304
2687.249108,0.000000,-962.267725,9474.636058
2687.249437,1302.362347,-0.000000,8512.368333
2687.249767,2068.457845,1406.391290,7698.141797
2687.250096,3370.820191,592.164754,7846.182985
2687.250425,2834.553343,1628.453072,6439.791695
2687.250754,3217.601092,1184.329507,7698.141797
2687.251084,2757.943793,1924.535449,7772.162391
2687.251413,1532.190996,592.164754,8068.244768
2687.251742,0.000000,-444.123565,9400.615463
2687.252071,-1072.533697,-1628.453072,9474.636058
2687.252400,-1685.410096,-888.247130,10881.027347
2687.252730,-2068.457845,-1776.494261,9992.780217
2687.253059,-2145.067394,-2220.617826,10584.944971
2687.253388,-2145.067394,-1998.556043,11177.109724
2687.253717,-689.485948,-518.144159,10066.800811
2687.254047,612.876398,-1628.453072,9770.718434
2687.254376,919.314598,-444.123565,9030.512492
2687.254705,2374.896044,1332.370696,9178.553681
2687.255034,3447.429741,592.164754,7550.100608
2687.255364,3524.039291,1702.473667,7624.121203
2687.255693,3294.210641,1332.370696,7698.141797
2687.256022,3524.039291,1554.432478,7105.977043
2687.256351,2451.505594,518.144159,7994.224174
2687.256681,0.000000,-148.041188,9474.636058
2687.257010,-1915.238745,-1036.288319,10140.821405
2687.257339,-2681.334243,-1850.514855,10881.027347
2687.257668,-2834.553343,-2072.576638,11325.150913
2687.257998,-3064.381992,-1702.473667,10510.924376
2687.258327,-2451.505594,-2368.659014,10140.821405
2687.258656,-1915.238745,-592.164754,9844.739029
2687.258985,-919.314598,-740.205942,9400.615463
2687.259315,-995.924147,-444.123565,9400.615463
2687.259644,1149.143247,444.123565,8216.285956
2687.259973,3140.991542,1776.494261,6439.791695
2687.260302,3140.991542,1480.411884,7402.059420
2687.260631,2757.943793,1850.514855,7476.080014
2687.260961,2757.943793,2146.597232,7328.038826
2687.261290,2068.457845,1628.453072,7920.203579
2687.261619,1149.143247,1332.370696,8290.306550
2687.261948,-842.705048,-518.144159,9474.636058
2687.262278,-2681.334243,-814.226536,10584.944971
2687.262607,-2604.724693,-2516.700203,10881.027347
2687.262936,-3447.429741,-2368.659014,10584.944971
2687.263265,-2374.896044,-2368.659014,11177.109724
2687.263595,-1991.848295,-1184.329507,10288.862594
2687.263924,-766.095498,-444.123565,9400.615463
2687.264253,-919.314598,-888.247130,9918.759623
2687.264582,1149.143247,-740.205942,9622.677246
2687.264912,3524.039291,1480.411884,5773.606348
2687.265241,4366.744339,1110.308913,7550.100608
2687.265570,3294.210641,1702.473667,6809.894666
2687.265899,4136.915689,1332.370696,8364.327145
2687.266229,3677.258390,1554.432478,6883.915261
2687.266558,2987.772442,1702.473667,6439.791695
2687.266887,1685.410096,-0.000000,8586.388927
2687.267216,-459.657299,-74.020594,9178.553681
2687.267546,-1302.362347,-1850.514855,11251.130318
2687.267875,-2681.334243,-2738.761985,10807.006753
2687.268204,-2528.115143,-2590.720797,10955.047942
2687.268533,-2068.457845,-1776.494261,10955.047942
2687.268862,-1455.581446,-1258.350101,10140.821405
2687.269192,-1302.362347,-1110.308913,9400.615463
2687.269521,0.000000,-222.061783,9548.656652
2687.269850,2987.772442,1258.350101,7698.141797
2687.270179,3370.820191,962.267725,7254.018232
2687.270509,3600.648841,1406.391290,7846.182985
2687.270838,3983.696590,1406.391290,7476.080014
2687.271167,3294.210641,1776.494261,6587.832884
2687.271496,2145.067394,2146.597232,7179.997637
2687.271826,995.924147,1258.350101,8586.388927
2687.272155,0.000000,-370.102971,9474.636058
2687.272484,-919.314598,-0.000000,10362.883188
2687.272813,-1915.238745,-2590.720797,11177.109724
2687.273143,-3140.991542,-3034.844362,11473.192101
2687.273472,-2757.943793,-1776.494261,11103.089130
2687.273801,-1378.971896,-888.247130,10881.027347
2687.274130,-1302.362347,-814.226536,9326.594869
2687.274460,-842.705048,-666.185348,9770.718434
2687.274789,383.047749,-296.082377,10140.821405
2687.275118,1762.019645,-0.000000,8364.327145
2687.275447,2681.334243,222.061783,7698.141797
2687.275777,2834.553343,1480.411884,7624.121203
2687.276106,3524.039291,2294.638420,7328.038826
2687.276435,2681.334243,2294.638420,7994.224174
2687.276764,1608.800546,1110.308913,7476.080014
2687.277094,1149.143247,370.102971,8808.450710
2687.277423,-229.828649,-148.041188,8882.471304
2687.277752,-1838.629195,-1702.473667,9844.739029
2687.278081,-3294.210641,-3256.906145,11399.171507
2687.278410,-2451.505594,-2368.659014,11103.089130
2687.278740,-1455.581446,-1998.556043,9918.759623
2687.279069,-1762.019645,-1110.308913,9548.656652
2687.279398,-1532.190996,-518.144159,8808.450710
2687.279727,0.000000,-222.061783,9326.594869
2687.280057,1225.752797,-222.061783,9326.594869
2687.280386,1532.190996,296.082377,7772.162391
2687.280715,3830.477490,1406.391290,8068.244768
2687.281044,2987.772442,2146.597232,6439.791695
2687.281374,2757.943793,2516.700203,7402.059420
2687.281703,2068.457845,1332.370696,7550.100608
2687.282032,1072.533697,148.041188,7550.100608
2687.282361,153.219100,444.123565,8438.347739
2687.282691,-612.876398,-1036.288319,9548.656652
2687.283020,-2834.553343,-3182.885551,11473.192101
2687.283349,-3217.601092,-2072.576638,11325.150913
2687.283678,-1685.410096,-2368.659014,10362.883188
2687.284008,-2451.505594,-1184.329507,9400.615463
2687.284337,-1838.629195,-592.164754,9326.594869
2687.284666,-919.314598,370.102971,9474.636058
2687.284995,-612.876398,-222.061783,9326.594869
2687.285325,766.095498,-1036.288319,9770.718434
2687.285654,995.924147,-148.041188,8808.450710
2687.285983,3140.991542,1628.453072,7698.141797
2687.286312,2451.505594,1554.432478,6439.791695
2687.286641,2298.286494,1480.411884,8142.265362
2687.286971,2145.067394,518.144159,8586.388927
2687.287300,1149.143247,666.185348,7994.224174
2687.287629,612.876398,-0.000000,8808.450710
2687.287958,-1608.800546,-1406.391290,10732.986159
2687.288288,-2374.896044,-2812.782580,10881.027347
2687.288617,-1991.848295,-1258.350101,11103.089130
2687.288946,-1302.362347,-2368.659014,10732.986159
2687.289275,-1072.533697,-2146.597232,10066.800811
2687.289605,536.266849,-296.082377,9474.636058
2687.289934,1762.019645,1258.350101,8512.368333
2687.290263,2757.943793,148.041188,8512.368333
2687.290592,3524.039291,814.226536,8438.347739
2687.290922,3447.429741,2294.638420,8142.265362
2687.291251,3677.258390,2738.761985,7179.997637
2687.291580,2604.724693,1036.288319,7402.059420
2687.291909,1685.410096,444.123565,8808.450710
2687.292239,1072.533697,444.123565,8882.471304
2687.292568,0.000000,-148.041188,9178.553681
2687.292897,-1302.362347,-1924.535449,9770.718434
2687.293226,-2451.505594,-2442.679609,11843.295072
2687.293556,-1991.848295,-1184.329507,10584.944971
2687.293885,-1378.971896,-1776.494261,9844.739029
2687.294214,-995.924147,-1480.411884,10140.821405
2687.294543,-306.438199,-296.082377,9548.656652
2687.294872,1378.971896,1702.473667,8216.285956
2687.295202,2221.676944,814.226536,8882.471304
2687.295531,3064.381992,740.205942,7031.956449
2687.295860,2757.943793,2442.679609,6957.935855
2687.296189,2451.505594,1702.473667,8364.327145
2687.296519,2221.676944,296.082377,6957.935855
2687.296848,689.485948,296.082377,8364.327145
2687.297177,-689.485948,-814.226536,9400.615463
2687.297506,-306.438199,-0.000000,8734.430116
2687.297836,-2068.457845,-2516.700203,9918.759623
2687.298165,-2451.505594,-1480.411884,9992.780217
2687.298494,-1532.190996,-2220.617826,10732.986159
2687.298823,-2528.115143,-1776.494261,10436.903782
2687.299153,-2068.457845,-962.267725,10288.862594
2687.299482,-842.705048,-666.185348,9770.718434
2687.299811,0.000000,444.123565,8512.368333
2687.300140,1455.581446,222.061783,8438.347739
2687.300470,1302.362347,-222.061783,8512.368333
2687.300799,2221.676944,666.185348,8586.388927
2687.301128,2374.896044,1110.308913,7476.080014
2687.301457,2451.505594,444.123565,8216.285956
2687.301787,919.314598,888.247130,8216.285956
2687.302116,536.266849,370.102971,8512.368333
2687.302445,459.657299,-370.102971,8364.327145
2687.302774,-995.924147,-1332.370696,9400.615463
2687.303104,-1915.238745,-2368.659014,10732.986159
2687.303433,-2068.457845,-2738.761985,10658.965565
2687.303762,-1608.800546,-1258.350101,11177.109724
2687.304091,-1302.362347,-1480.411884,10807.006753
2687.304420,-536.266849,-0.000000,10362.883188
2687.304750,536.266849,148.041188,9844.739029
2687.305079,2068.457845,1480.411884,8216.285956
2687.305408,2681.334243,1332.370696,7846.182985
2687.305737,2604.724693,740.205942,8438.347739
2687.306067,2987.772442,1850.514855,7994.224174
2687.306396,2911.162892,2220.617826,7994.224174
2687.306725,1838.629195,814.226536,7402.059420
2687.307054,1149.143247,1332.370696,7328.038826
2687.307384,995.924147,666.185348,8512.368333
2687.307713,-766.095498,-296.082377,8586.388927
2687.308042,-1608.800546,-1998.556043,10362.883188
2687.308371,-2451.505594,-2590.720797,10732.986159
2687.308701,-1991.848295,-1480.411884,10732.986159
2687.309030,-2145.067394,-1480.411884,11473.192101
2687.309359,-1991.848295,-518.144159,10436.903782
2687.309688,-1302.362347,-0.000000,9918.759623
2687.310018,306.438199,814.226536,9326.594869
2687.310347,1532.190996,222.061783,9326.594869
2687.310676,1378.971896,592.164754,9104.533087
2687.311005,2221.676944,740.205942,8364.327145
2687.311335,2298.286494,1776.494261,8216.285956
2687.311664,2068.457845,518.144159,7846.182985
2687.311993,1378.971896,370.102971,7328.038826
2687.312322,995.924147,1036.288319,7994.224174
2687.312651,766.095498,-1406.391290,8512.368333
2687.312981,-842.705048,-1628.453072,8142.265362
2687.313310,-995.924147,-2812.782580,10362.883188
2687.313639,-1455.581446,-2368.659014,10955.047942
2687.313968,-1532.190996,-1628.453072,10066.800811
2687.314298,-1149.143247,-1110.308913,10140.821405
2687.314627,76.609550,-444.123565,9474.636058
2687.314956,919.314598,1110.308913,9474.636058
2687.315285,1838.629195,-0.000000,9178.553681
2687.315615,3294.210641,666.185348,8142.265362
2687.315944,2451.505594,1258.350101,8142.265362
2687.316273,2987.772442,1702.473667,7328.038826
2687.316602,2681.334243,888.247130,7105.977043
2687.316932,1685.410096,666.185348,7550.100608
2687.317261,1608.800546,-0.000000,8068.244768
2687.317590,689.485948,-592.164754,8216.285956
2687.317919,-306.438199,-1702.473667,9474.636058
2687.318249,-1225.752797,-2220.617826,10214.842000
2687.318578,-842.705048,-1702.473667,10658.965565
2687.318907,-1302.362347,-1406.391290,10584.944971
2687.319236,-995.924147,-1036.288319,10140.821405
2687.319566,76.609550,-0.000000,9474.636058
2687.319895,1225.752797,1036.288319,8882.471304
2687.320224,1455.581446,1258.350101,9104.533087
2687.320553,1685.410096,666.185348,9030.512492
2687.320882,1225.752797,814.226536,8142.265362
2687.321212,1455.581446,1480.411884,8142.265362
2687.321541,612.876398,666.185348,8142.265362
2687.321870,-383.047749,-74.020594,8808.450710
2687.322199,-536.266849,-444.123565,9326.594869
2687.322529,-919.314598,-888.247130,9622.677246
2687.322858,-2298.286494,-2072.576638,9844.739029
2687.323187,-2374.896044,-2072.576638,10436.903782
2687.323516,-1762.019645,-1332.370696,10732.986159
2687.323846,-1838.629195,-74.020594,9474.636058
2687.324175,-1378.971896,-592.164754,9918.759623
2687.324504,-536.266849,-0.000000,10066.800811
2687.324833,306.438199,1332.370696,9252.574275
2687.325163,919.314598,740.205942,8808.450710
2687.325492,1225.752797,962.267725,8142.265362
2687.325821,1072.533697,888.247130,8882.471304
2687.326150,766.095498,740.205942,8882.471304
2687.326480,919.314598,444.123565,7624.121203
2687.326809,-306.438199,-592.164754,8512.368333
2687.327138,-919.314598,-296.082377,9030.512492
2687.327467,-1072.533697,-1480.411884,9104.533087
2687.327797,-1149.143247,-2516.700203,9770.718434
2687.328126,-1302.362347,-1554.432478,9622.677246
2687.328455,0.000000,-2368.659014,10066.800811
2687.328784,459.657299,-370.102971,7846.182985
2687.329113,1991.848295,1036.288319,9030.512492
2687.329443,2145.067394,592.164754,8512.368333
2687.329772,3064.381992,1776.494261,7624.121203
2687.330101,3294.210641,1184.329507,7994.224174
2687.330430,2528.115143,1036.288319,7846.182985
2687.330760,1991.848295,296.082377,7994.224174
2687.331089,1149.143247,-148.041188,8512.368333
2687.331418,689.485948,-370.102971,8734.430116
2687.331747,-536.266849,-1406.391290,9622.677246
2687.332077,-1378.971896,-2072.576638,9992.780217
2687.332406,-995.924147,-888.247130,8882.471304
2687.332735,-1762.019645,-1332.370696,10214.842000
2687.333064,-1149.143247,-1776.494261,9992.780217
2687.333394,-1225.752797,-888.247130,10584.944971
2687.333723,-229.828649,-1184.329507,10955.047942
2687.334052,919.314598,-74.020594,9474.636058
2687.334381,1455.581446,1110.308913,9030.512492
2687.334711,1532.190996,1184.329507,8882.471304
2687.335040,2834.553343,2072.576638,8216.285956
2687.335369,2528.115143,962.267725,8142.265362
2687.335698,1838.629195,1554.432478,8364.327145
2687.336028,1991.848295,1036.288319,8882.471304
2687.336357,153.219100,444.123565,8438.347739
2687.336686,-459.657299,-518.144159,9474.636058
2687.337015,-995.924147,-370.102971,9992.780217
2687.337345,-1532.190996,-1110.308913,9696.697840
2687.337674,-995.924147,-1184.329507,9770.718434
2687.338003,-766.095498,-1036.288319,9548.656652
2687.338332,-995.924147,-1998.556043,10807.006753
2687.338661,76.609550,-0.000000,9918.759623
2687.338991,689.485948,-370.102971,9548.656652
2687.339320,995.924147,-0.000000,9474.636058
2687.339649,2374.896044,1480.411884,7846.182985
2687.339978,3064.381992,1332.370696,7846.182985
2687.340308,2145.067394,592.164754,8586.388927
2687.340637,2528.115143,1110.308913,8068.244768
2687.340966,2451.505594,-148.041188,8808.450710
2687.341295,1072.533697,148.041188,8290.306550
2687.341625,536.266849,-148.041188,8734.430116
2687.341954,-383.047749,-1184.329507,9178.553681
2687.342283,-919.314598,-518.144159,9178.553681
2687.342612,-689.485948,-1702.473667,10288.862594
2687.342942,-1302.362347,-2368.659014,9992.780217
2687.343271,-1225.752797,-2368.659014,10510.924376
2687.343600,-766.095498,-1184.329507,10066.800811
2687.343929,76.609550,-370.102971,9104.533087
2687.344259,689.485948,222.061783,7994.224174
2687.344588,1378.971896,1036.288319,7994.224174
2687.344917,2451.505594,1332.370696,8734.430116
2687.345246,2221.676944,518.144159,8068.244768
2687.345576,919.314598,-222.061783,8882.471304
2687.345905,919.314598,-0.000000,9178.553681
2687.346234,229.828649,-148.041188,8438.347739
2687.346563,-1685.410096,-222.061783,8512.368333
2687.346892,-2068.457845,-1036.288319,10288.862594
2687.347222,-2145.067394,-666.185348,9918.759623
2687.347551,-1532.190996,-1184.329507,9474.636058
2687.347880,-1915.238745,-814.226536,9474.636058
2687.348209,-2298.286494,-1554.432478,10140.821405
2687.348539,-1225.752797,-962.267725,9696.697840
2687.348868,0.000000,-0.000000,8734.430116
2687.349197,383.047749,-296.082377,8660.409521
2687.349526,995.924147,518.144159,7994.224174
2687.349856,2604.724693,1480.411884,7402.059420
2687.350185,2681.334243,740.205942,8216.285956
2687.350514,1762.019645,222.061783,8068.244768
2687.350843,1608.800546,518.144159,8956.491898
2687.351172,1225.752797,518.144159,8438.347739
2687.351502,0.000000,370.102971,8734.430116
2687.351831,-1378.971896,-1776.494261,9992.780217
2687.352160,-766.095498,-1628.453072,10066.800811
2687.352489,-1149.143247,-888.247130,9400.615463
2687.352818,-1072.533697,-1776.494261,10214.842000
2687.353148,-995.924147,-1110.308913,10140.821405
2687.353477,0.000000,-1480.411884,9992.780217
2687.353806,1838.629195,-148.041188,9474.636058
2687.354135,2068.457845,1258.350101,7105.977043
2687.354464,2451.505594,666.185348,8512.368333
2687.354793,3524.039291,1554.432478,8364.327145
2687.355123,3830.477490,2664.741391,7994.224174
2687.355452,2911.162892,-74.020594,9252.574275
2687.355781,2221.676944,1184.329507,9474.636058
2687.356110,689.485948,-148.041188,9770.718434
2687.356439,0.000000,-0.000000,9030.512492
2687.356769,-1378.971896,-1184.329507,10140.821405
2687.357098,-1915.238745,-1998.556043,11325.150913
2687.357427,-919.314598,-814.226536,10140.821405
2687.357756,-1838.629195,-592.164754,9696.697840
2687.358085,-1455.581446,-1554.432478,9770.718434
2687.358414,-153.219100,-444.123565,10658.965565
2687.358744,842.705048,-74.020594,9326.594869
2687.359073,2145.067394,962.267725,7476.080014
2687.359402,2451.505594,1258.350101,7328.038826
2687.359731,2987.772442,1554.432478,7328.038826
2687.360060,3677.258390,2072.576638,7624.121203
2687.360390,2451.505594,888.247130,7179.997637
2687.360719,919.314598,-148.041188,8586.388927
2687.361048,459.657299,148.041188,8142.265362
2687.361377,-612.876398,-518.144159,9992.780217
2687.361706,-2451.505594,-1406.391290,10066.800811
2687.362035,-2987.772442,-2146.597232,9770.718434
2687.362365,-2604.724693,-1554.432478,11251.130318
2687.362694,-2145.067394,-0.000000,9104.533087
2687.363023,-1762.019645,-1184.329507,9696.697840
2687.363352,-2374.896044,-1924.535449,9548.656652
2687.363681,-995.924147,-666.185348,10362.883188
2687.364011,536.266849,-222.061783,8882.471304
2687.364340,1225.752797,-814.226536,6957.935855
2687.364669,2528.115143,1406.391290,7254.018232
2687.364998,2681.334243,444.123565,7179.997637
2687.365327,2681.334243,1184.329507,8216.285956
2687.365657,2221.676944,-0.000000,8882.471304
2687.365986,1302.362347,444.123565,7846.182985
2687.366315,1072.533697,592.164754,9178.553681
2687.366644,-383.047749,-444.123565,9622.677246
2687.366973,-1532.190996,-1554.432478,9548.656652
2687.367302,-1378.971896,-814.226536,10584.944971
2687.367632,-1838.629195,-1184.329507,10510.924376
2687.367961,-2221.676944,-1702.473667,9622.677246
2687.368290,-1915.238745,-1702.473667,10658.965565
2687.368619,-919.314598,-1554.432478,9326.594869
2687.368948,306.438199,-444.123565,8586.388927
2687.369278,842.705048,-370.102971,8586.388927
2687.369607,3064.381992,296.082377,8142.265362
2687.369936,3140.991542,2220.617826,7105.977043
2687.370265,2681.334243,1702.473667,7328.038826
2687.370594,2451.505594,148.041188,8438.347739
2687.370923,1762.019645,1850.514855,8734.430116
2687.371253,1608.800546,1110.308913,8586.388927
2687.371582,766.095498,592.164754,9474.636058
2687.371911,-1302.362347,-370.102971,9992.780217
2687.372240,-1915.238745,-592.164754,10214.842000
2687.372569,-1915.238745,-962.267725,10881.027347
2687.372899,-2528.115143,-1776.494261,10066.800811
2687.373228,-2221.676944,-2072.576638,10140.821405
2687.373557,-1762.019645,-962.267725,9548.656652
2687.373886,-1149.143247,-1036.288319,9474.636058
2687.374215,306.438199,-1036.288319,9622.677246
2687.374544,1072.533697,-148.041188,9474.636058
2687.374874,3064.381992,666.185348,7772.162391
2687.375203,3677.258390,1332.370696,6735.874072
2687.375532,3600.648841,1110.308913,7994.224174
2687.375861,3064.381992,1332.370696,8438.347739
2687.376190,3294.210641,1924.535449,8216.285956
2687.376520,1838.629195,888.247130,8290.306550
2687.376849,306.438199,-74.020594,9548.656652
2687.377178,-1072.533697,-74.020594,10362.883188
2687.377507,-2145.067394,-814.226536,10362.883188
2687.377836,-2757.943793,-2368.659014,10955.047942
2687.378165,-3140.991542,-1850.514855,10807.006753
2687.378495,-2911.162892,-1850.514855,10658.965565
2687.378824,-2374.896044,-1036.288319,8956.491898
2687.379153,-2374.896044,-592.164754,9178.553681
2687.379482,-2298.286494,-148.041188,8512.368333
2687.379811,-842.705048,-0.000000,8660.409521
2687.380141,0.000000,296.082377,7105.977043
2687.380470,153.219100,296.082377,8068.244768
2687.380799,-306.438199,-0.000000,8660.409521
2687.381128,-766.095498,-0.000000,7920.203579
2687.381457,-995.924147,888.247130,8882.471304
2687.381787,-2068.457845,-296.082377,8734.430116
2687.382116,-2987.772442,-148.041188,9030.512492
2687.382445,-3600.648841,148.041188,9770.718434
2687.382774,-3524.039291,-74.020594,8734.430116
2687.383103,-3907.087040,-1110.308913,8512.368333
2687.383432,-4903.011187,-1628.453072,10066.800811
2687.383762,-4749.792088,-1702.473667,9474.636058
2687.384091,-4060.306139,-1184.329507,8882.471304
2687.384420,-4366.744339,-1110.308913,8586.388927
2687.384749,-3677.258390,-888.247130,8882.471304
2687.385078,-3677.258390,444.123565,8586.388927
2687.385408,-2451.505594,-370.102971,8068.244768
2687.385737,-1915.238745,-1110.308913,7994.224174
2687.386066,-2834.553343,-444.123565,9400.615463
2687.386395,-1838.629195,-666.185348,9992.780217
2687.386724,-1149.143247,592.164754,7772.162391
2687.387053,-766.095498,962.267725,8290.306550
2687.387383,-2604.724693,518.144159,8956.491898
2687.387712,-3217.601092,444.123565,9992.780217
2687.388041,-2451.505594,740.205942,9252.574275
2687.388370,-2145.067394,518.144159,8586.388927
2687.388699,-3064.381992,666.185348,8290.306550
2687.389029,-3753.867940,-1406.391290,9844.739029
2687.389358,-4060.306139,-1258.350101,9326.594869
2687.389687,-3294.210641,-222.061783,8808.450710
2687.390016,-2757.943793,-518.144159,9252.574275
2687.390345,-3370.820191,-814.226536,9696.697840
2687.390674,-3600.648841,-370.102971,10140.821405
2687.391004,-2911.162892,-74.020594,9326.594869
2687.391333,-2068.457845,-814.226536,8882.471304
2687.391662,-1915.238745,-962.267725,9622.677246
2687.391991,-1915.238745,-888.247130,9844.739029
2687.392320,-2681.334243,-592.164754,10510.924376
2687.392650,-2911.162892,-0.000000,9622.677246
2687.392979,-1685.410096,592.164754,8068.244768
2687.393308,-1762.019645,370.102971,9178.553681
2687.393637,-2451.505594,814.226536,9104.533087
2687.393966,-1762.019645,370.102971,8734.430116
2687.394295,-1072.533697,-0.000000,8068.244768
2687.394625,-1149.143247,296.082377,7772.162391
2687.394954,-766.095498,-962.267725,8586.388927
2687.395283,-1455.581446,-1702.473667,8734.430116
2687.395612,-1149.143247,-1924.535449,9326.594869
2687.395941,-1225.752797,-592.164754,8290.306550
2687.396271,-766.095498,-74.020594,8364.327145
2687.396600,-612.876398,296.082377,8364.327145
2687.396929,-536.266849,296.082377,8882.471304
2687.397258,-1685.410096,-148.041188,9400.615463
2687.397587,-1149.143247,-148.041188,8956.491898
2687.397917,-1532.190996,1332.370696,8438.347739
2687.398246,-2221.676944,1480.411884,8290.306550
2687.398575,-2451.505594,222.061783,8882.471304
2687.398904,-2757.943793,-1184.329507,9400.615463
2687.399233,-3140.991542,-1776.494261,9474.636058
2687.399562,-3447.429741,-296.082377,8290.306550
2687.399892,-4213.525239,296.082377,7994.224174
2687.400221,-4903.011187,962.267725,7920.203579
2687.400550,-4443.353888,-1702.473667,10140.821405
2687.400879,-5439.278036,-2516.700203,9992.780217
2687.401208,-5898.935335,-2146.597232,10510.924376
2687.401538,-5439.278036,-2442.679609,10732.986159
2687.401867,-4366.744339,-1332.370696,9844.739029
2687.402196,-2528.115143,-74.020594,10140.821405
2687.402525,-2528.115143,-0.000000,9474.636058
2687.402854,-1762.019645,666.185348,8882.471304
2687.403183,-1685.410096,962.267725,8586.388927
2687.403513,-1532.190996,1406.391290,8364.327145
2687.403842,-2451.505594,592.164754,8364.327145
2687.404171,-2451.505594,962.267725,7846.182985
2687.404500,-2604.724693,888.247130,8364.327145
2687.404829,-2604.724693,592.164754,8734.430116
2687.405159,-2068.457845,-0.000000,7994.224174
2687.405488,-2068.457845,-0.000000,9104.533087
2687.405817,-2451.505594,-148.041188,8586.388927
2687.406146,-2987.772442,-0.000000,8586.388927
2687.406475,-3524.039291,-814.226536,9400.615463
2687.406804,-4290.134789,-518.144159,10066.800811
2687.407134,-3064.381992,-444.123565,9918.759623
2687.407463,-2911.162892,-296.082377,9622.677246
2687.407792,-2451.505594,-592.164754,9400.615463
2687.408121,-2834.553343,-370.102971,9474.636058
2687.408450,-2451.505594,-444.123565,9474.636058
2687.408780,-2987.772442,-0.000000,9178.553681
2687.409109,-2987.772442,148.041188,9474.636058
2687.409438,-3524.039291,518.144159,9178.553681
2687.409767,-2911.162892,-0.000000,9400.615463
2687.410096,-3447.429741,-74.020594,9474.636058
2687.410425,-2987.772442,-1184.329507,9326.594869
2687.410755,-2145.067394,-2220.617826,9474.636058
2687.411084,-1149.143247,-1924.535449,9400.615463
2687.411413,-1225.752797,-518.144159,8808.450710
2687.411742,-1225.752797,-222.061783,8660.409521
2687.412071,-766.095498,-666.185348,10881.027347
2687.412401,689.485948,1036.288319,8142.265362
2687.412730,1838.629195,2368.659014,7402.059420
2687.413059,842.705048,1776.494261,6069.688724
2687.413388,0.000000,1924.535449,7402.059420
2687.413717,-1225.752797,888.247130,9400.615463
2687.414047,-2604.724693,-0.000000,8216.285956
2687.414376,-2298.286494,-1924.535449,10584.944971
2687.414705,-4519.963438,-1258.350101,8808.450710
2687.415034,-5745.716235,-2516.700203,9696.697840
2687.415363,-7201.297681,-3701.029710,11769.274478
2687.415692,-6588.421283,-2220.617826,11103.089130
2687.416022,-5362.668486,-2886.803174,11325.150913
2687.416351,-4060.306139,-888.247130,9400.615463
2687.416680,-1532.190996,296.082377,8586.388927
2687.417009,-766.095498,1184.329507,7031.956449
2687.417338,-1455.581446,1998.556043,6735.874072
2687.417668,2145.067394,740.205942,12509.480420
2687.417997,1915.238745,3034.844362,3552.988522
2687.418326,3830.477490,2072.576638,7846.182985
2687.418655,612.876398,1776.494261,5551.544565
2687.418984,689.485948,1480.411884,7772.162391
2687.419313,-2757.943793,-1036.288319,10140.821405
2687.419643,-2834.553343,-740.205942,9474.636058
2687.419972,-2298.286494,-1628.453072,11251.130318
2687.420301,-4749.792088,-0.000000,8142.265362
2687.420630,-5898.935335,-2664.741391,11251.130318
2687.420959,-8273.831378,-1924.535449,11843.295072
2687.421289,-5439.278036,-1036.288319,10881.027347
2687.421618,-5515.887586,-1702.473667,10140.821405
2687.421947,-3753.867940,-1110.308913,9474.636058
2687.422276,-3524.039291,222.061783,9252.574275
2687.422605,-3217.601092,-1258.350101,7698.141797
2687.422934,-2145.067394,-444.123565,9252.574275
2687.423264,-1685.410096,444.123565,8586.388927
2687.423593,-842.705048,-1036.288319,8734.430116
2687.423922,-2298.286494,74.020594,9400.615463
2687.424251,-2221.676944,740.205942,9844.739029
2687.424580,-3064.381992,-0.000000,8956.491898
2687.424910,-2834.553343,222.061783,9326.594869
2687.425239,-2451.505594,1332.370696,9326.594869
2687.425568,-2757.943793,1110.308913,9622.677246
2687.425897,-2681.334243,1554.432478,8364.327145
2687.426226,-3064.381992,1332.370696,8068.244768
2687.426555,-2451.505594,1258.350101,8290.306550
2687.426885,-1915.238745,740.205942,7402.059420
2687.427214,-1915.238745,1184.329507,7254.018232
2687.427543,-2068.457845,888.247130,7846.182985
2687.427872,-2298.286494,-0.000000,8660.409521
2687.428201,-3294.210641,296.082377,8290.306550
2687.428531,-2987.772442,1776.494261,9252.574275
2687.428860,-3217.601092,1110.308913,8660.409521
2687.429189,-3677.258390,518.144159,9696.697840
2687.429518,-4060.306139,740.205942,10584.944971
2687.429847,-4443.353888,-148.041188,10881.027347
2687.430177,-4366.744339,-370.102971,11399.171507
2687.430506,-3064.381992,-518.144159,10732.986159
2687.430835,-1378.971896,-0.000000,9326.594869
2687.431164,-689.485948,740.205942,9622.677246
2687.431493,-1225.752797,1998.556043,8216.285956
2687.431822,-229.828649,-740.205942,12805.562797
2687.432152,2145.067394,2516.700203,7179.997637
2687.432481,4826.401637,3330.926739,6809.894666
2687.432810,3907.087040,3775.050304,5477.523971
2687.433139,3140.991542,4219.173869,5847.626942
2687.433468,3294.210641,4219.173869,9400.615463
2687.433798,1991.848295,4737.318029,6587.832884
2687.434127,3294.210641,3923.091493,9178.553681
2687.434456,153.219100,2146.597232,9622.677246
2687.434785,-76.609550,1480.411884,10510.924376
2687.435114,-1991.848295,592.164754,12213.398043
2687.435443,-1455.581446,888.247130,10732.986159
2687.435773,-1072.533697,1036.288319,11251.130318
2687.436102,-383.047749,1628.453072,10658.965565
2687.436431,842.705048,3701.029710,9474.636058
2687.436760,1225.752797,2738.761985,8882.471304
2687.437089,2374.896044,3034.844362,7994.224174
2687.437419,3140.991542,5329.482782,6069.688724
2687.437748,2834.553343,4737.318029,6883.915261
2687.438077,1838.629195,5403.503377,6735.874072
2687.438406,1608.800546,4663.297435,7031.956449
2687.438735,-536.266849,3404.947333,8364.327145
2687.439064,-2298.286494,1480.411884,9992.780217
2687.439394,-2681.334243,1110.308913,10807.006753
2687.439723,-3140.991542,444.123565,11177.109724
2687.440052,-2834.553343,2368.659014,9474.636058
2687.440381,-3753.867940,2294.638420,10658.965565
2687.440710,-4136.915689,1776.494261,10955.047942
2687.441040,-3370.820191,2146.597232,11547.212695
2687.441369,-2451.505594,2072.576638,10510.924376
2687.441698,-383.047749,2738.761985,9178.553681
2687.442027,-383.047749,3034.844362,7550.100608
2687.442356,-919.314598,3478.967927,9918.759623
2687.442685,-612.876398,1332.370696,12287.418637
2687.443015,1991.848295,3034.844362,7254.018232
2687.443344,4979.620737,4293.194464,7550.100608
2687.443673,4060.306139,6069.688724,5329.482782
2687.444002,3753.867940,6735.874072,5773.606348
2687.444331,2451.505594,6365.771101,8734.430116
2687.444661,1762.019645,6587.832884,7031.956449
2687.444990,1762.019645,6291.750507,8734.430116
2687.445319,0.000000,5181.441594,8586.388927
2687.445648,-612.876398,5181.441594,7920.203579
2687.445977,-1302.362347,1702.473667,9992.780217
2687.446307,-1302.362347,-962.267725,11547.212695
2687.446636,-1991.848295,1924.535449,9918.759623
2687.446965,-1532.190996,-1110.308913,11547.212695
2687.447294,-1225.752797,2442.679609,9178.553681
2687.447623,0.000000,3775.050304,11621.233289
2687.447952,1532.190996,3997.112087,8216.285956
2687.448282,2374.896044,5403.503377,7698.141797
2687.448611,3753.867940,4145.153275,6883.915261
2687.448940,3983.696590,4737.318029,7624.121203
2687.449269,2068.457845,5551.544565,7105.977043
2687.449598,1378.971896,3849.070898,7105.977043
2687.449927,-842.705048,2146.597232,8660.409521
2687.450256,-1608.800546,-592.164754,12435.459826
2687.450585,-2911.162892,740.205942,10288.862594
2687.450915,-1838.629195,592.164754,11695.253884
2687.451244,-2911.162892,-74.020594,9400.615463
2687.451573,-1608.800546,1924.535449,11325.150913
2687.451902,-1378.971896,2886.803174,9104.533087
2687.452231,-1072.533697,1998.556043,9400.615463
2687.452561,536.266849,1184.329507,12065.356855
2687.452890,2528.115143,296.082377,8586.388927
2687.453219,5132.839837,2442.679609,7920.203579
2687.453548,3447.429741,3627.009116,5329.482782
2687.453877,3140.991542,3108.864956,6661.853478
2687.454207,3294.210641,5033.400406,8586.388927
2687.454536,2528.115143,4737.318029,6957.935855
2687.454865,1762.019645,4737.318029,7328.038826
2687.455194,689.485948,3923.091493,8512.368333
2687.455523,-1915.238745,888.247130,9326.594869
2687.455853,-3600.648841,-4441.235652,14137.933492
2687.456182,-3370.820191,1258.350101,10732.986159
2687.456511,-2757.943793,-3034.844362,12361.439231
2687.456840,-3677.258390,666.185348,9548.656652
2687.457169,-1762.019645,3330.926739,10881.027347
2687.457499,153.219100,1480.411884,8808.450710
2687.457828,-229.828649,3775.050304,8364.327145
2687.458157,3983.696590,2738.761985,10066.800811
2687.458486,3677.258390,3701.029710,5033.400406
2687.458815,4213.525239,4663.297435,8660.409521
2687.459145,3064.381992,6809.894666,3923.091493
2687.459474,4673.182538,2886.803174,7179.997637
2687.459803,2374.896044,4515.256246,6291.750507
2687.460132,3677.258390,3923.091493,6143.709319
2687.460461,1225.752797,3923.091493,7550.100608
2687.460791,-536.266849,5847.626942,5329.482782
2687.461120,-3830.477490,-444.123565,10732.986159
2687.461449,-5515.887586,-2220.617826,13249.686362
2687.461778,-2911.162892,3330.926739,8882.471304
2687.462107,-2604.724693,-4145.153275,9918.759623
2687.462437,-3830.477490,-962.267725,11399.171507
2687.462766,-2068.457845,2960.823768,13101.645173
2687.463095,-229.828649,1184.329507,9104.533087
2687.463424,-2911.162892,5551.544565,8216.285956
2687.463754,919.314598,-148.041188,12435.459826
2687.464083,3600.648841,3108.864956,8068.244768
2687.464412,3064.381992,6069.688724,6735.874072
2687.464741,2834.553343,3256.906145,5255.462188
2687.465070,842.705048,4959.379811,5699.585753
2687.465400,1991.848295,5625.565159,10658.965565
2687.465729,-612.876398,5477.523971,7105.977043
2687.466058,306.438199,6957.935855,9548.656652
2687.466387,-919.314598,3404.947333,7994.224174
2687.466716,-842.705048,2368.659014,10214.842000
2687.467046,-4136.915689,814.226536,13989.892304
2687.467375,-2451.505594,-814.226536,11103.089130
2687.467704,-1072.533697,-444.123565,11177.109724
2687.468033,-1532.190996,-1998.556043,11325.150913
2687.468362,-2221.676944,3404.947333,9178.553681
2687.468692,0.000000,2664.741391,9844.739029
2687.469021,995.924147,4885.359217,7846.182985
2687.469350,3524.039291,7476.080014,8364.327145
2687.469679,3370.820191,5921.647536,8216.285956
2687.470008,2221.676944,4959.379811,9918.759623
2687.470338,76.609550,6217.729913,9548.656652
2687.470667,536.266849,5107.421000,7031.956449
2687.470996,995.924147,4367.215058,7994.224174
2687.471325,2145.067394,2368.659014,9696.697840
2687.471654,383.047749,1332.370696,11251.130318
2687.471984,-153.219100,666.185348,10362.883188
2687.472313,0.000000,1628.453072,8882.471304
2687.472642,76.609550,1998.556043,9770.718434
2687.472971,-153.219100,4219.173869,8882.471304
2687.473300,-306.438199,5329.482782,9252.574275
2687.473630,842.705048,3108.864956,8364.327145
2687.473959,1991.848295,3182.885551,7772.162391
2687.474288,3600.648841,4737.318029,8216.285956
2687.474617,2757.943793,3552.988522,7402.059420
2687.474946,536.266849,2886.803174,8364.327145
2687.475276,1072.533697,2812.782580,8660.409521
2687.475605,0.000000,2886.803174,8956.491898
2687.475934,-459.657299,2294.638420,10732.986159
2687.476263,-1225.752797,2146.597232,9622.677246
2687.476593,-1838.629195,1628.453072,11399.171507
2687.476922,-1685.410096,-1332.370696,10510.924376
2687.477251,-612.876398,-1332.370696,10510.924376
2687.477580,-689.485948,-888.247130,10807.006753
2687.477909,-995.924147,1998.556043,9178.553681
2687.478239,1378.971896,2442.679609,8660.409521
2687.478568,3217.601092,2960.823768,7179.997637
2687.478897,3447.429741,2886.803174,7402.059420
2687.479226,919.314598,3478.967927,7624.121203
2687.479555,995.924147,2442.679609,7476.080014
2687.479885,2528.115143,2812.782580,7550.100608
2687.480214,3217.601092,1998.556043,7550.100608
2687.480543,153.219100,1776.494261,8734.430116
2687.480872,-1378.971896,-1184.329507,11103.089130
2687.481201,-1302.362347,-888.247130,10881.027347
2687.481531,-1302.362347,-1776.494261,10362.883188
2687.481860,-3217.601092,962.267725,8956.491898
2687.482189,-3447.429741,592.164754,11843.295072
2687.482518,-2221.676944,-74.020594,10140.821405
2687.482847,-1149.143247,1332.370696,7772.162391
2687.483177,0.000000,518.144159,8290.306550
2687.483506,0.000000,444.123565,8734.430116
2687.483835,1532.190996,518.144159,8882.471304
2687.484164,1762.019645,1628.453072,6365.771101
2687.484493,612.876398,1184.329507,7031.956449
2687.484823,0.000000,296.082377,9104.533087
2687.485152,306.438199,-888.247130,10436.903782
2687.485481,612.876398,740.205942,9474.636058
2687.485810,306.438199,-0.000000,9178.553681
2687.486139,0.000000,-0.000000,10510.924376
2687.486469,-229.828649,-222.061783,10881.027347
2687.486798,-459.657299,-0.000000,10510.924376
2687.487127,-612.876398,296.082377,9548.656652
2687.487456,459.657299,-444.123565,9918.759623
2687.487785,2221.676944,222.061783,9252.574275
2687.488115,2987.772442,1702.473667,7920.203579
2687.488444,2298.286494,-888.247130,7994.224174
2687.488773,1762.019645,-0.000000,8068.244768
2687.489102,1762.019645,1702.473667,7920.203579
2687.489432,1838.629195,962.267725,7994.224174
2687.489761,1302.362347,888.247130,7624.121203
2687.490090,1149.143247,-814.226536,10140.821405
2687.490419,1225.752797,-2368.659014,9474.636058
2687.490748,76.609550,-1776.494261,9770.718434
2687.491078,-383.047749,-1998.556043,10955.047942
2687.491407,-612.876398,-1702.473667,10584.944971
2687.491736,0.000000,1480.411884,10140.821405
2687.492065,0.000000,1554.432478,8660.409521
2687.492394,0.000000,962.267725,8808.450710
2687.492724,766.095498,1110.308913,9474.636058
2687.493053,1532.190996,592.164754,7994.224174
2687.493382,229.828649,-0.000000,7476.080014
2687.493711,229.828649,-1184.329507,8808.450710
2687.494040,459.657299,-1406.391290,8586.388927
2687.494370,-383.047749,-962.267725,8512.368333
2687.494699,-153.219100,-1406.391290,8142.265362
2687.495028,0.000000,-1998.556043,8586.388927
2687.495357,-229.828649,-444.123565,9992.780217
2687.495686,306.438199,-0.000000,9030.512492
2687.496016,-536.266849,-0.000000,9104.533087
2687.496345,-536.266849,592.164754,9400.615463
2687.496674,76.609550,1850.514855,8734.430116
2687.497003,-383.047749,1628.453072,9252.574275
2687.497332,-459.657299,444.123565,9696.697840
2687.497662,306.438199,-74.020594,9326.594869
2687.497991,0.000000,-296.082377,8808.450710
2687.498320,-536.266849,-444.123565,8216.285956
2687.498649,-306.438199,-1702.473667,9178.553681
2687.498978,383.047749,-1480.411884,9104.533087
2687.499308,995.924147,592.164754,7994.224174
2687.499637,1455.581446,370.102971,8364.327145
2687.499966,1378.971896,296.082377,8142.265362
2687.500295,2451.505594,518.144159,8438.347739
2687.500624,2451.505594,1332.370696,8808.450710
2687.500954,1532.190996,592.164754,8438.347739
2687.501283,1149.143247,444.123565,9844.739029
2687.501612,995.924147,1110.308913,10140.821405
2687.501941,1072.533697,1406.391290,9104.533087
2687.502271,-459.657299,592.164754,9178.553681
2687.502600,-842.705048,-222.061783,9770.718434
2687.502929,-306.438199,-222.061783,9918.759623
2687.503258,-919.314598,-222.061783,9548.656652
2687.503587,-1302.362347,-1110.308913,9030.512492
2687.503917,-536.266849,-2664.741391,10658.965565
2687.504246,689.485948,-740.205942,9252.574275
2687.504575,612.876398,-814.226536,8068.244768
2687.504904,536.266849,-148.041188,8808.450710
2687.505233,1532.190996,-74.020594,9252.574275
2687.505563,2145.067394,1184.329507,8734.430116
2687.505892,1455.581446,1110.308913,8586.388927
2687.506221,1302.362347,370.102971,9474.636058
2687.506550,536.266849,222.061783,10510.924376
2687.506879,0.000000,444.123565,9252.574275
2687.507209,-1302.362347,-592.164754,9844.739029
2687.507538,-1455.581446,-1332.370696,10584.944971
2687.507867,-842.705048,-1480.411884,9696.697840
2687.508196,-1225.752797,-1554.432478,9400.615463
2687.508525,-1378.971896,-1924.535449,9474.636058
2687.508855,-536.266849,-2442.679609,9474.636058
2687.509184,76.609550,-666.185348,8734.430116
2687.509513,459.657299,1036.288319,7254.018232
2687.509842,842.705048,-296.082377,8290.306550
2687.510171,1685.410096,-518.144159,8512.368333
2687.510501,2451.505594,-0.000000,8142.265362
2687.510830,1608.800546,-666.185348,8290.306550
2687.511159,1149.143247,-1332.370696,8882.471304
2687.511488,1532.190996,-888.247130,9992.780217
2687.511817,766.095498,370.102971,9474.636058
2687.512147,-689.485948,1110.308913,8734.430116
2687.512476,-689.485948,-666.185348,8956.491898
2687.512805,76.609550,-370.102971,9178.553681
2687.513134,306.438199,-740.205942,9178.553681
2687.513463,0.000000,-962.267725,8882.471304
2687.513793,-229.828649,-2368.659014,9252.574275
2687.514122,1225.752797,-1776.494261,8882.471304
2687.514451,1225.752797,666.185348,7105.977043
2687.514780,842.705048,-0.000000,7254.018232
2687.515109,1378.971896,-0.000000,8290.306550
2687.515439,2604.724693,814.226536,8364.327145
2687.515768,1991.848295,2220.617826,7476.080014
2687.516097,1302.362347,-148.041188,8512.368333
2687.516426,153.219100,-222.061783,10140.821405
2687.516756,-229.828649,148.041188,9992.780217
2687.517085,-1378.971896,-370.102971,9696.697840
2687.517414,-1762.019645,-2146.597232,10066.800811
2687.517743,-689.485948,-1702.473667,10288.862594
2687.518072,-612.876398,-1184.329507,9918.759623
2687.518402,-995.924147,-1036.288319,9104.533087
2687.518731,-689.485948,-1184.329507,9178.553681
2687.519060,612.876398,296.082377,7994.224174
2687.519389,536.266849,1628.453072,7328.038826
2687.519718,689.485948,962.267725,7550.100608
2687.520048,1225.752797,-1332.370696,8142.265362
2687.520377,1838.629195,-814.226536,9474.636058
2687.520706,919.314598,-222.061783,8438.347739
2687.521035,-536.266849,-1332.370696,9918.759623
2687.521364,-995.924147,-888.247130,10732.986159
2687.521694,-459.657299,-0.000000,10214.842000
2687.522023,-1302.362347,1184.329507,9326.594869
2687.522352,-1455.581446,592.164754,9474.636058
2687.522681,-459.657299,-740.205942,10584.944971
2687.523010,76.609550,962.267725,9770.718434
2687.523340,0.000000,-962.267725,9548.656652
2687.523669,0.000000,-1850.514855,9400.615463
2687.523998,919.314598,-1110.308913,10288.862594
2687.524327,1685.410096,1036.288319,7846.182985
2687.524656,1762.019645,1998.556043,7402.059420
2687.524986,1072.533697,592.164754,8734.430116
2687.525315,2757.943793,518.144159,7994.224174
2687.525644,2604.724693,1776.494261,8438.347739
2687.525973,919.314598,666.185348,8364.327145
2687.526302,612.876398,-666.185348,9326.594869
2687.526632,0.000000,-0.000000,10658.965565
2687.526961,0.000000,222.061783,9474.636058
2687.527290,-536.266849,-222.061783,9696.697840
2687.527619,-612.876398,-1480.411884,10658.965565
2687.527948,229.828649,-74.020594,9252.574275
2687.528278,612.876398,518.144159,9178.553681
2687.528607,0.000000,-74.020594,8216.285956
2687.528936,1302.362347,-296.082377,9474.636058
2687.529265,1838.629195,1702.473667,7994.224174
2687.529595,1685.410096,1406.391290,7179.997637
2687.529924,1762.019645,740.205942,8068.244768
2687.530253,2145.067394,-0.000000,7994.224174
2687.530582,1762.019645,518.144159,9030.512492
2687.530911,76.609550,-148.041188,9252.574275
2687.531241,-689.485948,-1480.411884,9992.780217
2687.531570,-612.876398,-1110.308913,10658.965565
2687.531899,-766.095498,222.061783,9696.697840
2687.532228,-1915.238745,-1332.370696,9918.759623
2687.532557,-1225.752797,-1628.453072,10658.965565
2687.532887,-612.876398,-814.226536,9918.759623
2687.533216,-229.828649,-666.185348,9474.636058
2687.533545,-459.657299,-888.247130,8660.409521
2687.533874,459.657299,-1406.391290,9326.594869
2687.534203,1532.190996,518.144159,8068.244768
2687.534533,1302.362347,1924.535449,7402.059420
2687.534862,995.924147,-0.000000,7550.100608
2687.535191,2068.457845,-666.185348,8142.265362
2687.535520,2068.457845,814.226536,8512.368333
2687.535849,306.438199,-888.247130,8512.368333
2687.536179,-1149.143247,-1406.391290,9178.553681
2687.536508,-689.485948,-888.247130,10288.862594
2687.536837,-689.485948,-888.247130,10658.965565
2687.537166,-1149.143247,-666.185348,9622.677246
2687.537495,-1608.800546,-1332.370696,10584.944971
2687.537825,-153.219100,-962.267725,10140.821405
2687.538154,0.000000,1332.370696,8438.347739
2687.538483,229.828649,-370.102971,9400.615463
2687.538812,766.095498,-888.247130,9326.594869
2687.539141,2145.067394,666.185348,8364.327145
2687.539471,2528.115143,1850.514855,7179.997637
2687.539800,1225.752797,1332.370696,6735.874072
2687.540129,2528.115143,296.082377,8734.430116
2687.540458,2528.115143,962.267725,8216.285956
2687.540787,1455.581446,592.164754,7994.224174
2687.541117,76.609550,-444.123565,8512.368333
2687.541446,-536.266849,-814.226536,9696.697840
2687.541775,-612.876398,-0.000000,10881.027347
2687.542104,-1685.410096,-814.226536,9474.636058
2687.542434,-2221.676944,-1554.432478,9696.697840
2687.542763,-1225.752797,-1480.411884,10732.986159
2687.543092,-842.705048,-0.000000,10510.924376
2687.543421,-995.924147,-518.144159,9770.718434
2687.543750,0.000000,-1850.514855,9844.739029
2687.544080,1915.238745,-0.000000,9400.615463
2687.544409,2145.067394,1702.473667,7624.121203
2687.544738,1685.410096,1110.308913,7772.162391
2687.545067,2298.286494,148.041188,8586.388927
2687.545396,2757.943793,1258.350101,7402.059420
2687.545726,2451.505594,1110.308913,7846.182985
2687.546055,689.485948,-222.061783,8290.306550
2687.546384,-459.657299,-1998.556043,10362.883188
2687.546713,-1149.143247,-666.185348,10584.944971
2687.547042,-2604.724693,-1480.411884,9696.697840
2687.547372,-2757.943793,-1702.473667,10140.821405
2687.547701,-2221.676944,-2072.576638,11473.192101
2687.548030,-1455.581446,-1332.370696,10658.965565
2687.548359,-1378.971896,-1332.370696,9622.677246
2687.548688,-842.705048,-2294.638420,9474.636058
2687.549018,612.876398,-2220.617826,10140.821405
2687.549347,2451.505594,1628.453072,7846.182985
2687.549676,2221.676944,1554.432478,6883.915261
2687.550005,2528.115143,518.144159,7402.059420
2687.550334,3753.867940,2368.659014,7402.059420
2687.550664,3677.258390,2738.761985,6957.935855
2687.550993,2451.505594,2812.782580,7031.956449
2687.551322,1762.019645,1184.329507,7476.080014
2687.551651,1149.143247,1258.350101,8734.430116
2687.551980,-536.266849,-0.000000,9548.656652
2687.552309,-2068.457845,-1258.350101,9770.718434
2687.552638,-2374.896044,-2516.700203,11029.068536
2687.552968,-1991.848295,-2442.679609,11695.253884
2687.553297,-3064.381992,-1258.350101,11103.089130
2687.553626,-2374.896044,-1776.494261,10436.903782
2687.553955,-689.485948,-814.226536,10807.006753
2687.554284,1455.581446,2146.597232,8734.430116
2687.554613,2145.067394,3182.885551,7105.977043
2687.554942,2604.724693,1480.411884,7624.121203
2687.555271,3677.258390,1332.370696,8586.388927
2687.555601,3830.477490,2294.638420,7328.038826
2687.555930,2834.553343,1850.514855,6957.935855
2687.556259,2528.115143,444.123565,7624.121203
2687.556588,2451.505594,1258.350101,7994.224174
2687.556917,612.876398,222.061783,8808.450710
2687.557246,-1838.629195,-1850.514855,9548.656652
2687.557575,-2451.505594,-2146.597232,10214.842000
2687.557904,-2068.457845,-3404.947333,11695.253884
2687.558234,-2987.772442,-2146.597232,10140.821405
2687.558563,-3217.601092,-2960.823768,10658.965565
2687.558892,-2681.334243,-3034.844362,11103.089130
2687.559221,-1072.533697,-1480.411884,11547.212695
2687.559550,0.000000,-0.000000,8216.285956
2687.559879,1838.629195,-0.000000,8438.347739
2687.560208,2834.553343,814.226536,8216.285956
2687.560537,3600.648841,2294.638420,6365.771101
2687.560867,2374.896044,2368.659014,6957.935855
2687.561196,1915.238745,814.226536,7105.977043
2687.561525,3064.381992,740.205942,8068.244768
2687.561854,2298.286494,1480.411884,7179.997637
2687.562183,-536.266849,-888.247130,8290.306550
2687.562512,-1991.848295,-2368.659014,10881.027347
2687.562841,-1915.238745,-2812.782580,11769.274478
2687.563170,-2451.505594,-2590.720797,11399.171507
2687.563499,-3064.381992,-1184.329507,10362.883188
2687.563829,-2068.457845,-1036.288319,11325.150913
2687.564158,-1302.362347,-148.041188,10362.883188
2687.564487,459.657299,1332.370696,9104.533087
2687.564816,842.705048,370.102971,8290.306550
2687.565145,2681.334243,-370.102971,9178.553681
2687.565474,4060.306139,2294.638420,7105.977043
2687.565803,3447.429741,2368.659014,6291.750507
2687.566132,2374.896044,1702.473667,7624.121203
2687.566462,2451.505594,592.164754,8512.368333
2687.566791,2987.772442,1480.411884,8290.306550
2687.567120,459.657299,1480.411884,7920.203579
2687.567449,-1455.581446,-666.185348,10066.800811
2687.567778,-1455.581446,-1702.473667,11399.171507
2687.568107,-1838.629195,-2368.659014,11695.253884
2687.568436,-2681.334243,-2072.576638,10362.883188
2687.568765,-2451.505594,-2368.659014,11695.253884
2687.569095,-536.266849,-666.185348,11473.192101
2687.569424,0.000000,666.185348,8808.450710
2687.569753,919.314598,592.164754,7994.224174
2687.570082,2221.676944,-296.082377,8142.265362
2687.570411,3753.867940,888.247130,8142.265362
2687.570740,3370.820191,1998.556043,6735.874072
2687.571069,2374.896044,1036.288319,6809.894666
2687.571398,2145.067394,-0.000000,8512.368333
2687.571728,1838.629195,592.164754,7254.018232
2687.572057,612.876398,222.061783,7994.224174
2687.572386,-1225.752797,-2072.576638,9770.718434
2687.572715,-1608.800546,-2368.659014,10955.047942
2687.573044,-1762.019645,-2812.782580,11473.192101
2687.573373,-3140.991542,-2590.720797,10066.800811
2687.573702,-2834.553343,-3108.864956,11177.109724
2687.574031,-1378.971896,-2220.617826,11399.171507
2687.574361,76.609550,666.185348,8956.491898
2687.574690,536.266849,1184.329507,7328.038826
2687.575019,1991.848295,-74.020594,8438.347739
2687.575348,3294.210641,888.247130,7994.224174
2687.575677,3600.648841,2220.617826,7105.977043
2687.576006,2451.505594,1258.350101,6957.935855
2687.576335,2451.505594,518.144159,7772.162391
2687.576664,2834.553343,962.267725,8216.285956
2687.576994,1149.143247,1776.494261,7402.059420
2687.577323,-1225.752797,-148.041188,8364.327145
2687.577652,-1225.752797,-1554.432478,11177.109724
2687.577981,-1225.752797,-1184.329507,10881.027347
2687.578310,-2298.286494,-1924.535449,11029.068536
2687.578639,-2528.115143,-1924.535449,11029.068536
2687.578968,-1608.800546,-2072.576638,11991.336260
2687.579297,-536.266849,1036.288319,9918.759623
2687.579627,689.485948,2220.617826,8364.327145
2687.579956,1532.190996,1184.329507,8068.244768
2687.580285,3140.991542,1110.308913,8586.388927
2687.580614,3983.696590,2960.823768,7031.956449
2687.580943,2145.067394,962.267725,6513.812290
2687.581272,1838.629195,444.123565,7846.182985
2687.581601,2451.505594,1406.391290,7402.059420
2687.581930,995.924147,1332.370696,7105.977043
2687.582259,-1378.971896,-518.144159,8586.388927
2687.582589,-1762.019645,-2072.576638,10066.800811
2687.582918,-2221.676944,-1998.556043,11399.171507
2687.583247,-2757.943793,-1702.473667,10436.903782
2687.583576,-3600.648841,-3256.906145,10881.027347
2687.583905,-3064.381992,-3108.864956,11843.295072
2687.584234,-2145.067394,-1406.391290,10807.006753
2687.584563,-919.314598,-0.000000,9030.512492
2687.584892,536.266849,-814.226536,9400.615463
2687.585222,2604.724693,-1036.288319,8956.491898
2687.585551,4213.525239,1184.329507,7031.956449
2687.585880,3370.820191,1258.350101,6365.771101
2687.586209,2068.457845,296.082377,7698.141797
2687.586538,2834.553343,1258.350101,8364.327145
2687.586867,2757.943793,2590.720797,7105.977043
2687.587196,1072.533697,1332.370696,6513.812290
2687.587525,-842.705048,-1924.535449,9918.759623
2687.587855,-842.705048,-2368.659014,11843.295072
2687.588184,-2221.676944,-2516.700203,10881.027347
2687.588513,-3064.381992,-3923.091493,11547.212695
2687.588842,-2757.943793,-2812.782580,11991.336260
2687.589171,-1378.971896,-1628.453072,11917.315666
2687.589500,-766.095498,962.267725,9178.553681
2687.589829,612.876398,592.164754,8586.388927
2687.590158,2681.334243,-0.000000,8586.388927
2687.590488,4136.915689,2516.700203,8660.409521
2687.590817,3677.258390,2516.700203,7402.059420
2687.591146,2451.505594,1036.288319,7328.038826
2687.591475,2604.724693,1776.494261,7920.203579
2687.591804,2528.115143,2146.597232,6735.874072
2687.592133,1302.362347,2294.638420,7476.080014
2687.592462,1149.143247,1258.350101,7920.203579
2687.592791,766.095498,-1776.494261,9622.677246
2687.593121,-459.657299,-2072.576638,10881.027347
2687.593450,-2911.162892,-1924.535449,9992.780217
2687.593779,-2911.162892,-4145.153275,11695.253884
2687.594108,-2834.553343,-2220.617826,10955.047942
2687.594437,-1762.019645,-518.144159,10288.862594
2687.594766,-919.314598,-370.102971,8068.244768
2687.595095,306.438199,-296.082377,9696.697840
2687.595424,2145.067394,-370.102971,8586.388927
2687.595754,2834.553343,1258.350101,7328.038826
2687.596083,2221.676944,148.041188,6883.915261
2687.596412,2298.286494,-148.041188,6883.915261
2687.596741,2221.676944,1480.411884,7624.121203
2687.597070,1149.143247,666.185348,6661.853478
2687.597399,76.609550,-888.247130,7624.121203
2687.597728,0.000000,-888.247130,9992.780217
2687.598057,-919.314598,-2738.761985,10658.965565
2687.598387,-2681.334243,-2738.761985,10362.883188
2687.598716,-3600.648841,-3478.967927,11473.192101
2687.599045,-2068.457845,-2738.761985,11843.295072
2687.599374,-1302.362347,-444.123565,10140.821405
2687.599703,-536.266849,444.123565,9622.677246
2687.600032,842.705048,-814.226536,9326.594869
2687.600361,2374.896044,1258.350101,8512.368333
2687.600690,3370.820191,1258.350101,7402.059420
2687.601019,2604.724693,814.226536,7402.059420
2687.601349,2681.334243,-0.000000,8364.327145
2687.601678,2757.943793,1480.411884,8216.285956
2687.602007,1455.581446,2072.576638,7254.018232
2687.602336,919.314598,444.123565,7550.100608
2687.602665,153.219100,-592.164754,10066.800811
2687.602994,-459.657299,-592.164754,10732.986159
2687.603323,-1915.238745,-1554.432478,10066.800811
2687.603652,-2834.553343,-1628.453072,10807.006753
2687.603982,-1915.238745,-2146.597232,11769.274478
2687.604311,-1072.533697,-0.000000,10510.924376
2687.604640,-1149.143247,1258.350101,8512.368333
2687.604969,306.438199,518.144159,8142.265362
2687.605298,1915.238745,888.247130,8734.430116
2687.605627,2528.115143,2294.638420,7920.203579
2687.605956,2221.676944,666.185348,7476.080014
2687.606285,1225.752797,-148.041188,7846.182985
2687.606615,2145.067394,740.205942,8512.368333
2687.606944,1915.238745,296.082377,8142.265362
2687.607273,0.000000,-0.000000,7994.224174
2687.607602,-306.438199,-1036.288319,9548.656652
2687.607931,-383.047749,-1258.350101,10140.821405
2687.608260,-995.924147,-1480.411884,9400.615463
2687.608589,-2145.067394,-2664.741391,10732.986159
2687.608918,-1608.800546,-2590.720797,11177.109724
2687.609248,-1072.533697,-592.164754,9104.533087
2687.609577,-766.095498,888.247130,8438.347739
2687.609906,-229.828649,-0.000000,8808.450710
2687.610235,766.095498,-444.123565,9696.697840
2687.610564,2068.457845,-296.082377,8512.368333
2687.610893,1532.190996,-888.247130,8290.306550
2687.611222,1455.581446,-1776.494261,9104.533087
2687.611551,1685.410096,-518.144159,8956.491898
2687.611881,1685.410096,592.164754,8512.368333
2687.612210,459.657299,962.267725,7920.203579
2687.612539,842.705048,-0.000000,8956.491898
2687.612868,1378.971896,-0.000000,9696.697840
2687.613197,76.609550,666.185348,9104.533087
2687.613526,-689.485948,-962.267725,9548.656652
2687.613855,-1225.752797,-1036.288319,9992.780217
2687.614184,76.609550,-0.000000,10658.965565
2687.614514,0.000000,518.144159,9178.553681
2687.614843,0.000000,296.082377,8068.244768
2687.615172,766.095498,-222.061783,9326.594869
2687.615501,1838.629195,1332.370696,8956.491898
2687.615830,1225.752797,814.226536,8364.327145
2687.616159,459.657299,148.041188,8512.368333
2687.616488,689.485948,370.102971,9178.553681
2687.616817,766.095498,1998.556043,8956.491898
2687.617146,459.657299,1110.308913,7772.162391
2687.617476,-229.828649,-296.082377,8956.491898
2687.617805,689.485948,-666.185348,10362.883188
2687.618134,383.047749,296.082377,8660.409521
2687.618463,-995.924147,-740.205942,9548.656652
2687.618792,-1072.533697,-666.185348,9918.759623
2687.619121,-229.828649,-666.185348,10066.800811
2687.619450,-383.047749,1036.288319,8660.409521
2687.619779,-459.657299,518.144159,7994.224174
2687.620109,612.876398,-1110.308913,9326.594869
2687.620438,383.047749,148.041188,9252.574275
2687.620767,766.095498,-370.102971,9252.574275
2687.621096,0.000000,-1110.308913,9622.677246
2687.621425,306.438199,-814.226536,9178.553681
2687.621754,766.095498,-0.000000,8808.450710
2687.622083,0.000000,-370.102971,9104.533087
2687.622412,-306.438199,-888.247130,8512.368333
2687.622742,383.047749,-814.226536,9992.780217
2687.623071,153.219100,-222.061783,9622.677246
2687.623400,-919.314598,-74.020594,8882.471304
2687.623729,-842.705048,-1628.453072,9918.759623
2687.624058,0.000000,-1184.329507,9696.697840
2687.624387,536.266849,-0.000000,8956.491898
2687.624716,153.219100,-518.144159,8290.306550
2687.625045,229.828649,-1406.391290,8512.368333
2687.625375,2451.505594,370.102971,9400.615463
2687.625704,1685.410096,296.082377,8068.244768
2687.626033,459.657299,888.247130,7846.182985
2687.626362,459.657299,222.061783,9474.636058
2687.626691,1072.533697,666.185348,9104.533087
2687.627020,383.047749,962.267725,8142.265362
2687.627349,842.705048,-296.082377,9030.512492
2687.627678,0.000000,-888.247130,9696.697840
2687.628008,153.219100,-296.082377,9770.718434
2687.628337,-383.047749,-814.226536,8734.430116
2687.628666,-919.314598,-2146.597232,9844.739029
2687.628995,229.828649,-370.102971,9992.780217
2687.629324,612.876398,444.123565,8438.347739
2687.629653,383.047749,1406.391290,7846.182985
2687.629982,689.485948,1184.329507,8512.368333
2687.630311,1608.800546,518.144159,8956.491898
2687.630641,1685.410096,962.267725,9178.553681
2687.630970,995.924147,-0.000000,8512.368333
2687.631299,0.000000,-1036.288319,9400.615463
2687.631628,689.485948,-148.041188,9622.677246
2687.631957,383.047749,-74.020594,8808.450710
2687.632286,-689.485948,-592.164754,8956.491898
2687.632615,-612.876398,-370.102971,9918.759623
2687.632944,0.000000,-74.020594,9622.677246
2687.633274,-536.266849,-0.000000,9104.533087
2687.633603,-229.828649,-1184.329507,9696.697840
2687.633932,229.828649,-1776.494261,9992.780217
2687.634261,459.657299,-296.082377,9474.636058
2687.634590,459.657299,814.226536,7846.182985
2687.634919,612.876398,-296.082377,8734.430116
2687.635248,1072.533697,444.123565,9474.636058
2687.635577,1455.581446,296.082377,8142.265362
2687.635906,76.609550,296.082377,8734.430116
2687.636236,-229.828649,-814.226536,9474.636058
2687.636565,383.047749,-962.267725,9918.759623
2687.636894,-383.047749,-148.041188,9252.574275
2687.637223,-995.924147,-888.247130,8512.368333
2687.637552,-383.047749,-1554.432478,9844.739029
2687.637881,306.438199,-370.102971,9474.636058
2687.638210,306.438199,-222.061783,9030.512492
2687.638539,76.609550,-814.226536,9178.553681
2687.638869,1149.143247,-370.102971,9326.594869
2687.639198,1762.019645,1184.329507,8512.368333
2687.639527,1838.629195,2294.638420,7550.100608
2687.639856,919.314598,1110.308913,8068.244768
2687.640185,1762.019645,-0.000000,8882.471304
2687.640514,2068.457845,1258.350101,8512.368333
2687.640843,842.705048,-148.041188,8956.491898
2687.641172,-306.438199,-666.185348,9252.574275
2687.641502,0.000000,-888.247130,10584.944971
2687.641831,0.000000,-370.102971,9252.574275
2687.642160,-1072.533697,222.061783,8956.491898
2687.642489,-842.705048,-222.061783,9770.718434
2687.642818,-153.219100,-74.020594,9770.718434
2687.643147,0.000000,592.164754,9548.656652
2687.643476,383.047749,148.041188,8586.388927
2687.643805,229.828649,-888.247130,9474.636058
2687.644135,1685.410096,888.247130,9178.553681
2687.644464,1455.581446,2146.597232,7920.203579
2687.644793,1149.143247,1332.370696,8734.430116
2687.645122,1455.581446,370.102971,8882.471304
2687.645451,2374.896044,444.123565,9178.553681
2687.645780,536.266849,370.102971,7772.162391
2687.646109,0.000000,-888.247130,9400.615463
2687.646438,-689.485948,-1110.308913,10584.944971
2687.646768,-1072.533697,-1110.308913,9400.615463
2687.647097,-1149.143247,-666.185348,8882.471304
2687.647426,-1991.848295,-1998.556043,9696.697840
2687.647755,-1072.533697,-2442.679609,10362.883188
2687.648084,153.219100,-666.185348,9474.636058
2687.648413,0.000000,-1480.411884,8660.409521
2687.648742,229.828649,-1554.432478,9178.553681
2687.649071,1455.581446,-0.000000,9104.533087
2687.649401,2068.457845,1480.411884,7476.080014
2687.649730,1532.190996,1332.370696,7105.977043
2687.650059,1915.238745,666.185348,7994.224174
2687.650388,2221.676944,296.082377,7846.182985
2687.650717,1608.800546,666.185348,8216.285956
2687.651046,153.219100,-1332.370696,8734.430116
2687.651375,-536.266849,-1998.556043,10066.800811
2687.651704,-459.657299,-666.185348,9918.759623
2687.652034,-1225.752797,-592.164754,8956.491898
2687.652363,-1532.190996,-1480.411884,9844.739029
2687.652692,-766.095498,-666.185348,10436.903782
2687.653021,0.000000,-0.000000,9474.636058
2687.653350,-229.828649,296.082377,9252.574275
2687.653679,153.219100,-740.205942,9252.574275
2687.654008,1455.581446,518.144159,9178.553681
2687.654337,2068.457845,1554.432478,7994.224174
2687.654667,1991.848295,1998.556043,7105.977043
2687.654996,1608.800546,1036.288319,8512.368333
2687.655325,2298.286494,666.185348,9252.574275
2687.655654,1685.410096,1480.411884,8142.265362
2687.655983,842.705048,444.123565,8438.347739
2687.656312,-459.657299,-888.247130,10362.883188
2687.656641,-536.266849,-296.082377,9992.780217
2687.656971,-1225.752797,-888.247130,9918.759623
2687.657300,-2374.896044,-1184.329507,9400.615463
2687.657629,-1762.019645,-1924.535449,10436.903782
2687.657958,-612.876398,-1258.350101,10140.821405
2687.658287,-842.705048,-666.185348,9252.574275
2687.658616,-306.438199,-1406.391290,9548.656652
2687.658945,383.047749,-592.164754,9252.574275
2687.659275,1532.190996,1110.308913,7846.182985
2687.659604,1762.019645,1480.411884,7624.121203
2687.659933,1915.238745,518.144159,7550.100608
2687.660262,2528.115143,-592.164754,8216.285956
2687.660591,2145.067394,370.102971,8216.285956
2687.660920,766.095498,-592.164754,8808.450710
2687.661250,-306.438199,-2146.597232,9622.677246
2687.661579,-306.438199,-814.226536,9992.780217
2687.661908,-766.095498,-370.102971,8956.491898
2687.662237,-2221.676944,-666.185348,8512.368333
2687.662566,-1302.362347,-1332.370696,10955.047942
2687.662895,-842.705048,-1332.370696,9844.739029
2687.663224,-229.828649,-666.185348,9474.636058
2687.663554,-383.047749,-814.226536,9400.615463
2687.663883,766.095498,-1850.514855,9474.636058
2687.664212,2068.457845,592.164754,8808.450710
2687.664541,2451.505594,1184.329507,7920.203579
2687.664870,2145.067394,666.185348,7624.121203
2687.665199,2451.505594,592.164754,8290.306550
2687.665528,3983.696590,2220.617826,8290.306550
2687.665858,2451.505594,2072.576638,7402.059420
2687.666187,1072.533697,592.164754,8734.430116
2687.666516,229.828649,370.102971,9104.533087
2687.666845,0.000000,-0.000000,9844.739029
2687.667174,-1915.238745,-518.144159,9622.677246
2687.667503,-2451.505594,-2442.679609,10807.006753
2687.667832,-1532.190996,-1850.514855,10881.027347
2687.668162,-1378.971896,-1406.391290,10362.883188
2687.668491,-1608.800546,-1110.308913,9400.615463
2687.668820,-842.705048,-1702.473667,10732.986159
2687.669149,1225.752797,518.144159,9474.636058
2687.669478,1455.581446,1998.556043,7031.956449
2687.669807,2451.505594,1776.494261,7254.018232
2687.670136,2757.943793,592.164754,8512.368333
2687.670466,3064.381992,1480.411884,7846.182985
2687.670795,2451.505594,2294.638420,6587.832884
2687.671124,1608.800546,962.267725,7550.100608
2687.671453,612.876398,-0.000000,9400.615463
2687.671782,-153.219100,-518.144159,9474.636058
2687.672111,-1685.410096,-1184.329507,8438.347739
2687.672440,-3140.991542,-1850.514855,10881.027347
2687.672770,-2681.334243,-2442.679609,10807.006753
2687.673099,-2451.505594,-1554.432478,10288.862594
2687.673428,-2834.553343,-1850.514855,10066.800811
2687.673757,-2374.896044,-1998.556043,10510.924376
2687.674086,-153.219100,-1480.411884,10732.986159
2687.674415,1762.019645,222.061783,9030.512492
2687.674744,2145.067394,888.247130,7328.038826
2687.675074,3217.601092,222.061783,8068.244768
2687.675403,3370.820191,1184.329507,8290.306550
2687.675732,3294.210641,2886.803174,7254.018232
2687.676061,2298.286494,1850.514855,7254.018232
2687.676390,1915.238745,1554.432478,8290.306550
2687.676719,2451.505594,2886.803174,7254.018232
2687.677048,2145.067394,1332.370696,7994.224174
2687.677378,-2145.067394,-1998.556043,9696.697840
2687.677707,-2145.067394,-4589.276840,12065.356855
2687.678036,-1991.848295,-2294.638420,11251.130318
2687.678365,-3140.991542,-4367.215058,11695.253884
2687.678694,-3753.867940,-2812.782580,9474.636058
2687.679023,-1991.848295,-2368.659014,12065.356855
2687.679353,0.000000,148.041188,9770.718434
2687.679682,995.924147,1184.329507,7476.080014
2687.680011,3217.601092,1258.350101,8142.265362
2687.680340,4443.353888,1628.453072,7994.224174
2687.680669,3524.039291,2664.741391,7624.121203
2687.680998,1915.238745,1184.329507,6365.771101
2687.681327,2451.505594,962.267725,7550.100608
2687.681657,2374.896044,2220.617826,7772.162391
2687.681986,1991.848295,2886.803174,6735.874072
2687.682315,-612.876398,592.164754,7920.203579
2687.682644,-1762.019645,-3552.988522,10732.986159
2687.682973,-2068.457845,-2368.659014,10510.924376
2687.683302,-2604.724693,-4737.318029,10807.006753
2687.683631,-3677.258390,-3849.070898,10732.986159
2687.683961,-2221.676944,-2368.659014,11991.336260
2687.684290,-1225.752797,-1036.288319,10436.903782
2687.684619,-153.219100,592.164754,8586.388927
2687.684948,2068.457845,-296.082377,8364.327145
2687.685277,3907.087040,-0.000000,7994.224174
2687.685606,4060.306139,2294.638420,6957.935855
2687.685935,3370.820191,1554.432478,7105.977043
2687.686265,1915.238745,740.205942,7476.080014
2687.686594,2298.286494,1776.494261,8364.327145
2687.686923,1838.629195,2368.659014,6513.812290
2687.687252,842.705048,296.082377,7624.121203
2687.687581,-1225.752797,-2072.576638,10288.862594
2687.687910,-1762.019645,-4293.194464,11843.295072
2687.688239,-3064.381992,-1554.432478,11251.130318
2687.688569,-2604.724693,-5033.400406,11103.089130
2687.688898,-3524.039291,-2442.679609,11399.171507
2687.689227,-1072.533697,-1258.350101,11177.109724
2687.689556,153.219100,1036.288319,8142.265362
2687.689885,1072.533697,1480.411884,8512.368333
2687.690214,3600.648841,962.267725,8364.327145
2687.690543,4213.525239,2960.823768,8216.285956
2687.690873,3753.867940,1702.473667,7846.182985
2687.691202,1838.629195,888.247130,7105.977043
2687.691531,1991.848295,962.267725,8216.285956
2687.691860,2221.676944,2368.659014,7328.038826
2687.692189,1378.971896,2368.659014,7179.997637
2687.692518,-612.876398,-148.041188,9474.636058
2687.692847,-1302.362347,-2516.700203,10955.047942
2687.693177,-1915.238745,-1554.432478,10510.924376
2687.693506,-2911.162892,-2516.700203,11177.109724
2687.693835,-3370.820191,-2738.761985,11103.089130
2687.694164,-2298.286494,-1258.350101,11991.336260
2687.694493,-612.876398,518.144159,8734.430116
2687.694822,1072.533697,962.267725,8438.347739
2687.695151,2068.457845,-222.061783,8512.368333
2687.695481,3064.381992,1110.308913,7846.182985
2687.695810,3370.820191,1850.514855,6809.894666
2687.696139,2068.457845,888.247130,6809.894666
2687.696468,2145.067394,1480.411884,7846.182985
2687.696797,1991.848295,2664.741391,7402.059420
2687.697126,842.705048,1702.473667,7254.018232
2687.697456,-1225.752797,-222.061783,9030.512492
2687.697785,-995.924147,-2294.638420,10732.986159
2687.698114,-2145.067394,-2664.741391,10510.924376
2687.698443,-3064.381992,-2960.823768,11547.212695
2687.698772,-3370.820191,-3182.885551,11029.068536
2687.699101,-2374.896044,-1554.432478,10955.047942
2687.699430,-919.314598,370.102971,9474.636058
2687.699760,-612.876398,814.226536,7994.224174
2687.700089,2145.067394,296.082377,8586.388927
2687.700418,3447.429741,1924.535449,7846.182985
2687.700747,2987.772442,1702.473667,7772.162391
2687.701076,2221.676944,666.185348,8142.265362
2687.701405,2451.505594,-0.000000,8290.306550
2687.701734,2451.505594,1998.556043,7624.121203
2687.702064,919.314598,2146.597232,7550.100608
2687.702393,-612.876398,888.247130,9400.615463
2687.702722,-1378.971896,-1406.391290,10955.047942
2687.703051,-1302.362347,-1702.473667,11325.150913
2687.703380,-2451.505594,-2368.659014,10436.903782
2687.703709,-2681.334243,-2516.700203,10955.047942
2687.704038,-1302.362347,-2442.679609,11621.233289
2687.704368,0.000000,-666.185348,9178.553681
2687.704697,1072.533697,888.247130,8290.306550
2687.705026,1838.629195,592.164754,8142.265362
2687.705355,3294.210641,1554.432478,7994.224174
2687.705684,3447.429741,2146.597232,7476.080014
2687.706013,2221.676944,1184.329507,6735.874072
2687.706342,1838.629195,-74.020594,8216.285956
2687.706672,3370.820191,1850.514855,7994.224174
2687.707001,1455.581446,1332.370696,7550.100608
2687.707330,-689.485948,-740.205942,8956.491898
2687.707659,-1608.800546,-2368.659014,10584.944971
2687.707988,-1915.238745,-2516.700203,11177.109724
2687.708317,-2911.162892,-3034.844362,10510.924376
2687.708646,-3524.039291,-2886.803174,11103.089130
2687.708976,-2298.286494,-3256.906145,11103.089130
2687.709305,-1225.752797,-296.082377,9474.636058
2687.709634,536.266849,962.267725,8512.368333
2687.709963,1762.019645,-0.000000,7994.224174
2687.710292,3064.381992,1702.473667,7476.080014
2687.710621,3830.477490,1702.473667,7846.182985
2687.710950,2374.896044,1332.370696,6291.750507
2687.711280,2221.676944,-0.000000,8808.450710
2687.711609,2528.115143,1628.453072,8364.327145
2687.711938,1991.848295,2368.659014,7550.100608
2687.712267,229.828649,2146.597232,7772.162391
2687.712596,-612.876398,-1406.391290,9548.656652
2687.712925,-1225.752797,-2072.576638,11103.089130
2687.713254,-1915.238745,-2368.659014,11103.089130
2687.713584,-2604.724693,-4071.132681,11547.212695
2687.713913,-2681.334243,-3923.091493,11621.233289
2687.714242,-1225.752797,-1406.391290,10881.027347
2687.714571,0.000000,370.102971,8660.409521
2687.714900,842.705048,370.102971,9030.512492
2687.715229,2911.162892,888.247130,8290.306550
2687.715559,3907.087040,2368.659014,7772.162391
2687.715888,2298.286494,1184.329507,7920.203579
2687.716217,2528.115143,592.164754,7328.038826
2687.716546,2604.724693,1480.411884,8808.450710
2687.716875,2068.457845,2664.741391,7179.997637
2687.717204,919.314598,1628.453072,7328.038826
2687.717533,995.924147,814.226536,8734.430116
2687.717863,1149.143247,-1184.329507,9104.533087
2687.718192,-536.266849,-2368.659014,10881.027347
2687.718521,-2528.115143,-2590.720797,10510.924376
2687.718850,-2681.334243,-3256.906145,11917.315666
2687.719179,-2221.676944,-2960.823768,11769.274478
2687.719508,-2221.676944,296.082377,9104.533087
2687.719837,-306.438199,-740.205942,9178.553681
2687.720167,229.828649,222.061783,9178.553681
2687.720496,1991.848295,296.082377,8512.368333
2687.720825,2987.772442,666.185348,7772.162391
2687.721154,2451.505594,-74.020594,7550.100608
2687.721483,2298.286494,370.102971,8068.244768
2687.721812,1762.019645,2220.617826,6735.874072
2687.722141,919.314598,1406.391290,8142.265362
2687.722471,229.828649,-444.123565,7994.224174
2687.722800,229.828649,-518.144159,9844.739029
2687.723129,-689.485948,-1480.411884,9400.615463
2687.723458,-2451.505594,-2146.597232,9770.718434
2687.723787,-2757.943793,-2664.741391,11547.212695
2687.724116,-1838.629195,-2368.659014,10658.965565
2687.724445,-1225.752797,-74.020594,8808.450710
2687.724775,0.000000,-0.000000,9030.512492
2687.725104,919.314598,-370.102971,8882.471304
2687.725433,2374.896044,1258.350101,8512.368333
2687.725762,2757.943793,1850.514855,7550.100608
2687.726091,1991.848295,-0.000000,7328.038826
2687.726420,2068.457845,740.205942,9030.512492
2687.726749,2451.505594,2294.638420,7179.997637
2687.727079,1685.410096,1924.535449,7402.059420
2687.727408,0.000000,888.247130,8956.491898
2687.727737,383.047749,-666.185348,10140.821405
2687.728066,-383.047749,-814.226536,10362.883188
2687.728395,-1991.848295,-1110.308913,9992.780217
2687.728724,-2451.505594,-2442.679609,10881.027347
2687.729053,-2145.067394,-1628.453072,10955.047942
2687.729383,-612.876398,592.164754,9252.574275
2687.729712,-383.047749,1406.391290,8438.347739
2687.730041,76.609550,-592.164754,9178.553681
2687.730370,1532.190996,592.164754,8660.409521
2687.730699,2298.286494,666.185348,8364.327145
2687.731028,1302.362347,-148.041188,8364.327145
2687.731357,1149.143247,-888.247130,8808.450710
2687.731687,1532.190996,-148.041188,9252.574275
2687.732016,995.924147,592.164754,8586.388927
2687.732345,0.000000,-222.061783,8882.471304
2687.732674,-229.828649,-740.205942,9474.636058
2687.733003,-229.828649,-518.144159,9770.718434
2687.733332,-842.705048,-222.061783,9844.739029
2687.733662,-1685.410096,-1776.494261,10066.800811
2687.733991,-1532.190996,-1924.535449,10362.883188
2687.734320,0.000000,-666.185348,9844.739029
2687.734649,0.000000,592.164754,8290.306550
2687.734978,76.609550,-370.102971,8808.450710
2687.735307,1838.629195,-0.000000,8734.430116
2687.735636,1915.238745,740.205942,7698.141797
2687.735966,1149.143247,370.102971,9104.533087
2687.736295,1302.362347,-370.102971,9178.553681
2687.736624,1225.752797,888.247130,8586.388927
2687.736953,1149.143247,1332.370696,8068.244768
2687.737282,306.438199,-0.000000,8216.285956
2687.737611,0.000000,-592.164754,10140.821405
2687.737940,689.485948,-0.000000,9474.636058
2687.738270,-76.609550,222.061783,8808.450710
2687.738599,-1455.581446,-296.082377,9918.759623
2687.738928,0.000000,-1480.411884,9844.739029
2687.739257,153.219100,-0.000000,9178.553681
2687.739586,0.000000,666.185348,7772.162391
2687.739915,689.485948,-370.102971,7772.162391
2687.740244,919.314598,-444.123565,9104.533087
2687.740574,2068.457845,296.082377,8216.285956
2687.740903,1378.971896,222.061783,7550.100608
2687.741232,842.705048,-814.226536,9104.533087
2687.741561,1685.410096,148.041188,8882.471304
2687.741890,1378.971896,814.226536,8808.450710
2687.742219,76.609550,296.082377,9178.553681
2687.742548,459.657299,-1184.329507,9474.636058
2687.742878,536.266849,-370.102971,9622.677246
2687.743207,0.000000,-1036.288319,9918.759623
2687.743536,-1302.362347,-1184.329507,9992.780217
2687.743865,-995.924147,-1998.556043,10584.944971
2687.744194,76.609550,-592.164754,9326.594869
2687.744523,306.438199,962.267725,8216.285956
2687.744852,0.000000,-148.041188,9400.615463
2687.745182,612.876398,-296.082377,9178.553681
2687.745511,1225.752797,296.082377,9104.533087
2687.745840,689.485948,444.123565,7994.224174
2687.746169,153.219100,-1776.494261,9030.512492
2687.746498,612.876398,-518.144159,10584.944971
2687.746827,1149.143247,-222.061783,8660.409521
2687.747156,0.000000,-148.041188,8290.306550
2687.747486,-612.876398,-74.020594,9104.533087
2687.747815,306.438199,-296.082377,10140.821405
2687.748144,-229.828649,-0.000000,9326.594869
2687.748473,-1225.752797,-0.000000,8734.430116
2687.748802,-383.047749,-1036.288319,9770.718434
2687.749131,-459.657299,-148.041188,8956.491898
2687.749460,0.000000,592.164754,8808.450710
2687.749790,0.000000,-1036.288319,8808.450710
2687.750119,0.000000,-592.164754,8512.368333
2687.750448,1149.143247,-370.102971,9400.615463
2687.750777,995.924147,888.247130,7994.224174
2687.751106,0.000000,444.123565,8808.450710
2687.751435,459.657299,-0.000000,9252.574275
2687.751765,1225.752797,518.144159,8586.388927
2687.752094,0.000000,1924.535449,8512.368333
2687.752423,-306.438199,-0.000000,9178.553681
2687.752752,459.657299,-0.000000,9548.656652
2687.753081,153.219100,1184.329507,9696.697840
2687.753410,0.000000,-74.020594,9622.677246
2687.753739,0.000000,-1554.432478,9844.739029
2687.754068,919.314598,-0.000000,9474.636058
2687.754397,1149.143247,888.247130,7772.162391
2687.754727,306.438199,1850.514855,7920.203579
2687.755056,536.266849,444.123565,8956.491898
2687.755385,1455.581446,296.082377,8734.430116
2687.755714,919.314598,1110.308913,8512.368333
2687.756043,306.438199,-1628.453072,9622.677246
2687.756372,306.438199,-1924.535449,10140.821405
2687.756701,306.438199,-1406.391290,9770.718434
2687.757030,229.828649,-592.164754,9030.512492
2687.757360,-689.485948,-1036.288319,9104.533087
2687.757689,-306.438199,-962.267725,10288.862594
2687.758018,612.876398,592.164754,9548.656652
2687.758347,536.266849,888.247130,8364.327145
2687.758676,-919.314598,-148.041188,8956.491898
2687.759005,842.705048,-370.102971,9326.594869
2687.759334,995.924147,740.205942,8438.347739
2687.759663,766.095498,-0.000000,8216.285956
2687.759992,612.876398,-1628.453072,8512.368333
2687.760322,766.095498,-1406.391290,9326.594869
2687.760651,689.485948,518.144159,8290.306550
2687.760980,-153.219100,-592.164754,8512.368333
2687.761309,-612.876398,-1702.473667,9696.697840
2687.761638,229.828649,-962.267725,9400.615463
2687.761967,0.000000,222.061783,8068.244768
2687.762296,-536.266849,-1036.288319,9178.553681
2687.762625,0.000000,-740.205942,9696.697840
2687.762955,766.095498,-296.082377,9474.636058
2687.763284,-383.047749,444.123565,8660.409521
2687.763613,536.266849,-0.000000,9104.533087
2687.763942,1225.752797,-74.020594,9918.759623
2687.764271,1685.410096,1998.556043,8290.306550
2687.764600,1149.143247,2368.659014,7328.038826
2687.764929,995.924147,-222.061783,8438.347739
2687.765258,1302.362347,-666.185348,9326.594869
2687.765588,1991.848295,74.020594,9030.512492
2687.765917,306.438199,-222.061783,8438.347739
2687.766246,229.828649,-814.226536,9696.697840
2687.766575,536.266849,-888.247130,10436.903782
2687.766904,153.219100,-0.000000,9474.636058
2687.767233,-229.828649,-592.164754,9844.739029
2687.767562,-459.657299,-222.061783,10288.862594
2687.767891,536.266849,-74.020594,9992.780217
2687.768220,229.828649,444.123565,9030.512492
2687.768550,0.000000,-1776.494261,9548.656652
2687.768879,536.266849,-888.247130,9696.697840
2687.769208,1225.752797,-592.164754,8438.347739
2687.769537,919.314598,222.061783,7550.100608
2687.769866,229.828649,-370.102971,8290.306550
2687.770195,995.924147,-444.123565,9104.533087
2687.770524,459.657299,296.082377,8512.368333
2687.770853,-306.438199,-444.123565,7994.224174
2687.771183,-842.705048,-1998.556043,8882.471304
2687.771512,-306.438199,-1332.370696,9474.636058
2687.771841,-383.047749,-1332.370696,9696.697840
2687.772170,-1455.581446,-2220.617826,9622.677246
2687.772499,-995.924147,-1776.494261,9622.677246
2687.772828,0.000000,-814.226536,9548.656652
2687.773157,0.000000,1110.308913,9326.594869
2687.773486,-612.876398,444.123565,8216.285956
2687.773815,153.219100,-0.000000,9252.574275
2687.774145,2068.457845,1480.411884,8660.409521
2687.774474,1915.238745,1258.350101,7031.956449
2687.774803,1072.533697,-74.020594,7698.141797
2687.775132,1685.410096,-518.144159,8512.368333
2687.775461,1685.410096,-0.000000,8956.491898
2687.775790,1149.143247,962.267725,7698.141797
2687.776119,306.438199,-222.061783,8438.347739
2687.776448,229.828649,-444.123565,10807.006753
2687.776778,689.485948,296.082377,9696.697840
2687.777107,0.000000,-296.082377,9030.512492
2687.777436,-689.485948,-222.061783,9696.697840
2687.777765,0.000000,296.082377,10881.027347
2687.778094,383.047749,666.185348,9918.759623
2687.778423,-459.657299,666.185348,9104.533087
2687.778752,689.485948,-666.185348,10288.862594
2687.779081,1685.410096,148.041188,9104.533087
2687.779410,1838.629195,1184.329507,7772.162391
2687.779740,1378.971896,962.267725,8142.265362
2687.780069,1302.362347,222.061783,8660.409521
2687.780398,1455.581446,888.247130,8512.368333
2687.780727,1149.143247,296.082377,8364.327145
2687.781056,0.000000,-444.123565,9474.636058
2687.781385,0.000000,-1036.288319,9622.677246
2687.781714,383.047749,-592.164754,9992.780217
2687.782043,-689.485948,-222.061783,9326.594869
2687.782373,-1762.019645,-962.267725,9474.636058
2687.782702,-1072.533697,-814.226536,11029.068536
2687.783031,-612.876398,-0.000000,9844.739029
2687.783360,-229.828649,-0.000000,8734.430116
2687.783689,-229.828649,-740.205942,9400.615463
2687.784018,766.095498,-296.082377,9548.656652
2687.784347,1378.971896,962.267725,8216.285956
2687.784676,1149.143247,740.205942,7105.977043
2687.785006,689.485948,-0.000000,7994.224174
2687.785335,1532.190996,592.164754,8956.491898
2687.785664,1762.019645,1554.432478,6957.935855
2687.785993,76.609550,-222.061783,8512.368333
2687.786322,-459.657299,-518.144159,9326.594869
2687.786651,459.657299,-1110.308913,9770.718434
2687.786980,-383.047749,-814.226536,9474.636058
2687.787309,-995.924147,-1110.308913,9548.656652
2687.787638,-689.485948,-518.144159,10584.944971
2687.787968,0.000000,-0.000000,10140.821405
2687.788297,0.000000,444.123565,9400.615463
2687.788626,459.657299,-74.020594,9474.636058
2687.788955,2298.286494,222.061783,9400.615463
2687.789284,2681.334243,1554.432478,8586.388927
2687.789613,2528.115143,1628.453072,7698.141797
2687.789942,1762.019645,518.144159,7920.203579
2687.790271,2221.676944,444.123565,8882.471304
2687.790601,2451.505594,1110.308913,8290.306550
2687.790930,1225.752797,296.082377,7846.182985
2687.791259,536.266849,-888.247130,9104.533087
2687.791588,0.000000,-518.144159,10140.821405
2687.791917,-383.047749,-1554.432478,10066.800811
2687.792246,-1991.848295,-1628.453072,9474.636058
2687.792575,-2068.457845,-1924.535449,10658.965565
2687.792904,-919.314598,-1406.391290,10584.944971
2687.793233,-1532.190996,-296.082377,9696.697840
2687.793563,-306.438199,-1554.432478,9474.636058
2687.793892,689.485948,-1776.494261,9178.553681
2687.794221,1991.848295,-0.000000,8808.450710
2687.794550,1991.848295,962.267725,6957.935855
2687.794879,1378.971896,296.082377,7105.977043
2687.795208,1915.238745,-0.000000,8364.327145
2687.795537,2298.286494,1258.350101,7254.018232
2687.795866,919.314598,888.247130,7105.977043
2687.796196,0.000000,-1332.370696,8586.388927
2687.796525,0.000000,-2072.576638,9696.697840
2687.796854,-995.924147,-1036.288319,9548.656652
