#time,accel_x,accel_y,accel_z
2702.712010,306.438199,-222.061783,9252.574275
2702.712339,229.828649,-148.041188,9104.533087
2702.712668,459.657299,-222.061783,9400.615463
2702.712997,-536.266849,-0.000000,9326.594869
2702.713326,842.705048,-444.123565,9104.533087
2702.713655,536.266849,-0.000000,9326.594869
2702.713985,229.828649,-148.041188,9178.553681
2702.714314,383.047749,-0.000000,8956.491898
2702.714643,229.828649,-0.000000,9104.533087
2702.714972,306.438199,-222.061783,9326.594869
2702.715301,766.095498,-0.000000,8956.491898
2702.715630,0.000000,-0.000000,8956.491898
2702.715960,306.438199,-0.000000,9030.512492
2702.716289,229.828649,-0.000000,9178.553681
2702.716618,229.828649,-0.000000,8808.450710
2702.716947,76.609550,-0.000000,8808.450710
2702.717276,153.219100,-222.061783,9104.533087
2702.717605,689.485948,-296.082377,9030.512492
2702.717935,153.219100,-296.082377,8808.450710
2702.718264,612.876398,-222.061783,9030.512492
2702.718593,383.047749,-222.061783,8956.491898
2702.718922,383.047749,-0.000000,9030.512492
2702.719251,229.828649,-148.041188,9030.512492
2702.719580,0.000000,-222.061783,9104.533087
2702.719910,1072.533697,-370.102971,9252.574275
2702.720239,689.485948,-740.205942,9252.574275
2702.720568,76.609550,-0.000000,9400.615463
2702.720897,229.828649,-370.102971,9326.594869
2702.721226,153.219100,-222.061783,9104.533087
2702.721555,153.219100,-0.000000,9030.512492
2702.721884,459.657299,-222.061783,9178.553681
2702.722214,383.047749,444.123565,9252.574275
2702.722543,536.266849,-296.082377,9326.594869
2702.722872,383.047749,-296.082377,9104.533087
2702.723201,536.266849,-0.000000,9400.615463
2702.723530,229.828649,-74.020594,9252.574275
2702.723859,383.047749,-148.041188,9178.553681
2702.724189,612.876398,-222.061783,9178.553681
2702.724518,459.657299,-518.144159,9104.533087
2702.724847,383.047749,-74.020594,9104.533087
2702.725176,0.000000,-0.000000,9178.553681
2702.725505,229.828649,-0.000000,8956.491898
2702.725834,383.047749,-74.020594,8882.471304
2702.726164,229.828649,-0.000000,9104.533087
2702.726493,459.657299,-222.061783,8882.471304
2702.726822,459.657299,-0.000000,9030.512492
2702.727151,536.266849,-518.144159,9104.533087
2702.727480,153.219100,-0.000000,9252.574275
2702.727809,229.828649,-74.020594,8882.471304
2702.728139,76.609550,-0.000000,8660.409521
2702.728468,76.609550,-0.000000,9178.553681
2702.728797,0.000000,-0.000000,9104.533087
2702.729126,1302.362347,-74.020594,9030.512492
2702.729455,536.266849,-444.123565,9104.533087
2702.729784,383.047749,-444.123565,9030.512492
2702.730114,229.828649,-74.020594,8882.471304
2702.730443,229.828649,-296.082377,8882.471304
2702.730772,229.828649,-148.041188,9104.533087
2702.731101,306.438199,-222.061783,9400.615463
2702.731430,383.047749,-74.020594,9178.553681
2702.731759,689.485948,-518.144159,9326.594869
2702.732088,383.047749,-296.082377,9252.574275
2702.732418,229.828649,-74.020594,9178.553681
2702.732747,459.657299,-0.000000,9252.574275
2702.733076,383.047749,-148.041188,9252.574275
2702.733405,612.876398,-148.041188,9104.533087
2702.733734,612.876398,-222.061783,9104.533087
2702.734063,612.876398,-296.082377,9326.594869
2702.734393,306.438199,-370.102971,9326.594869
2702.734722,229.828649,-148.041188,9178.553681
2702.735051,229.828649,-148.041188,9178.553681
2702.735380,229.828649,-0.000000,9252.574275
2702.735709,-76.609550,-148.041188,8808.450710
2702.736038,689.485948,-148.041188,9400.615463
2702.736368,306.438199,-296.082377,9104.533087
2702.736697,383.047749,-0.000000,8882.471304
2702.737026,306.438199,-0.000000,9030.512492
2702.737355,153.219100,-74.020594,8956.491898
2702.737684,229.828649,-0.000000,8808.450710
2702.738013,383.047749,-148.041188,8882.471304
2702.738343,306.438199,296.082377,8808.450710
2702.738672,536.266849,-0.000000,9178.553681
2702.739001,306.438199,-148.041188,9030.512492
2702.739330,229.828649,-0.000000,8808.450710
2702.739659,76.609550,-222.061783,8808.450710
2702.739988,383.047749,-0.000000,8956.491898
2702.740318,306.438199,-0.000000,9030.512492
2702.740647,0.000000,-296.082377,8808.450710
2702.740976,306.438199,-0.000000,9178.553681
2702.741305,459.657299,-148.041188,9178.553681
2702.741634,306.438199,-0.000000,9104.533087
2702.741963,153.219100,-74.020594,8956.491898
2702.742292,383.047749,-444.123565,9696.697840
2702.742622,1455.581446,-1036.288319,9770.718434
2702.742951,1302.362347,-888.247130,9548.656652
2702.743280,1685.410096,-666.185348,9622.677246
2702.743609,2145.067394,-814.226536,9178.553681
2702.743938,2528.115143,148.041188,8882.471304
2702.744267,3370.820191,148.041188,9252.574275
2702.744597,4290.134789,-296.082377,8882.471304
2702.744926,3447.429741,-0.000000,8142.265362
2702.745255,2911.162892,296.082377,8364.327145
2702.745584,3140.991542,-0.000000,8586.388927
2702.745913,3140.991542,-296.082377,9696.697840
2702.746242,2681.334243,-592.164754,8956.491898
2702.746572,1455.581446,-666.185348,9696.697840
2702.746901,2068.457845,-1776.494261,9992.780217
2702.747230,3064.381992,-1258.350101,9474.636058
2702.747559,2374.896044,222.061783,9622.677246
2702.747888,2604.724693,-1480.411884,10362.883188
2702.748217,3217.601092,-222.061783,8586.388927
2702.748547,4213.525239,814.226536,9474.636058
2702.748876,5286.058936,740.205942,7476.080014
2702.749205,4443.353888,1036.288319,8290.306550
2702.749534,4673.182538,740.205942,9178.553681
2702.749863,4136.915689,888.247130,7105.977043
2702.750192,4290.134789,666.185348,8808.450710
2702.750522,3830.477490,-0.000000,8734.430116
2702.750851,2911.162892,148.041188,8660.409521
2702.751180,1838.629195,-666.185348,9400.615463
2702.751509,1455.581446,-888.247130,9178.553681
2702.751838,2298.286494,-1332.370696,9844.739029
2702.752167,612.876398,-1184.329507,9622.677246
2702.752496,1915.238745,-222.061783,9696.697840
2702.752826,1225.752797,-518.144159,10288.862594
2702.753155,2757.943793,444.123565,7772.162391
2702.753484,3294.210641,-74.020594,9622.677246
2702.753813,3907.087040,1184.329507,8882.471304
2702.754142,4366.744339,370.102971,8216.285956
2702.754471,4596.572988,962.267725,8586.388927
2702.754801,3600.648841,222.061783,9178.553681
2702.755130,3677.258390,-0.000000,8956.491898
2702.755459,3140.991542,-888.247130,9474.636058
2702.755788,2911.162892,-1184.329507,9548.656652
2702.756117,2528.115143,-1406.391290,10288.862594
2702.756446,2298.286494,-2146.597232,10214.842000
2702.756776,2145.067394,-1850.514855,10436.903782
2702.757105,2681.334243,-814.226536,9918.759623
2702.757434,3370.820191,-0.000000,9844.739029
2702.757763,3294.210641,666.185348,8512.368333
2702.758092,3983.696590,1406.391290,8808.450710
2702.758421,4136.915689,2368.659014,8216.285956
2702.758751,4826.401637,2368.659014,7476.080014
2702.759080,4366.744339,2294.638420,7920.203579
2702.759409,3830.477490,1924.535449,8290.306550
2702.759738,3753.867940,740.205942,7994.224174
2702.760067,3294.210641,-370.102971,8808.450710
2702.760396,2987.772442,-1628.453072,9696.697840
2702.760726,2374.896044,-2368.659014,10288.862594
2702.761055,1838.629195,-2960.823768,10658.965565
2702.761384,2681.334243,-2738.761985,10658.965565
2702.761713,3677.258390,-2146.597232,10214.842000
2702.762042,4136.915689,-296.082377,9918.759623
2702.762371,4903.011187,592.164754,9400.615463
2702.762700,5515.887586,1998.556043,8290.306550
2702.763030,4979.620737,2442.679609,7920.203579
2702.763359,4596.572988,2960.823768,8142.265362
2702.763688,3983.696590,3108.864956,6661.853478
2702.764017,4213.525239,2368.659014,6735.874072
2702.764346,3140.991542,1110.308913,7402.059420
2702.764675,1532.190996,-1258.350101,9326.594869
2702.765005,0.000000,-3997.112087,10584.944971
2702.765334,-1149.143247,-3701.029710,11029.068536
2702.765663,-459.657299,-5625.565159,12509.480420
2702.765992,-766.095498,-2738.761985,10584.944971
2702.766321,-153.219100,-1628.453072,10881.027347
2702.766650,1302.362347,-740.205942,10066.800811
2702.766980,3447.429741,666.185348,10214.842000
2702.767309,6205.373534,1702.473667,8512.368333
2702.767638,7584.345430,1776.494261,8290.306550
2702.767967,6052.154434,444.123565,8290.306550
2702.768296,6358.592633,1258.350101,7179.997637
2702.768625,6358.592633,2146.597232,7105.977043
2702.768955,5439.278036,1776.494261,6587.832884
2702.769284,4749.792088,2960.823768,5847.626942
2702.769613,4903.011187,2072.576638,6735.874072
2702.769942,4673.182538,1628.453072,6291.750507
2702.770271,3140.991542,-2220.617826,9400.615463
2702.770600,-536.266849,-7254.018232,12953.603985
2702.770930,-1149.143247,-4515.256246,11177.109724
2702.771259,-1608.800546,-5329.482782,13693.809927
2702.771588,-1225.752797,-5551.544565,12509.480420
2702.771917,-536.266849,-0.000000,11103.089130
2702.772246,2451.505594,-0.000000,11695.253884
2702.772575,4213.525239,2220.617826,9474.636058
2702.772904,6971.469032,1628.453072,9400.615463
2702.773234,7354.516781,1702.473667,9252.574275
2702.773563,7354.516781,3775.050304,7328.038826
2702.773892,7890.783629,4367.215058,5329.482782
2702.774221,8197.221829,1702.473667,5255.462188
2702.774550,8197.221829,2368.659014,4515.256246
2702.774879,7431.126331,1702.473667,5699.585753
2702.775209,5439.278036,518.144159,6661.853478
2702.775538,3677.258390,1628.453072,6143.709319
2702.775867,4213.525239,-1036.288319,9474.636058
2702.776196,-995.924147,-4441.235652,13619.789333
2702.776525,-2987.772442,-5181.441594,13471.748144
2702.776854,-2451.505594,-1332.370696,13397.727550
2702.777184,-1225.752797,-7328.038826,13175.665768
2702.777513,-1608.800546,2072.576638,11103.089130
2702.777842,2068.457845,-814.226536,12583.501014
2702.778171,0.000000,1776.494261,10436.903782
2702.778500,3524.039291,-222.061783,13841.851115
2702.778829,7814.174080,888.247130,5625.565159
2702.779159,9269.755526,1554.432478,8586.388927
2702.779488,6281.983084,1184.329507,6291.750507
2702.779817,7507.735880,1628.453072,4367.215058
2702.780146,5975.544884,-0.000000,9030.512492
2702.780475,5286.058936,1184.329507,5033.400406
2702.780804,5132.839837,2442.679609,7254.018232
2702.781134,2911.162892,2072.576638,7624.121203
2702.781463,2757.943793,1480.411884,7031.956449
2702.781792,3370.820191,444.123565,9548.656652
2702.782121,1838.629195,-2220.617826,11251.130318
2702.782450,76.609550,-1110.308913,11843.295072
2702.782779,-153.219100,-3849.070898,13027.624579
2702.783108,-536.266849,-3478.967927,11103.089130
2702.783438,0.000000,222.061783,10214.842000
2702.783767,1838.629195,666.185348,10584.944971
2702.784096,1838.629195,592.164754,8808.450710
2702.784425,2911.162892,444.123565,8734.430116
2702.784754,3753.867940,962.267725,8364.327145
2702.785083,4060.306139,2146.597232,7254.018232
2702.785413,3677.258390,296.082377,7179.997637
2702.785742,3983.696590,-1332.370696,7328.038826
2702.786071,3447.429741,-1924.535449,8512.368333
2702.786400,2834.553343,-2516.700203,10362.883188
2702.786729,2681.334243,-1406.391290,9696.697840
2702.787058,2451.505594,-444.123565,9548.656652
2702.787388,3447.429741,666.185348,10214.842000
2702.787717,3064.381992,1110.308913,8882.471304
2702.788046,3370.820191,814.226536,9992.780217
2702.788375,4213.525239,1184.329507,9326.594869
2702.788704,5822.325785,1036.288319,8586.388927
2702.789033,4749.792088,814.226536,8882.471304
2702.789362,4290.134789,370.102971,8364.327145
2702.789691,3983.696590,-370.102971,8364.327145
2702.790020,3447.429741,-592.164754,8290.306550
2702.790350,2834.553343,-444.123565,8438.347739
2702.790679,1608.800546,-888.247130,9474.636058
2702.791008,306.438199,-1776.494261,10510.924376
2702.791337,459.657299,-1850.514855,9992.780217
2702.791666,1762.019645,-1924.535449,9770.718434
2702.791995,1225.752797,-1258.350101,9844.739029
2702.792324,1149.143247,-888.247130,10955.047942
2702.792653,2528.115143,-296.082377,10362.883188
2702.792982,4443.353888,1184.329507,8956.491898
2702.793311,6741.640382,1480.411884,8734.430116
2702.793640,6741.640382,2294.638420,8586.388927
2702.793970,4903.011187,1480.411884,8512.368333
2702.794299,4290.134789,1702.473667,7624.121203
2702.794628,6128.763984,1184.329507,6883.915261
2702.794957,6052.154434,148.041188,7920.203579
2702.795286,4903.011187,1258.350101,7698.141797
2702.795615,4213.525239,-0.000000,8808.450710
2702.795944,2987.772442,-888.247130,9918.759623
2702.796273,2298.286494,-3256.906145,9030.512492
2702.796602,0.000000,-814.226536,11843.295072
2702.796931,229.828649,-2368.659014,11547.212695
2702.797261,76.609550,-222.061783,8290.306550
2702.797590,2451.505594,-296.082377,9474.636058
2702.797919,3064.381992,-962.267725,9844.739029
2702.798248,4596.572988,518.144159,9400.615463
2702.798577,5132.839837,1036.288319,7994.224174
2702.798906,4596.572988,2664.741391,6587.832884
2702.799235,3907.087040,1036.288319,8808.450710
2702.799564,4060.306139,1036.288319,7328.038826
2702.799893,2834.553343,1036.288319,7179.997637
2702.800222,1378.971896,-888.247130,8586.388927
2702.800551,229.828649,-1332.370696,8586.388927
2702.800881,-229.828649,-1554.432478,10362.883188
2702.801210,-1532.190996,-2442.679609,10140.821405
2702.801539,-2451.505594,-1406.391290,9696.697840
2702.801868,-2528.115143,-1702.473667,10288.862594
2702.802197,-1532.190996,-962.267725,9548.656652
2702.802526,-766.095498,-222.061783,10066.800811
2702.802855,-536.266849,-148.041188,9400.615463
2702.803184,0.000000,-888.247130,10807.006753
2702.803513,383.047749,-370.102971,9992.780217
2702.803842,689.485948,370.102971,8290.306550
2702.804172,2528.115143,888.247130,8364.327145
2702.804501,2911.162892,1258.350101,6883.915261
2702.804830,4366.744339,1628.453072,7328.038826
2702.805159,3140.991542,814.226536,8364.327145
2702.805488,2604.724693,-1036.288319,9030.512492
2702.805817,536.266849,370.102971,7328.038826
2702.806146,-459.657299,-518.144159,8364.327145
2702.806475,-1378.971896,-444.123565,9696.697840
2702.806804,-1072.533697,-1480.411884,9770.718434
2702.807133,-383.047749,-1184.329507,10807.006753
2702.807462,-536.266849,-1628.453072,9992.780217
2702.807792,-612.876398,-740.205942,9844.739029
2702.808121,-995.924147,-1258.350101,10214.842000
2702.808450,229.828649,-296.082377,9992.780217
2702.808779,766.095498,666.185348,9474.636058
2702.809108,2374.896044,1258.350101,8142.265362
2702.809437,2911.162892,1258.350101,7920.203579
2702.809766,3370.820191,1110.308913,8956.491898
2702.810095,2834.553343,1998.556043,7402.059420
2702.810424,2221.676944,-0.000000,6883.915261
2702.810753,459.657299,740.205942,8290.306550
2702.811083,-689.485948,370.102971,9400.615463
2702.811412,-1455.581446,-740.205942,8956.491898
2702.811741,-1378.971896,-1998.556043,10510.924376
2702.812070,-1532.190996,-2368.659014,10510.924376
2702.812399,-1302.362347,-2664.741391,10362.883188
2702.812728,-1455.581446,-1924.535449,10066.800811
2702.813057,-2145.067394,-1258.350101,9622.677246
2702.813386,-2068.457845,-888.247130,11177.109724
2702.813715,-689.485948,-592.164754,9104.533087
2702.814044,-229.828649,-296.082377,9696.697840
2702.814373,76.609550,-0.000000,10807.006753
2702.814703,0.000000,-888.247130,10658.965565
2702.815032,1378.971896,-74.020594,9918.759623
2702.815361,1762.019645,814.226536,7254.018232
2702.815690,2528.115143,1998.556043,8290.306550
2702.816019,2145.067394,1702.473667,5847.626942
2702.816348,3217.601092,2812.782580,7328.038826
2702.816677,2451.505594,-148.041188,8142.265362
2702.817006,2145.067394,444.123565,7846.182985
2702.817335,842.705048,-1702.473667,8290.306550
2702.817664,-536.266849,-1110.308913,9992.780217
2702.817994,-995.924147,-888.247130,10362.883188
2702.818323,-995.924147,-1184.329507,9696.697840
2702.818652,-842.705048,-2516.700203,9326.594869
2702.818981,0.000000,-370.102971,11177.109724
2702.819310,612.876398,-74.020594,10288.862594
2702.819639,612.876398,740.205942,8956.491898
2702.819968,842.705048,370.102971,8364.327145
2702.820297,229.828649,1110.308913,9030.512492
2702.820626,919.314598,1258.350101,8364.327145
2702.820955,1225.752797,-148.041188,7772.162391
2702.821285,689.485948,-74.020594,8586.388927
2702.821614,689.485948,-370.102971,9252.574275
2702.821943,383.047749,-1184.329507,8882.471304
2702.822272,-383.047749,-666.185348,9326.594869
2702.822601,-1762.019645,-518.144159,9770.718434
2702.822930,-919.314598,-814.226536,9474.636058
2702.823259,-995.924147,-0.000000,8956.491898
2702.823588,-153.219100,-148.041188,10288.862594
2702.823917,-383.047749,-0.000000,10510.924376
2702.824246,153.219100,-518.144159,9252.574275
2702.824575,383.047749,148.041188,8808.450710
2702.824905,0.000000,592.164754,8956.491898
2702.825234,0.000000,1258.350101,8142.265362
2702.825563,383.047749,518.144159,7994.224174
2702.825892,153.219100,592.164754,8734.430116
2702.826221,766.095498,-888.247130,9770.718434
2702.826550,0.000000,-1332.370696,9030.512492
2702.826879,229.828649,-888.247130,9474.636058
2702.827208,-536.266849,-0.000000,9918.759623
2702.827537,0.000000,-148.041188,9474.636058
2702.827866,536.266849,-0.000000,8660.409521
2702.828196,1915.238745,592.164754,9400.615463
2702.828525,2604.724693,-0.000000,8956.491898
2702.828854,3217.601092,592.164754,7550.100608
2702.829183,2451.505594,962.267725,7698.141797
2702.829512,1532.190996,1554.432478,8882.471304
2702.829841,1072.533697,888.247130,8364.327145
2702.830170,536.266849,296.082377,7920.203579
2702.830499,0.000000,-296.082377,8734.430116
2702.830828,-842.705048,-1036.288319,9992.780217
2702.831157,-689.485948,-2220.617826,9696.697840
2702.831486,-995.924147,-2072.576638,9992.780217
2702.831816,-1378.971896,-1184.329507,10362.883188
2702.832145,-766.095498,-518.144159,9474.636058
2702.832474,-306.438199,-222.061783,9696.697840
2702.832803,-229.828649,-518.144159,9992.780217
2702.833132,842.705048,-74.020594,9696.697840
2702.833461,2221.676944,148.041188,8512.368333
2702.833790,1915.238745,370.102971,9030.512492
2702.834119,842.705048,1480.411884,8438.347739
2702.834448,153.219100,1850.514855,7846.182985
2702.834777,0.000000,222.061783,8586.388927
2702.835107,76.609550,-1036.288319,8956.491898
2702.835436,-459.657299,-740.205942,10214.842000
2702.835765,-536.266849,-2738.761985,10066.800811
2702.836094,-1378.971896,-2442.679609,8734.430116
2702.836423,-995.924147,-1110.308913,9474.636058
2702.836752,-919.314598,-370.102971,9326.594869
2702.837081,-153.219100,-962.267725,9326.594869
2702.837410,-153.219100,-296.082377,9474.636058
2702.837739,536.266849,-0.000000,9770.718434
2702.838068,1685.410096,-592.164754,9844.739029
2702.838397,2145.067394,444.123565,8290.306550
2702.838727,1608.800546,1036.288319,8216.285956
2702.839056,1762.019645,1702.473667,8364.327145
2702.839385,2068.457845,1406.391290,7624.121203
2702.839714,1915.238745,-0.000000,7846.182985
2702.840043,995.924147,-296.082377,8586.388927
2702.840372,842.705048,-1258.350101,8512.368333
2702.840701,612.876398,-1554.432478,9178.553681
2702.841030,-766.095498,-1702.473667,9400.615463
2702.841359,0.000000,-740.205942,10066.800811
2702.841688,459.657299,-666.185348,8734.430116
2702.842018,0.000000,-1110.308913,8438.347739
2702.842347,229.828649,-888.247130,10807.006753
2702.842676,153.219100,-0.000000,9622.677246
2702.843005,229.828649,-370.102971,8956.491898
2702.843334,306.438199,-592.164754,9474.636058
2702.843663,-459.657299,1628.453072,8808.450710
2702.843992,153.219100,148.041188,8808.450710
2702.844321,919.314598,888.247130,8586.388927
2702.844650,459.657299,-0.000000,9178.553681
2702.844979,919.314598,-888.247130,9030.512492
2702.845308,0.000000,-1258.350101,9326.594869
2702.845638,-383.047749,-666.185348,9548.656652
2702.845967,76.609550,-370.102971,9696.697840
2702.846296,229.828649,-0.000000,8438.347739
2702.846625,383.047749,-0.000000,8734.430116
2702.846954,919.314598,666.185348,9918.759623
2702.847283,1532.190996,222.061783,8882.471304
2702.847612,1149.143247,-148.041188,8438.347739
2702.847941,459.657299,962.267725,8734.430116
2702.848270,-612.876398,518.144159,8882.471304
2702.848599,-536.266849,222.061783,9326.594869
2702.848929,-612.876398,-814.226536,9326.594869
2702.849258,-1072.533697,-666.185348,9622.677246
2702.849587,-306.438199,-1554.432478,9992.780217
2702.849916,-536.266849,-1406.391290,9400.615463
2702.850245,-383.047749,-1406.391290,9622.677246
2702.850574,0.000000,-0.000000,9474.636058
2702.850903,1685.410096,370.102971,8512.368333
2702.851232,2451.505594,592.164754,8290.306550
2702.851561,2528.115143,1554.432478,8512.368333
2702.851890,3140.991542,888.247130,8808.450710
2702.852219,3064.381992,592.164754,7772.162391
2702.852549,1378.971896,592.164754,7846.182985
2702.852878,689.485948,740.205942,9326.594869
2702.853207,0.000000,-222.061783,8438.347739
2702.853536,-1225.752797,-1258.350101,8660.409521
2702.853865,-1838.629195,-2368.659014,11177.109724
2702.854194,-1608.800546,-2664.741391,9844.739029
2702.854523,-1455.581446,-2072.576638,9252.574275
2702.854852,-1532.190996,-1332.370696,9474.636058
2702.855181,-1225.752797,222.061783,9474.636058
2702.855510,-459.657299,222.061783,9696.697840
2702.855840,0.000000,370.102971,9030.512492
2702.856169,0.000000,-0.000000,10584.944971
2702.856498,1378.971896,-0.000000,9992.780217
2702.856827,2145.067394,1110.308913,6661.853478
2702.857156,2068.457845,1850.514855,7698.141797
2702.857485,1149.143247,2146.597232,8290.306550
2702.857814,1608.800546,814.226536,8216.285956
2702.858143,153.219100,-0.000000,7994.224174
2702.858472,-153.219100,-666.185348,8956.491898
2702.858801,-1225.752797,-1924.535449,10584.944971
2702.859130,-1378.971896,-2590.720797,9696.697840
2702.859460,-2145.067394,-1184.329507,10288.862594
2702.859789,-1685.410096,-1480.411884,10436.903782
2702.860118,-995.924147,-666.185348,8660.409521
2702.860447,-459.657299,-0.000000,9326.594869
2702.860776,0.000000,-0.000000,9770.718434
2702.861105,459.657299,-666.185348,9992.780217
2702.861434,1072.533697,-1036.288319,9918.759623
2702.861763,1455.581446,1184.329507,7994.224174
2702.862092,1532.190996,2294.638420,7994.224174
2702.862421,1991.848295,2146.597232,6217.729913
2702.862751,2298.286494,962.267725,6143.709319
2702.863080,1225.752797,-888.247130,10288.862594
2702.863409,1762.019645,-1332.370696,7698.141797
2702.863738,842.705048,-1702.473667,8882.471304
2702.864067,-689.485948,-3552.988522,9474.636058
2702.864396,-459.657299,-592.164754,10732.986159
2702.864725,-536.266849,-962.267725,11843.295072
2702.865054,-383.047749,-1258.350101,8364.327145
2702.865383,1225.752797,-296.082377,10140.821405
2702.865712,1991.848295,-0.000000,9104.533087
2702.866041,3447.429741,1554.432478,8216.285956
2702.866371,2451.505594,148.041188,8216.285956
2702.866700,1302.362347,2368.659014,7624.121203
2702.867029,1225.752797,2442.679609,8512.368333
2702.867358,612.876398,740.205942,7105.977043
2702.867687,-306.438199,-666.185348,8142.265362
2702.868016,-919.314598,-1776.494261,10288.862594
2702.868345,-1149.143247,-2590.720797,10436.903782
2702.868674,-2528.115143,-2664.741391,9474.636058
2702.869003,-1685.410096,-1332.370696,10584.944971
2702.869332,-1608.800546,-0.000000,9474.636058
2702.869662,-842.705048,-740.205942,9696.697840
2702.869991,-1302.362347,-0.000000,9696.697840
2702.870320,-229.828649,-148.041188,10807.006753
2702.870649,-306.438199,-444.123565,9178.553681
2702.870978,459.657299,814.226536,9770.718434
2702.871307,229.828649,666.185348,9474.636058
2702.871636,536.266849,1554.432478,7772.162391
2702.871965,1838.629195,1776.494261,7624.121203
2702.872294,1378.971896,1406.391290,6587.832884
2702.872623,1532.190996,296.082377,8734.430116
2702.872952,536.266849,-222.061783,8512.368333
2702.873282,-153.219100,-1628.453072,8956.491898
2702.873611,-919.314598,-1406.391290,9992.780217
2702.873940,-919.314598,-1554.432478,10584.944971
2702.874269,-536.266849,-1480.411884,9178.553681
2702.874598,0.000000,-592.164754,9918.759623
2702.874927,1455.581446,-370.102971,10510.924376
2702.875256,1915.238745,592.164754,8956.491898
2702.875585,3217.601092,962.267725,8586.388927
2702.875914,2528.115143,1776.494261,8142.265362
2702.876243,1915.238745,1776.494261,9326.594869
2702.876573,2145.067394,1998.556043,7624.121203
2702.876902,1455.581446,444.123565,8216.285956
2702.877231,0.000000,-814.226536,9918.759623
2702.877560,-536.266849,-1998.556043,9992.780217
2702.877889,-1302.362347,-3627.009116,10140.821405
2702.878218,-459.657299,-2812.782580,10658.965565
2702.878547,-383.047749,-1554.432478,9844.739029
2702.878876,-459.657299,-1332.370696,9992.780217
2702.879205,536.266849,-518.144159,9548.656652
2702.879534,1455.581446,1998.556043,9104.533087
2702.879864,2987.772442,1036.288319,8734.430116
2702.880193,3217.601092,1406.391290,7179.997637
2702.880522,2604.724693,2590.720797,7179.997637
2702.880851,2068.457845,2294.638420,7994.224174
2702.881180,1532.190996,1702.473667,6809.894666
2702.881509,229.828649,814.226536,8438.347739
2702.881838,-1225.752797,-1110.308913,10436.903782
2702.882167,-1685.410096,-2368.659014,10288.862594
2702.882496,-1532.190996,-3256.906145,9548.656652
2702.882825,-1532.190996,-2368.659014,9474.636058
2702.883154,-1685.410096,-1036.288319,9844.739029
2702.883484,-1225.752797,-1258.350101,9770.718434
2702.883813,-383.047749,-222.061783,9104.533087
2702.884142,-383.047749,-74.020594,10288.862594
2702.884471,76.609550,-666.185348,9844.739029
2702.884800,612.876398,-370.102971,8734.430116
2702.885129,1685.410096,1258.350101,8882.471304
2702.885458,2145.067394,1850.514855,7254.018232
2702.885787,3217.601092,2590.720797,6809.894666
2702.886116,2757.943793,1480.411884,7328.038826
2702.886445,1838.629195,1332.370696,8290.306550
2702.886775,1149.143247,-888.247130,9104.533087
2702.887104,-229.828649,-2368.659014,8290.306550
2702.887433,-995.924147,-2664.741391,9400.615463
2702.887762,-1455.581446,-2220.617826,10436.903782
2702.888091,-1532.190996,-2294.638420,9992.780217
2702.888421,-1149.143247,-1258.350101,10066.800811
2702.888750,0.000000,-1110.308913,11177.109724
2702.889079,689.485948,-296.082377,10436.903782
2702.889408,1532.190996,370.102971,9178.553681
2702.889737,1608.800546,2146.597232,8734.430116
2702.890067,1302.362347,2516.700203,8586.388927
2702.890396,2221.676944,2146.597232,7920.203579
2702.890725,1762.019645,1776.494261,7624.121203
2702.891054,919.314598,888.247130,8882.471304
2702.891384,0.000000,-1332.370696,9992.780217
2702.891713,-536.266849,-1628.453072,8142.265362
2702.892042,-1378.971896,-2294.638420,9918.759623
2702.892371,-2221.676944,-2590.720797,11029.068536
2702.892700,-1532.190996,-1554.432478,9918.759623
2702.893030,-1072.533697,-1554.432478,9474.636058
2702.893359,-1149.143247,-370.102971,8438.347739
2702.893688,0.000000,814.226536,9770.718434
2702.894017,459.657299,-1036.288319,9178.553681
2702.894346,919.314598,1110.308913,7846.182985
2702.894676,842.705048,1110.308913,8290.306550
2702.895005,1302.362347,1554.432478,7328.038826
2702.895334,995.924147,1480.411884,7476.080014
2702.895663,1072.533697,592.164754,8142.265362
2702.895992,306.438199,-0.000000,7698.141797
2702.896322,229.828649,-1998.556043,8882.471304
2702.896651,-689.485948,-1776.494261,8956.491898
2702.896980,-1991.848295,-1628.453072,9696.697840
2702.897309,-1685.410096,-1480.411884,9696.697840
2702.897638,-995.924147,-1554.432478,9474.636058
2702.897968,-766.095498,-1036.288319,10807.006753
2702.898297,-383.047749,-370.102971,9474.636058
2702.898626,-536.266849,-148.041188,10362.883188
2702.898955,1455.581446,-1776.494261,10732.986159
2702.899285,1532.190996,1480.411884,7254.018232
2702.899614,2757.943793,1702.473667,9326.594869
2702.899943,2451.505594,1258.350101,6587.832884
2702.900272,3524.039291,2072.576638,8142.265362
2702.900601,2298.286494,592.164754,8882.471304
2702.900931,2374.896044,148.041188,7624.121203
2702.901260,76.609550,-1924.535449,9104.533087
2702.901589,-1149.143247,-1036.288319,9844.739029
2702.901918,-919.314598,-1850.514855,10288.862594
2702.902247,-1838.629195,-1332.370696,10288.862594
2702.902577,-1455.581446,-1776.494261,9844.739029
2702.902906,-766.095498,-296.082377,11251.130318
2702.903235,229.828649,-74.020594,10288.862594
2702.903564,766.095498,296.082377,8660.409521
2702.903893,689.485948,666.185348,9474.636058
2702.904223,1455.581446,1554.432478,8882.471304
2702.904552,1991.848295,2072.576638,7105.977043
2702.904881,1838.629195,1036.288319,8216.285956
2702.905210,842.705048,666.185348,8882.471304
2702.905539,1608.800546,148.041188,8438.347739
2702.905869,-306.438199,-1702.473667,8808.450710
2702.906198,-1302.362347,-1554.432478,9548.656652
2702.906527,-766.095498,-1332.370696,9770.718434
2702.906856,-1302.362347,-1776.494261,9178.553681
2702.907185,-1149.143247,-962.267725,9918.759623
2702.907515,-536.266849,-740.205942,10510.924376
2702.907844,0.000000,-370.102971,9326.594869
2702.908173,919.314598,518.144159,9030.512492
2702.908502,1225.752797,592.164754,9104.533087
2702.908832,995.924147,1628.453072,7994.224174
2702.909161,2604.724693,1406.391290,7105.977043
2702.909490,2221.676944,1480.411884,7772.162391
2702.909819,1225.752797,814.226536,8956.491898
2702.910148,919.314598,-1036.288319,8882.471304
2702.910478,0.000000,-1554.432478,8956.491898
2702.910807,0.000000,-1406.391290,10436.903782
2702.911136,-459.657299,-1702.473667,9104.533087
2702.911465,-612.876398,-1776.494261,9326.594869
2702.911794,-229.828649,-962.267725,9770.718434
2702.912124,919.314598,-74.020594,9844.739029
2702.912453,842.705048,-222.061783,8808.450710
2702.912782,995.924147,814.226536,8364.327145
2702.913111,1302.362347,1332.370696,8586.388927
2702.913440,1532.190996,1554.432478,8290.306550
2702.913770,1455.581446,1332.370696,8068.244768
2702.914099,919.314598,666.185348,8068.244768
2702.914428,153.219100,-74.020594,9326.594869
2702.914757,0.000000,-1036.288319,9400.615463
2702.915086,-383.047749,-1554.432478,9178.553681
2702.915416,-1991.848295,-1480.411884,10214.842000
2702.915745,-1532.190996,-1850.514855,10510.924376
2702.916074,-1149.143247,-1480.411884,9326.594869
2702.916403,-689.485948,-518.144159,9104.533087
2702.916732,306.438199,-740.205942,10140.821405
2702.917062,612.876398,-222.061783,9104.533087
2702.917391,919.314598,-370.102971,8364.327145
2702.917720,919.314598,1628.453072,9326.594869
2702.918049,612.876398,1998.556043,8512.368333
2702.918379,1685.410096,1480.411884,8660.409521
2702.918708,1225.752797,1924.535449,7920.203579
2702.919037,995.924147,962.267725,8956.491898
2702.919366,76.609550,-814.226536,10881.027347
2702.919695,306.438199,-962.267725,8512.368333
2702.920025,-459.657299,-1036.288319,9992.780217
2702.920354,-766.095498,-1110.308913,10510.924376
2702.920683,-612.876398,-1332.370696,9474.636058
2702.921012,0.000000,-888.247130,9696.697840
2702.921341,536.266849,-148.041188,9696.697840
2702.921671,1378.971896,-296.082377,9622.677246
2702.922000,1838.629195,-148.041188,8438.347739
2702.922329,2681.334243,1258.350101,9104.533087
2702.922658,1532.190996,962.267725,8586.388927
2702.922987,1608.800546,1998.556043,7105.977043
2702.923317,1762.019645,888.247130,8216.285956
2702.923646,1378.971896,666.185348,8586.388927
2702.923975,766.095498,-666.185348,9992.780217
2702.924304,383.047749,-1924.535449,9178.553681
2702.924633,-766.095498,-666.185348,8956.491898
2702.924963,-1685.410096,-592.164754,11103.089130
2702.925292,-536.266849,-1554.432478,9252.574275
2702.925621,-1149.143247,-1036.288319,8660.409521
2702.925950,-1225.752797,-518.144159,10066.800811
2702.926280,76.609550,-666.185348,9252.574275
2702.926609,76.609550,-222.061783,8586.388927
2702.926938,383.047749,222.061783,7698.141797
2702.927267,229.828649,962.267725,8882.471304
2702.927596,919.314598,962.267725,8142.265362
2702.927926,612.876398,1184.329507,7031.956449
2702.928255,1149.143247,518.144159,8512.368333
2702.928584,766.095498,-296.082377,8586.388927
2702.928913,536.266849,-1184.329507,8290.306550
2702.929242,-689.485948,-888.247130,9548.656652
2702.929572,-612.876398,-518.144159,9992.780217
2702.929901,0.000000,-296.082377,9400.615463
2702.930230,-1838.629195,-1258.350101,9030.512492
2702.930559,-1072.533697,-0.000000,10881.027347
2702.930888,306.438199,-1480.411884,9326.594869
2702.931218,306.438199,296.082377,6217.729913
2702.931547,995.924147,-296.082377,9474.636058
2702.931876,153.219100,74.020594,9474.636058
2702.932205,919.314598,296.082377,8586.388927
2702.932534,1532.190996,-0.000000,8734.430116
2702.932864,1455.581446,814.226536,8586.388927
2702.933193,1225.752797,-592.164754,9104.533087
2702.933522,2145.067394,-1554.432478,9104.533087
2702.933851,1378.971896,-370.102971,9252.574275
2702.934180,1302.362347,-148.041188,9992.780217
2702.934510,995.924147,-444.123565,9548.656652
2702.934839,612.876398,148.041188,8660.409521
2702.935168,1149.143247,296.082377,9770.718434
2702.935497,842.705048,518.144159,8956.491898
2702.935827,1455.581446,-518.144159,9104.533087
2702.936156,612.876398,-888.247130,9104.533087
2702.936485,0.000000,1110.308913,9326.594869
2702.936814,-153.219100,-1110.308913,9326.594869
2702.937143,-612.876398,-518.144159,7920.203579
2702.937473,-536.266849,-148.041188,8882.471304
2702.937802,-612.876398,-962.267725,9770.718434
2702.938131,-459.657299,-2220.617826,8882.471304
2702.938460,919.314598,-740.205942,9696.697840
2702.938789,229.828649,-444.123565,9400.615463
2702.939119,0.000000,148.041188,9178.553681
2702.939448,1072.533697,962.267725,8216.285956
2702.939777,995.924147,1184.329507,8142.265362
2702.940106,1532.190996,962.267725,9178.553681
2702.940435,1915.238745,962.267725,8364.327145
2702.940765,1225.752797,814.226536,7105.977043
2702.941094,-229.828649,-0.000000,9104.533087
2702.941423,-612.876398,-0.000000,9104.533087
2702.941752,-995.924147,-888.247130,8512.368333
2702.942081,-1762.019645,-1036.288319,9770.718434
2702.942411,-1302.362347,-1850.514855,10362.883188
2702.942740,-1072.533697,-1554.432478,9178.553681
2702.943069,-766.095498,-1258.350101,9400.615463
2702.943398,-612.876398,-1036.288319,9400.615463
2702.943728,-842.705048,-370.102971,9918.759623
2702.944057,536.266849,-444.123565,9178.553681
2702.944386,1149.143247,518.144159,8438.347739
2702.944715,2451.505594,888.247130,9622.677246
2702.945044,2298.286494,592.164754,7105.977043
2702.945374,2298.286494,1110.308913,8290.306550
2702.945703,1532.190996,1702.473667,8734.430116
2702.946032,612.876398,1036.288319,8290.306550
2702.946361,383.047749,-148.041188,8808.450710
2702.946690,-383.047749,-222.061783,9030.512492
2702.947020,-1455.581446,-592.164754,10288.862594
2702.947349,-1072.533697,-2294.638420,10510.924376
2702.947678,-689.485948,-2220.617826,9326.594869
2702.948007,-1532.190996,-740.205942,10436.903782
2702.948336,-1532.190996,-370.102971,10288.862594
2702.948666,-383.047749,222.061783,8956.491898
2702.948995,536.266849,296.082377,9104.533087
2702.949324,1838.629195,1406.391290,8290.306550
2702.949653,2374.896044,666.185348,8660.409521
2702.949982,1762.019645,740.205942,8290.306550
2702.950312,995.924147,1480.411884,8956.491898
2702.950641,0.000000,1258.350101,9178.553681
2702.950970,0.000000,-0.000000,8142.265362
2702.951299,-153.219100,-518.144159,8808.450710
2702.951628,-1072.533697,-1480.411884,10066.800811
2702.951958,-842.705048,-1776.494261,9992.780217
2702.952287,-766.095498,-2368.659014,10214.842000
2702.952616,-1302.362347,-1702.473667,9918.759623
2702.952945,-1225.752797,-666.185348,10066.800811
2702.953275,76.609550,-814.226536,9178.553681
2702.953604,306.438199,-370.102971,8512.368333
2702.953933,1302.362347,-148.041188,9474.636058
2702.954262,2451.505594,444.123565,8660.409521
2702.954591,2987.772442,1184.329507,7698.141797
2702.954921,1685.410096,518.144159,8290.306550
2702.955250,1149.143247,1036.288319,8068.244768
2702.955579,2068.457845,-0.000000,8364.327145
2702.955908,1378.971896,592.164754,7994.224174
2702.956237,459.657299,-1332.370696,9622.677246
2702.956567,-459.657299,-1184.329507,10807.006753
2702.956896,306.438199,-1110.308913,10510.924376
2702.957225,0.000000,-888.247130,9474.636058
2702.957554,612.876398,-444.123565,10288.862594
2702.957883,995.924147,148.041188,9770.718434
2702.958213,1302.362347,666.185348,8586.388927
2702.958542,2757.943793,1110.308913,9178.553681
2702.958871,2911.162892,444.123565,7920.203579
2702.959200,3064.381992,444.123565,7254.018232
2702.959529,2068.457845,2072.576638,7254.018232
2702.959859,766.095498,-0.000000,8808.450710
2702.960188,689.485948,-592.164754,8290.306550
2702.960517,-306.438199,-0.000000,7402.059420
2702.960846,-1302.362347,-1776.494261,10584.944971
2702.961176,-1225.752797,-2738.761985,10066.800811
2702.961505,-1762.019645,-1776.494261,9326.594869
2702.961834,-1608.800546,-1184.329507,9622.677246
2702.962163,-766.095498,-444.123565,10066.800811
2702.962492,-689.485948,-74.020594,9030.512492
2702.962822,842.705048,1702.473667,7920.203579
2702.963151,2068.457845,592.164754,7994.224174
2702.963480,1685.410096,1258.350101,7772.162391
2702.963809,2374.896044,888.247130,7328.038826
2702.964138,1302.362347,740.205942,8586.388927
2702.964468,0.000000,296.082377,8364.327145
2702.964797,-1072.533697,-74.020594,8882.471304
2702.965126,-1532.190996,-1406.391290,9844.739029
2702.965455,-2221.676944,-2072.576638,10584.944971
2702.965784,-2068.457845,-2368.659014,10584.944971
2702.966114,-1685.410096,-2146.597232,9992.780217
2702.966443,-2145.067394,-962.267725,10510.924376
2702.966772,-1915.238745,-1628.453072,10584.944971
2702.967101,-1378.971896,740.205942,9400.615463
2702.967430,459.657299,-1332.370696,10881.027347
2702.967760,1225.752797,814.226536,7550.100608
2702.968089,4213.525239,1332.370696,8808.450710
2702.968418,3600.648841,1702.473667,7550.100608
2702.968747,3217.601092,2886.803174,7031.956449
2702.969076,2145.067394,888.247130,8290.306550
2702.969406,919.314598,1184.329507,7920.203579
2702.969735,1072.533697,-148.041188,8660.409521
2702.970064,-536.266849,-1332.370696,9770.718434
2702.970393,-1991.848295,-1998.556043,10807.006753
2702.970723,-2145.067394,-2960.823768,11843.295072
2702.971052,-1455.581446,-2368.659014,11177.109724
2702.971381,-1915.238745,-370.102971,9918.759623
2702.971710,-842.705048,-592.164754,10214.842000
2702.972039,0.000000,666.185348,9474.636058
2702.972369,1072.533697,666.185348,8956.491898
2702.972698,2987.772442,740.205942,8734.430116
2702.973027,3677.258390,1998.556043,6291.750507
2702.973356,3140.991542,2146.597232,6513.812290
2702.973685,1762.019645,1036.288319,7550.100608
2702.974015,1225.752797,1110.308913,8142.265362
2702.974344,383.047749,592.164754,7328.038826
2702.974673,-306.438199,-1850.514855,8882.471304
2702.975002,-1149.143247,-2368.659014,9918.759623
2702.975331,-1838.629195,-2664.741391,10362.883188
2702.975661,-2374.896044,-3256.906145,10510.924376
2702.975990,-2068.457845,-1184.329507,10955.047942
2702.976319,-1838.629195,-1258.350101,10288.862594
2702.976648,-1149.143247,592.164754,9104.533087
2702.976977,459.657299,-518.144159,10955.047942
2702.977307,1991.848295,222.061783,8586.388927
2702.977636,3217.601092,1258.350101,7846.182985
2702.977965,2911.162892,1702.473667,6735.874072
2702.978294,2604.724693,2738.761985,6957.935855
2702.978623,1762.019645,2294.638420,8216.285956
2702.978953,1762.019645,296.082377,7402.059420
2702.979282,1149.143247,-814.226536,8512.368333
2702.979611,-689.485948,-1998.556043,9992.780217
2702.979940,-842.705048,-3108.864956,10807.006753
2702.980270,-1685.410096,-3034.844362,10510.924376
2702.980599,-1838.629195,-2146.597232,10881.027347
2702.980928,-1149.143247,-1258.350101,11251.130318
2702.981257,-459.657299,-222.061783,9696.697840
2702.981586,306.438199,1036.288319,9252.574275
2702.981916,3064.381992,814.226536,9178.553681
2702.982245,4213.525239,2368.659014,7550.100608
2702.982574,3447.429741,1776.494261,7105.977043
2702.982903,2834.553343,2664.741391,6661.853478
2702.983232,1532.190996,2664.741391,7920.203579
2702.983562,1072.533697,888.247130,7402.059420
2702.983891,0.000000,-888.247130,7994.224174
2702.984220,-2068.457845,-3182.885551,10658.965565
2702.984549,-2221.676944,-3330.926739,10288.862594
2702.984878,-2221.676944,-3478.967927,10288.862594
2702.985208,-3064.381992,-1776.494261,11103.089130
2702.985537,-2298.286494,-592.164754,10510.924376
2702.985866,-1838.629195,-370.102971,9400.615463
2702.986195,-612.876398,-74.020594,10288.862594
2702.986524,1302.362347,370.102971,9696.697840
2702.986854,1915.238745,1406.391290,8290.306550
2702.987183,2451.505594,1258.350101,7254.018232
2702.987512,2221.676944,2442.679609,7402.059420
2702.987841,1149.143247,2072.576638,8512.368333
2702.988171,76.609550,814.226536,7698.141797
2702.988500,459.657299,-0.000000,8808.450710
2702.988829,-689.485948,-1702.473667,10066.800811
2702.989158,-1991.848295,-3701.029710,10140.821405
2702.989488,-1532.190996,-3256.906145,10807.006753
2702.989817,-2757.943793,-2220.617826,10066.800811
2702.990146,-1838.629195,-1332.370696,10584.944971
2702.990475,-383.047749,-0.000000,9178.553681
2702.990805,1685.410096,666.185348,8364.327145
2702.991134,1838.629195,1110.308913,8660.409521
2702.991463,3983.696590,1110.308913,7328.038826
2702.991792,4060.306139,1554.432478,6883.915261
2702.992122,2911.162892,2590.720797,7031.956449
2702.992451,2145.067394,2294.638420,7624.121203
2702.992780,766.095498,740.205942,7772.162391
2702.993110,0.000000,-444.123565,8956.491898
2702.993439,-536.266849,-2368.659014,9992.780217
2702.993768,-1608.800546,-3478.967927,10807.006753
2702.994097,-1378.971896,-3775.050304,10066.800811
2702.994427,-2068.457845,-1628.453072,9474.636058
2702.994756,-995.924147,-1258.350101,11029.068536
2702.995085,-995.924147,-518.144159,8882.471304
2702.995414,612.876398,-148.041188,9474.636058
2702.995744,2757.943793,370.102971,9178.553681
2702.996073,4519.963438,1554.432478,7994.224174
2702.996402,3983.696590,1628.453072,6883.915261
2702.996732,3064.381992,3034.844362,7476.080014
2702.997061,2221.676944,2368.659014,8068.244768
2702.997390,1685.410096,2368.659014,7994.224174
2702.997719,842.705048,-222.061783,8142.265362
2702.998049,-1378.971896,-1406.391290,10362.883188
2702.998378,-2681.334243,-2442.679609,11547.212695
2702.998707,-2681.334243,-4071.132681,11843.295072
2702.999036,-2681.334243,-3256.906145,10140.821405
2702.999366,-1915.238745,-1110.308913,11103.089130
2702.999695,-1762.019645,-814.226536,9696.697840
2703.000024,-1302.362347,-0.000000,9474.636058
2703.000354,229.828649,-592.164754,11695.253884
2703.000683,2145.067394,-0.000000,9474.636058
2703.001012,4213.525239,1776.494261,7772.162391
2703.001341,3064.381992,1554.432478,6809.894666
2703.001671,1991.848295,2442.679609,7624.121203
2703.002000,2221.676944,2220.617826,8142.265362
2703.002329,1685.410096,1406.391290,7105.977043
2703.002658,919.314598,-0.000000,9030.512492
2703.002988,153.219100,-2146.597232,10807.006753
2703.003317,-1378.971896,-2886.803174,9548.656652
2703.003646,-2068.457845,-3849.070898,11103.089130
2703.003975,-2221.676944,-1702.473667,9696.697840
2703.004305,-1302.362347,-1480.411884,9770.718434
2703.004634,-1225.752797,-666.185348,9178.553681
2703.004963,0.000000,592.164754,9992.780217
2703.005293,1378.971896,-222.061783,9326.594869
2703.005622,2681.334243,1036.288319,7328.038826
2703.005951,2528.115143,1998.556043,7328.038826
2703.006280,1532.190996,2368.659014,6809.894666
2703.006610,1838.629195,2516.700203,7328.038826
2703.006939,842.705048,1554.432478,7179.997637
2703.007268,76.609550,444.123565,8216.285956
2703.007597,-1149.143247,-2368.659014,10140.821405
2703.007927,-1225.752797,-2960.823768,10066.800811
2703.008256,-1991.848295,-2516.700203,9992.780217
2703.008585,-3294.210641,-2368.659014,10436.903782
2703.008915,-2834.553343,-2220.617826,10140.821405
2703.009244,-2451.505594,-444.123565,8956.491898
2703.009573,-1149.143247,-518.144159,9696.697840
2703.009902,-1455.581446,-1036.288319,9992.780217
2703.010232,1378.971896,296.082377,9622.677246
2703.010561,2604.724693,1554.432478,7476.080014
2703.010890,2451.505594,1998.556043,6883.915261
2703.011219,1608.800546,2664.741391,7105.977043
2703.011549,2604.724693,1554.432478,8068.244768
2703.011878,1532.190996,370.102971,7254.018232
2703.012207,1225.752797,-1110.308913,9104.533087
2703.012537,0.000000,-3108.864956,9770.718434
2703.012866,-766.095498,-3034.844362,9326.594869
2703.013195,-2451.505594,-2664.741391,11621.233289
2703.013524,-1991.848295,-1776.494261,10732.986159
2703.013854,-612.876398,-1406.391290,10140.821405
2703.014183,995.924147,-888.247130,10140.821405
2703.014512,2221.676944,888.247130,9622.677246
2703.014841,3524.039291,1036.288319,7994.224174
2703.015171,3140.991542,1554.432478,8142.265362
2703.015500,3524.039291,3182.885551,7846.182985
2703.015829,2987.772442,2590.720797,7846.182985
2703.016159,2374.896044,2368.659014,7624.121203
2703.016488,2068.457845,1850.514855,8216.285956
2703.016817,842.705048,-74.020594,8734.430116
2703.017146,-689.485948,-3701.029710,10066.800811
2703.017476,-766.095498,-2516.700203,10807.006753
2703.017805,-1838.629195,-2442.679609,10214.842000
2703.018134,-2221.676944,-1998.556043,9696.697840
2703.018463,-1378.971896,-592.164754,9770.718434
2703.018793,0.000000,-74.020594,9992.780217
2703.019122,1762.019645,370.102971,9030.512492
2703.019451,3140.991542,1184.329507,8956.491898
2703.019781,2757.943793,962.267725,6957.935855
2703.020110,2604.724693,2368.659014,6957.935855
2703.020439,2451.505594,1850.514855,7254.018232
2703.020768,1072.533697,2220.617826,7105.977043
2703.021098,612.876398,888.247130,7624.121203
2703.021427,0.000000,-1480.411884,9992.780217
2703.021756,-1608.800546,-3256.906145,9992.780217
2703.022085,-2068.457845,-3404.947333,10066.800811
2703.022415,-3064.381992,-3330.926739,11177.109724
2703.022744,-3217.601092,-1998.556043,9992.780217
2703.023073,-1915.238745,-1628.453072,9992.780217
2703.023403,-1455.581446,-518.144159,9326.594869
2703.023732,76.609550,-592.164754,11029.068536
2703.024061,919.314598,-0.000000,9252.574275
2703.024390,2757.943793,1036.288319,7254.018232
2703.024720,2451.505594,1258.350101,7105.977043
2703.025049,1762.019645,2368.659014,7402.059420
2703.025378,2221.676944,1184.329507,8142.265362
2703.025707,919.314598,1332.370696,8068.244768
2703.026037,842.705048,518.144159,8512.368333
2703.026366,766.095498,-1036.288319,9696.697840
2703.026695,-306.438199,-3108.864956,9178.553681
2703.027025,-1915.238745,-1850.514855,10732.986159
2703.027354,-1762.019645,-2368.659014,10658.965565
2703.027683,-1915.238745,-1554.432478,9696.697840
2703.028012,-1072.533697,-1036.288319,10140.821405
2703.028342,689.485948,666.185348,9844.739029
2703.028671,1685.410096,-0.000000,8956.491898
2703.029000,2374.896044,666.185348,8068.244768
2703.029329,2068.457845,2220.617826,7772.162391
2703.029659,1608.800546,1110.308913,8586.388927
2703.029988,995.924147,2072.576638,7328.038826
2703.030317,995.924147,1406.391290,7994.224174
2703.030647,459.657299,-0.000000,9326.594869
2703.030976,-459.657299,-1406.391290,9622.677246
2703.031305,-842.705048,-2294.638420,9844.739029
2703.031634,-2145.067394,-2072.576638,10436.903782
2703.031964,-2298.286494,-1776.494261,10584.944971
2703.032293,-2374.896044,-1554.432478,9474.636058
2703.032622,-995.924147,-1184.329507,9770.718434
2703.032951,0.000000,-518.144159,9918.759623
2703.033281,689.485948,1184.329507,9326.594869
2703.033610,1838.629195,-74.020594,9030.512492
2703.033939,2068.457845,740.205942,7994.224174
2703.034269,1608.800546,2072.576638,7624.121203
2703.034598,1149.143247,1924.535449,7772.162391
2703.034927,1149.143247,666.185348,7846.182985
2703.035256,842.705048,740.205942,8882.471304
2703.035586,1455.581446,-1036.288319,9474.636058
2703.035915,76.609550,-2294.638420,9770.718434
2703.036244,-306.438199,-2294.638420,9992.780217
2703.036573,-919.314598,-1332.370696,10510.924376
2703.036903,-842.705048,-1110.308913,9400.615463
2703.037232,76.609550,-962.267725,9474.636058
2703.037561,1072.533697,-74.020594,9400.615463
2703.037891,2528.115143,962.267725,8586.388927
2703.038220,3524.039291,1480.411884,6883.915261
2703.038549,3294.210641,1776.494261,6883.915261
2703.038878,2987.772442,1702.473667,8142.265362
2703.039208,2145.067394,1850.514855,8216.285956
2703.039537,2451.505594,740.205942,8734.430116
2703.039866,1302.362347,-148.041188,8512.368333
2703.040195,0.000000,-1110.308913,9696.697840
2703.040525,229.828649,-2220.617826,9992.780217
2703.040854,-995.924147,-2146.597232,10362.883188
2703.041183,-1225.752797,-2294.638420,10658.965565
2703.041512,-459.657299,-814.226536,9770.718434
2703.041842,-306.438199,-1184.329507,9178.553681
2703.042171,459.657299,-0.000000,9326.594869
2703.042500,1991.848295,-0.000000,8586.388927
2703.042830,1608.800546,1036.288319,7920.203579
2703.043159,1915.238745,1036.288319,7105.977043
2703.043488,1608.800546,2294.638420,8734.430116
2703.043817,-306.438199,1702.473667,9030.512492
2703.044147,689.485948,1036.288319,8512.368333
2703.044476,-919.314598,-592.164754,8438.347739
2703.044805,-1915.238745,-1184.329507,10436.903782
2703.045134,-1378.971896,-2738.761985,11029.068536
2703.045464,-2451.505594,-2368.659014,9918.759623
2703.045793,-3140.991542,-666.185348,10510.924376
2703.046122,-1762.019645,-1480.411884,10881.027347
2703.046452,-1378.971896,-370.102971,9030.512492
2703.046781,-383.047749,296.082377,9252.574275
2703.047110,1455.581446,888.247130,8882.471304
2703.047439,1991.848295,-0.000000,8512.368333
2703.047769,1685.410096,962.267725,7550.100608
2703.048098,1608.800546,1332.370696,7846.182985
2703.048427,612.876398,1702.473667,8808.450710
2703.048756,383.047749,592.164754,7624.121203
2703.049086,459.657299,-0.000000,8734.430116
2703.049415,-689.485948,-1406.391290,10510.924376
2703.049744,-689.485948,-2072.576638,9474.636058
2703.050074,-1302.362347,-2738.761985,9770.718434
2703.050403,-1991.848295,-1776.494261,9696.697840
2703.050732,-1762.019645,-740.205942,9770.718434
2703.051061,306.438199,-592.164754,8364.327145
2703.051391,-153.219100,-592.164754,9104.533087
2703.051720,689.485948,-296.082377,9770.718434
2703.052049,2528.115143,518.144159,8882.471304
2703.052378,2374.896044,1628.453072,6661.853478
2703.052708,2298.286494,1702.473667,8142.265362
2703.053037,2068.457845,592.164754,7994.224174
2703.053366,1072.533697,1406.391290,7476.080014
2703.053696,766.095498,518.144159,9474.636058
2703.054025,229.828649,-1110.308913,8586.388927
2703.054354,229.828649,-2072.576638,10807.006753
2703.054683,-842.705048,-1850.514855,10140.821405
2703.055013,-1685.410096,-1998.556043,10881.027347
2703.055342,-2145.067394,-1258.350101,10510.924376
2703.055671,-306.438199,-222.061783,8660.409521
2703.056000,612.876398,-74.020594,9992.780217
2703.056330,842.705048,666.185348,9326.594869
2703.056659,2068.457845,592.164754,8734.430116
2703.056988,2451.505594,-296.082377,9178.553681
2703.057318,1685.410096,1702.473667,8142.265362
2703.057647,1685.410096,1702.473667,8512.368333
2703.057976,842.705048,740.205942,8882.471304
2703.058305,842.705048,296.082377,8734.430116
2703.058635,919.314598,-296.082377,10140.821405
2703.058964,459.657299,-1184.329507,9992.780217
2703.059293,0.000000,-1258.350101,9992.780217
2703.059622,0.000000,-370.102971,9992.780217
2703.059952,-459.657299,-814.226536,10510.924376
2703.060281,536.266849,370.102971,8808.450710
2703.060610,1302.362347,-370.102971,8956.491898
2703.060940,1685.410096,888.247130,8882.471304
2703.061269,2757.943793,-0.000000,8364.327145
2703.061598,3064.381992,814.226536,8438.347739
2703.061927,2068.457845,-0.000000,7179.997637
2703.062257,1532.190996,1480.411884,9030.512492
2703.062586,689.485948,-0.000000,8216.285956
2703.062915,306.438199,-0.000000,8142.265362
2703.063244,459.657299,-814.226536,9622.677246
2703.063574,229.828649,-1776.494261,9400.615463
2703.063903,-229.828649,-1628.453072,9326.594869
2703.064232,-1149.143247,-2294.638420,10436.903782
2703.064562,-1302.362347,-740.205942,10288.862594
2703.064891,-842.705048,-814.226536,8882.471304
2703.065220,306.438199,-0.000000,8438.347739
2703.065549,383.047749,518.144159,8808.450710
2703.065879,2145.067394,-148.041188,9474.636058
2703.066208,1455.581446,370.102971,7328.038826
2703.066537,1149.143247,666.185348,8216.285956
2703.066866,-153.219100,444.123565,8438.347739
2703.067196,-689.485948,222.061783,8142.265362
2703.067525,-1225.752797,-888.247130,9030.512492
2703.067854,-1378.971896,-1110.308913,9474.636058
2703.068184,-1685.410096,-2368.659014,10436.903782
2703.068513,-1838.629195,-2146.597232,10732.986159
2703.068842,-1685.410096,-1776.494261,9918.759623
2703.069171,-1991.848295,-814.226536,9622.677246
2703.069501,-1685.410096,-518.144159,9622.677246
2703.069830,-229.828649,-0.000000,8808.450710
2703.070159,229.828649,-148.041188,8956.491898
2703.070488,1532.190996,-0.000000,9400.615463
2703.070818,2451.505594,222.061783,7402.059420
2703.071147,2068.457845,296.082377,7772.162391
2703.071476,153.219100,1554.432478,8142.265362
2703.071806,612.876398,1480.411884,7846.182985
2703.072135,766.095498,518.144159,8956.491898
2703.072464,0.000000,-444.123565,9548.656652
2703.072793,0.000000,-1036.288319,10584.944971
2703.073123,-689.485948,-1702.473667,9918.759623
2703.073452,-919.314598,-1702.473667,9770.718434
2703.073781,-459.657299,-296.082377,10658.965565
2703.074110,0.000000,-296.082377,10288.862594
2703.074440,842.705048,148.041188,8364.327145
2703.074769,2528.115143,296.082377,8956.491898
2703.075098,2757.943793,1776.494261,7920.203579
2703.075428,3370.820191,592.164754,7772.162391
2703.075757,2757.943793,962.267725,8142.265362
2703.076086,2145.067394,962.267725,7624.121203
2703.076415,766.095498,296.082377,7920.203579
2703.076745,0.000000,-0.000000,9548.656652
2703.077074,-459.657299,-740.205942,10362.883188
2703.077403,-689.485948,-2368.659014,10436.903782
2703.077732,-1225.752797,-2220.617826,10362.883188
2703.078062,-1149.143247,-2072.576638,9992.780217
2703.078391,-1072.533697,-74.020594,10658.965565
2703.078720,153.219100,444.123565,9400.615463
2703.079049,842.705048,-0.000000,8290.306550
2703.079379,1762.019645,1332.370696,7550.100608
2703.079708,3064.381992,962.267725,8142.265362
2703.080037,3600.648841,1702.473667,8290.306550
2703.080367,2834.553343,1406.391290,7105.977043
2703.080696,689.485948,1702.473667,7994.224174
2703.081025,459.657299,-74.020594,9918.759623
2703.081354,0.000000,-444.123565,9844.739029
2703.081684,-1149.143247,-2368.659014,9030.512492
2703.082013,-1608.800546,-1924.535449,10140.821405
2703.082342,-1685.410096,-2368.659014,10140.821405
2703.082671,-2987.772442,-2072.576638,10584.944971
2703.083001,-2221.676944,-0.000000,9252.574275
2703.083330,-459.657299,-1036.288319,10658.965565
2703.083659,995.924147,-148.041188,7920.203579
2703.083989,1915.238745,1184.329507,8142.265362
2703.084318,3217.601092,1480.411884,8068.244768
2703.084647,3524.039291,666.185348,7254.018232
2703.084976,2911.162892,1924.535449,6957.935855
2703.085306,2068.457845,2220.617826,7254.018232
2703.085635,1302.362347,888.247130,9252.574275
2703.085964,383.047749,-370.102971,8882.471304
2703.086293,-306.438199,-592.164754,8364.327145
2703.086623,-1991.848295,-3108.864956,11325.150913
2703.086952,-2068.457845,-2442.679609,10732.986159
2703.087281,-2374.896044,-1924.535449,11621.233289
2703.087611,-2528.115143,-1924.535449,10510.924376
2703.087940,-1302.362347,-0.000000,10140.821405
2703.088269,-383.047749,-222.061783,9178.553681
2703.088598,842.705048,444.123565,8586.388927
2703.088928,1762.019645,814.226536,8438.347739
2703.089257,2451.505594,740.205942,8438.347739
2703.089586,2145.067394,1036.288319,6735.874072
2703.089915,919.314598,2072.576638,8956.491898
2703.090245,-306.438199,518.144159,8956.491898
2703.090574,-383.047749,-0.000000,8586.388927
2703.090903,-995.924147,-1110.308913,9770.718434
2703.091232,-1532.190996,-1554.432478,10140.821405
2703.091561,-2528.115143,-2442.679609,10510.924376
2703.091891,-3140.991542,-2294.638420,10288.862594
2703.092220,-2834.553343,-592.164754,10436.903782
2703.092549,-3140.991542,-222.061783,9844.739029
2703.092878,-1838.629195,592.164754,8734.430116
2703.093207,-2068.457845,1628.453072,7772.162391
2703.093536,-1762.019645,-0.000000,10140.821405
2703.093865,-612.876398,518.144159,8290.306550
2703.094194,-536.266849,666.185348,6735.874072
2703.094524,-1302.362347,592.164754,7920.203579
2703.094853,-1838.629195,592.164754,8438.347739
2703.095182,-2757.943793,-370.102971,8808.450710
2703.095511,-2911.162892,-1332.370696,7920.203579
2703.095840,-1685.410096,-1036.288319,9548.656652
2703.096169,-2757.943793,-1998.556043,9918.759623
2703.096498,-2681.334243,-1628.453072,9252.574275
2703.096827,-2681.334243,-1554.432478,10510.924376
2703.097157,-2681.334243,-0.000000,9474.636058
2703.097486,-2451.505594,-296.082377,8734.430116
2703.097815,-1532.190996,222.061783,8956.491898
2703.098144,-919.314598,592.164754,9178.553681
2703.098473,-612.876398,-74.020594,8660.409521
2703.098802,-229.828649,-370.102971,7994.224174
2703.099131,-612.876398,370.102971,8290.306550
2703.099460,-919.314598,814.226536,8142.265362
2703.099790,-2757.943793,370.102971,8882.471304
2703.100119,-2451.505594,-814.226536,9252.574275
2703.100448,-2221.676944,-296.082377,8808.450710
2703.100777,-1991.848295,-1184.329507,9918.759623
2703.101106,-3140.991542,-1850.514855,9622.677246
2703.101435,-2834.553343,-1998.556043,10584.944971
2703.101764,-2298.286494,-370.102971,10362.883188
2703.102093,-2068.457845,1110.308913,9104.533087
2703.102423,-2987.772442,666.185348,9770.718434
2703.102752,-2374.896044,1776.494261,9474.636058
2703.103081,-1838.629195,1702.473667,8512.368333
2703.103410,-1225.752797,1258.350101,7624.121203
2703.103739,-2221.676944,296.082377,7698.141797
2703.104068,-3294.210641,888.247130,8956.491898
2703.104397,-3677.258390,222.061783,9178.553681
2703.104726,-3524.039291,-148.041188,8216.285956
2703.105056,-4213.525239,-1110.308913,8068.244768
2703.105385,-4749.792088,-1110.308913,9992.780217
2703.105714,-4519.963438,-1332.370696,9992.780217
2703.106043,-5362.668486,-1850.514855,9548.656652
2703.106372,-6052.154434,-1036.288319,11029.068536
2703.106701,-5209.449386,-3404.947333,11843.295072
2703.107030,-5745.716235,-2368.659014,11177.109724
2703.107359,-4060.306139,-592.164754,10362.883188
2703.107689,-2374.896044,148.041188,9252.574275
2703.108018,-1532.190996,1036.288319,8290.306550
2703.108347,-1149.143247,2072.576638,8216.285956
2703.108676,0.000000,888.247130,9252.574275
2703.109005,459.657299,1776.494261,6587.832884
2703.109334,1762.019645,1628.453072,6883.915261
2703.109663,842.705048,-222.061783,7328.038826
2703.109992,0.000000,-518.144159,6809.894666
2703.110322,-229.828649,-814.226536,8882.471304
2703.110651,-1915.238745,-296.082377,7994.224174
2703.110980,-1991.848295,-1554.432478,10288.862594
2703.111309,-3064.381992,-1036.288319,9696.697840
2703.111638,-3294.210641,-592.164754,10214.842000
2703.111967,-3677.258390,-1184.329507,10362.883188
2703.112296,-3370.820191,148.041188,9400.615463
2703.112625,-2604.724693,-592.164754,10288.862594
2703.112955,-3140.991542,-1554.432478,9844.739029
2703.113284,-2451.505594,-518.144159,9474.636058
2703.113613,-3830.477490,-1258.350101,9252.574275
2703.113942,-2604.724693,-592.164754,8512.368333
2703.114271,-2298.286494,740.205942,8438.347739
2703.114600,-1762.019645,-0.000000,8068.244768
2703.114929,-2298.286494,-666.185348,8734.430116
2703.115258,-2221.676944,-222.061783,9178.553681
2703.115588,-2145.067394,296.082377,8438.347739
2703.115917,-1915.238745,740.205942,7772.162391
2703.116246,-1838.629195,74.020594,8586.388927
2703.116575,-1915.238745,-0.000000,9178.553681
2703.116904,-2757.943793,-518.144159,9844.739029
2703.117233,-2604.724693,-444.123565,9844.739029
2703.117562,-3064.381992,666.185348,8512.368333
2703.117891,-3140.991542,1258.350101,8142.265362
2703.118221,-2528.115143,592.164754,8290.306550
2703.118550,-3064.381992,-0.000000,8808.450710
2703.118879,-3370.820191,-74.020594,9474.636058
2703.119208,-3600.648841,740.205942,8882.471304
2703.119537,-4060.306139,-518.144159,8882.471304
2703.119866,-3524.039291,-1184.329507,9474.636058
2703.120195,-4136.915689,-1628.453072,9326.594869
2703.120524,-3370.820191,-1110.308913,9696.697840
2703.120854,-3370.820191,-1480.411884,9844.739029
2703.121183,-2834.553343,-0.000000,9474.636058
2703.121512,-2757.943793,444.123565,9104.533087
2703.121841,-2528.115143,962.267725,9400.615463
2703.122170,-3217.601092,-0.000000,9104.533087
2703.122499,-3064.381992,296.082377,9770.718434
2703.122828,-3294.210641,222.061783,9326.594869
2703.123157,-2911.162892,-592.164754,10140.821405
2703.123487,-2757.943793,-1406.391290,9696.697840
2703.123816,-2757.943793,-1184.329507,9252.574275
2703.124145,-2451.505594,-962.267725,9400.615463
2703.124474,-2298.286494,-592.164754,8512.368333
2703.124803,-1685.410096,-148.041188,8364.327145
2703.125132,-612.876398,666.185348,8216.285956
2703.125461,-612.876398,-296.082377,8364.327145
2703.125790,-1685.410096,-1184.329507,9696.697840
2703.126120,-2298.286494,-518.144159,9326.594869
2703.126449,-2528.115143,-74.020594,9326.594869
2703.126778,-2528.115143,814.226536,9104.533087
2703.127107,-2451.505594,1258.350101,8882.471304
2703.127436,-2451.505594,1554.432478,8660.409521
2703.127765,-2374.896044,1554.432478,8364.327145
2703.128094,-2528.115143,1110.308913,8068.244768
2703.128423,-2834.553343,-296.082377,8586.388927
2703.128753,-3064.381992,-1554.432478,9696.697840
2703.129082,-3217.601092,-2072.576638,9696.697840
2703.129411,-3064.381992,-1998.556043,9622.677246
2703.129740,-2221.676944,-1110.308913,8660.409521
2703.130069,-1378.971896,-296.082377,8512.368333
2703.130398,-1302.362347,814.226536,7994.224174
2703.130727,-1225.752797,370.102971,8808.450710
2703.131057,-1685.410096,222.061783,9030.512492
2703.131386,-2068.457845,444.123565,9326.594869
2703.131715,-2298.286494,148.041188,9252.574275
2703.132044,-2604.724693,-296.082377,9400.615463
2703.132373,-2757.943793,-370.102971,9696.697840
2703.132702,-2451.505594,-370.102971,9548.656652
2703.133031,-2298.286494,-518.144159,9474.636058
2703.133360,-2528.115143,-518.144159,8660.409521
2703.133690,-2681.334243,-0.000000,8956.491898
2703.134019,-3064.381992,-74.020594,8808.450710
2703.134348,-3140.991542,-74.020594,8882.471304
2703.134677,-2451.505594,-592.164754,9400.615463
2703.135006,-995.924147,-666.185348,8734.430116
2703.135335,-1225.752797,-740.205942,8660.409521
2703.135664,-1608.800546,-370.102971,8364.327145
2703.135993,-1685.410096,-888.247130,9474.636058
2703.136323,-1455.581446,-1036.288319,9770.718434
2703.136652,-1762.019645,-444.123565,9770.718434
2703.136981,-1991.848295,-0.000000,9992.780217
2703.137310,-2145.067394,-0.000000,9400.615463
2703.137639,-2298.286494,-0.000000,9030.512492
2703.137968,-2374.896044,518.144159,8660.409521
2703.138297,-2298.286494,666.185348,8290.306550
2703.138626,-2604.724693,814.226536,7920.203579
2703.138956,-2757.943793,666.185348,7698.141797
2703.139285,-3064.381992,-0.000000,7179.997637
2703.139614,-3217.601092,-518.144159,7772.162391
2703.139943,-2834.553343,-1258.350101,7994.224174
2703.140272,-3753.867940,-2072.576638,8956.491898
2703.140601,-4213.525239,-2146.597232,9474.636058
2703.140930,-4673.182538,-2812.782580,10066.800811
2703.141259,-4903.011187,-2442.679609,10584.944971
2703.141589,-4519.963438,-1998.556043,10658.965565
2703.141918,-4136.915689,-1406.391290,10732.986159
2703.142247,-3907.087040,-148.041188,10732.986159
2703.142576,-2528.115143,1332.370696,9844.739029
2703.142905,-2068.457845,1924.535449,8882.471304
2703.143234,-1915.238745,2368.659014,7846.182985
2703.143563,-1455.581446,2368.659014,7624.121203
2703.143892,-1455.581446,1332.370696,7105.977043
2703.144222,-2374.896044,1184.329507,8216.285956
2703.144551,-1915.238745,148.041188,7624.121203
2703.144880,-1685.410096,-0.000000,7698.141797
2703.145209,-2451.505594,-518.144159,8068.244768
2703.145538,-2911.162892,-0.000000,7994.224174
2703.145867,-2757.943793,-148.041188,9104.533087
2703.146196,-3064.381992,814.226536,8512.368333
2703.146525,-3140.991542,1332.370696,9548.656652
2703.146855,-3677.258390,1554.432478,10066.800811
2703.147184,-3217.601092,1850.514855,9918.759623
2703.147513,-2451.505594,2220.617826,9696.697840
2703.147842,-2681.334243,1480.411884,10140.821405
2703.148171,-2374.896044,888.247130,10510.924376
2703.148500,-2221.676944,518.144159,9844.739029
2703.148829,-1532.190996,296.082377,10362.883188
2703.149158,-995.924147,592.164754,9474.636058
2703.149488,-383.047749,222.061783,9030.512492
2703.149817,-995.924147,592.164754,10066.800811
2703.150146,919.314598,1036.288319,9548.656652
2703.150475,2298.286494,2516.700203,7179.997637
2703.150804,3753.867940,3404.947333,7179.997637
2703.151133,3600.648841,4515.256246,6587.832884
2703.151462,4060.306139,4589.276840,7624.121203
2703.151791,2451.505594,5773.606348,8068.244768
2703.152121,2451.505594,4293.194464,8512.368333
2703.152450,995.924147,3627.009116,9918.759623
2703.152779,-919.314598,2886.803174,9474.636058
2703.153108,-995.924147,1554.432478,10807.006753
2703.153437,-1915.238745,1184.329507,11029.068536
2703.153766,-689.485948,888.247130,10436.903782
2703.154095,76.609550,1258.350101,9844.739029
2703.154424,995.924147,2960.823768,8512.368333
2703.154754,1378.971896,3404.947333,8216.285956
2703.155083,2451.505594,3923.091493,7476.080014
2703.155412,2221.676944,4737.318029,6143.709319
2703.155741,1915.238745,5255.462188,7920.203579
2703.156070,1149.143247,4515.256246,8216.285956
2703.156399,-842.705048,3404.947333,9030.512492
2703.156728,-2298.286494,3108.864956,9770.718434
2703.157057,-3677.258390,1480.411884,10955.047942
2703.157387,-3677.258390,592.164754,12139.377449
2703.157716,-3524.039291,1924.535449,10362.883188
2703.158045,-2757.943793,2072.576638,10584.944971
2703.158374,-2834.553343,2812.782580,9696.697840
2703.158703,-2451.505594,2590.720797,10140.821405
2703.159032,-1762.019645,2516.700203,10066.800811
2703.159361,-1225.752797,3108.864956,8512.368333
2703.159690,-1225.752797,2590.720797,8586.388927
2703.160020,-1608.800546,1998.556043,9474.636058
2703.160349,689.485948,814.226536,12361.439231
2703.160678,1685.410096,4071.132681,6809.894666
2703.161007,5132.839837,4737.318029,8142.265362
2703.161336,3600.648841,5107.421000,5181.441594
2703.161665,3600.648841,6587.832884,7105.977043
2703.161994,1838.629195,6735.874072,7846.182985
2703.162323,1685.410096,5995.668130,7254.018232
2703.162653,1532.190996,5107.421000,8660.409521
2703.162982,-383.047749,5403.503377,7476.080014
2703.163311,-1915.238745,2220.617826,9400.615463
2703.163640,-2834.553343,-592.164754,11843.295072
2703.163969,-1991.848295,1036.288319,9770.718434
2703.164298,-1991.848295,-1036.288319,11103.089130
2703.164627,-2298.286494,592.164754,9918.759623
2703.164956,-229.828649,2886.803174,11177.109724
2703.165286,1378.971896,1998.556043,9400.615463
2703.165615,2145.067394,4959.379811,7624.121203
2703.165944,2451.505594,4515.256246,7624.121203
2703.166273,4596.572988,4885.359217,7698.141797
2703.166602,3370.820191,6661.853478,6883.915261
2703.166931,3140.991542,4515.256246,7550.100608
2703.167260,1532.190996,4219.173869,6957.935855
2703.167589,1838.629195,2368.659014,10066.800811
2703.167919,-1991.848295,518.144159,9770.718434
2703.168248,-3294.210641,-1258.350101,13915.871710
2703.168577,-3370.820191,370.102971,11473.192101
2703.168906,-2681.334243,-1406.391290,10881.027347
2703.169235,-3524.039291,1036.288319,9400.615463
2703.169564,-1991.848295,1776.494261,11103.089130
2703.169893,0.000000,2220.617826,9400.615463
2703.170222,-689.485948,2368.659014,9252.574275
2703.170552,4290.134789,1480.411884,10955.047942
2703.170881,3677.258390,3997.112087,3701.029710
2703.171210,4290.134789,2590.720797,10140.821405
2703.171539,3140.991542,3701.029710,5625.565159
2703.171868,4903.011187,5477.523971,6513.812290
2703.172197,2987.772442,3849.070898,7550.100608
2703.172526,2834.553343,6143.709319,4959.379811
2703.172856,1455.581446,3627.009116,9622.677246
2703.173185,-536.266849,2516.700203,7994.224174
2703.173514,-3983.696590,-2294.638420,14285.974681
2703.173843,-5362.668486,-4737.318029,13101.645173
2703.174172,-3064.381992,296.082377,10807.006753
2703.174501,-2681.334243,-3775.050304,13249.686362
2703.174830,-3140.991542,1480.411884,7550.100608
2703.175159,-383.047749,2960.823768,10510.924376
2703.175489,-459.657299,2590.720797,7846.182985
2703.175818,1608.800546,3182.885551,11695.253884
2703.176147,2451.505594,2812.782580,7476.080014
2703.176476,5669.106685,4071.132681,8364.327145
2703.176805,3217.601092,8734.430116,1628.453072
2703.177134,5056.230287,3330.926739,5477.523971
2703.177463,3217.601092,3775.050304,8512.368333
2703.177792,2834.553343,5181.441594,7920.203579
2703.178122,3370.820191,3034.844362,6587.832884
2703.178451,-766.095498,7105.977043,7254.018232
2703.178780,-2987.772442,1480.411884,9252.574275
2703.179109,-4903.011187,-4145.153275,15618.345376
2703.179438,-4903.011187,3627.009116,9474.636058
2703.179767,-2757.943793,-888.247130,12287.418637
2703.180096,-3447.429741,-2664.741391,11621.233289
2703.180425,-2451.505594,4441.235652,11325.150913
2703.180755,-612.876398,1110.308913,8734.430116
2703.181084,-3217.601092,4737.318029,7772.162391
2703.181413,995.924147,-740.205942,16136.489536
2703.181742,3140.991542,1776.494261,7031.956449
2703.182071,4366.744339,6735.874072,8660.409521
2703.182400,3217.601092,4367.215058,4441.235652
2703.182729,2987.772442,6587.832884,4441.235652
2703.183058,2451.505594,5551.544565,11029.068536
2703.183388,0.000000,6365.771101,6069.688724
2703.183717,1455.581446,6365.771101,11473.192101
2703.184046,-1762.019645,4219.173869,7994.224174
2703.184375,0.000000,4441.235652,7402.059420
2703.184704,-2528.115143,1406.391290,10881.027347
2703.185033,-2528.115143,-1702.473667,11251.130318
2703.185362,-2145.067394,1924.535449,9992.780217
2703.185691,-766.095498,-3256.906145,10881.027347
2703.186021,-1915.238745,2442.679609,7254.018232
2703.186350,76.609550,2812.782580,11399.171507
2703.186679,919.314598,3478.967927,7920.203579
2703.187008,1838.629195,7772.162391,7994.224174
2703.187337,3294.210641,4885.359217,7254.018232
2703.187666,1991.848295,4885.359217,9844.739029
2703.187995,-153.219100,5625.565159,9400.615463
2703.188324,536.266849,4589.276840,6957.935855
2703.188654,536.266849,2960.823768,7772.162391
2703.188983,995.924147,-148.041188,11473.192101
2703.189312,-383.047749,-0.000000,10955.047942
2703.189641,-383.047749,2664.741391,10584.944971
2703.189970,-1225.752797,-74.020594,9474.636058
2703.190299,-383.047749,1480.411884,8512.368333
2703.190628,1762.019645,4885.359217,9474.636058
2703.190957,766.095498,3701.029710,8364.327145
2703.191287,306.438199,4145.153275,8808.450710
2703.191616,2528.115143,2516.700203,7328.038826
2703.191945,3600.648841,3552.988522,8216.285956
2703.192274,2451.505594,3849.070898,8142.265362
2703.192603,1455.581446,2664.741391,7105.977043
2703.192932,842.705048,2220.617826,8882.471304
2703.193261,842.705048,4515.256246,7476.080014
2703.193590,1608.800546,3108.864956,9104.533087
2703.193919,-766.095498,2442.679609,10584.944971
2703.194248,-2757.943793,2294.638420,9474.636058
2703.194577,-2145.067394,814.226536,11547.212695
2703.194906,-2068.457845,-1628.453072,10955.047942
2703.195235,-1608.800546,-296.082377,11325.150913
2703.195564,-1149.143247,740.205942,9992.780217
2703.195893,76.609550,1480.411884,8586.388927
2703.196222,2221.676944,2146.597232,7772.162391
2703.196552,3677.258390,4219.173869,6883.915261
2703.196881,1149.143247,3627.009116,7772.162391
2703.197210,306.438199,3627.009116,8438.347739
2703.197539,1838.629195,2590.720797,7994.224174
2703.197868,2987.772442,2368.659014,7920.203579
2703.198197,1302.362347,4811.338623,6587.832884
2703.198526,995.924147,2368.659014,9918.759623
2703.198855,-1225.752797,148.041188,10881.027347
2703.199184,-1149.143247,222.061783,10658.965565
2703.199513,-2374.896044,1406.391290,10362.883188
2703.199842,-3830.477490,-0.000000,11473.192101
2703.200171,-3753.867940,814.226536,10288.862594
2703.200500,-1225.752797,1332.370696,9400.615463
2703.200829,-1225.752797,2220.617826,8290.306550
2703.201158,-612.876398,2146.597232,9400.615463
2703.201487,919.314598,2294.638420,8216.285956
2703.201816,1608.800546,3330.926739,8142.265362
2703.202145,1762.019645,2220.617826,7994.224174
2703.202474,1302.362347,148.041188,8290.306550
2703.202803,1762.019645,-370.102971,10955.047942
2703.203132,1378.971896,1258.350101,9178.553681
2703.203461,536.266849,962.267725,9622.677246
2703.203790,76.609550,2146.597232,9770.718434
2703.204119,0.000000,1702.473667,9770.718434
2703.204448,-842.705048,2664.741391,9474.636058
2703.204777,-1072.533697,1406.391290,9474.636058
2703.205107,0.000000,444.123565,9918.759623
2703.205436,1225.752797,740.205942,9104.533087
2703.205765,1225.752797,1776.494261,7624.121203
2703.206094,1149.143247,-740.205942,8438.347739
2703.206423,1225.752797,-74.020594,8216.285956
2703.206752,1072.533697,888.247130,7179.997637
2703.207081,1455.581446,1184.329507,7698.141797
2703.207410,1915.238745,1036.288319,7698.141797
2703.207739,2451.505594,592.164754,8882.471304
2703.208068,1455.581446,1110.308913,9178.553681
2703.208397,153.219100,-148.041188,9474.636058
2703.208726,-153.219100,-1184.329507,10362.883188
2703.209055,-536.266849,518.144159,9918.759623
2703.209384,-995.924147,962.267725,9992.780217
2703.209713,-689.485948,-0.000000,10140.821405
2703.210042,0.000000,-0.000000,9326.594869
2703.210371,0.000000,740.205942,9178.553681
2703.210700,229.828649,1480.411884,7920.203579
2703.211029,0.000000,-222.061783,8808.450710
2703.211358,229.828649,-222.061783,8364.327145
2703.211687,306.438199,666.185348,7550.100608
2703.212016,842.705048,-1554.432478,8734.430116
2703.212345,306.438199,-3404.947333,9696.697840
2703.212674,0.000000,-1480.411884,9548.656652
2703.213003,0.000000,-0.000000,9474.636058
2703.213332,-306.438199,-222.061783,9992.780217
2703.213662,536.266849,370.102971,10658.965565
2703.213991,-306.438199,2738.761985,8586.388927
2703.214320,0.000000,1998.556043,9252.574275
2703.214649,383.047749,-0.000000,9548.656652
2703.214978,1149.143247,-666.185348,9770.718434
2703.215307,306.438199,-370.102971,9474.636058
2703.215636,0.000000,-1554.432478,9326.594869
2703.215965,-153.219100,-1406.391290,8216.285956
2703.216294,153.219100,-1184.329507,8734.430116
2703.216623,76.609550,-0.000000,7846.182985
2703.216952,306.438199,-814.226536,8364.327145
2703.217281,1532.190996,-0.000000,8216.285956
2703.217610,1838.629195,1332.370696,8068.244768
2703.217939,1532.190996,222.061783,9104.533087
2703.218268,1532.190996,-1332.370696,9474.636058
2703.218597,995.924147,666.185348,9548.656652
2703.218926,306.438199,370.102971,9178.553681
2703.219255,766.095498,-0.000000,9474.636058
2703.219584,1762.019645,444.123565,8882.471304
2703.219913,536.266849,518.144159,9178.553681
2703.220242,76.609550,-222.061783,9548.656652
2703.220571,229.828649,-814.226536,8586.388927
2703.220900,153.219100,-0.000000,8438.347739
2703.221229,-383.047749,148.041188,7624.121203
2703.221558,0.000000,-2368.659014,9696.697840
2703.221887,0.000000,-1554.432478,7476.080014
2703.222217,306.438199,-2072.576638,8882.471304
2703.222546,153.219100,-1628.453072,9918.759623
2703.222875,-383.047749,-2294.638420,9326.594869
2703.223204,-306.438199,-0.000000,8882.471304
2703.223533,-536.266849,518.144159,9770.718434
2703.223862,0.000000,-222.061783,9992.780217
2703.224191,689.485948,-444.123565,9696.697840
2703.224520,0.000000,518.144159,9104.533087
2703.224849,-306.438199,222.061783,9770.718434
2703.225178,383.047749,-1036.288319,9474.636058
2703.225507,0.000000,-518.144159,7698.141797
2703.225836,-306.438199,-74.020594,9252.574275
2703.226165,-766.095498,-666.185348,9326.594869
2703.226494,0.000000,-962.267725,8068.244768
2703.226823,-383.047749,-518.144159,8438.347739
2703.227152,0.000000,-518.144159,8216.285956
2703.227481,459.657299,-1628.453072,9918.759623
2703.227810,-536.266849,444.123565,8734.430116
2703.228139,-612.876398,518.144159,9104.533087
2703.228468,383.047749,-74.020594,10288.862594
2703.228797,1838.629195,-0.000000,9400.615463
2703.229126,1915.238745,962.267725,8956.491898
2703.229455,1302.362347,444.123565,9252.574275
2703.229784,1378.971896,370.102971,9326.594869
2703.230113,1685.410096,1184.329507,8586.388927
2703.230442,842.705048,2516.700203,7994.224174
2703.230771,612.876398,740.205942,8882.471304
2703.231101,1378.971896,-814.226536,9104.533087
2703.231430,995.924147,-1184.329507,7846.182985
2703.231759,383.047749,-1258.350101,8734.430116
2703.232088,306.438199,-2664.741391,9622.677246
2703.232417,-766.095498,-1480.411884,9252.574275
2703.232746,-1072.533697,-148.041188,10066.800811
2703.233075,0.000000,-370.102971,9918.759623
2703.233404,612.876398,-518.144159,9104.533087
2703.233733,842.705048,296.082377,9548.656652
2703.234062,995.924147,592.164754,9844.739029
2703.234391,1378.971896,592.164754,9548.656652
2703.234720,1762.019645,1036.288319,8956.491898
2703.235049,689.485948,962.267725,8882.471304
2703.235378,383.047749,444.123565,9030.512492
2703.235707,689.485948,-1332.370696,9178.553681
2703.236036,383.047749,-740.205942,8216.285956
2703.236365,-689.485948,-1110.308913,8808.450710
2703.236694,-766.095498,-2368.659014,10066.800811
2703.237023,-1378.971896,-1702.473667,8956.491898
2703.237352,-2374.896044,-1184.329507,8882.471304
2703.237681,-2221.676944,-740.205942,9030.512492
2703.238010,-689.485948,-1850.514855,9474.636058
2703.238339,153.219100,-0.000000,9030.512492
2703.238668,612.876398,-740.205942,9474.636058
2703.238997,1225.752797,222.061783,9104.533087
2703.239326,2068.457845,1184.329507,8290.306550
2703.239656,919.314598,2368.659014,7920.203579
2703.239985,1455.581446,1110.308913,8882.471304
2703.240314,2374.896044,740.205942,8142.265362
2703.240643,2298.286494,-0.000000,7254.018232
2703.240972,1302.362347,-0.000000,8438.347739
2703.241301,76.609550,-1998.556043,9696.697840
2703.241630,0.000000,-2146.597232,8882.471304
2703.241959,-1149.143247,-222.061783,8882.471304
2703.242288,-1225.752797,-962.267725,9400.615463
2703.242617,-536.266849,-1628.453072,10140.821405
2703.242946,-459.657299,-814.226536,9030.512492
2703.243275,0.000000,222.061783,9252.574275
2703.243604,1455.581446,-296.082377,9992.780217
2703.243933,1302.362347,-592.164754,8660.409521
2703.244262,1455.581446,2146.597232,7846.182985
2703.244591,1302.362347,1184.329507,8956.491898
2703.244920,2145.067394,222.061783,9474.636058
2703.245249,2298.286494,740.205942,8660.409521
2703.245578,1532.190996,-0.000000,8734.430116
2703.245907,153.219100,-1036.288319,9844.739029
2703.246236,0.000000,-1554.432478,9770.718434
2703.246565,-1991.848295,-666.185348,9178.553681
2703.246894,-1762.019645,-1406.391290,9770.718434
2703.247223,-1532.190996,-2294.638420,9918.759623
2703.247552,-995.924147,-1702.473667,9770.718434
2703.247881,-995.924147,-740.205942,9030.512492
2703.248211,0.000000,-1258.350101,9326.594869
2703.248540,919.314598,-222.061783,8956.491898
2703.248869,306.438199,1406.391290,7402.059420
2703.249198,459.657299,1480.411884,8438.347739
2703.249527,1378.971896,1332.370696,7994.224174
2703.249856,2145.067394,666.185348,8142.265362
2703.250185,1149.143247,1184.329507,8586.388927
2703.250514,383.047749,-222.061783,9030.512492
2703.250843,0.000000,-1628.453072,10140.821405
2703.251172,-1378.971896,962.267725,9326.594869
2703.251501,-919.314598,-0.000000,9400.615463
2703.251830,-842.705048,-1406.391290,10066.800811
2703.252159,0.000000,-962.267725,9844.739029
2703.252488,0.000000,-148.041188,9104.533087
2703.252817,383.047749,-444.123565,9474.636058
2703.253146,919.314598,-0.000000,9326.594869
2703.253475,1532.190996,888.247130,8216.285956
2703.253804,1455.581446,1776.494261,8364.327145
2703.254133,2145.067394,518.144159,8734.430116
2703.254462,2374.896044,962.267725,7994.224174
2703.254791,1915.238745,1850.514855,7846.182985
2703.255120,1302.362347,444.123565,9104.533087
2703.255449,0.000000,-0.000000,9770.718434
2703.255778,-229.828649,-592.164754,9400.615463
2703.256107,-1378.971896,-296.082377,9770.718434
2703.256436,-1149.143247,-1258.350101,10214.842000
2703.256766,-995.924147,-1924.535449,10066.800811
2703.257095,-1149.143247,-296.082377,9252.574275
2703.257424,-229.828649,-1258.350101,10214.842000
2703.257753,766.095498,-222.061783,9178.553681
2703.258082,1532.190996,592.164754,7846.182985
2703.258411,1072.533697,1628.453072,8586.388927
2703.258740,1532.190996,1258.350101,8438.347739
2703.259069,2451.505594,1184.329507,7624.121203
2703.259398,1838.629195,1850.514855,7476.080014
2703.259727,689.485948,444.123565,9104.533087
2703.260056,536.266849,-666.185348,9400.615463
2703.260385,-1149.143247,-1702.473667,9770.718434
2703.260714,-1838.629195,-592.164754,9474.636058
2703.261043,-1302.362347,-2442.679609,9622.677246
2703.261372,-1302.362347,-1924.535449,10066.800811
2703.261701,-1532.190996,-1184.329507,9696.697840
2703.262030,-842.705048,-1776.494261,9770.718434
2703.262359,383.047749,-1258.350101,8734.430116
2703.262688,1149.143247,-296.082377,7994.224174
2703.263017,1149.143247,1480.411884,8364.327145
2703.263346,1532.190996,296.082377,8068.244768
2703.263675,2681.334243,592.164754,7920.203579
2703.264004,2528.115143,1184.329507,7624.121203
2703.264333,1762.019645,1110.308913,8660.409521
2703.264662,689.485948,-518.144159,9548.656652
2703.264991,76.609550,-370.102971,9104.533087
2703.265321,-1225.752797,-222.061783,9326.594869
2703.265650,-919.314598,-1924.535449,10807.006753
2703.265979,-1302.362347,-2960.823768,11325.150913
2703.266308,-1915.238745,-1702.473667,10510.924376
2703.266637,-995.924147,-1258.350101,10288.862594
2703.266966,76.609550,-1480.411884,9696.697840
2703.267295,766.095498,-74.020594,9178.553681
2703.267624,995.924147,1036.288319,8142.265362
2703.267953,1915.238745,518.144159,8364.327145
2703.268282,2911.162892,1628.453072,7920.203579
2703.268611,3217.601092,1184.329507,7402.059420
2703.268940,1838.629195,1332.370696,7846.182985
2703.269269,1378.971896,-296.082377,9252.574275
2703.269598,-306.438199,-962.267725,9474.636058
2703.269927,-1762.019645,-148.041188,8586.388927
2703.270256,-1838.629195,-2072.576638,10436.903782
2703.270585,-1685.410096,-2368.659014,10510.924376
2703.270914,-1915.238745,-1184.329507,9548.656652
2703.271243,-1455.581446,-1332.370696,10362.883188
2703.271572,-766.095498,-1110.308913,9770.718434
2703.271901,306.438199,740.205942,8734.430116
2703.272230,1225.752797,962.267725,8068.244768
2703.272559,1455.581446,1110.308913,8216.285956
2703.272888,2834.553343,370.102971,8290.306550
2703.273217,2911.162892,1110.308913,6661.853478
2703.273546,1838.629195,1924.535449,7476.080014
2703.273876,1762.019645,592.164754,8438.347739
2703.274205,612.876398,-0.000000,7920.203579
2703.274534,-919.314598,-0.000000,9104.533087
2703.274863,-919.314598,-1036.288319,9474.636058
2703.275192,-995.924147,-2072.576638,10288.862594
2703.275521,-1762.019645,-1850.514855,9992.780217
2703.275850,-1302.362347,-1776.494261,11103.089130
2703.276179,-459.657299,-2072.576638,10732.986159
2703.276508,76.609550,-666.185348,9252.574275
2703.276837,995.924147,2220.617826,8142.265362
2703.277166,1532.190996,2220.617826,8290.306550
2703.277495,2757.943793,1628.453072,8290.306550
2703.277824,3370.820191,2664.741391,7402.059420
2703.278153,2757.943793,1998.556043,8068.244768
2703.278482,1685.410096,1258.350101,8512.368333
2703.278811,1378.971896,-0.000000,8734.430116
2703.279140,-306.438199,-370.102971,9474.636058
2703.279469,-995.924147,-962.267725,10066.800811
2703.279798,-1149.143247,-2442.679609,10881.027347
2703.280127,-1762.019645,-1628.453072,9918.759623
2703.280456,-2145.067394,-0.000000,10658.965565
2703.280785,-1838.629195,-814.226536,10881.027347
2703.281114,-612.876398,-370.102971,9400.615463
2703.281443,-306.438199,1184.329507,8660.409521
2703.281772,689.485948,814.226536,9548.656652
2703.282101,1762.019645,740.205942,8216.285956
2703.282431,2757.943793,222.061783,8068.244768
2703.282760,2374.896044,1184.329507,7476.080014
2703.283089,1455.581446,518.144159,8586.388927
2703.283418,919.314598,148.041188,8512.368333
2703.283747,-229.828649,296.082377,7328.038826
2703.284076,-1225.752797,592.164754,9030.512492
2703.284405,-1225.752797,-2368.659014,10066.800811
2703.284734,-1762.019645,-2220.617826,9992.780217
2703.285063,-2145.067394,-2072.576638,10362.883188
2703.285392,-1991.848295,-3552.988522,10510.924376
2703.285721,-842.705048,-1998.556043,10214.842000
2703.286050,0.000000,592.164754,8290.306550
2703.286379,766.095498,518.144159,9030.512492
2703.286708,2145.067394,888.247130,7920.203579
2703.287037,3370.820191,518.144159,7476.080014
2703.287366,3217.601092,1702.473667,7328.038826
2703.287695,2374.896044,666.185348,7920.203579
2703.288024,2068.457845,-296.082377,8068.244768
2703.288353,536.266849,-222.061783,8364.327145
2703.288682,76.609550,-148.041188,8734.430116
2703.289011,-842.705048,-2516.700203,9992.780217
2703.289340,-1225.752797,-2664.741391,9844.739029
2703.289669,-1532.190996,-1184.329507,9918.759623
2703.289998,-1915.238745,-1628.453072,11029.068536
2703.290327,-919.314598,-1110.308913,10288.862594
2703.290656,0.000000,-0.000000,9178.553681
2703.290986,0.000000,888.247130,9030.512492
2703.291315,1608.800546,222.061783,8882.471304
2703.291644,2911.162892,740.205942,8290.306550
2703.291973,2681.334243,740.205942,7476.080014
2703.292302,2757.943793,1406.391290,8586.388927
2703.292631,2528.115143,666.185348,7328.038826
2703.292960,1225.752797,888.247130,7624.121203
2703.293289,229.828649,1110.308913,8290.306550
2703.293618,0.000000,-1036.288319,9474.636058
2703.293947,-995.924147,-2072.576638,9548.656652
2703.294276,-1378.971896,-1924.535449,9844.739029
2703.294605,-2221.676944,-2738.761985,10732.986159
2703.294934,-2145.067394,-2664.741391,11029.068536
2703.295263,-1225.752797,-222.061783,9400.615463
2703.295592,-766.095498,-296.082377,8882.471304
2703.295921,153.219100,592.164754,9104.533087
2703.296251,2374.896044,370.102971,8512.368333
2703.296580,2604.724693,1776.494261,7031.956449
2703.296909,2145.067394,1406.391290,7772.162391
2703.297238,2451.505594,962.267725,7994.224174
2703.297567,1762.019645,888.247130,8068.244768
2703.297896,919.314598,1258.350101,8512.368333
2703.298225,612.876398,-1850.514855,9696.697840
2703.298554,0.000000,-1480.411884,9030.512492
2703.298883,-459.657299,-1480.411884,9696.697840
2703.299212,-995.924147,-1480.411884,10362.883188
2703.299541,-1838.629195,-1776.494261,10140.821405
2703.299870,-1302.362347,-148.041188,9918.759623
2703.300199,-766.095498,592.164754,9030.512492
2703.300528,0.000000,962.267725,9400.615463
2703.300857,1455.581446,888.247130,9104.533087
2703.301187,1991.848295,666.185348,7846.182985
2703.301516,1608.800546,1184.329507,8882.471304
2703.301845,2757.943793,962.267725,8438.347739
2703.302174,1378.971896,222.061783,9252.574275
2703.302503,0.000000,1702.473667,8438.347739
2703.302832,229.828649,592.164754,9030.512492
2703.303161,229.828649,-74.020594,9622.677246
2703.303490,-383.047749,-0.000000,9326.594869
2703.303819,-1225.752797,-518.144159,10288.862594
2703.304148,-1532.190996,-2072.576638,10510.924376
2703.304477,-995.924147,-1480.411884,9622.677246
2703.304806,-842.705048,-296.082377,9326.594869
2703.305135,-306.438199,-0.000000,9178.553681
2703.305464,766.095498,-0.000000,9178.553681
2703.305793,1685.410096,1036.288319,7994.224174
2703.306123,1149.143247,1184.329507,7994.224174
2703.306452,1455.581446,518.144159,8956.491898
2703.306781,1378.971896,444.123565,8068.244768
2703.307110,153.219100,222.061783,7994.224174
2703.307439,-306.438199,-740.205942,9400.615463
2703.307768,153.219100,-2368.659014,9400.615463
2703.308097,-229.828649,-2960.823768,9992.780217
2703.308426,-919.314598,-1036.288319,9474.636058
2703.308755,-383.047749,-2812.782580,10436.903782
2703.309084,0.000000,-592.164754,9400.615463
2703.309413,153.219100,1036.288319,7994.224174
2703.309742,459.657299,-0.000000,9696.697840
2703.310071,1149.143247,148.041188,8660.409521
2703.310400,2374.896044,-0.000000,8882.471304
2703.310729,2145.067394,-0.000000,8586.388927
2703.311059,919.314598,-888.247130,8660.409521
2703.311388,1762.019645,-740.205942,8882.471304
2703.311717,536.266849,444.123565,7846.182985
2703.312046,153.219100,-0.000000,9548.656652
2703.312375,536.266849,-1258.350101,9178.553681
2703.312704,306.438199,-148.041188,8586.388927
2703.313033,-612.876398,-296.082377,9326.594869
2703.313362,-459.657299,-1776.494261,10066.800811
2703.313691,76.609550,-1258.350101,9104.533087
2703.314020,0.000000,222.061783,8364.327145
2703.314349,229.828649,518.144159,9548.656652
2703.314678,1149.143247,-1110.308913,9696.697840
2703.315007,1608.800546,-0.000000,7994.224174
2703.315336,1378.971896,740.205942,7772.162391
2703.315665,842.705048,518.144159,8956.491898
2703.315995,1378.971896,296.082377,8660.409521
2703.316324,0.000000,1924.535449,7846.182985
2703.316653,0.000000,296.082377,9030.512492
2703.316982,0.000000,-666.185348,8956.491898
2703.317311,0.000000,-1776.494261,9104.533087
2703.317640,-689.485948,-1258.350101,9474.636058
2703.317969,-536.266849,-2072.576638,9770.718434
2703.318298,0.000000,-1702.473667,9844.739029
2703.318627,-383.047749,-0.000000,8438.347739
2703.318956,0.000000,814.226536,8660.409521
2703.319285,766.095498,-518.144159,9104.533087
2703.319614,1608.800546,222.061783,8068.244768
2703.319943,1225.752797,592.164754,8364.327145
2703.320272,1302.362347,-592.164754,9400.615463
2703.320602,1225.752797,-592.164754,9474.636058
2703.320931,383.047749,-296.082377,8956.491898
2703.321260,-612.876398,-0.000000,8956.491898
2703.321589,229.828649,-1036.288319,9918.759623
2703.321918,612.876398,-1184.329507,9104.533087
2703.322247,-306.438199,-814.226536,9474.636058
2703.322576,-536.266849,-1036.288319,9918.759623
2703.322905,229.828649,-888.247130,8882.471304
2703.323234,229.828649,740.205942,8512.368333
2703.323563,0.000000,1184.329507,9178.553681
2703.323892,536.266849,-444.123565,9326.594869
2703.324221,1225.752797,-666.185348,8586.388927
2703.324550,995.924147,962.267725,8660.409521
2703.324879,919.314598,148.041188,9918.759623
2703.325208,919.314598,-296.082377,8734.430116
2703.325538,76.609550,1554.432478,8734.430116
2703.325867,-153.219100,1480.411884,9178.553681
2703.326196,-306.438199,666.185348,9400.615463
2703.326525,76.609550,-296.082377,9178.553681
2703.326854,-153.219100,518.144159,8660.409521
2703.327183,-995.924147,-74.020594,9474.636058
2703.327512,-153.219100,-1332.370696,10066.800811
2703.327841,-536.266849,-740.205942,9326.594869
2703.328170,-306.438199,370.102971,8882.471304
2703.328499,-229.828649,-74.020594,8956.491898
2703.328828,689.485948,296.082377,8808.450710
2703.329157,919.314598,1110.308913,8438.347739
2703.329486,1149.143247,666.185348,8512.368333
2703.329815,995.924147,1702.473667,8956.491898
2703.330144,-229.828649,592.164754,8512.368333
2703.330474,-153.219100,740.205942,8808.450710
2703.330803,153.219100,-666.185348,9622.677246
2703.331132,689.485948,-1480.411884,9178.553681
2703.331461,-153.219100,-1036.288319,9030.512492
2703.331790,-153.219100,-1258.350101,9474.636058
2703.332119,306.438199,-1554.432478,9178.553681
2703.332448,459.657299,-518.144159,8808.450710
2703.332777,459.657299,666.185348,8216.285956
2703.333106,842.705048,-74.020594,8586.388927
2703.333435,1685.410096,-296.082377,8586.388927
2703.333764,1685.410096,592.164754,7994.224174
2703.334093,1378.971896,-888.247130,9622.677246
2703.334422,1455.581446,-1406.391290,8808.450710
2703.334751,919.314598,518.144159,9252.574275
2703.335080,-306.438199,-0.000000,9104.533087
2703.335410,-306.438199,-296.082377,9474.636058
2703.335739,612.876398,-444.123565,9474.636058
2703.336068,229.828649,-592.164754,9178.553681
2703.336397,153.219100,-0.000000,9918.759623
2703.336726,689.485948,-1110.308913,9622.677246
2703.337055,536.266849,-0.000000,7846.182985
2703.337384,0.000000,1406.391290,8956.491898
2703.337713,536.266849,-0.000000,9400.615463
2703.338042,612.876398,-518.144159,8660.409521
2703.338371,919.314598,814.226536,8956.491898
2703.338700,766.095498,-0.000000,8438.347739
2703.339029,383.047749,-0.000000,10362.883188
2703.339358,229.828649,296.082377,9326.594869
2703.339687,-689.485948,888.247130,8290.306550
2703.340016,-995.924147,370.102971,9844.739029
2703.340346,0.000000,-1110.308913,9844.739029
2703.340675,0.000000,-518.144159,9474.636058
2703.341004,0.000000,-222.061783,9400.615463
2703.341333,612.876398,-1776.494261,9474.636058
2703.341662,536.266849,-0.000000,8956.491898
2703.341991,306.438199,518.144159,8734.430116
2703.342320,383.047749,814.226536,8290.306550
2703.342649,1072.533697,-444.123565,8216.285956
2703.342978,766.095498,222.061783,7994.224174
2703.343307,919.314598,-74.020594,9622.677246
2703.343636,383.047749,-1184.329507,9474.636058
2703.343965,-766.095498,-1924.535449,9474.636058
2703.344294,-306.438199,-296.082377,9474.636058
2703.344623,-842.705048,-148.041188,9400.615463
2703.344952,306.438199,-1850.514855,10214.842000
2703.345282,689.485948,-0.000000,8290.306550
2703.345611,459.657299,-444.123565,9326.594869
2703.345940,842.705048,-370.102971,10436.903782
2703.346269,1455.581446,-1184.329507,8512.368333
2703.346598,919.314598,592.164754,8438.347739
2703.346927,766.095498,740.205942,8290.306550
2703.347256,1149.143247,-0.000000,9178.553681
2703.347585,1072.533697,-370.102971,9178.553681
2703.347914,306.438199,-0.000000,8734.430116
2703.348243,0.000000,-740.205942,9844.739029
2703.348572,0.000000,-1184.329507,9696.697840
2703.348901,-919.314598,-0.000000,9178.553681
2703.349230,-995.924147,-222.061783,9844.739029
2703.349559,-153.219100,-888.247130,10214.842000
2703.349888,0.000000,-0.000000,8660.409521
2703.350218,536.266849,-0.000000,9030.512492
2703.350547,995.924147,-0.000000,9030.512492
2703.350876,1378.971896,222.061783,8882.471304
2703.351205,919.314598,1258.350101,7698.141797
2703.351534,689.485948,962.267725,8290.306550
2703.351863,1302.362347,666.185348,8586.388927
2703.352192,1225.752797,-0.000000,8142.265362
2703.352521,689.485948,740.205942,9326.594869
2703.352850,536.266849,-1110.308913,9622.677246
2703.353179,306.438199,-222.061783,9030.512492
2703.353508,-612.876398,-0.000000,8808.450710
2703.353837,-1225.752797,-74.020594,9400.615463
2703.354166,-383.047749,-222.061783,9992.780217
2703.354495,689.485948,-962.267725,9696.697840
2703.354824,536.266849,962.267725,8512.368333
2703.355154,919.314598,-444.123565,9770.718434
2703.355483,995.924147,-0.000000,8364.327145
2703.355812,1915.238745,962.267725,8216.285956
2703.356141,1455.581446,1480.411884,9178.553681
2703.356470,1455.581446,-0.000000,8586.388927
2703.356799,1608.800546,296.082377,8586.388927
2703.357128,842.705048,-148.041188,9030.512492
2703.357457,536.266849,-1332.370696,10214.842000
2703.357786,153.219100,-1554.432478,9770.718434
2703.358115,-459.657299,-740.205942,9696.697840
2703.358444,-1149.143247,-0.000000,9696.697840
2703.358773,-612.876398,-1110.308913,9548.656652
2703.359102,-306.438199,-666.185348,9474.636058
2703.359431,0.000000,-0.000000,9918.759623
2703.359760,-383.047749,-1036.288319,9474.636058
2703.360090,1378.971896,-592.164754,8956.491898
2703.360419,995.924147,296.082377,8438.347739
2703.360748,536.266849,1702.473667,7994.224174
2703.361077,766.095498,666.185348,8882.471304
2703.361406,1072.533697,-0.000000,8290.306550
2703.361735,229.828649,-0.000000,8216.285956
2703.362064,0.000000,-814.226536,9992.780217
2703.362393,-536.266849,-1776.494261,9548.656652
2703.362722,-1532.190996,-296.082377,9030.512492
2703.363051,-2068.457845,-518.144159,9696.697840
2703.363380,-1225.752797,-814.226536,10066.800811
2703.363709,-689.485948,-814.226536,8956.491898
2703.364038,0.000000,-222.061783,9104.533087
2703.364367,306.438199,-518.144159,9178.553681
2703.364696,766.095498,-666.185348,9104.533087
2703.365026,1225.752797,814.226536,7846.182985
2703.365355,1072.533697,1184.329507,8142.265362
2703.365684,1072.533697,-0.000000,9030.512492
2703.366013,1838.629195,740.205942,8068.244768
2703.366342,1455.581446,592.164754,8660.409521
2703.366671,689.485948,296.082377,8734.430116
2703.367000,306.438199,-1110.308913,9474.636058
2703.367329,-383.047749,-148.041188,9252.574275
2703.367658,-1532.190996,-148.041188,9474.636058
2703.367987,-995.924147,-1554.432478,10510.924376
2703.368316,-689.485948,-1924.535449,9918.759623
2703.368645,-459.657299,-814.226536,10510.924376
2703.368974,612.876398,-740.205942,8808.450710
2703.369303,1685.410096,-592.164754,9992.780217
2703.369632,2451.505594,592.164754,8586.388927
2703.369962,1915.238745,2072.576638,7476.080014
2703.370291,1685.410096,1776.494261,8512.368333
2703.370620,2451.505594,1110.308913,7994.224174
2703.370949,2681.334243,1776.494261,7920.203579
2703.371278,2068.457845,296.082377,8808.450710
2703.371607,1302.362347,-1554.432478,8808.450710
2703.371936,-306.438199,-962.267725,9326.594869
2703.372265,-1685.410096,-444.123565,9474.636058
2703.372594,-2221.676944,-2072.576638,10066.800811
2703.372923,-1608.800546,-2294.638420,10658.965565
2703.373252,-1685.410096,-962.267725,9548.656652
2703.373581,-1608.800546,-1332.370696,9992.780217
2703.373910,-612.876398,-1628.453072,9622.677246
2703.374239,1378.971896,-148.041188,8142.265362
2703.374568,1532.190996,1480.411884,8142.265362
2703.374898,1991.848295,814.226536,8512.368333
2703.375227,2681.334243,518.144159,7328.038826
2703.375556,2987.772442,1406.391290,7105.977043
2703.375885,2374.896044,2220.617826,7920.203579
2703.376214,1225.752797,518.144159,8438.347739
2703.376543,0.000000,-74.020594,8734.430116
2703.376872,-1455.581446,666.185348,8512.368333
2703.377201,-1915.238745,-1036.288319,9844.739029
2703.377530,-2221.676944,-2738.761985,10362.883188
2703.377859,-2528.115143,-1702.473667,10955.047942
2703.378188,-1915.238745,-2738.761985,11103.089130
2703.378517,-1455.581446,-2368.659014,10436.903782
2703.378846,306.438199,-1332.370696,10510.924376
2703.379175,1149.143247,1480.411884,7920.203579
2703.379504,1915.238745,1184.329507,8956.491898
2703.379834,2911.162892,2072.576638,7624.121203
2703.380163,3677.258390,814.226536,7624.121203
2703.380492,2451.505594,2368.659014,8216.285956
2703.380821,2451.505594,592.164754,7846.182985
2703.381150,2221.676944,814.226536,7624.121203
2703.381479,689.485948,1036.288319,7402.059420
2703.381808,-689.485948,-1110.308913,9992.780217
2703.382137,-1225.752797,-2590.720797,10584.944971
2703.382466,-1608.800546,-2146.597232,10066.800811
2703.382795,-2145.067394,-2294.638420,11103.089130
2703.383124,-1991.848295,-1998.556043,10510.924376
2703.383453,-995.924147,-1332.370696,10510.924376
2703.383782,-536.266849,222.061783,8512.368333
2703.384111,306.438199,1110.308913,8734.430116
2703.384441,2374.896044,-0.000000,9178.553681
2703.384770,3064.381992,1776.494261,6735.874072
2703.385099,2681.334243,2072.576638,8364.327145
2703.385428,1685.410096,1258.350101,7920.203579
2703.385757,1762.019645,-0.000000,8068.244768
2703.386086,0.000000,444.123565,8512.368333
2703.386415,-689.485948,-518.144159,9252.574275
2703.386744,-1532.190996,-2368.659014,10807.006753
2703.387073,-2068.457845,-3182.885551,9770.718434
2703.387402,-2374.896044,-2072.576638,10510.924376
2703.387731,-2145.067394,-3256.906145,11769.274478
2703.388060,-1149.143247,-2072.576638,9622.677246
2703.388389,-612.876398,-0.000000,8364.327145
2703.388718,1225.752797,1110.308913,8290.306550
2703.389047,2068.457845,1554.432478,7920.203579
2703.389377,2911.162892,1480.411884,7772.162391
2703.389706,2528.115143,962.267725,7179.997637
2703.390035,2451.505594,962.267725,7772.162391
2703.390364,2528.115143,518.144159,8068.244768
2703.390693,1225.752797,740.205942,8290.306550
2703.391022,-383.047749,-0.000000,9252.574275
2703.391351,-766.095498,-2072.576638,9918.759623
2703.391680,-995.924147,-2146.597232,9770.718434
2703.392009,-1608.800546,-1702.473667,10140.821405
2703.392338,-1532.190996,-2294.638420,11325.150913
2703.392667,-766.095498,-1776.494261,10214.842000
2703.392996,0.000000,-222.061783,8586.388927
2703.393325,689.485948,962.267725,8216.285956
2703.393654,2145.067394,518.144159,8438.347739
2703.393983,3294.210641,740.205942,7772.162391
2703.394312,2987.772442,2072.576638,6809.894666
2703.394641,2221.676944,1480.411884,7920.203579
2703.394970,2221.676944,1036.288319,7624.121203
2703.395300,1149.143247,1406.391290,7476.080014
2703.395629,-383.047749,888.247130,8660.409521
2703.395958,-766.095498,-1036.288319,9992.780217
2703.396287,-995.924147,-1776.494261,9992.780217
2703.396616,-2068.457845,-2368.659014,10584.944971
2703.396945,-2068.457845,-2664.741391,10732.986159
2703.397274,-1608.800546,-3256.906145,10436.903782
2703.397603,-842.705048,-518.144159,8956.491898
2703.397932,153.219100,666.185348,8512.368333
2703.398261,1455.581446,370.102971,8956.491898
2703.398590,2757.943793,1110.308913,7624.121203
2703.398919,2528.115143,2220.617826,7402.059420
2703.399248,2145.067394,1258.350101,7698.141797
2703.399577,1991.848295,-0.000000,8586.388927
2703.399906,1072.533697,-444.123565,8512.368333
2703.400235,-612.876398,-0.000000,9104.533087
2703.400564,-766.095498,-888.247130,10066.800811
2703.400893,-995.924147,-2368.659014,10288.862594
2703.401222,-1838.629195,-1110.308913,9992.780217
2703.401551,-1762.019645,-1850.514855,11177.109724
2703.401880,-1838.629195,-1776.494261,10436.903782
2703.402209,-1225.752797,-222.061783,9548.656652
2703.402538,76.609550,1110.308913,8808.450710
2703.402867,1608.800546,444.123565,8808.450710
2703.403196,2681.334243,-0.000000,8882.471304
2703.403525,3064.381992,814.226536,7402.059420
2703.403854,2451.505594,1406.391290,8216.285956
2703.404184,2451.505594,518.144159,8290.306550
2703.404513,1455.581446,1702.473667,7994.224174
2703.404842,-306.438199,1776.494261,8882.471304
2703.405171,-612.876398,-518.144159,9252.574275
2703.405500,-766.095498,-1332.370696,9918.759623
2703.405829,-1685.410096,-1036.288319,9696.697840
2703.406158,-2068.457845,-2368.659014,10732.986159
2703.406487,-1762.019645,-2072.576638,11325.150913
2703.406816,-1072.533697,-1480.411884,10510.924376
2703.407145,-689.485948,296.082377,8882.471304
2703.407474,459.657299,592.164754,8882.471304
2703.407803,2451.505594,962.267725,8142.265362
2703.408132,2911.162892,2294.638420,6957.935855
2703.408461,2451.505594,1850.514855,8364.327145
2703.408790,1991.848295,888.247130,7772.162391
2703.409119,1838.629195,888.247130,7698.141797
2703.409448,689.485948,2516.700203,7994.224174
2703.409777,-459.657299,-0.000000,8956.491898
2703.410106,-766.095498,-1850.514855,10288.862594
2703.410435,-1762.019645,-1924.535449,9918.759623
2703.410764,-1838.629195,-3256.906145,11325.150913
2703.411093,-2451.505594,-2664.741391,10732.986159
2703.411422,-1915.238745,-2294.638420,9474.636058
2703.411751,-1762.019645,740.205942,9474.636058
2703.412080,-536.266849,1110.308913,9326.594869
2703.412409,1762.019645,-370.102971,8808.450710
2703.412738,2757.943793,1184.329507,7698.141797
2703.413068,3294.210641,1480.411884,8068.244768
2703.413397,2834.553343,222.061783,7698.141797
2703.413726,2145.067394,222.061783,7550.100608
2703.414055,842.705048,1850.514855,8290.306550
2703.414384,919.314598,814.226536,8068.244768
2703.414713,919.314598,-518.144159,9178.553681
2703.415042,153.219100,-1332.370696,8882.471304
2703.415371,-612.876398,-1184.329507,9770.718434
2703.415700,-995.924147,-2442.679609,11473.192101
2703.416029,-766.095498,-2368.659014,10510.924376
2703.416358,-1455.581446,-444.123565,9992.780217
2703.416687,-459.657299,444.123565,9474.636058
2703.417016,1302.362347,814.226536,8808.450710
2703.417345,2221.676944,666.185348,8808.450710
2703.417674,2911.162892,1554.432478,8142.265362
2703.418003,3064.381992,148.041188,8734.430116
2703.418332,1915.238745,1110.308913,7624.121203
2703.418661,1072.533697,1480.411884,7328.038826
2703.418990,459.657299,1628.453072,8956.491898
2703.419319,842.705048,-370.102971,9252.574275
2703.419648,0.000000,-1332.370696,9178.553681
2703.419977,-995.924147,-1258.350101,10362.883188
2703.420306,-1378.971896,-2886.803174,11473.192101
2703.420635,-2221.676944,-2516.700203,10436.903782
2703.420964,-1915.238745,-962.267725,10066.800811
2703.421293,-1072.533697,-1110.308913,10362.883188
2703.421622,0.000000,-74.020594,9400.615463
2703.421952,1225.752797,370.102971,8068.244768
2703.422281,1762.019645,1184.329507,7698.141797
2703.422610,1991.848295,1258.350101,8512.368333
2703.422939,1762.019645,-444.123565,7994.224174
2703.423268,612.876398,962.267725,8364.327145
2703.423597,153.219100,-148.041188,8586.388927
2703.423926,0.000000,-1554.432478,8956.491898
2703.424255,0.000000,-888.247130,9400.615463
2703.424584,-1072.533697,-1554.432478,10436.903782
2703.424913,-1225.752797,-2516.700203,10214.842000
2703.425242,-612.876398,-2442.679609,9844.739029
2703.425571,-1378.971896,-296.082377,9400.615463
2703.425900,-842.705048,222.061783,9400.615463
2703.426229,383.047749,-1406.391290,9400.615463
2703.426558,1455.581446,296.082377,8734.430116
2703.426887,1532.190996,814.226536,7772.162391
2703.427216,1532.190996,-222.061783,8438.347739
2703.427545,2911.162892,-0.000000,8142.265362
2703.427874,689.485948,666.185348,8068.244768
2703.428203,766.095498,1184.329507,8290.306550
2703.428532,306.438199,-370.102971,9400.615463
2703.428861,383.047749,-74.020594,8660.409521
2703.429190,-306.438199,-0.000000,8808.450710
2703.429519,-689.485948,-888.247130,9696.697840
2703.429848,-1149.143247,-1702.473667,9844.739029
2703.430177,-995.924147,-222.061783,9326.594869
2703.430506,-689.485948,592.164754,9400.615463
2703.430836,0.000000,-148.041188,9696.697840
2703.431165,919.314598,-0.000000,9252.574275
2703.431494,1149.143247,592.164754,8438.347739
2703.431823,1685.410096,666.185348,8586.388927
2703.432152,1455.581446,296.082377,8882.471304
2703.432481,612.876398,1184.329507,8586.388927
2703.432810,76.609550,1776.494261,8734.430116
2703.433139,229.828649,518.144159,9252.574275
2703.433468,612.876398,-814.226536,9474.636058
2703.433797,-229.828649,-0.000000,9400.615463
2703.434126,-1225.752797,-666.185348,9844.739029
2703.434455,-919.314598,-1036.288319,9992.780217
2703.434784,-306.438199,-222.061783,9992.780217
2703.435113,-842.705048,-0.000000,9474.636058
2703.435442,0.000000,518.144159,9548.656652
2703.435771,1072.533697,-222.061783,9400.615463
2703.436100,1302.362347,1480.411884,8216.285956
2703.436429,1608.800546,1258.350101,9918.759623
2703.436758,1532.190996,-0.000000,9326.594869
2703.437087,1149.143247,444.123565,8660.409521
2703.437416,383.047749,962.267725,8586.388927
2703.437745,612.876398,370.102971,9474.636058
2703.438074,842.705048,-0.000000,8808.450710
2703.438403,229.828649,-148.041188,8882.471304
2703.438732,76.609550,-222.061783,9918.759623
2703.439061,76.609550,-814.226536,9622.677246
2703.439390,0.000000,-444.123565,8956.491898
2703.439720,-1225.752797,666.185348,9104.533087
2703.440049,229.828649,-222.061783,9548.656652
2703.440378,842.705048,-444.123565,8808.450710
2703.440707,1532.190996,-0.000000,8290.306550
2703.441036,1762.019645,740.205942,8808.450710
2703.441365,1915.238745,-518.144159,9326.594869
2703.441694,1608.800546,-148.041188,8808.450710
2703.442023,995.924147,518.144159,8512.368333
2703.442352,459.657299,-148.041188,8808.450710
2703.442681,919.314598,-222.061783,8808.450710
2703.443010,229.828649,-1110.308913,9474.636058
2703.443339,-766.095498,-2368.659014,10140.821405
2703.443668,76.609550,-2516.700203,8956.491898
2703.443997,-229.828649,-1776.494261,9474.636058
2703.444326,-612.876398,-444.123565,9474.636058
2703.444655,-459.657299,-1258.350101,9622.677246
2703.444984,76.609550,-2294.638420,9548.656652
2703.445313,689.485948,222.061783,7624.121203
2703.445642,689.485948,-370.102971,9326.594869
2703.445971,1149.143247,-296.082377,9030.512492
2703.446300,1072.533697,-592.164754,7994.224174
2703.446629,76.609550,592.164754,8956.491898
2703.446958,76.609550,-0.000000,8734.430116
2703.447287,766.095498,-1110.308913,9178.553681
2703.447616,306.438199,-740.205942,9252.574275
2703.447945,76.609550,-222.061783,8882.471304
2703.448274,-229.828649,-1258.350101,9992.780217
2703.448604,-229.828649,-740.205942,8956.491898
2703.448933,-383.047749,1110.308913,8290.306550
2703.449262,-459.657299,592.164754,9400.615463
2703.449591,76.609550,-148.041188,9474.636058
2703.449920,842.705048,-296.082377,8882.471304
2703.450249,919.314598,444.123565,8882.471304
2703.450578,1685.410096,-592.164754,8956.491898
2703.450907,1072.533697,-0.000000,9178.553681
2703.451236,0.000000,1332.370696,8290.306550
2703.451565,383.047749,962.267725,8808.450710
2703.451894,1302.362347,370.102971,9696.697840
2703.452223,1072.533697,740.205942,8290.306550
2703.452552,306.438199,592.164754,8808.450710
2703.452881,-306.438199,-0.000000,9918.759623
2703.453210,842.705048,-814.226536,8882.471304
2703.453539,306.438199,-0.000000,8734.430116
2703.453868,-306.438199,518.144159,9474.636058
2703.454197,306.438199,-148.041188,8956.491898
2703.454526,612.876398,-222.061783,8808.450710
2703.454855,536.266849,-0.000000,8956.491898
2703.455184,766.095498,-1332.370696,9696.697840
2703.455513,229.828649,296.082377,9474.636058
2703.455842,-689.485948,-0.000000,9104.533087
2703.456171,-919.314598,962.267725,8882.471304
2703.456500,229.828649,-148.041188,9474.636058
2703.456829,842.705048,-1036.288319,9622.677246
2703.457158,459.657299,-222.061783,9696.697840
2703.457488,383.047749,-296.082377,8882.471304
2703.457817,536.266849,-592.164754,8808.450710
2703.458146,459.657299,962.267725,7920.203579
2703.458475,383.047749,-0.000000,9030.512492
2703.458804,229.828649,-148.041188,9252.574275
2703.459133,459.657299,-962.267725,8290.306550
2703.459462,76.609550,296.082377,8364.327145
2703.459791,383.047749,-1036.288319,9474.636058
2703.460120,0.000000,-1406.391290,9622.677246
2703.460449,-459.657299,-592.164754,8956.491898
2703.460778,-995.924147,-592.164754,9844.739029
2703.461107,0.000000,-666.185348,9252.574275
2703.461436,1149.143247,-518.144159,9252.574275
2703.461765,842.705048,518.144159,9326.594869
2703.462094,1149.143247,-0.000000,9474.636058
2703.462423,1608.800546,148.041188,8216.285956
2703.462752,1532.190996,1184.329507,7994.224174
2703.463081,1302.362347,2368.659014,8586.388927
2703.463410,1072.533697,740.205942,8290.306550
2703.463739,919.314598,592.164754,8364.327145
2703.464068,1072.533697,370.102971,8660.409521
2703.464397,383.047749,-1406.391290,9548.656652
2703.464726,-306.438199,-2516.700203,10436.903782
2703.465055,-919.314598,-1702.473667,9326.594869
2703.465384,-1532.190996,-1258.350101,9770.718434
2703.465713,-536.266849,-1110.308913,10066.800811
2703.466042,229.828649,-1258.350101,9622.677246
2703.466372,306.438199,444.123565,9104.533087
2703.466701,0.000000,370.102971,8956.491898
2703.467030,1685.410096,-370.102971,9104.533087
2703.467359,1838.629195,1480.411884,7698.141797
2703.467688,1378.971896,814.226536,7994.224174
2703.468017,919.314598,370.102971,8660.409521
2703.468346,1455.581446,-888.247130,8142.265362
2703.468675,306.438199,-222.061783,8290.306550
2703.469004,-306.438199,-1480.411884,9770.718434
2703.469333,-459.657299,-1776.494261,9622.677246
2703.469662,-1532.190996,-1184.329507,9178.553681
2703.469991,-2221.676944,-592.164754,9844.739029
2703.470320,-1685.410096,-2072.576638,9696.697840
2703.470649,-842.705048,-1702.473667,9992.780217
2703.470978,-459.657299,-0.000000,9400.615463
2703.471307,306.438199,-518.144159,9104.533087
2703.471636,1225.752797,-962.267725,8734.430116
2703.471965,1838.629195,592.164754,7624.121203
2703.472294,1455.581446,1036.288319,7920.203579
2703.472623,1149.143247,962.267725,8512.368333
2703.472952,1915.238745,1036.288319,7328.038826
2703.473281,2145.067394,1036.288319,8068.244768
2703.473610,1532.190996,962.267725,8808.450710
2703.473939,689.485948,-1702.473667,9474.636058
2703.474268,-1302.362347,-1110.308913,9400.615463
2703.474597,-1991.848295,-148.041188,9474.636058
2703.474926,-1149.143247,-1110.308913,11177.109724
2703.475256,-766.095498,-888.247130,9548.656652
2703.475585,-536.266849,222.061783,9770.718434
2703.475914,153.219100,370.102971,10584.944971
2703.476243,919.314598,592.164754,9474.636058
2703.476572,919.314598,-0.000000,9178.553681
2703.476901,1302.362347,2368.659014,7920.203579
2703.477230,1915.238745,1776.494261,8512.368333
2703.477559,1838.629195,1110.308913,8364.327145
2703.477888,1991.848295,1110.308913,7994.224174
2703.478217,1455.581446,148.041188,9400.615463
2703.478546,459.657299,-1554.432478,8956.491898
2703.478875,306.438199,-740.205942,9622.677246
2703.479204,-1225.752797,-148.041188,9696.697840
2703.479533,-1762.019645,-666.185348,9770.718434
2703.479862,-1532.190996,-1554.432478,10510.924376
2703.480191,-1302.362347,-814.226536,10066.800811
2703.480520,-995.924147,-444.123565,10140.821405
2703.480849,0.000000,-222.061783,8956.491898
2703.481178,383.047749,-370.102971,8142.265362
2703.481507,536.266849,1332.370696,8438.347739
2703.481836,1072.533697,666.185348,8586.388927
2703.482165,1991.848295,-888.247130,8290.306550
2703.482494,1991.848295,592.164754,7328.038826
2703.482823,1608.800546,444.123565,8290.306550
2703.483152,1072.533697,-148.041188,8808.450710
2703.483481,0.000000,-666.185348,8882.471304
2703.483810,-229.828649,-370.102971,8586.388927
2703.484140,-919.314598,-518.144159,9548.656652
2703.484469,-612.876398,-1406.391290,10362.883188
2703.484798,0.000000,-814.226536,9400.615463
2703.485127,-229.828649,-148.041188,9992.780217
2703.485456,229.828649,-1332.370696,9696.697840
2703.485785,1685.410096,-148.041188,8364.327145
2703.486114,1149.143247,2294.638420,7994.224174
2703.486443,1685.410096,1776.494261,8512.368333
2703.486772,2451.505594,1110.308913,8364.327145
2703.487101,2298.286494,1554.432478,7402.059420
2703.487430,1685.410096,1776.494261,7698.141797
2703.487759,1225.752797,-370.102971,9696.697840
2703.488088,0.000000,-888.247130,9696.697840
2703.488417,-612.876398,-296.082377,9400.615463
2703.488746,-919.314598,-222.061783,9548.656652
2703.489075,-919.314598,-740.205942,10066.800811
2703.489404,-383.047749,-962.267725,10732.986159
2703.489733,-1455.581446,-592.164754,10214.842000
2703.490062,-306.438199,-1998.556043,10214.842000
2703.490391,842.705048,-740.205942,9252.574275
2703.490720,1455.581446,222.061783,8142.265362
2703.491049,995.924147,592.164754,9030.512492
2703.491378,1915.238745,-592.164754,8216.285956
2703.491707,1915.238745,-740.205942,7476.080014
2703.492036,1225.752797,-222.061783,9030.512492
2703.492366,612.876398,-888.247130,9178.553681
2703.492695,76.609550,-2294.638420,8364.327145
2703.493024,-1608.800546,-1554.432478,9326.594869
2703.493353,-1991.848295,-2738.761985,9992.780217
2703.493682,-1685.410096,-4293.194464,11103.089130
2703.494011,-1378.971896,-3775.050304,9844.739029
2703.494340,-1149.143247,-2960.823768,9992.780217
2703.494670,-1302.362347,-2442.679609,10066.800811
2703.494999,612.876398,-2590.720797,9548.656652
2703.495328,1532.190996,-1998.556043,7994.224174
2703.495657,1532.190996,222.061783,7402.059420
2703.495986,2374.896044,-370.102971,7624.121203
2703.496315,3140.991542,-592.164754,7179.997637
2703.496644,3677.258390,814.226536,7105.977043
2703.496973,2451.505594,-1628.453072,8142.265362
2703.497302,1149.143247,-3775.050304,8956.491898
2703.497631,0.000000,-3775.050304,9252.574275
2703.497960,-1149.143247,-2886.803174,8882.471304
2703.498289,-2221.676944,-3923.091493,9548.656652
2703.498618,-2451.505594,-4515.256246,10288.862594
2703.498947,-1838.629195,-4145.153275,10436.903782
2703.499277,-1608.800546,-3108.864956,10140.821405
2703.499606,-766.095498,-3627.009116,9548.656652
2703.499935,1302.362347,-3552.988522,9030.512492
2703.500264,2451.505594,-814.226536,8068.244768
2703.500593,2757.943793,222.061783,7179.997637
2703.500922,2834.553343,-1110.308913,7772.162391
2703.501251,3524.039291,-1406.391290,7328.038826
2703.501580,3983.696590,-74.020594,6143.709319
2703.501909,1915.238745,-888.247130,7179.997637
2703.502238,229.828649,-3256.906145,9030.512492
2703.502567,-612.876398,-4515.256246,10362.883188
2703.502896,-1225.752797,-4663.297435,10140.821405
2703.503225,-3140.991542,-5847.626942,10140.821405
2703.503554,-4060.306139,-6513.812290,11695.253884
2703.503884,-2528.115143,-6217.729913,12065.356855
2703.504213,-1991.848295,-4293.194464,10732.986159
2703.504542,-689.485948,-3552.988522,9178.553681
2703.504871,-229.828649,-2368.659014,9548.656652
2703.505200,1915.238745,-1480.411884,9178.553681
2703.505529,3370.820191,-1110.308913,7179.997637
2703.505858,3600.648841,-1406.391290,6513.812290
2703.506187,2834.553343,-1184.329507,7254.018232
2703.506516,3524.039291,-1184.329507,7624.121203
2703.506845,2911.162892,-2368.659014,7698.141797
2703.507174,1838.629195,-3552.988522,7624.121203
2703.507503,-612.876398,-3775.050304,9104.533087
2703.507832,-1685.410096,-3552.988522,10584.944971
2703.508162,-1685.410096,-5773.606348,10881.027347
2703.508491,-2834.553343,-4589.276840,10510.924376
2703.508820,-3064.381992,-4071.132681,10732.986159
2703.509149,-2911.162892,-3627.009116,11103.089130
2703.509478,-1991.848295,-4367.215058,10214.842000
2703.509807,1149.143247,-3404.947333,9252.574275
2703.510136,2298.286494,-1554.432478,7698.141797
2703.510465,2451.505594,-1332.370696,8290.306550
2703.510794,2911.162892,-1702.473667,7846.182985
2703.511123,4519.963438,-1332.370696,7698.141797
2703.511452,4060.306139,-148.041188,7031.956449
2703.511781,2528.115143,222.061783,7179.997637
2703.512110,2298.286494,-444.123565,7994.224174
2703.512439,2528.115143,-2294.638420,8586.388927
2703.512769,1608.800546,-3627.009116,9400.615463
2703.513098,-459.657299,-5773.606348,9992.780217
2703.513427,-2221.676944,-5551.544565,11547.212695
2703.513756,-2604.724693,-6217.729913,12213.398043
2703.514085,-3294.210641,-4737.318029,11325.150913
2703.514414,-2374.896044,-4071.132681,10288.862594
2703.514743,-1991.848295,-2886.803174,9548.656652
2703.515072,-383.047749,-2146.597232,9770.718434
2703.515401,459.657299,-2442.679609,9104.533087
2703.515730,2298.286494,-2368.659014,7550.100608
2703.516059,2604.724693,-1924.535449,6957.935855
2703.516388,2987.772442,-2960.823768,7105.977043
2703.516717,2911.162892,-3552.988522,7994.224174
2703.517046,1915.238745,-3256.906145,8142.265362
2703.517376,1915.238745,-2886.803174,8216.285956
2703.517705,919.314598,-1924.535449,7328.038826
2703.518034,0.000000,-2368.659014,9474.636058
2703.518363,-766.095498,-3108.864956,10140.821405
2703.518692,-1149.143247,-3552.988522,9696.697840
2703.519021,-1762.019645,-3552.988522,9622.677246
2703.519350,-1149.143247,-4441.235652,8808.450710
2703.519679,-383.047749,-4367.215058,9918.759623
2703.520008,-383.047749,-4441.235652,9992.780217
2703.520337,0.000000,-4885.359217,9474.636058
2703.520666,383.047749,-4737.318029,8364.327145
2703.520995,842.705048,-2664.741391,7624.121203
2703.521324,1225.752797,-1480.411884,8068.244768
2703.521653,689.485948,-1332.370696,8586.388927
2703.521983,766.095498,-2368.659014,8660.409521
2703.522312,1149.143247,-2960.823768,9178.553681
2703.522641,766.095498,-3627.009116,9474.636058
2703.522970,536.266849,-4293.194464,9770.718434
2703.523299,-306.438199,-3997.112087,9474.636058
2703.523628,919.314598,-3701.029710,9844.739029
2703.523957,459.657299,-2886.803174,9326.594869
2703.524286,995.924147,-2368.659014,9400.615463
2703.524615,919.314598,-1998.556043,8586.388927
2703.524944,459.657299,-1850.514855,7994.224174
2703.525273,229.828649,-2146.597232,8290.306550
2703.525602,-306.438199,-3552.988522,8956.491898
2703.525931,-1072.533697,-3552.988522,9474.636058
2703.526260,-842.705048,-3849.070898,9400.615463
2703.526590,-229.828649,-3997.112087,9474.636058
2703.526919,459.657299,-4293.194464,9474.636058
2703.527248,689.485948,-3108.864956,9474.636058
2703.527577,1532.190996,-2812.782580,8956.491898
2703.527906,2374.896044,-1628.453072,7772.162391
2703.528235,3217.601092,-1258.350101,6883.915261
2703.528564,3983.696590,-1406.391290,7254.018232
2703.528893,3524.039291,-1702.473667,7772.162391
2703.529222,1991.848295,-3404.947333,8512.368333
2703.529551,612.876398,-4219.173869,8808.450710
2703.529880,-1302.362347,-4441.235652,9548.656652
2703.530209,-2757.943793,-5255.462188,10510.924376
2703.530538,-3447.429741,-5181.441594,10955.047942
2703.530868,-3830.477490,-4663.297435,11177.109724
2703.531197,-3217.601092,-3775.050304,10140.821405
2703.531526,-1838.629195,-3478.967927,9474.636058
2703.531855,-536.266849,-3775.050304,9178.553681
2703.532184,1685.410096,-3478.967927,8364.327145
2703.532513,4903.011187,-2886.803174,7994.224174
2703.532842,4596.572988,-2368.659014,7105.977043
2703.533171,4519.963438,-2368.659014,7105.977043
2703.533500,4596.572988,-1110.308913,7550.100608
2703.533829,4519.963438,444.123565,7031.956449
2703.534158,3830.477490,-296.082377,7550.100608
2703.534487,3140.991542,-0.000000,7031.956449
2703.534816,2145.067394,-1406.391290,9474.636058
2703.535145,-2528.115143,-4737.318029,12065.356855
2703.535475,-4366.744339,-6883.915261,11843.295072
2703.535804,-5515.887586,-6957.935855,13397.727550
2703.536133,-4979.620737,-8956.491898,13619.789333
