#time,accel_x,accel_y,accel_z
2546.116138,153.219100,-0.000000,8734.430116
2546.116467,459.657299,-0.000000,9178.553681
2546.116796,612.876398,-0.000000,9030.512492
2546.117125,459.657299,-0.000000,8734.430116
2546.117454,383.047749,-296.082377,8956.491898
2546.117784,383.047749,-74.020594,8882.471304
2546.118113,229.828649,-0.000000,8808.450710
2546.118442,153.219100,-74.020594,8734.430116
2546.118771,383.047749,222.061783,8882.471304
2546.119100,0.000000,-222.061783,8660.409521
2546.119429,689.485948,-296.082377,9030.512492
2546.119759,229.828649,-222.061783,8808.450710
2546.120088,383.047749,-0.000000,8882.471304
2546.120417,76.609550,-148.041188,9030.512492
2546.120746,459.657299,-222.061783,9030.512492
2546.121075,153.219100,-74.020594,9178.553681
2546.121404,536.266849,-74.020594,9326.594869
2546.121734,229.828649,-0.000000,9326.594869
2546.122063,229.828649,-370.102971,8882.471304
2546.122392,306.438199,-222.061783,8956.491898
2546.122721,459.657299,-74.020594,9178.553681
2546.123050,306.438199,-222.061783,9104.533087
2546.123379,536.266849,-296.082377,9326.594869
2546.123709,612.876398,-222.061783,9326.594869
2546.124038,0.000000,-444.123565,8808.450710
2546.124367,229.828649,-518.144159,9252.574275
2546.124696,229.828649,-148.041188,9326.594869
2546.125025,0.000000,-148.041188,9326.594869
2546.125354,229.828649,-296.082377,9178.553681
2546.125684,153.219100,-222.061783,9474.636058
2546.126013,-612.876398,-296.082377,9474.636058
2546.126342,612.876398,-0.000000,9400.615463
2546.126671,383.047749,-222.061783,9030.512492
2546.127000,306.438199,-0.000000,8882.471304
2546.127329,229.828649,-0.000000,8956.491898
2546.127659,306.438199,-0.000000,8882.471304
2546.127988,-229.828649,-0.000000,8808.450710
2546.128317,612.876398,-222.061783,8808.450710
2546.128646,306.438199,-0.000000,9104.533087
2546.128975,76.609550,-0.000000,9104.533087
2546.129305,0.000000,-222.061783,8808.450710
2546.129634,76.609550,-74.020594,8882.471304
2546.129963,153.219100,-74.020594,9104.533087
2546.130292,612.876398,-222.061783,9030.512492
2546.130621,459.657299,-74.020594,8512.368333
2546.130950,995.924147,-0.000000,8882.471304
2546.131280,689.485948,-0.000000,9030.512492
2546.131609,459.657299,-74.020594,9030.512492
2546.131938,229.828649,-296.082377,8956.491898
2546.132267,536.266849,-222.061783,8882.471304
2546.132596,383.047749,-296.082377,9474.636058
2546.132925,306.438199,-592.164754,9030.512492
2546.133255,0.000000,-444.123565,9030.512492
2546.133584,229.828649,-148.041188,8882.471304
2546.133913,383.047749,-148.041188,9252.574275
2546.134242,459.657299,-222.061783,8808.450710
2546.134571,459.657299,-148.041188,9104.533087
2546.134900,306.438199,-370.102971,9104.533087
2546.135230,919.314598,-296.082377,9252.574275
2546.135559,612.876398,-370.102971,9474.636058
2546.135888,306.438199,-444.123565,9474.636058
2546.136217,306.438199,-148.041188,8956.491898
2546.136546,306.438199,-74.020594,8882.471304
2546.136875,229.828649,-74.020594,9178.553681
2546.137205,459.657299,-222.061783,9030.512492
2546.137534,229.828649,-0.000000,9030.512492
2546.137863,459.657299,-370.102971,9252.574275
2546.138192,383.047749,-0.000000,8808.450710
2546.138521,306.438199,-148.041188,9030.512492
2546.138850,229.828649,-74.020594,9178.553681
2546.139180,76.609550,-0.000000,9104.533087
2546.139509,306.438199,-296.082377,8956.491898
2546.139838,229.828649,-148.041188,8512.368333
2546.140167,229.828649,-0.000000,9030.512492
2546.140496,459.657299,-0.000000,8882.471304
2546.140825,459.657299,-0.000000,8882.471304
2546.141155,229.828649,-0.000000,8586.388927
2546.141484,0.000000,-148.041188,8734.430116
2546.141813,459.657299,-74.020594,9030.512492
2546.142142,0.000000,-296.082377,9178.553681
2546.142471,76.609550,-370.102971,9030.512492
2546.142801,842.705048,-518.144159,9178.553681
2546.143130,383.047749,-444.123565,9326.594869
2546.143459,306.438199,-0.000000,9030.512492
2546.143788,306.438199,-0.000000,9104.533087
2546.144117,536.266849,-296.082377,9400.615463
2546.144446,1378.971896,-962.267725,9770.718434
2546.144776,1225.752797,-888.247130,9474.636058
2546.145105,1608.800546,-666.185348,9474.636058
2546.145434,2451.505594,-444.123565,9474.636058
2546.145763,2374.896044,-222.061783,8512.368333
2546.146092,3217.601092,296.082377,9030.512492
2546.146421,3907.087040,-222.061783,8882.471304
2546.146751,3907.087040,296.082377,8438.347739
2546.147080,3370.820191,1184.329507,9400.615463
2546.147409,2987.772442,296.082377,8734.430116
2546.147738,2604.724693,-370.102971,9696.697840
2546.148067,2987.772442,-1184.329507,8808.450710
2546.148396,1455.581446,-666.185348,9178.553681
2546.148726,1762.019645,-1406.391290,10436.903782
2546.149055,2221.676944,-1480.411884,9474.636058
2546.149384,2604.724693,-0.000000,9326.594869
2546.149713,2834.553343,-1036.288319,9844.739029
2546.150042,3753.867940,-444.123565,8882.471304
2546.150371,4060.306139,444.123565,9400.615463
2546.150701,5515.887586,1036.288319,7624.121203
2546.151030,4903.011187,1258.350101,7846.182985
2546.151359,4519.963438,1036.288319,9252.574275
2546.151688,4673.182538,962.267725,7402.059420
2546.152017,3830.477490,666.185348,8142.265362
2546.152346,3753.867940,-0.000000,9104.533087
2546.152676,2604.724693,-222.061783,7920.203579
2546.153005,1991.848295,-444.123565,9770.718434
2546.153334,919.314598,-1110.308913,9178.553681
2546.153663,1685.410096,-814.226536,9918.759623
2546.153992,383.047749,-1258.350101,9918.759623
2546.154321,1838.629195,-962.267725,9770.718434
2546.154651,1378.971896,-1036.288319,10362.883188
2546.154980,3064.381992,296.082377,8586.388927
2546.155309,3294.210641,-222.061783,8660.409521
2546.155638,4366.744339,1480.411884,9104.533087
2546.155967,4596.572988,1110.308913,8142.265362
2546.156297,5439.278036,1036.288319,8142.265362
2546.156626,4443.353888,518.144159,9326.594869
2546.156955,3677.258390,-296.082377,8882.471304
2546.157284,3370.820191,-1110.308913,9030.512492
2546.157613,2681.334243,-1480.411884,9770.718434
2546.157942,2221.676944,-1702.473667,10510.924376
2546.158272,1532.190996,-1924.535449,9770.718434
2546.158601,2068.457845,-1702.473667,10362.883188
2546.158930,2145.067394,-888.247130,9770.718434
2546.159259,3217.601092,-148.041188,9622.677246
2546.159588,3753.867940,666.185348,8364.327145
2546.159917,4443.353888,1628.453072,8734.430116
2546.160247,4443.353888,2664.741391,8216.285956
2546.160576,4749.792088,2516.700203,7476.080014
2546.160905,4290.134789,2072.576638,7179.997637
2546.161234,3907.087040,1998.556043,7920.203579
2546.161563,3447.429741,888.247130,8290.306550
2546.161892,3064.381992,-666.185348,8882.471304
2546.162222,2298.286494,-1554.432478,9770.718434
2546.162551,2145.067394,-2516.700203,10066.800811
2546.162880,1991.848295,-2886.803174,10510.924376
2546.163209,2221.676944,-2590.720797,10807.006753
2546.163538,3600.648841,-1850.514855,10732.986159
2546.163867,4060.306139,-888.247130,9696.697840
2546.164197,5669.106685,444.123565,9326.594869
2546.164526,5975.544884,1924.535449,8512.368333
2546.164855,6052.154434,2738.761985,7772.162391
2546.165184,4979.620737,3034.844362,7698.141797
2546.165513,4749.792088,3478.967927,6661.853478
2546.165842,3983.696590,2886.803174,6587.832884
2546.166172,2604.724693,666.185348,7402.059420
2546.166501,842.705048,-1628.453072,9548.656652
2546.166830,-536.266849,-3775.050304,10658.965565
2546.167159,-1072.533697,-4589.276840,11473.192101
2546.167488,-919.314598,-4959.379811,11177.109724
2546.167818,-306.438199,-2294.638420,11177.109724
2546.168147,229.828649,-1702.473667,10807.006753
2546.168476,153.219100,-0.000000,10288.862594
2546.168805,1838.629195,814.226536,10510.924376
2546.169134,4596.572988,1480.411884,9252.574275
2546.169463,5592.497135,2960.823768,6513.812290
2546.169793,6741.640382,2146.597232,7105.977043
2546.170122,4826.401637,1776.494261,5477.523971
2546.170451,4826.401637,2294.638420,7994.224174
2546.170780,4903.011187,2738.761985,6143.709319
2546.171109,3600.648841,1628.453072,6809.894666
2546.171438,0.000000,-74.020594,7994.224174
2546.171768,-1378.971896,-2220.617826,9548.656652
2546.172097,-2298.286494,-4293.194464,11547.212695
2546.172426,-3140.991542,-4441.235652,9400.615463
2546.172755,-2757.943793,-3627.009116,11103.089130
2546.173084,-3370.820191,-2960.823768,11177.109724
2546.173413,-2834.553343,-1776.494261,11843.295072
2546.173743,-2528.115143,-1184.329507,11473.192101
2546.174072,-689.485948,-0.000000,9548.656652
2546.174401,459.657299,1184.329507,9696.697840
2546.174730,306.438199,2442.679609,8290.306550
2546.175059,842.705048,962.267725,10140.821405
2546.175388,2068.457845,-814.226536,10807.006753
2546.175718,5286.058936,666.185348,6957.935855
2546.176047,6588.421283,1184.329507,5921.647536
2546.176376,5439.278036,1184.329507,4219.173869
2546.176705,5669.106685,2368.659014,6439.791695
2546.177034,5132.839837,2220.617826,6883.915261
2546.177363,3983.696590,518.144159,6587.832884
2546.177693,1915.238745,-370.102971,8290.306550
2546.178022,-842.705048,-2516.700203,10140.821405
2546.178351,-2911.162892,-2072.576638,10658.965565
2546.178680,-2757.943793,-3775.050304,13027.624579
2546.179009,-2987.772442,-2368.659014,9918.759623
2546.179338,-1762.019645,-1554.432478,12509.480420
2546.179668,-2451.505594,666.185348,10288.862594
2546.179997,-1991.848295,2220.617826,9696.697840
2546.180326,-1378.971896,888.247130,10658.965565
2546.180655,383.047749,1406.391290,9400.615463
2546.180984,919.314598,666.185348,9474.636058
2546.181314,-612.876398,-0.000000,8438.347739
2546.181643,-459.657299,-2072.576638,10584.944971
2546.181972,1302.362347,-1332.370696,10584.944971
2546.182301,3677.258390,-0.000000,6883.915261
2546.182630,4290.134789,444.123565,6291.750507
2546.182959,3524.039291,814.226536,5995.668130
2546.183289,2911.162892,2442.679609,7994.224174
2546.183618,536.266849,1406.391290,7920.203579
2546.183947,-1378.971896,666.185348,8438.347739
2546.184276,-1762.019645,-1332.370696,10807.006753
2546.184605,-1608.800546,-1554.432478,10436.903782
2546.184934,-3140.991542,-0.000000,8734.430116
2546.185264,-2757.943793,-1258.350101,10140.821405
2546.185593,-2374.896044,-1036.288319,10807.006753
2546.185922,-766.095498,-1184.329507,11251.130318
2546.186251,-766.095498,-888.247130,10140.821405
2546.186580,612.876398,-1036.288319,9326.594869
2546.186909,1072.533697,-0.000000,7624.121203
2546.187239,306.438199,666.185348,9474.636058
2546.187568,1455.581446,-1036.288319,11473.192101
2546.187897,3983.696590,814.226536,6587.832884
2546.188226,5745.716235,1702.473667,6291.750507
2546.188555,4290.134789,1480.411884,4515.256246
2546.188882,3140.991542,2442.679609,5699.585753
2546.189211,1072.533697,1628.453072,9104.533087
2546.189540,-1225.752797,-518.144159,9400.615463
2546.189869,-1762.019645,-2220.617826,13101.645173
2546.190198,-2987.772442,-1480.411884,8882.471304
2546.190527,-4290.134789,-1036.288319,8956.491898
2546.190856,-5286.058936,-2368.659014,11769.274478
2546.191186,-4060.306139,-1480.411884,11473.192101
2546.191515,-1685.410096,-3552.988522,13101.645173
2546.191844,-229.828649,-2146.597232,10510.924376
2546.192173,2068.457845,370.102971,8956.491898
2546.192502,76.609550,740.205942,7550.100608
2546.192831,383.047749,296.082377,11103.089130
2546.193160,3217.601092,-0.000000,9622.677246
2546.193489,6281.983084,2886.803174,4071.132681
2546.193818,5515.887586,1332.370696,5921.647536
2546.194147,3370.820191,2886.803174,4145.153275
2546.194476,1685.410096,2664.741391,8142.265362
2546.194805,-1532.190996,-666.185348,7994.224174
2546.195134,-1378.971896,-2960.823768,11473.192101
2546.195463,-1608.800546,-2072.576638,10881.027347
2546.195792,-2911.162892,-296.082377,6735.874072
2546.196121,-5515.887586,-2960.823768,12657.521608
2546.196451,-6052.154434,-2368.659014,11621.233289
2546.196780,-1915.238745,-2294.638420,13915.871710
2546.197109,-153.219100,-2664.741391,11843.295072
2546.197438,2757.943793,592.164754,8068.244768
2546.197767,612.876398,1480.411884,7994.224174
2546.198096,1915.238745,-1480.411884,13619.789333
2546.198425,4826.401637,2368.659014,6809.894666
2546.198754,8886.707777,3478.967927,5477.523971
2546.199083,7814.174080,2146.597232,3552.988522
2546.199412,5745.716235,4219.173869,3034.844362
2546.199741,3753.867940,2442.679609,9252.574275
2546.200070,-1302.362347,814.226536,5773.606348
2546.200399,-1072.533697,-4737.318029,11695.253884
2546.200728,-1685.410096,-2590.720797,13175.665768
2546.201057,-5209.449386,-296.082377,4589.276840
2546.201387,-6128.763984,-5033.400406,16432.571912
2546.201716,-8197.221829,-2368.659014,10362.883188
2546.202045,-2528.115143,-1776.494261,14434.015869
2546.202374,-1685.410096,-3182.885551,13175.665768
2546.202703,2068.457845,1998.556043,6809.894666
2546.203032,1072.533697,296.082377,7846.182985
2546.203361,4826.401637,-1110.308913,16136.489536
2546.203690,3907.087040,4811.338623,3478.967927
2546.204019,11108.384721,2886.803174,9178.553681
2546.204348,8273.831378,2516.700203,296.082377
2546.204677,7507.735880,6291.750507,3034.844362
2546.205006,2451.505594,4219.173869,7476.080014
2546.205335,-1608.800546,666.185348,5625.565159
2546.205664,-2451.505594,-6513.812290,13915.871710
2546.205993,-2298.286494,-1924.535449,10658.965565
2546.206322,-7890.783629,666.185348,4811.338623
2546.206652,-10035.851024,-10881.027347,20651.745782
2546.206981,-10189.070123,-1628.453072,9622.677246
2546.207310,-4366.744339,-4367.215058,17172.777854
2546.207639,-4673.182538,-3627.009116,10362.883188
2546.207968,2528.115143,1258.350101,7994.224174
2546.208297,2451.505594,-74.020594,8364.327145
2546.208626,3753.867940,2886.803174,10881.027347
2546.208955,6052.154434,2072.576638,8734.430116
2546.209284,10801.946522,2664.741391,4737.318029
2546.209613,8503.660028,1554.432478,2664.741391
2546.209942,5056.230287,5625.565159,2146.597232
2546.210271,4826.401637,5699.585753,7994.224174
2546.210600,766.095498,962.267725,6069.688724
2546.210929,-1915.238745,-3552.988522,11103.089130
2546.211258,-1225.752797,-4663.297435,16506.592507
2546.211588,-8733.488677,2294.638420,-740.205942
2546.211917,-7660.954980,-11399.171507,23020.404796
2546.212246,-13789.718964,-3552.988522,7402.059420
2546.212575,-6052.154434,-2664.741391,16580.613101
2546.212904,-6971.469032,-6587.832884,14730.098246
2546.213233,-689.485948,1628.453072,7920.203579
2546.213562,2451.505594,-1258.350101,11029.068536
2546.213891,2374.896044,4737.318029,3478.967927
2546.214220,8810.098227,2442.679609,17172.777854
2546.214549,6128.763984,3256.906145,-1776.494261
2546.214878,13100.233016,3108.864956,7920.203579
2546.215207,5898.935335,4589.276840,2664.741391
2546.215536,8273.831378,7994.224174,962.267725
2546.215865,842.705048,4071.132681,6735.874072
2546.216194,1378.971896,-0.000000,4737.318029
2546.216523,-1838.629195,-1776.494261,16284.530724
2546.216853,-3140.991542,-5847.626942,10510.924376
2546.217182,-8350.440928,-0.000000,4515.256246
2546.217511,-10189.070123,-11251.130318,22132.157666
2546.217840,-9959.241474,-2072.576638,8290.306550
2546.218169,-4826.401637,-4441.235652,17246.798449
2546.218498,-4290.134789,-3404.947333,10066.800811
2546.218827,766.095498,2368.659014,10288.862594
2546.219156,4443.353888,-2368.659014,7550.100608
2546.219485,2987.772442,3701.029710,9474.636058
2546.219814,8580.269578,-74.020594,11103.089130
2546.220143,9959.241474,2146.597232,1702.473667
2546.220472,9652.803275,1628.453072,3775.050304
2546.220801,5286.058936,7254.018232,2220.617826
2546.221130,5362.668486,3552.988522,9992.780217
2546.221459,1608.800546,5033.400406,4737.318029
2546.221789,3217.601092,-0.000000,5699.585753
2546.222118,-2604.724693,-4811.338623,18283.086767
2546.222447,-5056.230287,-3256.906145,4885.359217
2546.222776,-7967.393179,-1776.494261,11547.212695
2546.223105,-9039.926876,-10732.986159,20207.622217
2546.223434,-10572.117872,-888.247130,7254.018232
2546.223763,-2604.724693,-6809.894666,17690.922014
2546.224092,-2681.334243,-1332.370696,8882.471304
2546.224421,1685.410096,-222.061783,11103.089130
2546.224750,2451.505594,-1258.350101,6809.894666
2546.225079,6818.249932,3627.009116,14211.954086
2546.225408,6818.249932,2664.741391,4663.297435
2546.225737,12104.308868,4219.173869,7031.956449
2546.226066,7814.174080,1850.514855,2146.597232
2546.226395,7048.078582,9178.553681,2812.782580
2546.226724,2987.772442,3552.988522,9548.656652
2546.227054,1455.581446,3404.947333,4219.173869
2546.227383,-1149.143247,-2146.597232,10881.027347
2546.227712,-1685.410096,-5477.523971,15174.221811
2546.228041,-8044.002729,740.205942,592.164754
2546.228370,-7890.783629,-10584.944971,20577.725188
2546.228699,-10189.070123,-4663.297435,8290.306550
2546.229028,-5592.497135,-1332.370696,15470.304188
2546.229357,-3217.601092,-7031.956449,13693.809927
2546.229686,-612.876398,1184.329507,8734.430116
2546.230015,3677.258390,-3627.009116,9992.780217
2546.230344,1838.629195,1702.473667,7846.182985
2546.230673,8197.221829,2886.803174,11991.336260
2546.231002,8656.879127,2220.617826,1332.370696
2546.231331,9652.803275,3701.029710,5551.544565
2546.231660,5286.058936,5255.462188,3330.926739
2546.231990,5439.278036,5403.503377,6809.894666
2546.232319,1685.410096,4959.379811,5625.565159
2546.232648,612.876398,666.185348,3404.947333
2546.232977,-2451.505594,-6143.709319,20059.581028
2546.233306,-4749.792088,-1776.494261,4219.173869
2546.233635,-7431.126331,-2590.720797,9992.780217
2546.233964,-10265.679673,-9770.718434,17987.004391
2546.234293,-9039.926876,-1850.514855,8364.327145
2546.234622,-3753.867940,-6957.935855,17616.901420
2546.234951,-3140.991542,-2072.576638,8216.285956
2546.235280,1608.800546,-444.123565,11325.150913
2546.235609,1991.848295,-592.164754,6809.894666
2546.235938,3907.087040,2664.741391,11843.295072
2546.236267,6358.592633,888.247130,8734.430116
2546.236596,11261.603821,4515.256246,5033.400406
2546.236925,7890.783629,2072.576638,3034.844362
2546.237255,5056.230287,6809.894666,2516.700203
2546.237584,3064.381992,6735.874072,8364.327145
2546.237913,229.828649,1110.308913,6513.812290
2546.238242,-1532.190996,-4367.215058,11547.212695
2546.238571,-2221.676944,-4071.132681,15544.324782
2546.238900,-7048.078582,814.226536,1110.308913
2546.239229,-7814.174080,-9992.780217,18875.251521
2546.239558,-11261.603821,-2960.823768,8882.471304
2546.239887,-4060.306139,-3182.885551,15100.201217
2546.240216,-3830.477490,-5921.647536,13841.851115
2546.240545,-306.438199,592.164754,8660.409521
2546.240874,3447.429741,-1924.535449,9696.697840
2546.241203,1149.143247,1924.535449,7550.100608
2546.241532,7201.297681,3034.844362,14730.098246
2546.241861,7277.907231,2960.823768,-444.123565
2546.242190,9346.365076,3330.926739,7846.182985
2546.242520,4749.792088,5847.626942,2146.597232
2546.242849,6665.030833,7105.977043,4145.153275
2546.243178,536.266849,3552.988522,6809.894666
2546.243507,1991.848295,2590.720797,2294.638420
2546.243836,-1378.971896,-3627.009116,16062.468941
2546.244165,-3907.087040,-5847.626942,10807.006753
2546.244494,-6665.030833,296.082377,3849.070898
2546.244823,-7814.174080,-10362.883188,19689.478057
2546.245152,-7967.393179,-3478.967927,7920.203579
2546.245481,-3983.696590,-4515.256246,17024.736666
2546.245810,-2451.505594,-4293.194464,12213.398043
2546.246139,-383.047749,2146.597232,9622.677246
2546.246468,3677.258390,-2220.617826,9400.615463
2546.246797,2604.724693,3923.091493,9992.780217
2546.247126,6358.592633,2516.700203,10807.006753
2546.247456,9422.974625,2294.638420,3775.050304
2546.247785,7737.564530,2664.741391,4663.297435
2546.248114,4366.744339,5255.462188,3256.906145
2546.248443,4366.744339,5329.482782,8290.306550
2546.248772,1608.800546,2146.597232,6661.853478
2546.249101,-1532.190996,-1702.473667,6217.729913
2546.249430,-689.485948,-6957.935855,17246.798449
2546.249759,-5669.106685,1258.350101,1998.556043
2546.250088,-5056.230287,-7179.997637,14434.015869
2546.250417,-8197.221829,-5255.462188,11695.253884
2546.250746,-3983.696590,-2146.597232,12287.418637
2546.251075,-1915.238745,-4811.338623,15322.262999
2546.251404,689.485948,-0.000000,8808.450710
2546.251733,2374.896044,444.123565,8660.409521
2546.252062,1838.629195,-222.061783,11621.233289
2546.252391,6511.811733,4515.256246,10658.965565
2546.252721,7507.735880,4071.132681,2886.803174
2546.253050,7967.393179,2664.741391,5329.482782
2546.253379,5132.839837,4293.194464,2738.761985
2546.253708,5132.839837,5699.585753,5773.606348
2546.254037,1608.800546,3627.009116,5329.482782
2546.254366,-766.095498,-222.061783,3849.070898
2546.254695,-2145.067394,-8364.327145,17838.963202
2546.255024,-4366.744339,370.102971,3997.112087
2546.255353,-6128.763984,-4737.318029,10881.027347
2546.255682,-9269.755526,-8734.430116,14137.933492
2546.256011,-5898.935335,-1258.350101,11917.315666
2546.256340,-2221.676944,-5847.626942,15692.365970
2546.256669,-1455.581446,-370.102971,7550.100608
2546.256998,2451.505594,-148.041188,9844.739029
2546.257327,1608.800546,-962.267725,10732.986159
2546.257657,6894.859482,3330.926739,13027.624579
2546.257986,5209.449386,5033.400406,1924.535449
2546.258315,9269.755526,2220.617826,7476.080014
2546.258644,5132.839837,4515.256246,2960.823768
2546.258973,6741.640382,7031.956449,4811.338623
2546.259302,1991.848295,3775.050304,7105.977043
2546.259631,-459.657299,962.267725,4145.153275
2546.259960,-2068.457845,-7105.977043,16136.489536
2546.260289,-3753.867940,-1036.288319,6735.874072
2546.260618,-7277.907231,-2590.720797,7994.224174
2546.260947,-9882.631924,-9474.636058,16654.633695
2546.261276,-7507.735880,-2146.597232,11547.212695
2546.261605,-3830.477490,-4515.256246,16062.468941
2546.261934,-2221.676944,-2738.761985,9178.553681
2546.262263,842.705048,1480.411884,9104.533087
2546.262592,2068.457845,-74.020594,8364.327145
2546.262922,4979.620737,3330.926739,12731.542202
2546.263251,4366.744339,3552.988522,6439.791695
2546.263580,10495.508323,2960.823768,7179.997637
2546.263909,6741.640382,3108.864956,2516.700203
2546.264238,6052.154434,5995.668130,3108.864956
2546.264567,2834.553343,5699.585753,6809.894666
2546.264896,536.266849,370.102971,7105.977043
2546.265225,-1685.410096,-4293.194464,12583.501014
2546.265554,-3217.601092,-6217.729913,13249.686362
2546.265883,-8350.440928,-0.000000,3627.009116
2546.266212,-7814.174080,-10881.027347,19467.416275
2546.266541,-9959.241474,-2516.700203,8438.347739
2546.266870,-4290.134789,-3182.885551,15248.242405
2546.267199,-3370.820191,-4441.235652,11843.295072
2546.267528,536.266849,2072.576638,8734.430116
2546.267858,2221.676944,-0.000000,7846.182985
2546.268187,5056.230287,666.185348,14508.036463
2546.268516,5515.887586,4145.153275,6513.812290
2546.268845,10725.336972,2368.659014,7550.100608
2546.269174,8427.050478,2220.617826,3108.864956
2546.269503,6588.421283,7031.956449,3404.947333
2546.269832,3830.477490,4663.297435,8068.244768
2546.270161,1455.581446,4737.318029,3701.029710
2546.270490,919.314598,-1332.370696,8290.306550
2546.270819,-3294.210641,-7550.100608,16654.633695
2546.271148,-5745.716235,-1110.308913,4219.173869
2546.271477,-7660.954980,-5477.523971,13323.706956
2546.271806,-8656.879127,-7920.203579,15026.180623
2546.272135,-7890.783629,296.082377,12361.439231
2546.272464,-1915.238745,-5773.606348,16802.674883
2546.272793,-2068.457845,2368.659014,7105.977043
2546.273123,3294.210641,-592.164754,10362.883188
2546.273452,1685.410096,1480.411884,8364.327145
2546.273781,7814.174080,4441.235652,13915.871710
2546.274110,5975.544884,3775.050304,814.226536
2546.274439,9269.755526,2812.782580,7179.997637
2546.274768,5362.668486,2442.679609,2812.782580
2546.275097,6358.592633,7550.100608,2368.659014
2546.275426,2145.067394,2368.659014,6883.915261
2546.275755,1149.143247,2960.823768,2664.741391
2546.276084,-1838.629195,-5403.503377,17987.004391
2546.276413,-3600.648841,-5033.400406,10510.924376
2546.276742,-8044.002729,-370.102971,4737.318029
2546.277071,-8350.440928,-9992.780217,19911.539840
2546.277400,-8273.831378,-1776.494261,7550.100608
2546.277729,-4136.915689,-2294.638420,16432.571912
2546.278059,-2681.334243,-3701.029710,11473.192101
2546.278388,-766.095498,2072.576638,10140.821405
2546.278717,2528.115143,-2368.659014,9326.594869
2546.279046,3370.820191,2072.576638,11251.130318
2546.279375,5286.058936,2072.576638,9844.739029
2546.279704,10725.336972,1702.473667,5329.482782
2546.280033,7814.174080,2590.720797,2146.597232
2546.280362,5439.278036,4737.318029,3478.967927
2546.280691,4443.353888,4293.194464,8216.285956
2546.281020,1838.629195,3923.091493,4589.276840
2546.281349,766.095498,-1924.535449,6143.709319
2546.281678,-2987.772442,-5551.544565,16210.510130
2546.282007,-5056.230287,-1702.473667,5995.668130
2546.282336,-6281.983084,-3997.112087,12065.356855
2546.282665,-7048.078582,-5329.482782,14211.954086
2546.282994,-6435.202183,-1332.370696,10288.862594
2546.283324,-1302.362347,-4367.215058,15322.262999
2546.283653,-1225.752797,370.102971,9400.615463
2546.283982,1991.848295,-888.247130,9474.636058
2546.284311,1149.143247,222.061783,8586.388927
2546.284640,6205.373534,3404.947333,14952.160028
2546.284969,6588.421283,4293.194464,1110.308913
2546.285298,10418.898773,2738.761985,7179.997637
2546.285627,5822.325785,2664.741391,1998.556043
2546.285956,6971.469032,7105.977043,2516.700203
2546.286285,1302.362347,4219.173869,6809.894666
2546.286614,689.485948,1406.391290,4737.318029
2546.286943,-2834.553343,-5847.626942,16062.468941
2546.287272,-2911.162892,-4145.153275,11029.068536
2546.287601,-8886.707777,222.061783,4663.297435
2546.287930,-9039.926876,-10140.821405,19615.457463
2546.288259,-8580.269578,-1702.473667,7772.162391
2546.288589,-3294.210641,-2812.782580,15840.407159
2546.288918,-2451.505594,-3330.926739,11325.150913
2546.289247,-689.485948,1258.350101,8586.388927
2546.289576,3217.601092,-2812.782580,9622.677246
2546.289905,5898.935335,2442.679609,11547.212695
2546.290234,4443.353888,4885.359217,7031.956449
2546.290563,11797.870669,1554.432478,7920.203579
2546.290892,7584.345430,3256.906145,222.061783
2546.291221,7048.078582,7328.038826,3478.967927
2546.291550,2374.896044,4367.215058,7402.059420
2546.291879,1685.410096,3256.906145,5551.544565
2546.292208,-2221.676944,-2886.803174,11991.336260
2546.292536,-2451.505594,-5995.668130,15840.407159
2546.292865,-8427.050478,888.247130,2886.803174
2546.293194,-7507.735880,-10066.800811,19023.292709
2546.293523,-9269.755526,-3478.967927,9178.553681
2546.293852,-4749.792088,-1998.556043,15248.242405
2546.294181,-2451.505594,-5551.544565,14211.954086
2546.294510,-1149.143247,2220.617826,8734.430116
2546.294839,2834.553343,-2368.659014,9918.759623
2546.295168,2681.334243,1554.432478,10288.862594
2546.295497,6741.640382,3552.988522,8956.491898
2546.295826,9729.412825,1998.556043,4663.297435
2546.296155,8197.221829,3997.112087,2738.761985
2546.296483,5898.935335,4441.235652,4145.153275
2546.296812,4903.011187,5699.585753,7254.018232
2546.297141,1608.800546,3849.070898,5329.482782
2546.297470,-1608.800546,-666.185348,5773.606348
2546.297799,-2221.676944,-7624.121203,19023.292709
2546.298128,-7507.735880,1924.535449,1924.535449
2546.298457,-7201.297681,-9400.615463,16580.613101
2546.298786,-11568.042020,-5921.647536,10436.903782
2546.299115,-6205.373534,-2294.638420,15174.221811
2546.299444,-4366.744339,-6513.812290,15396.283594
2546.299773,-1378.971896,-0.000000,7476.080014
2546.300102,2374.896044,-1480.411884,10140.821405
2546.300431,1991.848295,1258.350101,6809.894666
2546.300759,7431.126331,3256.906145,13249.686362
2546.301088,6588.421283,3701.029710,888.247130
2546.301417,10725.336972,2442.679609,6809.894666
2546.301746,4903.011187,3923.091493,3701.029710
2546.302075,7584.345430,6883.915261,2294.638420
2546.302404,689.485948,3849.070898,6143.709319
2546.302733,1455.581446,2072.576638,4293.194464
2546.303062,-995.924147,-3701.029710,16802.674883
2546.303391,-2911.162892,-5181.441594,10732.986159
2546.303720,-6281.983084,-444.123565,4737.318029
2546.304049,-7277.907231,-8586.388927,17468.860231
2546.304378,-6741.640382,-2368.659014,9030.512492
2546.304706,-4290.134789,-2812.782580,15322.262999
2546.305035,-1915.238745,-4663.297435,11917.315666
2546.305364,-689.485948,1702.473667,9548.656652
2546.305693,3677.258390,-2960.823768,10732.986159
2546.306022,1685.410096,3330.926739,8364.327145
2546.306351,6741.640382,1332.370696,13989.892304
2546.306680,8197.221829,2960.823768,370.102971
2546.307009,8350.440928,2664.741391,6513.812290
2546.307338,4366.744339,3627.009116,3478.967927
2546.307667,5745.716235,7031.956449,5921.647536
2546.307996,1991.848295,3997.112087,6513.812290
2546.308325,3140.991542,1554.432478,2590.720797
2546.308653,-1378.971896,-740.205942,14211.954086
2546.308982,-3447.429741,-5773.606348,10288.862594
2546.309311,-5515.887586,-444.123565,6291.750507
2546.309640,-6588.421283,-8142.265362,16580.613101
2546.309969,-7124.688131,-4145.153275,8142.265362
2546.310298,-4596.572988,-2960.823768,15618.345376
2546.310627,-2221.676944,-5403.503377,14137.933492
2546.310956,-1685.410096,666.185348,10362.883188
2546.311285,3140.991542,-2590.720797,9622.677246
2546.311614,689.485948,3701.029710,7476.080014
2546.311943,6818.249932,2368.659014,14137.933492
2546.312272,6971.469032,3627.009116,296.082377
2546.312600,9652.803275,2368.659014,6735.874072
2546.312929,4136.915689,4663.297435,3256.906145
2546.313258,5209.449386,5403.503377,5921.647536
2546.313587,1685.410096,2664.741391,7031.956449
2546.313916,-1532.190996,-888.247130,5403.503377
2546.314245,-1991.848295,-6069.688724,16876.695478
2546.314574,-4749.792088,370.102971,3552.988522
2546.314903,-5515.887586,-5403.503377,12361.439231
2546.315232,-9882.631924,-5995.668130,13545.768739
2546.315561,-5209.449386,-2368.659014,11621.233289
2546.315890,-2604.724693,-4737.318029,15618.345376
2546.316219,-919.314598,-1628.453072,9474.636058
2546.316548,2221.676944,592.164754,9400.615463
2546.316876,229.828649,-148.041188,9252.574275
2546.317205,5745.716235,3627.009116,13175.665768
2546.317534,6052.154434,4959.379811,2812.782580
2546.317863,9652.803275,3923.091493,6291.750507
2546.318192,4749.792088,4071.132681,2368.659014
2546.318521,4903.011187,6809.894666,4293.194464
2546.318850,689.485948,2516.700203,7920.203579
2546.319179,-2374.896044,-1406.391290,6883.915261
2546.319508,-995.924147,-7328.038826,15248.242405
2546.319837,-4366.744339,1110.308913,5625.565159
2546.320166,-7124.688131,-7105.977043,11547.212695
2546.320495,-11568.042020,-5773.606348,13323.706956
2546.320823,-5592.497135,-2886.803174,13471.748144
2546.321152,-3600.648841,-4367.215058,14211.954086
2546.321481,-459.657299,-1480.411884,9252.574275
2546.321810,2681.334243,1628.453072,7994.224174
2546.322139,1149.143247,-222.061783,9548.656652
2546.322468,7048.078582,2442.679609,12879.583391
2546.322797,5515.887586,5699.585753,222.061783
2546.323126,10725.336972,2590.720797,7698.141797
2546.323455,4979.620737,5107.421000,1480.411884
2546.323784,7584.345430,5551.544565,6069.688724
2546.324113,306.438199,3923.091493,5403.503377
2546.324442,229.828649,518.144159,4885.359217
2546.324770,-2068.457845,-6439.791695,16062.468941
2546.325099,-3600.648841,-1110.308913,7328.038826
2546.325428,-6205.373534,-3108.864956,8808.450710
2546.325757,-9729.412825,-7772.162391,15692.365970
2546.326086,-6665.030833,-2072.576638,12065.356855
2546.326415,-3447.429741,-4811.338623,15914.427753
2546.326744,-1302.362347,-2072.576638,10140.821405
2546.327073,2068.457845,2072.576638,8142.265362
2546.327402,1685.410096,-518.144159,8586.388927
2546.327731,7124.688131,3034.844362,14063.912898
2546.328060,4749.792088,5699.585753,888.247130
2546.328389,11261.603821,2738.761985,8438.347739
2546.328718,6358.592633,3923.091493,2516.700203
2546.329046,8197.221829,5921.647536,3923.091493
2546.329375,995.924147,3997.112087,6217.729913
2546.329704,0.000000,1184.329507,5329.482782
2546.330033,-2298.286494,-6439.791695,14285.974681
2546.330362,-3600.648841,-3256.906145,10881.027347
2546.330691,-7660.954980,-1628.453072,5773.606348
2546.331020,-9116.536426,-7698.141797,17987.004391
2546.331349,-7814.174080,-2294.638420,9474.636058
2546.331678,-3830.477490,-3182.885551,14285.974681
2546.332007,-2451.505594,-2368.659014,9770.718434
2546.332336,995.924147,1628.453072,8142.265362
2546.332665,2221.676944,-1406.391290,8142.265362
2546.332993,7660.954980,2072.576638,14359.995275
2546.333322,3677.258390,5403.503377,962.267725
2546.333651,11338.213370,1850.514855,8364.327145
2546.333980,7584.345430,4663.297435,1702.473667
2546.334309,8810.098227,6957.935855,4367.215058
2546.334638,2145.067394,3256.906145,6513.812290
2546.334967,2298.286494,3330.926739,4737.318029
2546.335296,-842.705048,-3775.050304,11695.253884
2546.335625,-4366.744339,-5847.626942,14730.098246
2546.335954,-7201.297681,-2220.617826,5551.544565
2546.336283,-8503.660028,-9104.533087,16506.592507
2546.336612,-8350.440928,-4367.215058,10362.883188
2546.336940,-6358.592633,-2590.720797,15322.262999
2546.337269,-2681.334243,-4441.235652,13101.645173
2546.337598,-383.047749,1628.453072,8512.368333
2546.337927,2451.505594,-1776.494261,8956.491898
2546.338256,3907.087040,1110.308913,10881.027347
2546.338585,6128.763984,2812.782580,9400.615463
2546.338914,9806.022374,1776.494261,5921.647536
2546.339243,8503.660028,3923.091493,3478.967927
2546.339572,5898.935335,4885.359217,4145.153275
2546.339901,5056.230287,4219.173869,8142.265362
2546.340230,1762.019645,4219.173869,4959.379811
2546.340559,2374.896044,1110.308913,4811.338623
2546.340887,-3447.429741,-5773.606348,16062.468941
2546.341216,-5515.887586,-1480.411884,6365.771101
2546.341545,-7814.174080,-3627.009116,11621.233289
2546.341874,-9806.022374,-7624.121203,15914.427753
2546.342203,-8886.707777,-2294.638420,9548.656652
2546.342532,-4060.306139,-5329.482782,15322.262999
2546.342861,-3830.477490,-888.247130,9400.615463
2546.343190,995.924147,-666.185348,10584.944971
2546.343519,2298.286494,-0.000000,7105.977043
2546.343848,4443.353888,1998.556043,13693.809927
2546.344177,5745.716235,1184.329507,9104.533087
2546.344506,11108.384721,2812.782580,5921.647536
2546.344835,8580.269578,3034.844362,2960.823768
2546.345163,6511.811733,5847.626942,3478.967927
2546.345492,3600.648841,5477.523971,8956.491898
2546.345821,1455.581446,3701.029710,5329.482782
2546.346150,1762.019645,148.041188,7994.224174
2546.346479,-3524.039291,-4367.215058,14582.057057
2546.346808,-5439.278036,-2886.803174,5921.647536
2546.347137,-6818.249932,-4367.215058,13767.830521
2546.347466,-8350.440928,-7624.121203,14137.933492
2546.347795,-7890.783629,-1554.432478,10436.903782
2546.348124,-2221.676944,-6291.750507,16136.489536
2546.348453,-2068.457845,666.185348,9326.594869
2546.348782,1915.238745,-1702.473667,9548.656652
2546.349110,1455.581446,1110.308913,6809.894666
2546.349439,6971.469032,2886.803174,15840.407159
2546.349768,6128.763984,3330.926739,1184.329507
2546.350097,10955.165621,3627.009116,7105.977043
2546.350426,6818.249932,2886.803174,2960.823768
2546.350755,6741.640382,8512.368333,2220.617826
2546.351084,1991.848295,3256.906145,7624.121203
2546.351413,766.095498,3849.070898,2886.803174
2546.351742,-1608.800546,-2146.597232,12509.480420
2546.352071,-3600.648841,-6883.915261,13767.830521
2546.352400,-8427.050478,-518.144159,3034.844362
2546.352729,-8656.879127,-9400.615463,18061.024985
2546.353057,-8733.488677,-4885.359217,8734.430116
2546.353386,-6435.202183,-1850.514855,15100.201217
2546.353715,-2757.943793,-6439.791695,14730.098246
2546.354044,-1991.848295,1702.473667,9326.594869
2546.354373,2834.553343,-3330.926739,9622.677246
2546.354702,2068.457845,2368.659014,8808.450710
2546.355031,7354.516781,2812.782580,11695.253884
2546.355360,9499.584175,3108.864956,1554.432478
2546.355689,9269.755526,3627.009116,4737.318029
2546.356018,4519.963438,3923.091493,3404.947333
2546.356347,5822.325785,4811.338623,7402.059420
2546.356676,1302.362347,5403.503377,5995.668130
2546.357004,766.095498,296.082377,4145.153275
2546.357333,-2451.505594,-4959.379811,18357.107362
2546.357662,-4519.963438,-2442.679609,6439.791695
2546.357991,-7048.078582,-1998.556043,10732.986159
2546.358320,-8580.269578,-8956.491898,17987.004391
2546.358649,-6971.469032,-2146.597232,8142.265362
2546.358978,-1608.800546,-5329.482782,16728.654289
2546.359307,-1072.533697,-1702.473667,9030.512492
2546.359636,1149.143247,1406.391290,9548.656652
2546.359965,459.657299,-2220.617826,9696.697840
2546.360294,7814.174080,4145.153275,12657.521608
2546.360623,6511.811733,4737.318029,592.164754
2546.360952,10265.679673,3552.988522,7994.224174
2546.361280,5439.278036,3108.864956,2146.597232
2546.361609,8886.707777,7772.162391,4589.276840
2546.361938,1608.800546,3923.091493,5773.606348
2546.362267,1225.752797,4959.379811,3627.009116
2546.362596,-1532.190996,-5107.421000,15618.345376
2546.362925,-3753.867940,-4885.359217,11547.212695
2546.363254,-8044.002729,-0.000000,3034.844362
2546.363583,-8273.831378,-9622.677246,18653.189738
2546.363912,-8197.221829,-5255.462188,7920.203579
2546.364241,-4903.011187,-1406.391290,16136.489536
2546.364570,-1455.581446,-5847.626942,12657.521608
2546.364899,-1225.752797,1850.514855,8142.265362
2546.365227,2987.772442,-3330.926739,9030.512492
2546.365556,3524.039291,1924.535449,11177.109724
2546.365885,5056.230287,2220.617826,9474.636058
2546.366214,10495.508323,2590.720797,6365.771101
2546.366543,7890.783629,3404.947333,1628.453072
2546.366872,5056.230287,4663.297435,5181.441594
2546.367201,3830.477490,5255.462188,7846.182985
2546.367530,1149.143247,3627.009116,5181.441594
2546.367859,-689.485948,-814.226536,5995.668130
2546.368188,-1991.848295,-6069.688724,18209.066173
2546.368517,-4366.744339,592.164754,2886.803174
2546.368846,-5056.230287,-6883.915261,12879.583391
2546.369174,-7660.954980,-6365.771101,12065.356855
2546.369503,-5209.449386,-1998.556043,11621.233289
2546.369832,-2221.676944,-6217.729913,15840.407159
2546.370161,-919.314598,-148.041188,8142.265362
2546.370490,2145.067394,-444.123565,9252.574275
2546.370819,612.876398,222.061783,9696.697840
2546.371148,4136.915689,2146.597232,16506.592507
2546.371477,5132.839837,3034.844362,4071.132681
2546.371806,10801.946522,4293.194464,7179.997637
2546.372135,5592.497135,2664.741391,3256.906145
2546.372464,5898.935335,7476.080014,3775.050304
2546.372793,766.095498,5107.421000,7254.018232
2546.373122,766.095498,296.082377,5477.523971
2546.373450,-689.485948,-2368.659014,13323.706956
2546.373779,-2681.334243,-4959.379811,12065.356855
2546.374108,-6435.202183,-222.061783,3701.029710
2546.374437,-7124.688131,-7994.224174,17616.901420
2546.374766,-7277.907231,-3552.988522,8290.306550
2546.375095,-4136.915689,-3108.864956,13619.789333
2546.375424,-2451.505594,-4663.297435,13693.809927
2546.375753,-612.876398,592.164754,8068.244768
2546.376082,2221.676944,-2590.720797,9474.636058
2546.376411,459.657299,2812.782580,7772.162391
2546.376740,4903.011187,1998.556043,14730.098246
2546.377069,5745.716235,3478.967927,592.164754
2546.377397,9729.412825,3478.967927,6587.832884
2546.377726,4213.525239,4441.235652,3256.906145
2546.378055,5439.278036,6439.791695,4737.318029
2546.378384,842.705048,4293.194464,7698.141797
2546.378713,-1685.410096,-1998.556043,6587.832884
2546.379042,-2221.676944,-5403.503377,15840.407159
2546.379371,-3447.429741,296.082377,5847.626942
2546.379700,-5286.058936,-6217.729913,10436.903782
2546.380029,-9193.145976,-5033.400406,13915.871710
2546.380358,-3294.210641,-3404.947333,12361.439231
2546.380687,-2068.457845,-4145.153275,14063.912898
2546.381016,229.828649,-518.144159,11177.109724
2546.381344,1302.362347,1184.329507,7920.203579
2546.381673,459.657299,222.061783,9992.780217
2546.382002,3753.867940,2220.617826,15692.365970
2546.382331,4903.011187,3404.947333,4441.235652
2546.382660,10112.460574,4071.132681,7254.018232
2546.382989,5592.497135,2664.741391,1184.329507
2546.383318,5745.716235,5477.523971,4367.215058
2546.383647,995.924147,4219.173869,7402.059420
2546.383976,-1302.362347,-518.144159,6735.874072
2546.384305,-1302.362347,-5921.647536,14137.933492
2546.384634,-3370.820191,-1406.391290,8290.306550
2546.384963,-5592.497135,-2442.679609,6069.688724
2546.385291,-8350.440928,-6291.750507,14508.036463
2546.385620,-6358.592633,-2590.720797,11621.233289
2546.385949,-2451.505594,-3849.070898,13915.871710
2546.386278,-766.095498,-1554.432478,10881.027347
2546.386607,2451.505594,962.267725,7402.059420
2546.386936,689.485948,-888.247130,9252.574275
2546.387265,5056.230287,1110.308913,15988.448347
2546.387594,4060.306139,5181.441594,1776.494261
2546.387923,10801.946522,2368.659014,8438.347739
2546.388252,5898.935335,3923.091493,1406.391290
2546.388581,7507.735880,6143.709319,4293.194464
2546.388910,1225.752797,4293.194464,6661.853478
2546.389239,689.485948,1110.308913,5551.544565
2546.389567,-1378.971896,-3997.112087,13249.686362
2546.389896,-2911.162892,-4145.153275,12583.501014
2546.390225,-5439.278036,-1258.350101,6365.771101
2546.390554,-6894.859482,-7105.977043,15618.345376
2546.390883,-5898.935335,-3404.947333,9918.759623
2546.391212,-3447.429741,-3034.844362,14211.954086
2546.391541,-842.705048,-3627.009116,13175.665768
2546.391870,612.876398,1924.535449,8882.471304
2546.392199,2298.286494,-1776.494261,9400.615463
2546.392528,4290.134789,1332.370696,14359.995275
2546.392857,4519.963438,3923.091493,6587.832884
2546.393186,10035.851024,2664.741391,7328.038826
2546.393515,7354.516781,4293.194464,1406.391290
2546.393844,6894.859482,4663.297435,4811.338623
2546.394173,2221.676944,4367.215058,7328.038826
2546.394502,1532.190996,1776.494261,6661.853478
2546.394832,-1378.971896,-3404.947333,10584.944971
2546.395161,-3447.429741,-5329.482782,15248.242405
2546.395490,-6894.859482,-444.123565,4589.276840
2546.395819,-7354.516781,-7550.100608,16136.489536
2546.396148,-9806.022374,-3849.070898,10288.862594
2546.396477,-5286.058936,-2812.782580,13989.892304
2546.396806,-1991.848295,-4071.132681,13693.809927
2546.397136,1072.533697,666.185348,7994.224174
2546.397465,2068.457845,-518.144159,7105.977043
2546.397794,3983.696590,-296.082377,13619.789333
2546.398123,5669.106685,3182.885551,8512.368333
2546.398452,9269.755526,2368.659014,5995.668130
2546.398781,8273.831378,3404.947333,1924.535449
2546.399110,5898.935335,4145.153275,4515.256246
2546.399439,4903.011187,5033.400406,7772.162391
2546.399769,1149.143247,3627.009116,4515.256246
2546.400098,306.438199,-1258.350101,7105.977043
2546.400427,-3294.210641,-5551.544565,16728.654289
2546.400756,-5362.668486,-1036.288319,5181.441594
2546.401085,-7354.516781,-6217.729913,13323.706956
2546.401414,-9576.193725,-6809.894666,13249.686362
2546.401743,-6588.421283,-3034.844362,12583.501014
2546.402072,-2681.334243,-5625.565159,15322.262999
2546.402402,-1302.362347,370.102971,8438.347739
2546.402731,2221.676944,-0.000000,9104.533087
2546.403060,1991.848295,740.205942,9030.512492
2546.403389,6971.469032,3923.091493,11547.212695
2546.403718,7124.688131,3923.091493,1702.473667
2546.404047,9729.412825,3701.029710,6809.894666
2546.404376,4903.011187,3404.947333,3108.864956
2546.404705,6511.811733,6069.688724,5181.441594
2546.405035,689.485948,4071.132681,5181.441594
2546.405364,383.047749,1702.473667,4737.318029
2546.405693,-2604.724693,-5329.482782,16210.510130
2546.406022,-4443.353888,-2516.700203,7994.224174
2546.406351,-8733.488677,-2442.679609,8660.409521
2546.406680,-10572.117872,-9400.615463,17764.942608
2546.407009,-9652.803275,-1924.535449,9030.512492
2546.407339,-4213.525239,-3997.112087,15840.407159
2546.407668,-3600.648841,-2072.576638,8808.450710
2546.407997,1149.143247,666.185348,9696.697840
2546.408326,2221.676944,-148.041188,7402.059420
2546.408655,6358.592633,2294.638420,13249.686362
2546.408984,4903.011187,2886.803174,5625.565159
2546.409313,10725.336972,3330.926739,6291.750507
2546.409642,8350.440928,2516.700203,2664.741391
2546.409972,6435.202183,8216.285956,3108.864956
2546.410301,3677.258390,2442.679609,8512.368333
2546.410630,995.924147,4737.318029,4441.235652
2546.410959,995.924147,-814.226536,9770.718434
2546.411288,-3294.210641,-6661.853478,14137.933492
2546.411617,-5669.106685,-1924.535449,4885.359217
2546.411946,-7354.516781,-6957.935855,15618.345376
2546.412275,-8120.612279,-7031.956449,12731.542202
2546.412605,-6971.469032,-814.226536,12805.562797
2546.412934,-1378.971896,-5995.668130,14730.098246
2546.413263,-995.924147,1702.473667,8290.306550
2546.413592,3064.381992,-1110.308913,8660.409521
2546.413921,3294.210641,-814.226536,10140.821405
2546.414250,7277.907231,3701.029710,9992.780217
2546.414579,9116.536426,2220.617826,5033.400406
2546.414909,8810.098227,3182.885551,4811.338623
2546.415238,5362.668486,3701.029710,3330.926739
2546.415567,6741.640382,5033.400406,8290.306550
2546.415896,1455.581446,3849.070898,5995.668130
2546.416225,2451.505594,3923.091493,2664.741391
2546.416554,-1072.533697,-3108.864956,14063.912898
2546.416883,-4290.134789,-4589.276840,11103.089130
2546.417212,-7201.297681,-1628.453072,7328.038826
2546.417542,-7431.126331,-8364.327145,17246.798449
2546.417871,-7967.393179,-4737.318029,7328.038826
2546.418200,-4673.182538,-1776.494261,16136.489536
2546.418529,-1762.019645,-4663.297435,11473.192101
2546.418858,-919.314598,1332.370696,9104.533087
2546.419187,3753.867940,-2294.638420,9030.512492
2546.419516,4213.525239,2220.617826,11769.274478
2546.419845,5975.544884,2294.638420,9030.512492
2546.420175,11108.384721,2294.638420,6883.915261
2546.420504,7277.907231,2368.659014,1702.473667
2546.420833,4749.792088,5773.606348,4737.318029
2546.421162,3294.210641,4959.379811,7846.182985
2546.421491,1685.410096,3478.967927,6291.750507
2546.421820,-153.219100,1480.411884,6661.853478
2546.422149,-2374.896044,-6809.894666,15618.345376
2546.422478,-6358.592633,-148.041188,3478.967927
2546.422808,-6741.640382,-7476.080014,15988.448347
2546.423137,-9652.803275,-7031.956449,12361.439231
2546.423466,-7201.297681,-1850.514855,11769.274478
2546.423795,-2681.334243,-6143.709319,15470.304188
2546.424124,-1302.362347,-666.185348,7846.182985
2546.424453,2221.676944,-1110.308913,10140.821405
2546.424782,1149.143247,-74.020594,8216.285956
2546.425112,7737.564530,2516.700203,12657.521608
2546.425441,7660.954980,4145.153275,2294.638420
2546.425770,9116.536426,3627.009116,6513.812290
2546.426099,4213.525239,3478.967927,3627.009116
2546.426428,6281.983084,7476.080014,5255.462188
2546.426757,1225.752797,4293.194464,6735.874072
2546.427086,842.705048,3923.091493,3330.926739
2546.427415,-1532.190996,-4589.276840,17172.777854
2546.427745,-3677.258390,-3997.112087,10881.027347
2546.428074,-7814.174080,-444.123565,5847.626942
2546.428403,-8580.269578,-10658.965565,19541.436869
2546.428732,-8886.707777,-2220.617826,7179.997637
2546.429061,-4749.792088,-4293.194464,16432.571912
2546.429390,-2757.943793,-3923.091493,10066.800811
2546.429719,0.000000,1258.350101,9252.574275
2546.430048,3064.381992,-2368.659014,9474.636058
2546.430378,2528.115143,2368.659014,9622.677246
2546.430707,6665.030833,1258.350101,10732.986159
2546.431036,9499.584175,2590.720797,4589.276840
2546.431365,7814.174080,3108.864956,3478.967927
2546.431694,3140.991542,5403.503377,3701.029710
2546.432023,4136.915689,6809.894666,8586.388927
2546.432352,229.828649,3849.070898,6587.832884
2546.432681,919.314598,370.102971,6217.729913
2546.433011,-2374.896044,-5403.503377,16062.468941
2546.433340,-4903.011187,-222.061783,4071.132681
2546.433669,-5669.106685,-6513.812290,14211.954086
2546.433998,-8963.317327,-6291.750507,13767.830521
2546.434327,-5898.935335,-2812.782580,10658.965565
2546.434656,-2834.553343,-5625.565159,15100.201217
2546.434985,-1915.238745,-740.205942,9622.677246
2546.435315,1838.629195,-814.226536,9474.636058
2546.435644,995.924147,444.123565,7994.224174
2546.435973,5056.230287,2738.761985,16284.530724
2546.436302,5592.497135,2516.700203,4367.215058
2546.436631,10725.336972,3775.050304,7550.100608
2546.436960,5209.449386,1850.514855,2738.761985
2546.437289,5898.935335,7772.162391,3404.947333
2546.437618,1762.019645,4885.359217,7624.121203
2546.437948,689.485948,1628.453072,5847.626942
2546.438277,-306.438199,-1924.535449,12953.603985
2546.438606,-2374.896044,-4885.359217,13101.645173
2546.438935,-6971.469032,-1406.391290,4737.318029
2546.439264,-6281.983084,-8290.306550,16876.695478
2546.439593,-6588.421283,-3775.050304,8882.471304
2546.439922,-3753.867940,-3182.885551,12731.542202
2546.440251,-1838.629195,-4219.173869,13249.686362
2546.440581,-306.438199,592.164754,8808.450710
2546.440910,2374.896044,-2368.659014,8956.491898
2546.441239,766.095498,1036.288319,10584.944971
2546.441568,5132.839837,2368.659014,10658.965565
2546.441897,8120.612279,3478.967927,3034.844362
2546.442226,8273.831378,3330.926739,5329.482782
2546.442555,3217.601092,3330.926739,3627.009116
2546.442884,5132.839837,5847.626942,7402.059420
2546.443214,842.705048,3701.029710,5847.626942
2546.443543,536.266849,-740.205942,5329.482782
2546.443872,-2145.067394,-5255.462188,14804.118840
2546.444201,-2757.943793,-740.205942,6661.853478
2546.444530,-5132.839837,-5403.503377,9992.780217
2546.444859,-7354.516781,-5773.606348,13915.871710
2546.445188,-4519.963438,-3404.947333,10288.862594
2546.445518,-1532.190996,-3775.050304,14211.954086
2546.445847,-229.828649,-814.226536,10362.883188
2546.446176,1532.190996,-222.061783,8438.347739
2546.446505,995.924147,-1258.350101,11103.089130
2546.446834,3753.867940,2664.741391,13915.871710
2546.447163,5209.449386,4293.194464,4293.194464
2546.447492,9193.145976,3478.967927,7550.100608
2546.447821,5209.449386,2738.761985,2886.803174
2546.448151,5745.716235,6143.709319,5477.523971
2546.448480,1225.752797,4737.318029,6587.832884
2546.448809,-153.219100,592.164754,6365.771101
2546.449138,-1608.800546,-4811.338623,13545.768739
2546.449467,-1991.848295,-592.164754,9474.636058
2546.449796,-6205.373534,-2294.638420,5995.668130
2546.450125,-8120.612279,-7328.038826,15766.386565
2546.450454,-6511.811733,-2590.720797,10732.986159
2546.450784,-2374.896044,-3849.070898,13915.871710
2546.451113,-2451.505594,-2590.720797,10584.944971
2546.451442,1225.752797,-592.164754,9326.594869
2546.451771,536.266849,-1628.453072,9918.759623
2546.452100,2145.067394,1406.391290,12731.542202
2546.452429,4136.915689,2960.823768,6883.915261
2546.452758,8733.488677,3849.070898,5625.565159
2546.453088,7201.297681,3034.844362,3552.988522
2546.453417,4596.572988,5403.503377,3701.029710
2546.453746,3753.867940,5033.400406,6883.915261
2546.454075,689.485948,1924.535449,5699.585753
2546.454404,-306.438199,-1924.535449,9400.615463
2546.454733,-2374.896044,-4589.276840,14211.954086
2546.455062,-5209.449386,-0.000000,3849.070898
2546.455391,-5975.544884,-8290.306550,15988.448347
2546.455721,-8120.612279,-5477.523971,10362.883188
2546.456050,-4213.525239,-3775.050304,13471.748144
2546.456379,-2834.553343,-5181.441594,14211.954086
2546.456708,-459.657299,888.247130,9178.553681
2546.457037,2068.457845,-1036.288319,10510.924376
2546.457366,1149.143247,814.226536,10288.862594
2546.457695,5515.887586,3552.988522,10807.006753
2546.458024,7967.393179,3997.112087,2220.617826
2546.458354,8273.831378,2960.823768,5625.565159
2546.458683,3217.601092,3923.091493,4663.297435
2546.459012,5286.058936,5625.565159,6809.894666
2546.459341,-306.438199,2294.638420,6069.688724
2546.459670,-2221.676944,-1332.370696,7105.977043
2546.459999,-2451.505594,-5699.585753,16802.674883
2546.460328,-4979.620737,222.061783,5699.585753
2546.460657,-5975.544884,-7179.997637,13323.706956
2546.460987,-10648.727422,-4959.379811,11547.212695
2546.461316,-5056.230287,-3034.844362,13545.768739
2546.461645,-2528.115143,-3997.112087,13619.789333
2546.461974,76.609550,222.061783,8512.368333
2546.462303,1915.238745,1184.329507,7402.059420
2546.462632,4060.306139,-1998.556043,15100.201217
2546.462961,5362.668486,3627.009116,7105.977043
2546.463291,8886.707777,2960.823768,8290.306550
2546.463620,7814.174080,3552.988522,2664.741391
2546.463949,5745.716235,4811.338623,3775.050304
2546.464278,4749.792088,5403.503377,8734.430116
2546.464607,689.485948,3923.091493,5181.441594
2546.464936,1991.848295,962.267725,6513.812290
2546.465265,-2528.115143,-5403.503377,15988.448347
2546.465594,-4596.572988,-4145.153275,7402.059420
2546.465924,-6894.859482,-3108.864956,11029.068536
2546.466253,-7354.516781,-8216.285956,16432.571912
2546.466582,-7048.078582,-2516.700203,8956.491898
2546.466911,-1838.629195,-4737.318029,15692.365970
2546.467240,-766.095498,962.267725,7328.038826
2546.467569,2145.067394,666.185348,8512.368333
2546.467898,3447.429741,-1554.432478,11843.295072
2546.468227,7890.783629,3849.070898,8808.450710
2546.468557,6741.640382,3478.967927,5403.503377
2546.468886,7890.783629,2220.617826,6365.771101
2546.469215,5669.106685,3108.864956,2442.679609
2546.469544,6435.202183,5403.503377,7846.182985
2546.469873,1608.800546,2738.761985,5181.441594
2546.470202,2757.943793,4737.318029,3182.885551
2546.470531,-1378.971896,-4515.256246,14359.995275
2546.470860,-4673.182538,-4367.215058,11547.212695
2546.471190,-6818.249932,-3182.885551,8660.409521
2546.471519,-7354.516781,-7920.203579,15988.448347
2546.471848,-6894.859482,-4885.359217,8734.430116
2546.472177,-5898.935335,-1924.535449,15026.180623
2546.472506,-2374.896044,-3775.050304,11843.295072
2546.472835,-689.485948,1036.288319,9548.656652
2546.473164,2987.772442,-1184.329507,9252.574275
2546.473494,3677.258390,2294.638420,11843.295072
2546.473823,4903.011187,1406.391290,8808.450710
2546.474152,10648.727422,1998.556043,7846.182985
2546.474481,7890.783629,3923.091493,1036.288319
2546.474810,5439.278036,4589.276840,5107.421000
2546.475139,3753.867940,5551.544565,6587.832884
2546.475468,1378.971896,3775.050304,6661.853478
2546.475797,842.705048,1184.329507,6291.750507
2546.476127,-2987.772442,-5107.421000,15914.427753
2546.476456,-5592.497135,-2294.638420,6143.709319
2546.476785,-7277.907231,-5773.606348,14508.036463
2546.477114,-8733.488677,-7550.100608,14211.954086
2546.477443,-7660.954980,-2220.617826,10288.862594
2546.477772,-2911.162892,-5477.523971,15766.386565
2546.478101,-2221.676944,-518.144159,8068.244768
2546.478430,2298.286494,-296.082377,10066.800811
2546.478760,2145.067394,-0.000000,7402.059420
2546.479089,7201.297681,2812.782580,13323.706956
2546.479418,6511.811733,4071.132681,962.267725
2546.479747,10342.289223,3552.988522,6661.853478
2546.480076,4519.963438,3034.844362,3404.947333
2546.480405,6894.859482,6587.832884,4441.235652
2546.480734,1149.143247,3404.947333,6661.853478
2546.481063,689.485948,3923.091493,4959.379811
2546.481393,-1378.971896,-3849.070898,15840.407159
2546.481722,-3677.258390,-4293.194464,11177.109724
2546.482051,-8503.660028,-1850.514855,6513.812290
2546.482380,-9346.365076,-9844.739029,18579.169144
2546.482709,-8503.660028,-3552.988522,7254.018232
2546.483038,-4213.525239,-3256.906145,15322.262999
2546.483367,-2987.772442,-3923.091493,10658.965565
2546.483697,229.828649,1776.494261,9622.677246
2546.484026,2604.724693,-2146.597232,9400.615463
2546.484355,6052.154434,1998.556043,13323.706956
2546.484684,5515.887586,3849.070898,6217.729913
2546.485013,11568.042020,2738.761985,7254.018232
2546.485342,7660.954980,3775.050304,962.267725
2546.485671,6741.640382,8142.265362,4811.338623
2546.486000,3677.258390,4515.256246,8068.244768
2546.486330,612.876398,5107.421000,4811.338623
2546.486659,2757.943793,814.226536,9252.574275
2546.486988,-3064.381992,-3330.926739,14656.077652
2546.487317,-5286.058936,-5255.462188,7105.977043
2546.487646,-7967.393179,-2812.782580,11769.274478
2546.487975,-7124.688131,-9104.533087,16432.571912
2546.488304,-8273.831378,-2072.576638,8882.471304
2546.488633,-2451.505594,-5403.503377,16580.613101
2546.488963,-2221.676944,-0.000000,8438.347739
2546.489292,1149.143247,-962.267725,10881.027347
2546.489621,1378.971896,814.226536,6513.812290
2546.489950,6052.154434,2368.659014,15692.365970
2546.490279,5439.278036,3627.009116,5181.441594
2546.490608,10955.165621,3627.009116,7179.997637
2546.490937,5745.716235,1776.494261,3552.988522
2546.491267,5515.887586,8586.388927,4663.297435
2546.491596,2451.505594,4145.153275,6883.915261
2546.491925,1225.752797,2886.803174,5033.400406
2546.492254,-1225.752797,-1628.453072,12139.377449
2546.492583,-2604.724693,-5699.585753,14063.912898
2546.492912,-7431.126331,-1332.370696,4441.235652
2546.493241,-6971.469032,-9696.697840,17764.942608
2546.493570,-8580.269578,-3627.009116,8142.265362
2546.493899,-4826.401637,-2516.700203,13915.871710
2546.494228,-2604.724693,-5255.462188,14211.954086
2546.494557,-612.876398,518.144159,8956.491898
2546.494886,2451.505594,-2294.638420,9992.780217
2546.495215,1302.362347,1406.391290,9474.636058
2546.495544,6818.249932,2738.761985,11769.274478
2546.495873,7967.393179,3256.906145,1702.473667
2546.496202,8810.098227,3552.988522,5625.565159
2546.496531,3447.429741,3330.926739,4441.235652
2546.496860,5362.668486,6439.791695,6735.874072
2546.497190,689.485948,4441.235652,6217.729913
2546.497519,2451.505594,1628.453072,3404.947333
2546.497848,-766.095498,-2294.638420,12953.603985
2546.498177,-3217.601092,-4441.235652,10140.821405
2546.498506,-5745.716235,-3256.906145,7846.182985
2546.498835,-6281.983084,-6513.812290,13693.809927
2546.499164,-4673.182538,-4367.215058,8734.430116
2546.499493,-3294.210641,-3256.906145,13915.871710
2546.499822,-1225.752797,-2886.803174,12509.480420
2546.500151,-612.876398,-74.020594,9696.697840
2546.500480,1302.362347,-1702.473667,9770.718434
2546.500809,1532.190996,2664.741391,10436.903782
2546.501138,5745.716235,1406.391290,12509.480420
2546.501467,6818.249932,4219.173869,2368.659014
2546.501796,7354.516781,2294.638420,6365.771101
2546.502125,3217.601092,3923.091493,4737.318029
2546.502454,3983.696590,4959.379811,6513.812290
2546.502783,919.314598,3627.009116,6809.894666
2546.503113,0.000000,-0.000000,5995.668130
2546.503442,-2451.505594,-4589.276840,13915.871710
2546.503771,-3064.381992,-888.247130,6587.832884
2546.504100,-5056.230287,-4737.318029,9474.636058
2546.504429,-7354.516781,-5625.565159,13841.851115
2546.504758,-4749.792088,-3849.070898,10362.883188
2546.505087,-1532.190996,-3182.885551,14211.954086
2546.505416,-842.705048,-1776.494261,11251.130318
2546.505745,919.314598,-518.144159,8142.265362
2546.506074,153.219100,-888.247130,10288.862594
2546.506403,3524.039291,2146.597232,14656.077652
2546.506732,5056.230287,3404.947333,4515.256246
2546.507061,9193.145976,3701.029710,7105.977043
2546.507390,4903.011187,2368.659014,2368.659014
2546.507719,4903.011187,5921.647536,5181.441594
2546.508048,1302.362347,5107.421000,6735.874072
2546.508377,153.219100,518.144159,5847.626942
2546.508706,-1915.238745,-3330.926739,12435.459826
2546.509036,-2374.896044,-2812.782580,12287.418637
2546.509365,-4979.620737,-1406.391290,5329.482782
2546.509694,-5898.935335,-7105.977043,15988.448347
2546.510023,-5745.716235,-3775.050304,9178.553681
2546.510352,-1915.238745,-3404.947333,12953.603985
2546.510681,-1302.362347,-2368.659014,12509.480420
2546.511010,689.485948,814.226536,7920.203579
2546.511339,995.924147,-1258.350101,9844.739029
2546.511668,1991.848295,1480.411884,14211.954086
2546.511997,3983.696590,4515.256246,6883.915261
2546.512326,8044.002729,3330.926739,6809.894666
2546.512655,6128.763984,3108.864956,3034.844362
2546.512984,4290.134789,5107.421000,5255.462188
2546.513313,2374.896044,4145.153275,7624.121203
2546.513642,-459.657299,1406.391290,6143.709319
2546.513971,-1762.019645,-4885.359217,12287.418637
2546.514300,-2911.162892,-2812.782580,11917.315666
2546.514629,-5439.278036,-0.000000,4145.153275
2546.514959,-6588.421283,-7179.997637,15396.283594
2546.515288,-7967.393179,-2886.803174,10881.027347
2546.515617,-2145.067394,-3775.050304,13323.706956
2546.515946,-1685.410096,-3256.906145,12509.480420
2546.516275,612.876398,-74.020594,8586.388927
2546.516604,612.876398,-370.102971,9178.553681
2546.516933,1225.752797,-0.000000,13175.665768
2546.517262,3753.867940,3330.926739,8068.244768
2546.517591,7354.516781,3775.050304,5995.668130
2546.517920,7890.783629,2368.659014,4145.153275
2546.518249,4443.353888,3923.091493,3404.947333
2546.518578,4366.744339,4737.318029,7772.162391
2546.518907,383.047749,2960.823768,5033.400406
2546.519236,76.609550,-1924.535449,8956.491898
2546.519565,-2604.724693,-4219.173869,13545.768739
2546.519894,-2987.772442,-222.061783,6291.750507
2546.520223,-4979.620737,-5625.565159,10510.924376
2546.520553,-6665.030833,-4219.173869,12435.459826
2546.520882,-3907.087040,-3923.091493,12213.398043
2546.521211,-1225.752797,-3849.070898,12879.583391
2546.521540,-459.657299,296.082377,9548.656652
2546.521869,1149.143247,-666.185348,8290.306550
2546.522198,1302.362347,-518.144159,11103.089130
2546.522527,4596.572988,2516.700203,11103.089130
2546.522856,5592.497135,3256.906145,3627.009116
2546.523185,8656.879127,3552.988522,6513.812290
2546.523514,4903.011187,2886.803174,4071.132681
2546.523843,5669.106685,4145.153275,7105.977043
2546.524172,842.705048,4589.276840,5255.462188
2546.524501,-766.095498,-444.123565,6735.874072
2546.524830,-2528.115143,-5255.462188,14656.077652
2546.525159,-3294.210641,-518.144159,9474.636058
2546.525488,-6281.983084,-4589.276840,7772.162391
2546.525817,-7048.078582,-5329.482782,14952.160028
2546.526146,-5286.058936,-3849.070898,10510.924376
2546.526476,-1225.752797,-2368.659014,13027.624579
2546.526805,-995.924147,-1332.370696,9474.636058
2546.527134,1455.581446,592.164754,7254.018232
2546.527463,1838.629195,-2220.617826,11917.315666
2546.527792,5056.230287,2886.803174,9696.697840
2546.528121,5975.544884,3627.009116,3404.947333
2546.528450,8733.488677,3108.864956,6957.935855
2546.528779,5822.325785,2738.761985,3108.864956
2546.529108,5975.544884,5921.647536,7179.997637
2546.529437,1149.143247,3997.112087,5847.626942
2546.529766,995.924147,1406.391290,5625.565159
2546.530095,-2987.772442,-4515.256246,14952.160028
2546.530424,-2604.724693,-3627.009116,10066.800811
2546.530753,-6894.859482,-2442.679609,7031.956449
2546.531082,-7814.174080,-8142.265362,16580.613101
2546.531411,-6818.249932,-3997.112087,8438.347739
2546.531740,-2834.553343,-3108.864956,13619.789333
2546.532069,-2221.676944,-1850.514855,9622.677246
2546.532399,689.485948,444.123565,8068.244768
2546.532728,1991.848295,-222.061783,8734.430116
2546.533057,5822.325785,3256.906145,13915.871710
2546.533386,3907.087040,4515.256246,3404.947333
2546.533715,10035.851024,2368.659014,8734.430116
2546.534044,6358.592633,2738.761985,2812.782580
2546.534373,6281.983084,6883.915261,4145.153275
2546.534702,1838.629195,3478.967927,6735.874072
2546.535031,766.095498,2442.679609,6513.812290
2546.535360,-1532.190996,-3034.844362,13545.768739
2546.535689,-3217.601092,-4589.276840,12509.480420
2546.536018,-7507.735880,-888.247130,6291.750507
2546.536347,-7967.393179,-9326.594869,17098.757260
2546.536676,-8503.660028,-3701.029710,9326.594869
2546.537005,-5132.839837,-3627.009116,13397.727550
2546.537334,-3294.210641,-3849.070898,12139.377449
2546.537663,-306.438199,518.144159,8956.491898
2546.537992,2604.724693,-962.267725,8512.368333
2546.538322,3294.210641,1184.329507,12583.501014
2546.538651,5132.839837,2368.659014,8364.327145
2546.538980,9499.584175,2368.659014,6957.935855
2546.539309,8120.612279,4293.194464,3034.844362
2546.539638,5745.716235,5625.565159,4145.153275
2546.539967,4290.134789,5107.421000,7994.224174
2546.540296,766.095498,4737.318029,5403.503377
2546.540625,2374.896044,1036.288319,7254.018232
2546.540954,-3064.381992,-3108.864956,15248.242405
2546.541283,-5056.230287,-4145.153275,9178.553681
2546.541612,-7354.516781,-2590.720797,10140.821405
2546.541941,-6435.202183,-8660.409521,16580.613101
2546.542270,-7737.564530,-2738.761985,8438.347739
2546.542599,-2528.115143,-4737.318029,15100.201217
2546.542928,-2604.724693,-666.185348,9474.636058
2546.543257,766.095498,-444.123565,9474.636058
2546.543586,1915.238745,1406.391290,6809.894666
2546.543916,6435.202183,2442.679609,16210.510130
2546.544245,4060.306139,3404.947333,3627.009116
2546.544574,12104.308868,3552.988522,8216.285956
2546.544903,6741.640382,1258.350101,2960.823768
2546.545232,5669.106685,7179.997637,4441.235652
2546.545561,2451.505594,3627.009116,7550.100608
2546.545890,1302.362347,4145.153275,5551.544565
2546.546219,-689.485948,-1554.432478,11251.130318
2546.546548,-2528.115143,-5551.544565,13989.892304
2546.546877,-6435.202183,-814.226536,4663.297435
2546.547206,-7124.688131,-8956.491898,15914.427753
2546.547535,-7431.126331,-4441.235652,9548.656652
2546.547864,-6052.154434,-2368.659014,13323.706956
2546.548193,-1532.190996,-4811.338623,13323.706956
2546.548522,0.000000,1628.453072,7920.203579
2546.548851,1915.238745,-1702.473667,8142.265362
2546.549180,3294.210641,-518.144159,12583.501014
2546.549509,5822.325785,2738.761985,8734.430116
2546.549839,9576.193725,2516.700203,7105.977043
2546.550168,7201.297681,3108.864956,2812.782580
2546.550497,4903.011187,3627.009116,4959.379811
2546.550826,4213.525239,5625.565159,7994.224174
2546.551155,919.314598,4145.153275,5995.668130
2546.551484,2068.457845,1110.308913,5403.503377
2546.551813,-2298.286494,-3701.029710,15100.201217
2546.552142,-4136.915689,-2960.823768,8882.471304
2546.552471,-6588.421283,-3478.967927,9918.759623
2546.552800,-6818.249932,-7105.977043,14730.098246
2546.553129,-6511.811733,-3478.967927,8586.388927
2546.553458,-2528.115143,-3627.009116,14211.954086
2546.553787,-1608.800546,-1776.494261,8882.471304
2546.554116,842.705048,-1332.370696,9104.533087
2546.554445,1378.971896,-666.185348,8438.347739
2546.554774,5362.668486,2442.679609,15248.242405
2546.555103,4903.011187,3404.947333,4071.132681
2546.555432,10725.336972,3256.906145,8216.285956
2546.555762,6205.373534,3404.947333,3256.906145
2546.556091,6358.592633,6661.853478,5255.462188
2546.556420,1378.971896,4737.318029,6439.791695
2546.556749,1149.143247,2664.741391,6809.894666
2546.557078,-1685.410096,-1554.432478,11917.315666
2546.557407,-3064.381992,-4959.379811,14063.912898
2546.557736,-6818.249932,-1332.370696,4959.379811
2546.558065,-6971.469032,-8586.388927,16358.551318
2546.558394,-7660.954980,-4515.256246,9326.594869
2546.558723,-5822.325785,-4145.153275,13619.789333
2546.559052,-2834.553343,-3775.050304,13915.871710
2546.559381,-383.047749,-0.000000,8808.450710
2546.559710,1991.848295,-1628.453072,8734.430116
2546.560039,919.314598,1184.329507,10140.821405
2546.560368,5132.839837,1332.370696,12361.439231
2546.560697,7354.516781,3478.967927,2812.782580
2546.561026,8886.707777,3256.906145,7254.018232
2546.561355,4060.306139,3330.926739,4071.132681
2546.561685,4903.011187,6735.874072,5773.606348
2546.562014,689.485948,3701.029710,7254.018232
2546.562343,1991.848295,2516.700203,3182.885551
2546.562672,-1149.143247,-1850.514855,13989.892304
2546.563001,-2145.067394,-4293.194464,9992.780217
2546.563330,-4826.401637,-3034.844362,7994.224174
2546.563659,-6511.811733,-6217.729913,13545.768739
2546.563988,-4673.182538,-4515.256246,7772.162391
2546.564317,-3830.477490,-3997.112087,13249.686362
2546.564646,-1225.752797,-2516.700203,12435.459826
2546.564975,-536.266849,-74.020594,9474.636058
2546.565304,1838.629195,-1036.288319,9030.512492
2546.565633,76.609550,2442.679609,10732.986159
2546.565962,4443.353888,1332.370696,11843.295072
2546.566291,6971.469032,4145.153275,2442.679609
2546.566620,6741.640382,3256.906145,5773.606348
2546.566949,3064.381992,3182.885551,4441.235652
2546.567278,3830.477490,5699.585753,6735.874072
2546.567608,689.485948,3330.926739,7698.141797
2546.567937,-919.314598,-518.144159,5551.544565
2546.568266,-2757.943793,-5107.421000,13841.851115
2546.568595,-3600.648841,-1036.288319,6143.709319
2546.568924,-6205.373534,-4885.359217,9474.636058
2546.569253,-7814.174080,-5551.544565,14508.036463
2546.569582,-4366.744339,-4219.173869,10288.862594
2546.569911,-1608.800546,-3182.885551,14063.912898
2546.570240,-612.876398,-1332.370696,11325.150913
2546.570569,1072.533697,-222.061783,7105.977043
2546.570898,0.000000,-1184.329507,11399.171507
2546.571227,4596.572988,2886.803174,13323.706956
2546.571556,4749.792088,4515.256246,3256.906145
2546.571885,8886.707777,3478.967927,8808.450710
2546.572214,4596.572988,2738.761985,2664.741391
2546.572543,5362.668486,5699.585753,5625.565159
2546.572872,536.266849,3627.009116,6439.791695
2546.573202,766.095498,1480.411884,4293.194464
2546.573531,-1225.752797,-4367.215058,13249.686362
2546.573860,-2528.115143,-2738.761985,10510.924376
2546.574189,-5898.935335,-1998.556043,5773.606348
2546.574518,-6128.763984,-6957.935855,15914.427753
2546.574847,-4673.182538,-3478.967927,7772.162391
2546.575176,-1225.752797,-3701.029710,12657.521608
2546.575505,-229.828649,-1628.453072,12953.603985
2546.575834,842.705048,1036.288319,6809.894666
2546.576163,766.095498,-1998.556043,11177.109724
2546.576492,4596.572988,1776.494261,13101.645173
2546.576821,3830.477490,5995.668130,1850.514855
2546.577150,8733.488677,2368.659014,10807.006753
2546.577479,5056.230287,3330.926739,2516.700203
2546.577808,6358.592633,5403.503377,6069.688724
2546.578137,1225.752797,3182.885551,6513.812290
2546.578466,995.924147,2812.782580,3997.112087
2546.578795,-1608.800546,-4219.173869,13175.665768
2546.579125,-2911.162892,-3923.091493,11695.253884
2546.579454,-5592.497135,-1258.350101,6957.935855
2546.579783,-6971.469032,-7698.141797,14359.995275
2546.580112,-5898.935335,-3627.009116,9696.697840
2546.580441,-4213.525239,-3404.947333,14582.057057
2546.580770,-842.705048,-2220.617826,12287.418637
2546.581099,229.828649,518.144159,8364.327145
2546.581428,1225.752797,-1702.473667,8808.450710
2546.581757,3753.867940,814.226536,15840.407159
2546.582086,3294.210641,3552.988522,5551.544565
2546.582415,9806.022374,2664.741391,8956.491898
2546.582744,6358.592633,2516.700203,1924.535449
2546.583073,6435.202183,5181.441594,5181.441594
2546.583402,3064.381992,4663.297435,7920.203579
2546.583731,1072.533697,3775.050304,4515.256246
2546.584060,919.314598,-962.267725,7920.203579
2546.584389,-2834.553343,-3552.988522,13249.686362
2546.584718,-3217.601092,-1998.556043,7402.059420
2546.585048,-6128.763984,-5477.523971,10214.842000
2546.585377,-5132.839837,-5477.523971,12731.542202
2546.585706,-5132.839837,-3182.885551,11251.130318
2546.586035,-919.314598,-4071.132681,13471.748144
2546.586364,-842.705048,444.123565,9178.553681
2546.586693,842.705048,-814.226536,8660.409521
2546.587022,1532.190996,-0.000000,10510.924376
2546.587351,4290.134789,2368.659014,12361.439231
2546.587680,4826.401637,3552.988522,3034.844362
2546.588009,8427.050478,2664.741391,7772.162391
2546.588338,4903.011187,3182.885551,3701.029710
2546.588667,5745.716235,5477.523971,4959.379811
2546.588996,842.705048,3478.967927,6217.729913
2546.589325,-1302.362347,296.082377,6291.750507
2546.589654,-3447.429741,-5551.544565,14137.933492
2546.589983,-3830.477490,-0.000000,9030.512492
2546.590312,-7660.954980,-4737.318029,7698.141797
2546.590641,-9422.974625,-6439.791695,15618.345376
2546.590971,-5975.544884,-3552.988522,11103.089130
2546.591300,-2451.505594,-3627.009116,13915.871710
2546.591629,-1532.190996,-1702.473667,10362.883188
2546.591958,1378.971896,1332.370696,6809.894666
2546.592287,919.314598,-2368.659014,12509.480420
2546.592616,6281.983084,2590.720797,10140.821405
2546.592945,6358.592633,3849.070898,2220.617826
2546.593274,8503.660028,3552.988522,7328.038826
2546.593603,4596.572988,2516.700203,2738.761985
2546.593932,6741.640382,5181.441594,8142.265362
2546.594261,842.705048,4441.235652,5551.544565
2546.594590,2068.457845,2664.741391,3775.050304
2546.594919,-1991.848295,-3478.967927,15026.180623
2546.595248,-3753.867940,-4145.153275,11177.109724
2546.595577,-6588.421283,-1850.514855,7772.162391
2546.595906,-7431.126331,-7550.100608,15692.365970
2546.596235,-6894.859482,-5403.503377,7105.977043
2546.596564,-4749.792088,-3330.926739,15396.283594
2546.596893,-1378.971896,-2146.597232,11325.150913
2546.597222,0.000000,1554.432478,7328.038826
2546.597551,1685.410096,-518.144159,8216.285956
2546.597880,6358.592633,2072.576638,15470.304188
2546.598209,4443.353888,4293.194464,2146.597232
2546.598538,11338.213370,2146.597232,10214.842000
2546.598867,6358.592633,3330.926739,1554.432478
2546.599196,7431.126331,6143.709319,4663.297435
2546.599525,1532.190996,3627.009116,6587.832884
2546.599853,1685.410096,4959.379811,4811.338623
2546.600182,0.000000,-1110.308913,9770.718434
2546.600511,-3140.991542,-5181.441594,13397.727550
2546.600840,-5515.887586,-2368.659014,6439.791695
2546.601169,-8197.221829,-7550.100608,13471.748144
2546.601498,-8120.612279,-6809.894666,12213.398043
2546.601827,-7507.735880,-2886.803174,12509.480420
2546.602156,-1378.971896,-4071.132681,14063.912898
2546.602485,-2068.457845,962.267725,8142.265362
2546.602814,1991.848295,-3108.864956,10066.800811
2546.603143,1302.362347,-148.041188,10436.903782
2546.603472,6435.202183,2886.803174,10584.944971
2546.603801,8733.488677,1480.411884,6587.832884
2546.604130,8273.831378,3849.070898,4071.132681
2546.604459,5286.058936,2664.741391,4515.256246
2546.604788,6435.202183,5847.626942,8216.285956
2546.605117,1072.533697,3404.947333,6661.853478
2546.605446,2681.334243,4589.276840,2072.576638
2546.605775,919.314598,-370.102971,12213.398043
2546.606104,-4826.401637,-4663.297435,11177.109724
2546.606433,-5209.449386,-6217.729913,10584.944971
2546.606762,-6894.859482,-2590.720797,12953.603985
2546.607091,-4979.620737,-8808.450710,10807.006753
2546.607420,-6894.859482,-1406.391290,11473.192101
2546.607749,-306.438199,-3775.050304,12583.501014
2546.608078,-919.314598,888.247130,8290.306550
2546.608407,2068.457845,-148.041188,9030.512492
2546.608736,4519.963438,592.164754,14952.160028
2546.609065,5132.839837,2442.679609,7105.977043
2546.609394,10878.556072,3182.885551,9622.677246
2546.609723,6358.592633,3182.885551,0.000000
2546.610052,5669.106685,3701.029710,6217.729913
2546.610381,2757.943793,5255.462188,7994.224174
2546.610710,1991.848295,4145.153275,6143.709319
2546.611039,0.000000,2368.659014,7031.956449
2546.611368,-3677.258390,-6439.791695,14730.098246
2546.611697,-5745.716235,-1258.350101,6587.832884
2546.612026,-7354.516781,-5773.606348,12879.583391
2546.612355,-9806.022374,-6809.894666,14063.912898
2546.612684,-8044.002729,-3478.967927,10288.862594
2546.613013,-2604.724693,-4071.132681,16136.489536
2546.613342,-1838.629195,-592.164754,8438.347739
2546.613671,1302.362347,-1554.432478,9178.553681
2546.614000,995.924147,-518.144159,8660.409521
2546.614329,6894.859482,2590.720797,12287.418637
2546.614658,6894.859482,3404.947333,2294.638420
2546.614986,8733.488677,4219.173869,7772.162391
2546.615315,4366.744339,3330.926739,3330.926739
2546.615644,6588.421283,6143.709319,6143.709319
2546.615973,1225.752797,4145.153275,6513.812290
2546.616302,2145.067394,5033.400406,962.267725
2546.616631,-1072.533697,-2368.659014,12805.562797
2546.616960,-5439.278036,-4071.132681,11991.336260
2546.617289,-6205.373534,-2812.782580,7624.121203
2546.617618,-8503.660028,-7105.977043,15396.283594
2546.617947,-6741.640382,-6365.771101,8586.388927
2546.618276,-5745.716235,-2960.823768,14137.933492
2546.618605,-2068.457845,-4367.215058,12657.521608
2546.618934,-689.485948,1480.411884,8660.409521
2546.619263,2068.457845,-1480.411884,8660.409521
2546.619592,4290.134789,1332.370696,14359.995275
2546.619921,5745.716235,3330.926739,7402.059420
2546.620250,11031.775171,3404.947333,8290.306550
2546.620579,6971.469032,3849.070898,0.000000
2546.620908,5592.497135,5625.565159,5847.626942
2546.621237,2834.553343,4885.359217,7476.080014
2546.621566,612.876398,4589.276840,5551.544565
2546.621895,766.095498,1110.308913,7402.059420
2546.622224,-3217.601092,-6809.894666,15396.283594
2546.622553,-6281.983084,-1702.473667,4737.318029
2546.622882,-7431.126331,-6069.688724,14434.015869
2546.623211,-9729.412825,-7698.141797,13619.789333
2546.623540,-8427.050478,-3404.947333,10881.027347
2546.623869,-2681.334243,-5255.462188,16432.571912
2546.624198,-2298.286494,-0.000000,7846.182985
2546.624527,1455.581446,-1480.411884,10510.924376
2546.624856,536.266849,666.185348,7772.162391
2546.625185,7660.954980,3330.926739,14211.954086
2546.625514,5822.325785,4145.153275,1850.514855
2546.625843,9652.803275,3627.009116,6957.935855
2546.626172,4213.525239,2812.782580,3997.112087
2546.626501,5515.887586,6883.915261,5403.503377
2546.626830,842.705048,2812.782580,7105.977043
2546.627159,1685.410096,5625.565159,1776.494261
2546.627488,306.438199,-2442.679609,13027.624579
2546.627817,-3907.087040,-3775.050304,11103.089130
2546.628146,-5669.106685,-5033.400406,7698.141797
2546.628475,-7354.516781,-4959.379811,13175.665768
2546.628804,-3983.696590,-6809.894666,9770.718434
2546.629133,-5822.325785,-2368.659014,12065.356855
2546.629462,-153.219100,-3997.112087,13545.768739
2546.629790,-689.485948,1924.535449,8512.368333
2546.630119,842.705048,-1776.494261,8808.450710
2546.630448,3677.258390,-148.041188,13323.706956
2546.630777,5056.230287,2072.576638,9400.615463
2546.631106,9959.241474,1850.514855,8808.450710
2546.631435,6358.592633,3256.906145,1184.329507
2546.631764,4366.744339,2738.761985,5477.523971
2546.632093,3983.696590,5699.585753,8068.244768
2546.632422,1608.800546,4219.173869,5625.565159
2546.632751,1991.848295,2442.679609,4441.235652
2546.633080,-1302.362347,-2886.803174,12287.418637
2546.633409,-4366.744339,-5107.421000,11251.130318
2546.633738,-5975.544884,-3404.947333,9770.718434
2546.634067,-5515.887586,-5847.626942,14137.933492
2546.634396,-5898.935335,-5181.441594,8068.244768
2546.634725,-3217.601092,-2368.659014,15100.201217
2546.635054,0.000000,-2146.597232,12361.439231
2546.635383,-1608.800546,-666.185348,9622.677246
2546.635712,1532.190996,-740.205942,9104.533087
2546.636041,4979.620737,1184.329507,16506.592507
2546.636370,4290.134789,3701.029710,5033.400406
2546.636699,10112.460574,3108.864956,8586.388927
2546.637028,4903.011187,2516.700203,1850.514855
2546.637357,5056.230287,5625.565159,6143.709319
2546.637686,1378.971896,4515.256246,6217.729913
2546.638015,2145.067394,3478.967927,6661.853478
2546.638344,-1378.971896,-888.247130,10066.800811
2546.638673,-2451.505594,-5033.400406,14063.912898
2546.639002,-5439.278036,-1258.350101,5773.606348
2546.639331,-6281.983084,-7031.956449,14137.933492
2546.639660,-4673.182538,-4367.215058,9992.780217
2546.639989,-3524.039291,-2516.700203,12139.377449
2546.640318,0.000000,-2812.782580,14063.912898
2546.640647,306.438199,1406.391290,7698.141797
2546.640976,459.657299,-1480.411884,9770.718434
2546.641305,3983.696590,-518.144159,15840.407159
2546.641634,4519.963438,4737.318029,4663.297435
2546.641963,9729.412825,2886.803174,9326.594869
2546.642292,5439.278036,3478.967927,1258.350101
2546.642621,6435.202183,4885.359217,5625.565159
2546.642950,1838.629195,4885.359217,7254.018232
2546.643279,1225.752797,3627.009116,5181.441594
2546.643608,-919.314598,-814.226536,8808.450710
2546.643937,-2911.162892,-6291.750507,14656.077652
2546.644266,-5592.497135,-1110.308913,5477.523971
2546.644594,-7431.126331,-6291.750507,13767.830521
2546.644923,-8197.221829,-6291.750507,10881.027347
2546.645252,-5898.935335,-3478.967927,13101.645173
2546.645581,-1685.410096,-4293.194464,14434.015869
2546.645910,-995.924147,296.082377,8216.285956
2546.646239,1378.971896,-1702.473667,8290.306550
2546.646568,919.314598,-444.123565,11917.315666
2546.646897,5286.058936,2886.803174,9474.636058
2546.647226,7584.345430,3849.070898,5329.482782
2546.647555,7277.907231,3627.009116,4589.276840
2546.647884,3600.648841,3775.050304,3478.967927
2546.648213,4826.401637,5551.544565,7994.224174
2546.648542,459.657299,4515.256246,4737.318029
2546.648871,383.047749,1184.329507,4145.153275
2546.649200,-2528.115143,-5921.647536,16284.530724
2546.649529,-4213.525239,-1258.350101,6439.791695
2546.649858,-6281.983084,-4219.173869,9770.718434
2546.650187,-8044.002729,-7328.038826,15322.262999
2546.650516,-5669.106685,-2960.823768,9474.636058
2546.650845,-2068.457845,-3997.112087,14656.077652
2546.651174,-689.485948,-1332.370696,9326.594869
2546.651503,383.047749,296.082377,8956.491898
2546.651832,1149.143247,-1554.432478,11325.150913
2546.652161,6665.030833,3849.070898,11103.089130
2546.652490,5439.278036,3923.091493,2516.700203
2546.652819,8810.098227,3182.885551,7179.997637
2546.653148,5286.058936,3627.009116,2146.597232
2546.653477,6435.202183,5625.565159,5699.585753
2546.653806,1302.362347,3478.967927,5329.482782
2546.654135,995.924147,3478.967927,4293.194464
2546.654464,-2145.067394,-3404.947333,14211.954086
2546.654793,-3983.696590,-5773.606348,12731.542202
2546.655122,-7354.516781,-2664.741391,6143.709319
2546.655451,-7584.345430,-8290.306550,16210.510130
2546.655780,-7201.297681,-4219.173869,7550.100608
2546.656109,-4826.401637,-3404.947333,14952.160028
2546.656438,-766.095498,-2812.782580,12435.459826
2546.656767,-1225.752797,1924.535449,8068.244768
2546.657096,2221.676944,-3478.967927,11325.150913
2546.657425,6818.249932,3552.988522,9770.718434
2546.657754,5898.935335,5107.421000,1628.453072
2546.658083,9652.803275,2886.803174,9474.636058
2546.658412,5975.544884,3775.050304,2220.617826
2546.658741,7277.907231,5255.462188,6661.853478
2546.659070,1991.848295,2812.782580,5847.626942
2546.659398,1915.238745,6069.688724,4441.235652
2546.659727,-612.876398,-2516.700203,10881.027347
2546.660056,-4136.915689,-4959.379811,13767.830521
2546.660385,-5745.716235,-3923.091493,7846.182985
2546.660714,-7048.078582,-4663.297435,13397.727550
2546.661043,-5362.668486,-7476.080014,12435.459826
2546.661372,-5669.106685,-1332.370696,11843.295072
2546.661701,229.828649,-2738.761985,12805.562797
2546.662030,-995.924147,1702.473667,5773.606348
2546.662359,1991.848295,-2146.597232,11473.192101
2546.662688,5898.935335,2146.597232,11917.315666
2546.663017,6128.763984,4885.359217,2072.576638
2546.663346,9422.974625,2664.741391,10881.027347
2546.663675,7124.688131,3997.112087,1406.391290
2546.664004,7890.783629,6365.771101,5181.441594
2546.664333,1455.581446,2516.700203,6069.688724
2546.664662,1915.238745,5995.668130,4293.194464
2546.664991,1455.581446,222.061783,9770.718434
2546.665320,-4443.353888,-4071.132681,13323.706956
2546.665649,-5592.497135,-6069.688724,10214.842000
2546.665978,-9269.755526,-3108.864956,10214.842000
2546.666307,-6052.154434,-9918.759623,16654.633695
2546.666636,-9882.631924,-2294.638420,7994.224174
2546.666965,-2451.505594,-4071.132681,15618.345376
2546.667294,-2757.943793,-1184.329507,9178.553681
2546.667623,1762.019645,-1258.350101,9992.780217
2546.667952,1532.190996,-0.000000,8142.265362
2546.668281,6511.811733,2886.803174,12435.459826
2546.668610,6435.202183,2960.823768,2960.823768
2546.668939,8427.050478,3034.844362,6735.874072
2546.669268,5362.668486,3552.988522,3256.906145
2546.669597,5592.497135,6809.894666,5033.400406
2546.669926,1915.238745,1110.308913,7476.080014
2546.670255,1302.362347,6809.894666,2960.823768
2546.670584,-1072.533697,-2220.617826,11843.295072
2546.670913,-4213.525239,-5255.462188,13545.768739
2546.671242,-7201.297681,-3404.947333,6957.935855
2546.671571,-6741.640382,-6587.832884,15470.304188
2546.671900,-5286.058936,-5847.626942,9030.512492
2546.672229,-5669.106685,-1998.556043,13175.665768
2546.672558,-1225.752797,-4663.297435,13471.748144
2546.672887,-1762.019645,2442.679609,7698.141797
2546.673216,1991.848295,-1332.370696,9622.677246
2546.673545,3677.258390,-74.020594,12435.459826
2546.673874,6281.983084,3034.844362,8734.430116
2546.674203,9959.241474,2590.720797,8438.347739
2546.674531,6588.421283,3256.906145,444.123565
2546.674860,5209.449386,5107.421000,6143.709319
2546.675189,3447.429741,5477.523971,8512.368333
2546.675518,1149.143247,5625.565159,6069.688724
2546.675847,1762.019645,2220.617826,5403.503377
2546.676176,-2911.162892,-3182.885551,12953.603985
2546.676505,-4519.963438,-4589.276840,11251.130318
2546.676834,-6435.202183,-3478.967927,9696.697840
2546.677163,-6435.202183,-8438.347739,15766.386565
2546.677492,-8044.002729,-3997.112087,7772.162391
2546.677821,-2451.505594,-2664.741391,16432.571912
2546.678150,-1608.800546,-1406.391290,9992.780217
2546.678479,-383.047749,-444.123565,9548.656652
2546.678808,1455.581446,-962.267725,9104.533087
2546.679137,6511.811733,3627.009116,14285.974681
2546.679466,5822.325785,4293.194464,3330.926739
2546.679795,9422.974625,2886.803174,8216.285956
2546.680124,4826.401637,2368.659014,2960.823768
2546.680453,5362.668486,6883.915261,5773.606348
2546.680782,1762.019645,3034.844362,6957.935855
2546.681111,1838.629195,4441.235652,4885.359217
2546.681440,-842.705048,-1850.514855,11103.089130
2546.681769,-2528.115143,-6883.915261,12879.583391
2546.682098,-6588.421283,-1998.556043,6957.935855
2546.682427,-5975.544884,-8290.306550,15100.201217
2546.682756,-5439.278036,-4071.132681,8660.409521
2546.683085,-4366.744339,-1850.514855,12509.480420
2546.683414,306.438199,-2960.823768,12139.377449
2546.683743,-383.047749,962.267725,8364.327145
2546.684072,1455.581446,-2516.700203,10066.800811
2546.684401,5056.230287,592.164754,13619.789333
2546.684730,5745.716235,4811.338623,3404.947333
2546.685059,9499.584175,2738.761985,8808.450710
2546.685388,5362.668486,3182.885551,2294.638420
2546.685717,6128.763984,5107.421000,5773.606348
2546.686046,2298.286494,3552.988522,7105.977043
2546.686375,1455.581446,5403.503377,4811.338623
2546.686704,76.609550,-296.082377,8808.450710
2546.687033,-3294.210641,-6069.688724,13471.748144
2546.687362,-5592.497135,-1998.556043,7846.182985
2546.687691,-7201.297681,-5551.544565,12139.377449
2546.688020,-6128.763984,-6587.832884,11917.315666
2546.688349,-6818.249932,-2368.659014,10732.986159
2546.688678,-1072.533697,-3701.029710,12953.603985
2546.689007,-2221.676944,444.123565,7698.141797
2546.689335,1378.971896,-3034.844362,11177.109724
2546.689664,995.924147,296.082377,8734.430116
2546.689993,6128.763984,1776.494261,13323.706956
2546.690322,6128.763984,3552.988522,2590.720797
2546.690651,7584.345430,2072.576638,7328.038826
2546.690980,3217.601092,2738.761985,5403.503377
2546.691309,5056.230287,6365.771101,6661.853478
2546.691638,1072.533697,3182.885551,7772.162391
2546.691967,1762.019645,5033.400406,2812.782580
2546.692296,-612.876398,-1554.432478,11991.336260
2546.692626,-3600.648841,-4441.235652,11473.192101
2546.692955,-5515.887586,-3923.091493,9474.636058
2546.693284,-6435.202183,-5773.606348,13027.624579
2546.693613,-4290.134789,-5773.606348,9326.594869
2546.693942,-4903.011187,-1924.535449,12065.356855
2546.694271,-229.828649,-3627.009116,12435.459826
2546.694600,-1915.238745,222.061783,9770.718434
2546.694929,1532.190996,-1850.514855,9178.553681
2546.695259,2757.943793,1258.350101,11843.295072
2546.695588,4749.792088,888.247130,8734.430116
2546.695917,8656.879127,2664.741391,7476.080014
2546.696246,5669.106685,2738.761985,4293.194464
2546.696575,3600.648841,4145.153275,4145.153275
2546.696904,3294.210641,4737.318029,8068.244768
2546.697233,1378.971896,4515.256246,6365.771101
2546.697563,1838.629195,3627.009116,3404.947333
2546.697892,-1225.752797,-3330.926739,12879.583391
2546.698221,-4366.744339,-4441.235652,11177.109724
2546.698550,-5209.449386,-4145.153275,8882.471304
2546.698879,-4903.011187,-6439.791695,13841.851115
2546.699208,-5056.230287,-4441.235652,7179.997637
2546.699537,-2681.334243,-2738.761985,13545.768739
2546.699866,-995.924147,-2368.659014,11399.171507
2546.700196,-766.095498,-1036.288319,10362.883188
2546.700525,1149.143247,-962.267725,9400.615463
2546.700854,5286.058936,2960.823768,14359.995275
2546.701183,4903.011187,4293.194464,2146.597232
2546.701512,8503.660028,3108.864956,8660.409521
2546.701841,2987.772442,2886.803174,3034.844362
2546.702170,5209.449386,6439.791695,6365.771101
2546.702499,919.314598,4145.153275,6735.874072
2546.702829,1608.800546,3775.050304,6217.729913
2546.703158,-2911.162892,-2664.741391,11325.150913
2546.703487,-2757.943793,-5995.668130,13545.768739
2546.703816,-6511.811733,-1258.350101,5403.503377
2546.704145,-6281.983084,-8142.265362,15988.448347
2546.704474,-5822.325785,-3478.967927,8290.306550
2546.704803,-2757.943793,-3552.988522,12583.501014
2546.705133,-1302.362347,-2368.659014,12657.521608
2546.705462,153.219100,444.123565,7698.141797
2546.705791,1149.143247,-2294.638420,9474.636058
2546.706120,4749.792088,1480.411884,15174.221811
2546.706449,4443.353888,5699.585753,3627.009116
2546.706778,8733.488677,2812.782580,9918.759623
2546.707107,4673.182538,3849.070898,2812.782580
2546.707436,6205.373534,5847.626942,6069.688724
2546.707766,1455.581446,3478.967927,7105.977043
2546.708095,1532.190996,5255.462188,4663.297435
2546.708424,153.219100,-1258.350101,9474.636058
2546.708753,-3140.991542,-5699.585753,13397.727550
2546.709082,-5286.058936,-1850.514855,7402.059420
2546.709411,-6588.421283,-6217.729913,12435.459826
2546.709740,-5515.887586,-6439.791695,10584.944971
2546.710069,-5669.106685,-2368.659014,11325.150913
2546.710399,0.000000,-3997.112087,13915.871710
2546.710728,-1455.581446,592.164754,8142.265362
2546.711057,1072.533697,-2442.679609,9326.594869
2546.711386,2145.067394,-444.123565,13175.665768
2546.711715,4596.572988,2590.720797,8660.409521
2546.712044,8197.221829,2886.803174,8216.285956
2546.712373,6511.811733,3775.050304,2960.823768
2546.712702,4596.572988,3552.988522,5107.421000
2546.713032,4060.306139,5181.441594,9326.594869
2546.713361,995.924147,4441.235652,4737.318029
2546.713690,2221.676944,1258.350101,5181.441594
2546.714019,-1991.848295,-3478.967927,13841.851115
2546.714348,-3524.039291,-3701.029710,9770.718434
2546.714677,-5362.668486,-4811.338623,10288.862594
2546.715006,-4903.011187,-5847.626942,13471.748144
2546.715336,-4673.182538,-3478.967927,7698.141797
2546.715665,-1762.019645,-3108.864956,13397.727550
2546.715994,-383.047749,-1036.288319,10881.027347
2546.716323,-229.828649,-666.185348,9474.636058
2546.716652,2145.067394,-1776.494261,10140.821405
2546.716981,5975.544884,3108.864956,11325.150913
2546.717310,5975.544884,4515.256246,4071.132681
2546.717639,8580.269578,3404.947333,7476.080014
2546.717969,4826.401637,3330.926739,3108.864956
2546.718298,6281.983084,4959.379811,6439.791695
2546.718627,842.705048,3775.050304,5551.544565
2546.718956,1762.019645,4515.256246,5181.441594
2546.719285,-2451.505594,-2368.659014,11917.315666
2546.719614,-4443.353888,-5625.565159,12805.562797
2546.719943,-6971.469032,-3256.906145,7550.100608
2546.720272,-7507.735880,-7402.059420,13989.892304
2546.720602,-6128.763984,-4737.318029,8956.491898
2546.720931,-4903.011187,-2516.700203,13323.706956
2546.721260,-766.095498,-2738.761985,12213.398043
2546.721589,-612.876398,444.123565,8882.471304
2546.721918,2298.286494,-3182.885551,10732.986159
2546.722247,6665.030833,3034.844362,9474.636058
2546.722576,5822.325785,4885.359217,3404.947333
2546.722906,9499.584175,3923.091493,7846.182985
2546.723235,5286.058936,4219.173869,1924.535449
2546.723564,5822.325785,5625.565159,8586.388927
2546.723893,1532.190996,2368.659014,5995.668130
2546.724222,1838.629195,3923.091493,5033.400406
2546.724551,-3830.477490,-2960.823768,13693.809927
2546.724880,-5056.230287,-7105.977043,14359.995275
2546.725209,-8656.879127,-1628.453072,7624.121203
2546.725539,-8427.050478,-10066.800811,18653.189738
2546.725868,-7431.126331,-3775.050304,6957.935855
2546.726197,-4749.792088,-3182.885551,14804.118840
2546.726526,-1915.238745,-2442.679609,10881.027347
2546.726855,229.828649,1258.350101,8142.265362
2546.727184,3217.601092,-2368.659014,11325.150913
2546.727513,7890.783629,3256.906145,8512.368333
2546.727842,6588.421283,4367.215058,3182.885551
2546.728172,10112.460574,3701.029710,7772.162391
2546.728501,7584.345430,6661.853478,370.102971
2546.728830,7737.564530,5847.626942,7994.224174
2546.729159,1762.019645,3256.906145,5625.565159
2546.729488,2145.067394,6587.832884,3478.967927
2546.729817,-1225.752797,-3182.885551,10510.924376
2546.730146,-5822.325785,-5033.400406,14137.933492
2546.730476,-7507.735880,-5181.441594,9326.594869
2546.730805,-9576.193725,-6735.874072,14804.118840
2546.731134,-8427.050478,-7476.080014,10584.944971
2546.731463,-8273.831378,-2072.576638,12509.480420
2546.731792,-1685.410096,-4071.132681,12879.583391
2546.732121,-1378.971896,1332.370696,6957.935855
2546.732450,2451.505594,-1258.350101,8882.471304
2546.732779,6358.592633,666.185348,13767.830521
2546.733109,4979.620737,3034.844362,4367.215058
2546.733438,11261.603821,2146.597232,10510.924376
2546.733767,8656.879127,6587.832884,-1998.556043
2546.734096,8427.050478,6143.709319,5107.421000
2546.734425,4060.306139,3404.947333,7179.997637
2546.734754,1915.238745,6291.750507,6439.791695
2546.735083,536.266849,-222.061783,9770.718434
2546.735412,-4136.915689,-3034.844362,13693.809927
2546.735742,-7124.688131,-7328.038826,12435.459826
2546.736071,-8886.707777,-4737.318029,11103.089130
2546.736400,-7354.516781,-7624.121203,16136.489536
2546.736729,-9499.584175,-4071.132681,8142.265362
2546.737058,-2834.553343,-3552.988522,14137.933492
2546.737387,-1685.410096,-740.205942,9696.697840
2546.737716,1072.533697,-1702.473667,8290.306550
2546.738045,2834.553343,-444.123565,7920.203579
2546.738375,7814.174080,2368.659014,10732.986159
2546.738704,7354.516781,2072.576638,3849.070898
2546.739033,9652.803275,4885.359217,6661.853478
2546.739362,6358.592633,5033.400406,1702.473667
2546.739691,7507.735880,5403.503377,7772.162391
2546.740020,2451.505594,3923.091493,6957.935855
2546.740349,2374.896044,7105.977043,2590.720797
2546.740679,995.924147,-2590.720797,11769.274478
2546.741008,-5898.935335,-2072.576638,12361.439231
2546.741337,-5822.325785,-9474.636058,13397.727550
2546.741666,-9729.412825,-1406.391290,10066.800811
2546.741995,-6205.373534,-9696.697840,14508.036463
2546.742324,-9576.193725,-3256.906145,7550.100608
2546.742653,-1378.971896,-4441.235652,14508.036463
2546.742982,-2451.505594,-592.164754,8142.265362
2546.743312,2068.457845,-1554.432478,9178.553681
2546.743641,3140.991542,-296.082377,9770.718434
2546.743970,6358.592633,1776.494261,9992.780217
2546.744299,9193.145976,2294.638420,7105.977043
2546.744628,7048.078582,4737.318029,2220.617826
2546.744957,6205.373534,4589.276840,3997.112087
2546.745286,4903.011187,5625.565159,9400.615463
2546.745615,1838.629195,3701.029710,8216.285956
2546.745945,1915.238745,6809.894666,3182.885551
2546.746274,-1072.533697,-2368.659014,10510.924376
2546.746603,-5592.497135,-4737.318029,12583.501014
2546.746932,-5898.935335,-5477.523971,10807.006753
2546.747261,-7814.174080,-4737.318029,12805.562797
2546.747590,-7124.688131,-8142.265362,9844.739029
2546.747919,-6511.811733,-2738.761985,12361.439231
2546.748249,-612.876398,-4515.256246,12879.583391
2546.748578,-1072.533697,-296.082377,8882.471304
2546.748907,2068.457845,-592.164754,7698.141797
2546.749236,6128.763984,1184.329507,15322.262999
2546.749565,5286.058936,3108.864956,4441.235652
2546.749894,10265.679673,3627.009116,9252.574275
2546.750223,5439.278036,4589.276840,1184.329507
2546.750552,6588.421283,6291.750507,6217.729913
2546.750882,2451.505594,3404.947333,7920.203579
2546.751211,2145.067394,7179.997637,4811.338623
2546.751540,1991.848295,3404.947333,7402.059420
2546.751869,-1991.848295,-2738.761985,10584.944971
2546.752198,-6052.154434,-5921.647536,11695.253884
2546.752527,-7124.688131,-4441.235652,8882.471304
2546.752856,-6128.763984,-6957.935855,13101.645173
2546.753185,-8120.612279,-6365.771101,9326.594869
2546.753515,-3600.648841,-3775.050304,15100.201217
2546.753844,-459.657299,-2812.782580,10807.006753
2546.754173,-383.047749,-1480.411884,8290.306550
2546.754502,2068.457845,-0.000000,6587.832884
2546.754831,7584.345430,3108.864956,14804.118840
2546.755160,5745.716235,5255.462188,1406.391290
2546.755489,8810.098227,4219.173869,8882.471304
2546.755819,3983.696590,4219.173869,3108.864956
2546.756148,5822.325785,6661.853478,6957.935855
2546.756477,612.876398,3330.926739,6809.894666
2546.756806,2451.505594,7105.977043,3256.906145
2546.757135,-2221.676944,-1480.411884,11769.274478
2546.757464,-4366.744339,-6809.894666,13101.645173
2546.757793,-6435.202183,-2368.659014,6883.915261
2546.758122,-7277.907231,-8142.265362,13841.851115
2546.758452,-6741.640382,-5625.565159,9104.533087
2546.758781,-6128.763984,-4367.215058,12805.562797
2546.759110,-1302.362347,-4441.235652,13175.665768
2546.759439,-1302.362347,-74.020594,9252.574275
2546.759768,1838.629195,-1628.453072,9474.636058
2546.760097,2681.334243,296.082377,12287.418637
2546.760426,5669.106685,2886.803174,9770.718434
2546.760755,8733.488677,3404.947333,6809.894666
2546.761085,5975.544884,4293.194464,2590.720797
2546.761414,3830.477490,3923.091493,5255.462188
2546.761743,4290.134789,5625.565159,9178.553681
2546.762072,1455.581446,4737.318029,7476.080014
2546.762401,2068.457845,2738.761985,3775.050304
2546.762730,-1915.238745,-3256.906145,12361.439231
2546.763059,-4903.011187,-5181.441594,10214.842000
2546.763388,-5898.935335,-4515.256246,9696.697840
2546.763718,-5132.839837,-6587.832884,13989.892304
2546.764047,-5362.668486,-5329.482782,7476.080014
2546.764376,-3064.381992,-3775.050304,14063.912898
2546.764705,-612.876398,-2516.700203,11547.212695
2546.765034,-842.705048,-1480.411884,9326.594869
2546.765363,1455.581446,-1628.453072,9548.656652
2546.765692,7431.126331,3627.009116,11843.295072
2546.766022,6741.640382,4145.153275,4071.132681
2546.766351,8044.002729,3775.050304,9326.594869
2546.766680,5132.839837,3627.009116,2960.823768
2546.767009,6435.202183,5847.626942,6069.688724
2546.767338,1838.629195,2960.823768,6587.832884
2546.767667,2911.162892,5995.668130,3108.864956
2546.767996,1378.971896,-1628.453072,9992.780217
2546.768325,-4290.134789,-3404.947333,11843.295072
2546.768655,-4596.572988,-6957.935855,12361.439231
2546.768984,-7354.516781,-3256.906145,9030.512492
2546.769313,-3447.429741,-8068.244768,14434.015869
2546.769642,-5822.325785,-3404.947333,8586.388927
2546.769971,-459.657299,-3182.885551,13767.830521
2546.770300,-1302.362347,-888.247130,9992.780217
2546.770629,229.828649,-1332.370696,11177.109724
2546.770958,4826.401637,-0.000000,13249.686362
2546.771288,5592.497135,4663.297435,5995.668130
2546.771617,9039.926876,3775.050304,9844.739029
2546.771946,6358.592633,4959.379811,2442.679609
2546.772275,6894.859482,5329.482782,4589.276840
2546.772604,2374.896044,4293.194464,8142.265362
2546.772933,2068.457845,4367.215058,6439.791695
2546.773262,1225.752797,3330.926739,6587.832884
2546.773592,-3294.210641,-3923.091493,10658.965565
2546.773921,-4673.182538,-6957.935855,13249.686362
2546.774250,-7431.126331,-3108.864956,7846.182985
2546.774579,-4366.744339,-7550.100608,15100.201217
2546.774908,-7201.297681,-4367.215058,8512.368333
2546.775237,-2757.943793,-2886.803174,15026.180623
2546.775566,-1532.190996,-2294.638420,11473.192101
2546.775895,-689.485948,-740.205942,9622.677246
2546.776225,766.095498,-0.000000,9474.636058
2546.776554,5515.887586,3182.885551,12361.439231
2546.776883,5439.278036,4885.359217,4145.153275
2546.777212,7584.345430,3552.988522,8438.347739
2546.777541,4596.572988,3701.029710,3478.967927
2546.777870,5132.839837,4885.359217,5847.626942
2546.778199,1685.410096,4367.215058,6069.688724
2546.778528,1608.800546,3552.988522,5033.400406
2546.778858,-2451.505594,-2886.803174,10881.027347
2546.779187,-3983.696590,-6291.750507,13249.686362
2546.779516,-6894.859482,-2664.741391,7550.100608
2546.779845,-5669.106685,-8512.368333,14804.118840
2546.780174,-6741.640382,-4071.132681,8142.265362
2546.780503,-3524.039291,-3330.926739,13693.809927
2546.780832,-1149.143247,-3182.885551,13175.665768
2546.781162,-1225.752797,444.123565,9326.594869
2546.781491,1149.143247,-1924.535449,10732.986159
2546.781820,4443.353888,2368.659014,11473.192101
2546.782149,6588.421283,5625.565159,5181.441594
2546.782478,9193.145976,3775.050304,8512.368333
2546.782807,5439.278036,5255.462188,2960.823768
2546.783136,5745.716235,5255.462188,5255.462188
2546.783465,1915.238745,4441.235652,5625.565159
2546.783795,1455.581446,4737.318029,5181.441594
2546.784124,-766.095498,-1998.556043,8586.388927
2546.784453,-4749.792088,-6735.874072,14137.933492
2546.784782,-6894.859482,-4441.235652,8290.306550
2546.785111,-6894.859482,-5921.647536,12287.418637
2546.785440,-6665.030833,-6365.771101,11843.295072
2546.785769,-5439.278036,-1332.370696,11325.150913
2546.786098,-229.828649,-2590.720797,12731.542202
2546.786428,-1378.971896,888.247130,7772.162391
2546.786757,2145.067394,-2368.659014,11029.068536
2546.787086,5745.716235,1998.556043,10288.862594
2546.787415,6588.421283,5477.523971,2886.803174
2546.787744,8427.050478,3108.864956,9252.574275
2546.788073,6128.763984,4737.318029,3404.947333
2546.788402,6741.640382,6069.688724,4663.297435
2546.788731,2374.896044,2146.597232,6957.935855
2546.789061,1991.848295,5033.400406,4219.173869
2546.789390,-612.876398,-666.185348,9844.739029
2546.789719,-3600.648841,-7328.038826,14063.912898
2546.790048,-6588.421283,-3849.070898,9030.512492
2546.790377,-7660.954980,-5551.544565,12805.562797
2546.790706,-6741.640382,-7328.038826,13545.768739
2546.791035,-6281.983084,-1184.329507,11251.130318
2546.791365,-536.266849,-3256.906145,12509.480420
2546.791694,-995.924147,592.164754,7624.121203
2546.792023,2221.676944,-1924.535449,10955.047942
2546.792352,5745.716235,666.185348,11917.315666
2546.792681,5898.935335,4515.256246,3552.988522
2546.793010,9499.584175,2368.659014,9474.636058
2546.793339,7584.345430,4811.338623,2516.700203
2546.793668,7890.783629,7105.977043,4441.235652
2546.793998,4136.915689,1850.514855,6291.750507
2546.794327,2834.553343,5773.606348,4811.338623
2546.794656,1455.581446,888.247130,8364.327145
2546.794985,-2987.772442,-3330.926739,11251.130318
2546.795314,-7048.078582,-7179.997637,13767.830521
2546.795643,-8427.050478,-4515.256246,10140.821405
2546.795973,-5822.325785,-7550.100608,14656.077652
2546.796302,-8197.221829,-3108.864956,9548.656652
2546.796631,-2987.772442,-2368.659014,14211.954086
2546.796960,-1532.190996,-1406.391290,10066.800811
2546.797289,-612.876398,-814.226536,9918.759623
2546.797618,2987.772442,-962.267725,9622.677246
2546.797947,6128.763984,2738.761985,9474.636058
2546.798277,7584.345430,1850.514855,5329.482782
2546.798606,8120.612279,3256.906145,6291.750507
2546.798935,6741.640382,5181.441594,2368.659014
2546.799264,6358.592633,5699.585753,6957.935855
2546.799593,2757.943793,3404.947333,6439.791695
2546.799922,2451.505594,5847.626942,4737.318029
2546.800252,306.438199,-1406.391290,9178.553681
2546.800581,-5439.278036,-3923.091493,13323.706956
2546.800910,-6052.154434,-8142.265362,11917.315666
2546.801239,-7584.345430,-3552.988522,11473.192101
2546.801568,-6665.030833,-8290.306550,13249.686362
2546.801897,-7584.345430,-2886.803174,9326.594869
2546.802227,-2298.286494,-4145.153275,14656.077652
2546.802556,-1608.800546,-814.226536,9400.615463
2546.802885,1072.533697,-296.082377,9326.594869
2546.803214,3753.867940,-666.185348,11843.295072
2546.803543,6665.030833,1924.535449,8216.285956
2546.803872,9422.974625,2442.679609,7994.224174
2546.804202,6588.421283,4515.256246,1332.370696
2546.804531,6281.983084,4811.338623,3775.050304
2546.804860,3677.258390,4367.215058,8290.306550
2546.805189,1532.190996,4663.297435,7105.977043
2546.805518,2221.676944,5181.441594,4737.318029
2546.805847,-2451.505594,-2812.782580,9992.780217
2546.806177,-5669.106685,-5403.503377,13915.871710
2546.806506,-5975.544884,-3256.906145,8512.368333
2546.806835,-5975.544884,-5329.482782,13545.768739
2546.807164,-7354.516781,-5921.647536,9770.718434
2546.807493,-4903.011187,-1850.514855,13693.809927
2546.807822,-1455.581446,-2886.803174,12509.480420
2546.808151,-1608.800546,-0.000000,8956.491898
2546.808481,2145.067394,-444.123565,7698.141797
2546.808810,4903.011187,1628.453072,14211.954086
2546.809139,5592.497135,3775.050304,4663.297435
2546.809468,9422.974625,2738.761985,8438.347739
2546.809797,5745.716235,3330.926739,2368.659014
2546.810126,5132.839837,6587.832884,5181.441594
2546.810456,1455.581446,3256.906145,8512.368333
2546.810785,1532.190996,5551.544565,5551.544565
2546.811114,995.924147,814.226536,8512.368333
2546.811443,-3064.381992,-4515.256246,14063.912898
2546.811772,-5515.887586,-4811.338623,10140.821405
2546.812101,-7048.078582,-4737.318029,10732.986159
2546.812431,-5515.887586,-6661.853478,13915.871710
2546.812760,-6435.202183,-2368.659014,9326.594869
2546.813089,-1302.362347,-3775.050304,14656.077652
2546.813418,-1149.143247,-296.082377,9326.594869
2546.813747,76.609550,-814.226536,9844.739029
2546.814076,1991.848295,-222.061783,9844.739029
2546.814406,6358.592633,2738.761985,10881.027347
2546.814735,7431.126331,4293.194464,5181.441594
2546.815064,7201.297681,2146.597232,6069.688724
2546.815393,2911.162892,3330.926739,4589.276840
2546.815722,4826.401637,4367.215058,8586.388927
2546.816051,1378.971896,4663.297435,5181.441594
2546.816380,2068.457845,3256.906145,4737.318029
2546.816710,-2528.115143,-4589.276840,13249.686362
2546.817039,-3600.648841,-4367.215058,11473.192101
2546.817368,-6281.983084,-3923.091493,8808.450710
2546.817697,-6358.592633,-7402.059420,13915.871710
2546.818026,-5898.935335,-2812.782580,8586.388927
2546.818355,-2834.553343,-3256.906145,12805.562797
2546.818685,-1302.362347,-1036.288319,10807.006753
2546.819014,-459.657299,-888.247130,8956.491898
2546.819343,2298.286494,-2368.659014,9104.533087
2546.819672,6511.811733,2664.741391,12435.459826
2546.820001,6128.763984,4367.215058,2368.659014
2546.820330,8580.269578,1406.391290,8364.327145
2546.820660,4213.525239,2960.823768,3330.926739
2546.820989,6205.373534,5773.606348,6587.832884
2546.821318,1302.362347,3478.967927,6809.894666
2546.821647,2298.286494,6439.791695,3404.947333
2546.821976,842.705048,-1702.473667,11769.274478
2546.822305,-4213.525239,-4367.215058,13249.686362
2546.822635,-5439.278036,-5107.421000,10436.903782
2546.822964,-7431.126331,-4441.235652,11695.253884
2546.823293,-4136.915689,-7179.997637,12731.542202
2546.823622,-5745.716235,-1628.453072,10066.800811
2546.823951,229.828649,-3330.926739,12583.501014
2546.824280,-1302.362347,296.082377,8290.306550
2546.824609,1072.533697,-2442.679609,9992.780217
2546.824939,6052.154434,1702.473667,11769.274478
2546.825268,6435.202183,4737.318029,2960.823768
2546.825597,9346.365076,2368.659014,9918.759623
2546.825926,4826.401637,3701.029710,3775.050304
2546.826255,6894.859482,5255.462188,6143.709319
2546.826584,1608.800546,2886.803174,7105.977043
2546.826914,1838.629195,5699.585753,5255.462188
2546.827243,229.828649,1110.308913,9770.718434
2546.827572,-3983.696590,-5699.585753,12361.439231
2546.827901,-6281.983084,-2960.823768,8586.388927
2546.828230,-8197.221829,-5477.523971,12731.542202
2546.828559,-7277.907231,-8290.306550,12879.583391
2546.828889,-7124.688131,-1850.514855,10807.006753
2546.829218,-1378.971896,-4293.194464,12731.542202
2546.829547,-1838.629195,222.061783,7772.162391
2546.829876,1532.190996,-2516.700203,10066.800811
2546.830205,4673.182538,-0.000000,10732.986159
2546.830534,6358.592633,3701.029710,6365.771101
2546.830864,8810.098227,2812.782580,9104.533087
2546.831193,7584.345430,4367.215058,2368.659014
2546.831522,6818.249932,7031.956449,3849.070898
2546.831851,2834.553343,2738.761985,7624.121203
2546.832180,995.924147,6735.874072,6069.688724
2546.832509,2987.772442,2812.782580,7402.059420
2546.832838,-2681.334243,-2590.720797,10584.944971
2546.833168,-5592.497135,-5625.565159,12065.356855
2546.833497,-8044.002729,-4737.318029,9400.615463
2546.833826,-6588.421283,-9030.512492,16358.551318
2546.834155,-7277.907231,-4367.215058,8438.347739
2546.834484,-3294.210641,-3701.029710,14434.015869
2546.834813,-1378.971896,-2146.597232,10732.986159
2546.835143,153.219100,-74.020594,8956.491898
2546.835472,2987.772442,-962.267725,9104.533087
2546.835801,6511.811733,2960.823768,10362.883188
2546.836130,8273.831378,2368.659014,5329.482782
2546.836459,8580.269578,4219.173869,5995.668130
2546.836788,4749.792088,4737.318029,2738.761985
2546.837118,5669.106685,4663.297435,9548.656652
2546.837447,995.924147,4737.318029,5403.503377
2546.837776,2145.067394,6735.874072,3997.112087
2546.838105,-1302.362347,-1554.432478,10362.883188
2546.838434,-4519.963438,-6291.750507,13767.830521
2546.838763,-7507.735880,-2664.741391,7698.141797
2546.839093,-7201.297681,-8734.430116,16580.613101
2546.839422,-9346.365076,-6513.812290,7920.203579
2546.839751,-6818.249932,-2886.803174,13915.871710
2546.840080,-3064.381992,-3701.029710,11917.315666
2546.840409,-2145.067394,296.082377,9030.512492
2546.840738,2681.334243,-1776.494261,9622.677246
2546.841067,3600.648841,1850.514855,11473.192101
2546.841397,6741.640382,814.226536,9622.677246
2546.841726,9193.145976,3775.050304,7105.977043
2546.842055,7814.174080,4145.153275,1258.350101
2546.842384,4366.744339,5625.565159,4663.297435
2546.842713,4060.306139,3775.050304,8660.409521
2546.843042,612.876398,5033.400406,7031.956449
2546.843372,2528.115143,3182.885551,5255.462188
2546.843701,-459.657299,-1406.391290,10066.800811
2546.844030,-5515.887586,-6291.750507,12065.356855
2546.844359,-5056.230287,-5625.565159,10658.965565
2546.844688,-5515.887586,-3404.947333,12805.562797
2546.845017,-5286.058936,-6957.935855,9400.615463
2546.845347,-4060.306139,-2368.659014,11991.336260
2546.845676,-459.657299,-2812.782580,12879.583391
2546.846005,-1378.971896,-1036.288319,9252.574275
2546.846334,1455.581446,-1628.453072,8068.244768
2546.846663,5592.497135,740.205942,15470.304188
2546.846992,5669.106685,2960.823768,3478.967927
2546.847322,8810.098227,3404.947333,9844.739029
2546.847651,5056.230287,2886.803174,2886.803174
2546.847980,5898.935335,6439.791695,5995.668130
2546.848309,2757.943793,2294.638420,7920.203579
2546.848638,1838.629195,6661.853478,4885.359217
2546.848967,1685.410096,1924.535449,7772.162391
2546.849297,-2528.115143,-2664.741391,9622.677246
2546.849626,-5669.106685,-7402.059420,12953.603985
2546.849955,-7124.688131,-4145.153275,9178.553681
2546.850284,-4443.353888,-5551.544565,11695.253884
2546.850613,-6435.202183,-5477.523971,9326.594869
2546.850942,-2604.724693,-1628.453072,13915.871710
2546.851271,0.000000,-1258.350101,11621.233289
2546.851601,-689.485948,-0.000000,7105.977043
2546.851930,4443.353888,-1036.288319,12509.480420
2546.852259,6128.763984,3404.947333,6809.894666
2546.852588,9039.926876,2960.823768,7328.038826
2546.852917,6128.763984,3034.844362,4737.318029
2546.853246,5362.668486,4737.318029,3182.885551
2546.853576,3830.477490,3330.926739,9474.636058
2546.853905,842.705048,4219.173869,5551.544565
2546.854234,3524.039291,5033.400406,5995.668130
2546.854563,-2374.896044,-2368.659014,9252.574275
2546.854892,-4596.572988,-6661.853478,12805.562797
2546.855221,-6128.763984,-3849.070898,10881.027347
2546.855551,-4903.011187,-4737.318029,11177.109724
2546.855880,-5822.325785,-5995.668130,10214.842000
2546.856209,-4366.744339,-3034.844362,11843.295072
2546.856538,0.000000,-1776.494261,12139.377449
2546.856867,-919.314598,-370.102971,8216.285956
2546.857196,1455.581446,-1258.350101,10288.862594
2546.857526,5209.449386,1406.391290,11621.233289
2546.857855,6205.373534,3775.050304,4589.276840
2546.858184,7660.954980,3034.844362,8586.388927
2546.858513,3370.820191,4441.235652,3256.906145
2546.858842,4749.792088,4885.359217,7994.224174
2546.859171,766.095498,3256.906145,7550.100608
2546.859500,2528.115143,5921.647536,4071.132681
2546.859830,-2528.115143,-1850.514855,10881.027347
2546.860159,-4443.353888,-7402.059420,13249.686362
2546.860488,-6435.202183,-1480.411884,9178.553681
2546.860817,-6818.249932,-8068.244768,13249.686362
2546.861146,-6894.859482,-4737.318029,8660.409521
2546.861475,-5592.497135,-3182.885551,12805.562797
2546.861805,-766.095498,-2516.700203,12287.418637
2546.862134,-1302.362347,-666.185348,9030.512492
2546.862463,612.876398,-666.185348,7624.121203
2546.862792,5822.325785,296.082377,16802.674883
2546.863121,3830.477490,4367.215058,3478.967927
2546.863450,10572.117872,2960.823768,9326.594869
2546.863780,5592.497135,5107.421000,592.164754
2546.864109,6741.640382,6217.729913,5995.668130
2546.864438,2451.505594,2368.659014,8734.430116
2546.864767,1608.800546,6661.853478,5477.523971
2546.865096,1762.019645,-592.164754,9030.512492
2546.865425,-3600.648841,-2516.700203,12361.439231
2546.865755,-5209.449386,-6217.729913,11177.109724
2546.866084,-7124.688131,-4145.153275,9844.739029
2546.866413,-4290.134789,-6217.729913,13767.830521
2546.866742,-6818.249932,-3923.091493,8142.265362
2546.867071,76.609550,-3552.988522,14063.912898
2546.867400,-842.705048,-0.000000,9918.759623
2546.867729,-306.438199,-1480.411884,7179.997637
2546.868059,4290.134789,-1776.494261,14804.118840
2546.868388,4519.963438,3627.009116,6365.771101
2546.868717,9576.193725,2664.741391,9474.636058
2546.869046,7124.688131,4811.338623,2738.761985
2546.869375,6281.983084,5477.523971,3849.070898
2546.869704,3983.696590,2368.659014,9844.739029
2546.870034,76.609550,5329.482782,5625.565159
2546.870363,2757.943793,3330.926739,7031.956449
2546.870692,-2757.943793,-2886.803174,8068.244768
2546.871021,-4903.011187,-6735.874072,14359.995275
2546.871350,-6894.859482,-4367.215058,9326.594869
2546.871679,-5209.449386,-5847.626942,13619.789333
2546.872009,-7737.564530,-6143.709319,8882.471304
2546.872338,-3753.867940,-2220.617826,13101.645173
2546.872667,-612.876398,-1554.432478,12731.542202
2546.872996,-1225.752797,-518.144159,8882.471304
2546.873325,1455.581446,-1184.329507,7772.162391
2546.873654,6128.763984,1998.556043,14730.098246
2546.873984,5439.278036,3552.988522,888.247130
2546.874313,8963.317327,2442.679609,10362.883188
2546.874642,4673.182538,4663.297435,2220.617826
2546.874971,6358.592633,5551.544565,7402.059420
2546.875300,1838.629195,1850.514855,7550.100608
2546.875629,1685.410096,7920.203579,3034.844362
2546.875958,1608.800546,-1628.453072,10510.924376
2546.876288,-3064.381992,-2442.679609,10362.883188
2546.876617,-4749.792088,-7402.059420,13841.851115
2546.876946,-7584.345430,-4219.173869,9622.677246
2546.877275,-3524.039291,-5773.606348,12287.418637
2546.877604,-6205.373534,-4145.153275,9474.636058
2546.877933,-153.219100,-1850.514855,13693.809927
2546.878263,-153.219100,592.164754,10362.883188
2546.878592,-153.219100,-1036.288319,7772.162391
2546.878921,4903.011187,-296.082377,13915.871710
2546.879250,5056.230287,2960.823768,6439.791695
2546.879579,9422.974625,2146.597232,9548.656652
2546.879908,5132.839837,3627.009116,3552.988522
2546.880238,5592.497135,4515.256246,4589.276840
2546.880567,2451.505594,4293.194464,8808.450710
2546.880896,2068.457845,5255.462188,6143.709319
2546.881225,2528.115143,3478.967927,6883.915261
2546.881554,-3064.381992,-2442.679609,9326.594869
2546.881883,-4673.182538,-6735.874072,13989.892304
2546.882213,-7048.078582,-3182.885551,8808.450710
2546.882542,-4749.792088,-6587.832884,13175.665768
2546.882871,-7660.954980,-4515.256246,8216.285956
2546.883200,-3294.210641,-2960.823768,13249.686362
2546.883529,-1838.629195,-1184.329507,12213.398043
2546.883858,-459.657299,-1184.329507,8142.265362
2546.884187,689.485948,-0.000000,7994.224174
2546.884517,5286.058936,888.247130,16062.468941
2546.884846,4903.011187,4145.153275,3256.906145
2546.885175,8197.221829,2368.659014,9400.615463
2546.885504,4519.963438,3552.988522,2590.720797
2546.885833,5592.497135,5847.626942,5551.544565
2546.886162,612.876398,4071.132681,8882.471304
2546.886492,1378.971896,6735.874072,3997.112087
2546.886821,919.314598,-592.164754,9844.739029
2546.887150,-3524.039291,-3182.885551,11843.295072
2546.887479,-4213.525239,-5773.606348,11177.109724
2546.887808,-7431.126331,-4441.235652,10732.986159
2546.888137,-3600.648841,-5847.626942,11991.336260
2546.888467,-5669.106685,-3849.070898,7994.224174
2546.888796,0.000000,-2886.803174,13767.830521
2546.889125,-1455.581446,-0.000000,9326.594869
2546.889454,-153.219100,-1628.453072,8808.450710
2546.889783,3677.258390,-1036.288319,14656.077652
2546.890112,5132.839837,3849.070898,5995.668130
2546.890442,9806.022374,3182.885551,8734.430116
2546.890771,4979.620737,4071.132681,3330.926739
2546.891100,5592.497135,4441.235652,6365.771101
2546.891429,2068.457845,4293.194464,9178.553681
2546.891758,1685.410096,5921.647536,5995.668130
2546.892087,459.657299,962.267725,8068.244768
2546.892417,-3600.648841,-5107.421000,11695.253884
2546.892746,-4213.525239,-3775.050304,11547.212695
2546.893075,-7660.954980,-4737.318029,10362.883188
2546.893404,-6052.154434,-7328.038826,14656.077652
2546.893733,-7737.564530,-3182.885551,9844.739029
2546.894062,-1762.019645,-3701.029710,11917.315666
2546.894391,-2221.676944,-0.000000,9474.636058
2546.894721,383.047749,-2590.720797,8956.491898
2546.895050,536.266849,-1924.535449,10288.862594
2546.895379,5515.887586,2220.617826,10214.842000
2546.895708,6818.249932,3330.926739,3627.009116
2546.896037,7277.907231,2960.823768,7550.100608
2546.896366,4290.134789,3997.112087,3923.091493
2546.896695,5132.839837,4737.318029,7476.080014
2546.897025,1302.362347,5181.441594,7772.162391
2546.897354,2145.067394,4959.379811,2664.741391
2546.897683,0.000000,-3552.988522,10436.903782
2546.898012,-3983.696590,-3849.070898,10510.924376
2546.898341,-4290.134789,-5181.441594,10658.965565
2546.898670,-7124.688131,-5995.668130,11991.336260
2546.898999,-4290.134789,-5625.565159,9696.697840
2546.899328,-4443.353888,-2886.803174,11547.212695
2546.899657,1608.800546,-2368.659014,11843.295072
2546.899986,-1225.752797,1036.288319,6957.935855
2546.900315,1685.410096,-3182.885551,11103.089130
2546.900644,5515.887586,2072.576638,11547.212695
2546.900974,6741.640382,3404.947333,3849.070898
2546.901303,8733.488677,2294.638420,8808.450710
2546.901632,4366.744339,4219.173869,2738.761985
2546.901961,7277.907231,3923.091493,8290.306550
2546.902290,1072.533697,4589.276840,6883.915261
2546.902619,2298.286494,5921.647536,5181.441594
2546.902948,1378.971896,-148.041188,9400.615463
2546.903277,-4136.915689,-2368.659014,11177.109724
2546.903606,-3983.696590,-7476.080014,14285.974681
2546.903935,-8044.002729,-3552.988522,9474.636058
2546.904264,-4519.963438,-7920.203579,14434.015869
2546.904593,-7660.954980,-4589.276840,9400.615463
2546.904923,-1225.752797,-1480.411884,13767.830521
2546.905252,-1532.190996,-1258.350101,9844.739029
2546.905581,306.438199,-1628.453072,7698.141797
2546.905910,2374.896044,444.123565,11103.089130
2546.906239,5822.325785,888.247130,10066.800811
2546.906568,7660.954980,2960.823768,5477.523971
2546.906897,6894.859482,3775.050304,5403.503377
2546.907226,5592.497135,3849.070898,3627.009116
2546.907555,4443.353888,5403.503377,8512.368333
2546.907884,919.314598,5255.462188,7031.956449
2546.908213,1915.238745,5551.544565,3997.112087
2546.908542,-995.924147,-1924.535449,9696.697840
2546.908872,-4443.353888,-4145.153275,12583.501014
2546.909201,-5592.497135,-5773.606348,10362.883188
2546.909530,-6894.859482,-5477.523971,12509.480420
2546.909859,-5822.325785,-6957.935855,9918.759623
2546.910188,-4979.620737,-3478.967927,11621.233289
2546.910517,-306.438199,-2368.659014,13471.748144
2546.910846,-1455.581446,222.061783,8512.368333
2546.911175,1455.581446,-962.267725,8882.471304
2546.911504,5056.230287,1850.514855,13027.624579
2546.911833,5439.278036,3849.070898,3627.009116
2546.912162,9806.022374,4145.153275,9474.636058
2546.912492,5362.668486,4589.276840,1924.535449
2546.912821,6281.983084,5255.462188,5921.647536
2546.913150,2298.286494,3404.947333,7772.162391
2546.913479,1685.410096,5329.482782,5181.441594
2546.913808,-1149.143247,-1480.411884,8586.388927
2546.914137,-4749.792088,-7328.038826,14434.015869
2546.914466,-7354.516781,-3256.906145,7994.224174
2546.914795,-8580.269578,-7550.100608,14359.995275
2546.915124,-8656.879127,-6587.832884,10066.800811
2546.915453,-7737.564530,-3627.009116,12065.356855
2546.915782,-766.095498,-3552.988522,13397.727550
2546.916111,-1225.752797,1554.432478,7550.100608
2546.916441,2374.896044,-3034.844362,7846.182985
2546.916770,6741.640382,1924.535449,10140.821405
2546.917099,7354.516781,5255.462188,3108.864956
2546.917428,9652.803275,2886.803174,9918.759623
2546.917757,6358.592633,6587.832884,888.247130
2546.918086,7431.126331,5773.606348,6217.729913
2546.918415,2451.505594,3552.988522,8290.306550
2546.918744,1302.362347,7402.059420,5255.462188
2546.919073,-306.438199,-2442.679609,9474.636058
2546.919402,-5209.449386,-5699.585753,13101.645173
2546.919731,-7048.078582,-4071.132681,9918.759623
2546.920060,-8656.879127,-6587.832884,14211.954086
2546.920390,-7967.393179,-7920.203579,11991.336260
2546.920719,-8120.612279,-2886.803174,10658.965565
2546.921048,-1455.581446,-3627.009116,12583.501014
2546.921377,-842.705048,1776.494261,7105.977043
2546.921706,2374.896044,-1628.453072,8142.265362
2546.922035,7201.297681,1628.453072,9918.759623
2546.922364,6435.202183,4441.235652,2886.803174
