#time,accel_x,accel_y,accel_z
2562.782078,306.438199,-0.000000,9178.553681
2562.782408,383.047749,-296.082377,9030.512492
2562.782737,536.266849,-148.041188,9030.512492
2562.783067,459.657299,-518.144159,9178.553681
2562.783396,306.438199,-74.020594,8882.471304
2562.783726,229.828649,-74.020594,8956.491898
2562.784055,306.438199,-0.000000,8956.491898
2562.784384,306.438199,-0.000000,9104.533087
2562.784714,306.438199,-74.020594,9178.553681
2562.785043,306.438199,-296.082377,8364.327145
2562.785373,0.000000,-74.020594,8956.491898
2562.785702,459.657299,-148.041188,9030.512492
2562.786032,153.219100,-148.041188,8882.471304
2562.786361,306.438199,-0.000000,8808.450710
2562.786690,229.828649,-0.000000,8882.471304
2562.787020,-76.609550,-0.000000,9030.512492
2562.787349,383.047749,-518.144159,8882.471304
2562.787679,612.876398,-296.082377,9104.533087
2562.788008,306.438199,-296.082377,9104.533087
2562.788338,229.828649,-148.041188,9030.512492
2562.788667,306.438199,-148.041188,9104.533087
2562.788996,306.438199,-0.000000,9326.594869
2562.789326,383.047749,-370.102971,9104.533087
2562.789655,383.047749,-0.000000,9178.553681
2562.789985,0.000000,-0.000000,9474.636058
2562.790314,229.828649,-296.082377,9326.594869
2562.790644,306.438199,-148.041188,9030.512492
2562.790973,229.828649,-222.061783,9326.594869
2562.791302,306.438199,-74.020594,9178.553681
2562.791632,306.438199,-296.082377,9474.636058
2562.791961,536.266849,-444.123565,8956.491898
2562.792291,612.876398,-0.000000,9252.574275
2562.792620,306.438199,-0.000000,9474.636058
2562.792950,306.438199,-74.020594,9252.574275
2562.793279,229.828649,-0.000000,9326.594869
2562.793608,459.657299,-74.020594,9104.533087
2562.793938,-153.219100,-0.000000,9326.594869
2562.794267,689.485948,-222.061783,9030.512492
2562.794597,459.657299,-222.061783,9104.533087
2562.794926,229.828649,-0.000000,9252.574275
2562.795256,306.438199,-0.000000,8882.471304
2562.795585,229.828649,-0.000000,9104.533087
2562.795914,229.828649,-0.000000,8956.491898
2562.796244,306.438199,-0.000000,8882.471304
2562.796573,306.438199,222.061783,8882.471304
2562.796903,383.047749,-222.061783,8438.347739
2562.797232,229.828649,-148.041188,8808.450710
2562.797562,383.047749,-148.041188,9030.512492
2562.797891,383.047749,-0.000000,9030.512492
2562.798220,76.609550,-222.061783,8882.471304
2562.798550,536.266849,-148.041188,9104.533087
2562.798879,536.266849,444.123565,9178.553681
2562.799209,459.657299,-148.041188,9104.533087
2562.799538,459.657299,-296.082377,9326.594869
2562.799868,383.047749,-222.061783,9104.533087
2562.800197,153.219100,-296.082377,8882.471304
2562.800526,229.828649,-148.041188,9030.512492
2562.800856,0.000000,-592.164754,9178.553681
2562.801185,459.657299,-444.123565,9326.594869
2562.801515,612.876398,-370.102971,9474.636058
2562.801844,306.438199,-222.061783,9178.553681
2562.802173,229.828649,-0.000000,9400.615463
2562.802503,459.657299,-296.082377,9252.574275
2562.802832,459.657299,-222.061783,9326.594869
2562.803162,383.047749,-740.205942,9326.594869
2562.803491,383.047749,-296.082377,9326.594869
2562.803821,612.876398,-444.123565,9030.512492
2562.804150,383.047749,-0.000000,9178.553681
2562.804479,459.657299,-148.041188,9178.553681
2562.804809,229.828649,-222.061783,8956.491898
2562.805138,153.219100,-148.041188,9104.533087
2562.805468,766.095498,-296.082377,9252.574275
2562.805797,306.438199,-74.020594,9326.594869
2562.806127,-306.438199,-74.020594,9326.594869
2562.806456,0.000000,-0.000000,9252.574275
2562.806785,0.000000,-0.000000,8882.471304
2562.807115,306.438199,-74.020594,8808.450710
2562.807444,153.219100,-0.000000,8882.471304
2562.807774,459.657299,-0.000000,8956.491898
2562.808103,153.219100,-74.020594,9104.533087
2562.808433,459.657299,-148.041188,8808.450710
2562.808762,383.047749,-296.082377,9104.533087
2562.809091,229.828649,-296.082377,9030.512492
2562.809421,536.266849,-222.061783,8808.450710
2562.809750,536.266849,-0.000000,8956.491898
2562.810080,306.438199,-74.020594,9104.533087
2562.810409,306.438199,-74.020594,8882.471304
2562.810739,459.657299,-444.123565,8882.471304
2562.811068,383.047749,-148.041188,9104.533087
2562.811397,306.438199,-222.061783,9104.533087
2562.811727,0.000000,-0.000000,9178.553681
2562.812056,383.047749,-148.041188,8956.491898
2562.812386,459.657299,-222.061783,9104.533087
2562.812715,689.485948,-666.185348,9622.677246
2562.813045,1455.581446,-1406.391290,9918.759623
2562.813374,1685.410096,-962.267725,9548.656652
2562.813703,2145.067394,-666.185348,9918.759623
2562.814033,2221.676944,-444.123565,9178.553681
2562.814362,2604.724693,222.061783,8808.450710
2562.814692,3524.039291,296.082377,8882.471304
2562.815021,4136.915689,-0.000000,8660.409521
2562.815351,3064.381992,444.123565,8734.430116
2562.815680,3217.601092,740.205942,8734.430116
2562.816009,2987.772442,-296.082377,8438.347739
2562.816339,3524.039291,-592.164754,9474.636058
2562.816668,2374.896044,-444.123565,9178.553681
2562.816998,1455.581446,-666.185348,9696.697840
2562.817327,2068.457845,-2072.576638,9918.759623
2562.817657,2451.505594,-666.185348,9696.697840
2562.817986,2451.505594,-222.061783,9474.636058
2562.818315,3447.429741,-1554.432478,9770.718434
2562.818645,3217.601092,-0.000000,9030.512492
2562.818974,4366.744339,888.247130,9252.574275
2562.819304,5209.449386,518.144159,7179.997637
2562.819633,4519.963438,1332.370696,8364.327145
2562.819963,5056.230287,888.247130,8734.430116
2562.820292,4903.011187,888.247130,7105.977043
2562.820621,4136.915689,444.123565,8808.450710
2562.820951,3370.820191,-222.061783,8438.347739
2562.821280,2681.334243,296.082377,8734.430116
2562.821610,1378.971896,-1036.288319,9548.656652
2562.821939,1455.581446,-888.247130,9548.656652
2562.822269,1838.629195,-1258.350101,9696.697840
2562.822598,919.314598,-1332.370696,9548.656652
2562.822927,2068.457845,-666.185348,9770.718434
2562.823257,2068.457845,-148.041188,10288.862594
2562.823586,2757.943793,370.102971,7476.080014
2562.823916,3600.648841,370.102971,9992.780217
2562.824245,4136.915689,1480.411884,8586.388927
2562.824574,4060.306139,814.226536,8438.347739
2562.824904,4213.525239,370.102971,8734.430116
2562.825233,4366.744339,-0.000000,8956.491898
2562.825563,3677.258390,-0.000000,9030.512492
2562.825892,2911.162892,-1258.350101,9696.697840
2562.826222,2528.115143,-1184.329507,9992.780217
2562.826551,2451.505594,-1702.473667,10288.862594
2562.826880,2681.334243,-1776.494261,9844.739029
2562.827210,2528.115143,-1554.432478,10140.821405
2562.827539,2987.772442,-222.061783,9326.594869
2562.827869,3983.696590,-0.000000,9178.553681
2562.828198,3907.087040,1110.308913,8290.306550
2562.828528,4060.306139,1924.535449,8512.368333
2562.828857,4749.792088,2442.679609,7920.203579
2562.829186,4290.134789,2368.659014,7550.100608
2562.829516,3524.039291,2072.576638,8364.327145
2562.829845,3600.648841,1480.411884,8290.306550
2562.830175,2911.162892,-222.061783,8438.347739
2562.830504,2604.724693,-1110.308913,9252.574275
2562.830834,2298.286494,-2294.638420,9770.718434
2562.831163,1915.238745,-2664.741391,10140.821405
2562.831492,2145.067394,-2960.823768,10732.986159
2562.831822,3677.258390,-2516.700203,10584.944971
2562.832151,4290.134789,-1480.411884,9918.759623
2562.832481,5132.839837,-0.000000,9326.594869
2562.832810,5745.716235,962.267725,8956.491898
2562.833140,5515.887586,2294.638420,8068.244768
2562.833469,5056.230287,2664.741391,7772.162391
2562.833798,4826.401637,3627.009116,7105.977043
2562.834128,4366.744339,3256.906145,6957.935855
2562.834457,3830.477490,1480.411884,7105.977043
2562.834787,2068.457845,-0.000000,8068.244768
2562.835116,536.266849,-3256.906145,9992.780217
2562.835446,-1072.533697,-3627.009116,10510.924376
2562.835775,-1225.752797,-4959.379811,11991.336260
2562.836104,-689.485948,-4737.318029,10807.006753
2562.836434,0.000000,-2220.617826,11399.171507
2562.836763,383.047749,-1406.391290,10584.944971
2562.837093,689.485948,148.041188,10732.986159
2562.837422,4290.134789,222.061783,11325.150913
2562.837752,6665.030833,2072.576638,7846.182985
2562.838081,7584.345430,1554.432478,8512.368333
2562.838410,5592.497135,888.247130,7328.038826
2562.838740,6358.592633,2368.659014,6513.812290
2562.839069,6281.983084,3330.926739,7328.038826
2562.839399,5286.058936,2220.617826,6143.709319
2562.839728,4519.963438,3552.988522,5699.585753
2562.840058,4366.744339,2664.741391,5773.606348
2562.840387,3600.648841,518.144159,6143.709319
2562.840716,0.000000,-4219.173869,9770.718434
2562.841046,-1225.752797,-7920.203579,13249.686362
2562.841375,-2757.943793,-3108.864956,11029.068536
2562.841705,-1991.848295,-7328.038826,13693.809927
2562.842034,-3064.381992,-2146.597232,9474.636058
2562.842364,-766.095498,296.082377,11695.253884
2562.842693,-306.438199,1258.350101,10288.862594
2562.843022,153.219100,2960.823768,9474.636058
2562.843352,2298.286494,1480.411884,8808.450710
2562.843681,3983.696590,1924.535449,11103.089130
2562.844011,4596.572988,2294.638420,7698.141797
2562.844340,4596.572988,666.185348,5773.606348
2562.844670,4213.525239,222.061783,5255.462188
2562.844999,5209.449386,2294.638420,6217.729913
2562.845328,4136.915689,666.185348,6513.812290
2562.845658,1225.752797,-370.102971,7550.100608
2562.845987,-842.705048,-2960.823768,9326.594869
2562.846317,-1762.019645,-3404.947333,11399.171507
2562.846646,-3140.991542,-2738.761985,9770.718434
2562.846975,-3524.039291,-2294.638420,11029.068536
2562.847305,-3064.381992,-740.205942,10658.965565
2562.847634,-2528.115143,-0.000000,11621.233289
2562.847964,-1149.143247,-222.061783,12287.418637
2562.848293,-919.314598,518.144159,10584.944971
2562.848623,689.485948,-222.061783,10436.903782
2562.848952,459.657299,740.205942,8734.430116
2562.849281,0.000000,1702.473667,9918.759623
2562.849611,1838.629195,370.102971,10436.903782
2562.849940,4519.963438,2516.700203,5477.523971
2562.850270,7277.907231,1036.288319,5921.647536
2562.850599,5515.887586,814.226536,4145.153275
2562.850929,4060.306139,1036.288319,5995.668130
2562.851258,612.876398,-370.102971,8290.306550
2562.851587,-842.705048,-888.247130,9178.553681
2562.851917,-1762.019645,-1702.473667,11103.089130
2562.852246,-2451.505594,-814.226536,9104.533087
2562.852576,-3524.039291,148.041188,9030.512492
2562.852905,-4366.744339,-1924.535449,11547.212695
2562.853235,-3217.601092,-1850.514855,11769.274478
2562.853564,-2145.067394,-1924.535449,12731.542202
2562.853893,-1072.533697,-888.247130,11473.192101
2562.854223,383.047749,444.123565,9104.533087
2562.854552,0.000000,296.082377,7994.224174
2562.854882,459.657299,518.144159,10066.800811
2562.855211,2221.676944,-0.000000,9252.574275
2562.855541,4673.182538,1480.411884,5551.544565
2562.855870,5209.449386,1184.329507,5477.523971
2562.856199,3447.429741,1628.453072,4367.215058
2562.856529,1838.629195,1258.350101,7624.121203
2562.856858,-1302.362347,-814.226536,8364.327145
2562.857188,-1378.971896,-2590.720797,11029.068536
2562.857517,-919.314598,-666.185348,10288.862594
2562.857847,-2604.724693,518.144159,8216.285956
2562.858176,-4596.572988,-2812.782580,13027.624579
2562.858505,-4903.011187,-2590.720797,11843.295072
2562.858835,-1608.800546,-2368.659014,13101.645173
2562.859164,-919.314598,-1036.288319,10584.944971
2562.859494,1149.143247,1628.453072,7624.121203
2562.859823,153.219100,666.185348,9992.780217
2562.860152,689.485948,-296.082377,10288.862594
2562.860482,2834.553343,962.267725,7254.018232
2562.860811,4749.792088,518.144159,5625.565159
2562.861141,4136.915689,-0.000000,4515.256246
2562.861470,1838.629195,1406.391290,7031.956449
2562.861800,229.828649,148.041188,9474.636058
2562.862129,-1991.848295,-814.226536,9400.615463
2562.862458,-919.314598,-2812.782580,11621.233289
2562.862788,-842.705048,222.061783,8290.306550
2562.863117,-612.876398,-74.020594,9844.739029
2562.863447,-1685.410096,-1258.350101,11621.233289
2562.863776,-459.657299,222.061783,11325.150913
2562.864105,842.705048,370.102971,10807.006753
2562.864435,229.828649,666.185348,9474.636058
2562.864764,1915.238745,-666.185348,10881.027347
2562.865094,3140.991542,296.082377,7402.059420
2562.865423,4673.182538,962.267725,6587.832884
2562.865753,3907.087040,740.205942,5403.503377
2562.866082,3753.867940,518.144159,6291.750507
2562.866411,1838.629195,962.267725,8808.450710
2562.866741,-689.485948,-0.000000,8142.265362
2562.867070,-842.705048,-1850.514855,9918.759623
2562.867400,-1455.581446,-2442.679609,9696.697840
2562.867729,-2145.067394,-666.185348,8660.409521
2562.868058,-2374.896044,-1258.350101,12509.480420
2562.868388,-1915.238745,-962.267725,10436.903782
2562.868717,-229.828649,-1184.329507,11843.295072
2562.869047,76.609550,1184.329507,9992.780217
2562.869376,-383.047749,1628.453072,8808.450710
2562.869705,536.266849,-962.267725,11251.130318
2562.870035,2987.772442,1036.288319,7179.997637
2562.870364,4443.353888,1554.432478,6957.935855
2562.870694,3677.258390,-0.000000,5625.565159
2562.871023,2451.505594,-0.000000,6365.771101
2562.871353,766.095498,148.041188,9622.677246
2562.871682,-919.314598,-0.000000,7846.182985
2562.872011,-383.047749,-2368.659014,10288.862594
2562.872341,-1149.143247,-2220.617826,8216.285956
2562.872670,-1225.752797,-0.000000,9918.759623
2562.873000,-2451.505594,-1184.329507,11399.171507
2562.873329,-2221.676944,-370.102971,11029.068536
2562.873658,-383.047749,-370.102971,12509.480420
2562.873988,306.438199,1184.329507,9030.512492
2562.874317,229.828649,1776.494261,8586.388927
2562.874647,-536.266849,-444.123565,10288.862594
2562.874976,383.047749,-962.267725,9992.780217
2562.875306,2374.896044,888.247130,7624.121203
2562.875635,3983.696590,444.123565,5625.565159
2562.875964,2681.334243,-370.102971,6217.729913
2562.876294,766.095498,1110.308913,7550.100608
2562.876623,-1225.752797,222.061783,8734.430116
2562.876953,-1302.362347,-2368.659014,9770.718434
2562.877282,76.609550,-1036.288319,8734.430116
2562.877611,0.000000,592.164754,8660.409521
2562.877941,-1838.629195,-1110.308913,10214.842000
2562.878270,-2834.553343,-1184.329507,12213.398043
2562.878600,-1225.752797,-666.185348,12509.480420
2562.878929,-536.266849,666.185348,9992.780217
2562.879259,383.047749,1554.432478,8512.368333
2562.879588,-229.828649,740.205942,9252.574275
2562.879917,0.000000,-814.226536,10214.842000
2562.880247,-459.657299,-740.205942,9844.739029
2562.880576,1685.410096,-740.205942,7254.018232
2562.880906,689.485948,-1480.411884,5995.668130
2562.881235,-383.047749,1110.308913,8956.491898
2562.881564,229.828649,370.102971,8734.430116
2562.881894,-1455.581446,-1258.350101,7179.997637
2562.882223,0.000000,-1998.556043,8808.450710
2562.882553,536.266849,1036.288319,9178.553681
2562.882882,459.657299,-0.000000,9844.739029
2562.883212,-383.047749,666.185348,10510.924376
2562.883541,-383.047749,370.102971,10436.903782
2562.883870,-689.485948,962.267725,10658.965565
2562.884200,995.924147,-0.000000,9992.780217
2562.884529,2451.505594,814.226536,8438.347739
2562.884859,3524.039291,814.226536,7402.059420
2562.885188,3677.258390,888.247130,7254.018232
2562.885517,2145.067394,-0.000000,7105.977043
2562.885847,1225.752797,-296.082377,8438.347739
2562.886176,-383.047749,-296.082377,8216.285956
2562.886506,-612.876398,-962.267725,9474.636058
2562.886835,-153.219100,-1554.432478,9548.656652
2562.887164,-766.095498,-1258.350101,7698.141797
2562.887494,-536.266849,-1702.473667,11547.212695
2562.887823,-842.705048,-1184.329507,9992.780217
2562.888153,306.438199,-0.000000,11621.233289
2562.888482,0.000000,518.144159,10436.903782
2562.888812,229.828649,1924.535449,9178.553681
2562.889141,612.876398,-740.205942,11621.233289
2562.889470,2834.553343,296.082377,8660.409521
2562.889800,4366.744339,740.205942,6291.750507
2562.890129,4903.011187,-0.000000,7031.956449
2562.890459,4213.525239,1258.350101,5551.544565
2562.890788,2298.286494,666.185348,8216.285956
2562.891117,0.000000,-0.000000,7772.162391
2562.891447,-995.924147,-1110.308913,8660.409521
2562.891776,-612.876398,-2812.782580,11177.109724
2562.892106,-1378.971896,-296.082377,7920.203579
2562.892435,-1149.143247,-1628.453072,10584.944971
2562.892765,-2374.896044,-1998.556043,11473.192101
2562.893094,-1685.410096,-444.123565,11695.253884
2562.893423,-689.485948,-296.082377,11843.295072
2562.893753,76.609550,1406.391290,7920.203579
2562.894082,689.485948,740.205942,9252.574275
2562.894412,-383.047749,-1258.350101,10807.006753
2562.894741,1378.971896,-0.000000,9474.636058
2562.895070,2221.676944,-296.082377,7179.997637
2562.895400,2987.772442,-0.000000,5995.668130
2562.895729,1532.190996,962.267725,6217.729913
2562.896059,76.609550,1332.370696,7698.141797
2562.896388,-1149.143247,-0.000000,8142.265362
2562.896718,-995.924147,-1850.514855,8882.471304
2562.897047,153.219100,-666.185348,8882.471304
2562.897376,-612.876398,592.164754,8216.285956
2562.897706,-1838.629195,-1184.329507,10214.842000
2562.898035,-2604.724693,-740.205942,11251.130318
2562.898365,-612.876398,-0.000000,10955.047942
2562.898694,0.000000,740.205942,8956.491898
2562.899023,383.047749,814.226536,8882.471304
2562.899353,229.828649,-666.185348,10362.883188
2562.899682,-306.438199,-1258.350101,9252.574275
2562.900012,153.219100,-1258.350101,9400.615463
2562.900341,0.000000,-1406.391290,7698.141797
2562.900671,689.485948,-962.267725,7920.203579
2562.901000,0.000000,1036.288319,8438.347739
2562.901329,153.219100,370.102971,7920.203579
2562.901659,-536.266849,-1554.432478,8956.491898
2562.901988,459.657299,-1184.329507,9474.636058
2562.902318,229.828649,-0.000000,8956.491898
2562.902647,-459.657299,-74.020594,9844.739029
2562.902976,-689.485948,-0.000000,9992.780217
2562.903306,0.000000,518.144159,10732.986159
2562.903635,1685.410096,1110.308913,9844.739029
2562.903965,2911.162892,888.247130,8290.306550
2562.904294,3447.429741,592.164754,7624.121203
2562.904623,2987.772442,1332.370696,7920.203579
2562.904953,2068.457845,296.082377,8438.347739
2562.905282,0.000000,-222.061783,8438.347739
2562.905612,-1225.752797,-1184.329507,9622.677246
2562.905941,-1838.629195,-1036.288319,10362.883188
2562.906271,-1455.581446,-888.247130,9696.697840
2562.906600,-842.705048,-1184.329507,9030.512492
2562.906929,-766.095498,-1850.514855,10288.862594
2562.907259,-995.924147,-814.226536,10955.047942
2562.907588,-766.095498,-518.144159,11325.150913
2562.907918,-459.657299,-0.000000,10584.944971
2562.908247,229.828649,1110.308913,8512.368333
2562.908576,153.219100,666.185348,9400.615463
2562.908906,0.000000,-666.185348,10584.944971
2562.909235,2987.772442,-370.102971,8660.409521
2562.909565,5056.230287,962.267725,6439.791695
2562.909894,4903.011187,666.185348,5773.606348
2562.910224,3064.381992,1628.453072,6143.709319
2562.910553,1532.190996,740.205942,8438.347739
2562.910882,-306.438199,-148.041188,7920.203579
2562.911212,0.000000,-1554.432478,9252.574275
2562.911541,-536.266849,-1036.288319,10436.903782
2562.911871,-229.828649,-740.205942,8438.347739
2562.912200,-842.705048,-1998.556043,10807.006753
2562.912529,-1455.581446,-1184.329507,10881.027347
2562.912859,-229.828649,-0.000000,10510.924376
2562.913188,153.219100,222.061783,10436.903782
2562.913518,-76.609550,1406.391290,9252.574275
2562.913847,842.705048,-296.082377,9844.739029
2562.914177,1455.581446,-962.267725,10066.800811
2562.914506,1838.629195,-0.000000,7402.059420
2562.914835,2681.334243,-370.102971,7846.182985
2562.915165,2451.505594,444.123565,7105.977043
2562.915494,1149.143247,1554.432478,7402.059420
2562.915824,0.000000,-0.000000,8512.368333
2562.916153,-459.657299,-518.144159,8660.409521
2562.916482,0.000000,-2294.638420,9918.759623
2562.916812,-536.266849,-1036.288319,9178.553681
2562.917141,-1072.533697,-296.082377,10140.821405
2562.917471,-1378.971896,-1554.432478,10436.903782
2562.917800,-1225.752797,-74.020594,10658.965565
2562.918130,-536.266849,888.247130,9992.780217
2562.918459,0.000000,1036.288319,9178.553681
2562.918788,1302.362347,-148.041188,9696.697840
2562.919118,2068.457845,-444.123565,8512.368333
2562.919447,2451.505594,666.185348,7476.080014
2562.919777,1532.190996,444.123565,7328.038826
2562.920106,1072.533697,-0.000000,7105.977043
2562.920435,229.828649,296.082377,8882.471304
2562.920765,-995.924147,-0.000000,8586.388927
2562.921094,-689.485948,-1406.391290,9104.533087
2562.921424,-766.095498,-1998.556043,9474.636058
2562.921753,-919.314598,-814.226536,8882.471304
2562.922082,-689.485948,-592.164754,10362.883188
2562.922412,-1225.752797,-296.082377,9844.739029
2562.922741,-383.047749,592.164754,10510.924376
2562.923071,-536.266849,222.061783,9622.677246
2562.923400,306.438199,-0.000000,9548.656652
2562.923730,1608.800546,-518.144159,9252.574275
2562.924059,2911.162892,-0.000000,7772.162391
2562.924388,2528.115143,592.164754,7550.100608
2562.924718,2451.505594,-74.020594,7624.121203
2562.925047,766.095498,296.082377,9104.533087
2562.925377,-1149.143247,296.082377,8586.388927
2562.925706,-1072.533697,-296.082377,8808.450710
2562.926035,-1072.533697,-1628.453072,9622.677246
2562.926365,-689.485948,-1480.411884,8882.471304
2562.926694,-689.485948,-1110.308913,10436.903782
2562.927024,-1455.581446,-814.226536,10584.944971
2562.927353,-1532.190996,-74.020594,10288.862594
2562.927683,-536.266849,814.226536,10436.903782
2562.928012,76.609550,1406.391290,9400.615463
2562.928341,919.314598,-148.041188,10214.842000
2562.928671,2298.286494,-518.144159,9030.512492
2562.929000,2911.162892,666.185348,6957.935855
2562.929330,2834.553343,444.123565,7105.977043
2562.929659,1915.238745,1110.308913,6883.915261
2562.929988,1225.752797,518.144159,8142.265362
2562.930318,-842.705048,-0.000000,8660.409521
2562.930647,-1455.581446,-888.247130,8882.471304
2562.930977,-1149.143247,-2516.700203,9918.759623
2562.931306,-689.485948,-888.247130,8734.430116
2562.931636,-842.705048,-666.185348,9770.718434
2562.931965,-1072.533697,-888.247130,10288.862594
2562.932294,-842.705048,888.247130,10732.986159
2562.932624,-1149.143247,962.267725,10288.862594
2562.932953,-229.828649,1184.329507,9474.636058
2562.933283,306.438199,-0.000000,9474.636058
2562.933612,1455.581446,-888.247130,9992.780217
2562.933941,1915.238745,-148.041188,7550.100608
2562.934271,2604.724693,-74.020594,7920.203579
2562.934600,2068.457845,370.102971,7105.977043
2562.934930,919.314598,1110.308913,8068.244768
2562.935259,-612.876398,148.041188,9030.512492
2562.935589,-995.924147,-444.123565,8364.327145
2562.935918,-612.876398,-2146.597232,10066.800811
2562.936247,-459.657299,-1776.494261,9400.615463
2562.936577,0.000000,-888.247130,9696.697840
2562.936906,-995.924147,-1110.308913,10732.986159
2562.937236,-383.047749,-0.000000,10362.883188
2562.937565,-459.657299,814.226536,10658.965565
2562.937894,0.000000,296.082377,9992.780217
2562.938224,1915.238745,-148.041188,9326.594869
2562.938553,3140.991542,-518.144159,7698.141797
2562.938883,3907.087040,370.102971,7105.977043
2562.939212,2451.505594,740.205942,6439.791695
2562.939541,2528.115143,370.102971,8142.265362
2562.939871,1302.362347,-0.000000,8808.450710
2562.940200,-536.266849,370.102971,8512.368333
2562.940530,-1302.362347,-1036.288319,9770.718434
2562.940859,-536.266849,-1776.494261,10214.842000
2562.941189,-612.876398,-1110.308913,8808.450710
2562.941518,-306.438199,-296.082377,10881.027347
2562.941847,-689.485948,-0.000000,9992.780217
2562.942177,-459.657299,592.164754,10288.862594
2562.942506,-766.095498,1110.308913,9548.656652
2562.942836,1838.629195,814.226536,8660.409521
2562.943165,2987.772442,-0.000000,7105.977043
2562.943494,3600.648841,740.205942,6957.935855
2562.943824,3064.381992,-444.123565,6735.874072
2562.944153,1838.629195,444.123565,7624.121203
2562.944483,383.047749,-0.000000,8586.388927
2562.944812,-995.924147,-592.164754,9474.636058
2562.945142,-2221.676944,-1480.411884,10288.862594
2562.945471,-1838.629195,-518.144159,9622.677246
2562.945800,-1455.581446,-1702.473667,9474.636058
2562.946130,-1302.362347,-888.247130,11103.089130
2562.946459,-612.876398,-518.144159,10510.924376
2562.946789,-383.047749,-222.061783,11621.233289
2562.947118,-995.924147,740.205942,9844.739029
2562.947447,-459.657299,1406.391290,9548.656652
2562.947777,153.219100,-1258.350101,10214.842000
2562.948106,2145.067394,-370.102971,8068.244768
2562.948436,3907.087040,444.123565,7402.059420
2562.948765,3753.867940,-0.000000,6143.709319
2562.949095,2451.505594,518.144159,6661.853478
2562.949424,1225.752797,370.102971,8512.368333
2562.949753,-689.485948,296.082377,7994.224174
2562.950083,-1532.190996,-814.226536,9400.615463
2562.950412,-1149.143247,-2072.576638,10955.047942
2562.950742,-995.924147,-592.164754,9030.512492
2562.951071,-766.095498,-1184.329507,10881.027347
2562.951400,-536.266849,-1332.370696,10658.965565
2562.951730,-1455.581446,222.061783,10436.903782
2562.952059,-689.485948,1332.370696,10066.800811
2562.952389,-536.266849,1332.370696,8290.306550
2562.952718,536.266849,-370.102971,8882.471304
2562.953048,2068.457845,-1258.350101,9030.512492
2562.953377,2068.457845,-0.000000,6143.709319
2562.953706,1991.848295,-666.185348,7328.038826
2562.954036,1225.752797,-148.041188,6809.894666
2562.954365,229.828649,444.123565,8068.244768
2562.954695,-1685.410096,-0.000000,8734.430116
2562.955024,-1762.019645,-962.267725,9178.553681
2562.955353,-1149.143247,-1924.535449,9178.553681
2562.955683,0.000000,-444.123565,8660.409521
2562.956012,-1149.143247,-222.061783,9844.739029
2562.956342,-1685.410096,-1554.432478,10881.027347
2562.956671,-1149.143247,-222.061783,11103.089130
2562.957000,-1225.752797,1110.308913,10214.842000
2562.957330,0.000000,444.123565,9104.533087
2562.957659,383.047749,-740.205942,9474.636058
2562.957989,2681.334243,-1036.288319,10362.883188
2562.958318,3370.820191,-0.000000,7254.018232
2562.958648,2757.943793,-222.061783,7402.059420
2562.958977,2068.457845,370.102971,6809.894666
2562.959306,2145.067394,1332.370696,8216.285956
2562.959635,0.000000,962.267725,8734.430116
2562.959965,-689.485948,-592.164754,8808.450710
2562.960294,0.000000,-2368.659014,10510.924376
2562.960623,-689.485948,-1258.350101,10214.842000
2562.960952,229.828649,-1110.308913,10140.821405
2562.961281,-919.314598,-740.205942,10288.862594
2562.961610,-459.657299,-74.020594,10732.986159
2562.961940,229.828649,1110.308913,10510.924376
2562.962269,2221.676944,1036.288319,9918.759623
2562.962598,3524.039291,1258.350101,6587.832884
2562.962927,5822.325785,518.144159,7698.141797
2562.963256,4673.182538,1110.308913,6143.709319
2562.963586,3064.381992,1332.370696,7846.182985
2562.963915,1685.410096,-444.123565,9104.533087
2562.964244,229.828649,296.082377,8142.265362
2562.964573,-1685.410096,-814.226536,9770.718434
2562.964902,-842.705048,-1258.350101,10584.944971
2562.965232,-1302.362347,-1702.473667,8142.265362
2562.965561,-612.876398,-888.247130,10214.842000
2562.965890,-306.438199,-518.144159,9696.697840
2562.966219,-995.924147,148.041188,10658.965565
2562.966548,-766.095498,-0.000000,10955.047942
2562.966878,-536.266849,1258.350101,8290.306550
2562.967207,229.828649,-444.123565,9844.739029
2562.967536,995.924147,-1110.308913,9770.718434
2562.967865,2987.772442,-592.164754,7550.100608
2562.968194,3677.258390,-0.000000,7846.182985
2562.968523,3217.601092,592.164754,6513.812290
2562.968853,2145.067394,740.205942,7105.977043
2562.969182,229.828649,814.226536,8438.347739
2562.969511,-536.266849,518.144159,7846.182985
2562.969840,-842.705048,-1554.432478,9326.594869
2562.970169,-459.657299,-1480.411884,9992.780217
2562.970499,-1378.971896,-148.041188,8956.491898
2562.970828,-1455.581446,-1776.494261,10807.006753
2562.971157,-2068.457845,-518.144159,10436.903782
2562.971486,-612.876398,370.102971,10436.903782
2562.971815,-459.657299,814.226536,9178.553681
2562.972145,0.000000,370.102971,8808.450710
2562.972474,-383.047749,-1110.308913,9474.636058
2562.972803,0.000000,-1110.308913,9548.656652
2562.973132,-229.828649,-1036.288319,9326.594869
2562.973461,0.000000,-1258.350101,8290.306550
2562.973791,153.219100,-296.082377,8364.327145
2562.974120,-1302.362347,296.082377,8512.368333
2562.974449,-1072.533697,296.082377,8512.368333
2562.974778,-766.095498,-592.164754,8956.491898
2562.975107,0.000000,-740.205942,8216.285956
2562.975436,306.438199,592.164754,8660.409521
2562.975766,-842.705048,296.082377,9400.615463
2562.976095,-1608.800546,-0.000000,9696.697840
2562.976424,-1302.362347,592.164754,10584.944971
2562.976753,536.266849,814.226536,9918.759623
2562.977082,1532.190996,-0.000000,8438.347739
2562.977412,3524.039291,740.205942,8216.285956
2562.977741,3524.039291,222.061783,7254.018232
2562.978070,2145.067394,-0.000000,7772.162391
2562.978399,995.924147,-296.082377,8734.430116
2562.978728,0.000000,-666.185348,8660.409521
2562.979058,-1149.143247,-444.123565,9104.533087
2562.979387,-1838.629195,-1554.432478,9992.780217
2562.979716,-1455.581446,-1776.494261,9548.656652
2562.980045,-1072.533697,-1332.370696,9622.677246
2562.980374,0.000000,-1036.288319,10658.965565
2562.980704,-689.485948,-518.144159,10066.800811
2562.981033,383.047749,222.061783,11103.089130
2562.981362,-536.266849,1480.411884,10066.800811
2562.981691,1225.752797,-222.061783,10955.047942
2562.982020,2911.162892,888.247130,7772.162391
2562.982349,4903.011187,1184.329507,7031.956449
2562.982679,4673.182538,814.226536,6661.853478
2562.983008,4213.525239,1110.308913,6957.935855
2562.983337,2221.676944,592.164754,8290.306550
2562.983666,229.828649,-0.000000,8438.347739
2562.983995,-1149.143247,-592.164754,9474.636058
2562.984325,-2374.896044,-1110.308913,9918.759623
2562.984654,-1608.800546,-2072.576638,9622.677246
2562.984983,-1838.629195,-1110.308913,9918.759623
2562.985312,-1225.752797,-1406.391290,10140.821405
2562.985641,-1455.581446,-1110.308913,10510.924376
2562.985971,-689.485948,222.061783,10955.047942
2562.986300,-306.438199,1924.535449,8142.265362
2562.986629,1072.533697,444.123565,8734.430116
2562.986958,3294.210641,-444.123565,10881.027347
2562.987287,3524.039291,740.205942,5477.523971
2562.987617,5362.668486,666.185348,7920.203579
2562.987946,3600.648841,962.267725,5329.482782
2562.988275,3370.820191,1110.308913,7105.977043
2562.988604,536.266849,666.185348,8512.368333
2562.988933,-612.876398,-0.000000,8290.306550
2562.989262,-1455.581446,-2072.576638,10807.006753
2562.989592,-766.095498,-1776.494261,9918.759623
2562.989921,-1455.581446,-740.205942,9104.533087
2562.990250,-2221.676944,-1554.432478,11177.109724
2562.990579,-1455.581446,-1110.308913,10436.903782
2562.990908,-1072.533697,222.061783,10881.027347
2562.991238,-229.828649,1110.308913,8956.491898
2562.991567,-612.876398,1258.350101,8068.244768
2562.991896,383.047749,-1998.556043,10510.924376
2562.992225,1838.629195,-666.185348,9696.697840
2562.992554,1915.238745,-222.061783,6957.935855
2562.992884,1838.629195,-1036.288319,7846.182985
2562.993213,995.924147,370.102971,6809.894666
2562.993542,459.657299,1702.473667,8512.368333
2562.993871,-459.657299,1110.308913,7698.141797
2562.994200,-689.485948,-370.102971,8438.347739
2562.994529,-383.047749,-1406.391290,10732.986159
2562.994859,-919.314598,-0.000000,8660.409521
2562.995188,-1378.971896,-444.123565,10362.883188
2562.995517,-2068.457845,-1036.288319,10807.006753
2562.995846,-689.485948,444.123565,10510.924376
2562.996175,-766.095498,1110.308913,9918.759623
2562.996505,229.828649,666.185348,8512.368333
2562.996834,0.000000,-592.164754,8882.471304
2562.997163,1532.190996,-2368.659014,10584.944971
2562.997492,1072.533697,-592.164754,8068.244768
2562.997821,766.095498,-592.164754,7846.182985
2562.998151,1532.190996,-1110.308913,7624.121203
2562.998480,919.314598,1258.350101,7846.182985
2562.998809,383.047749,1110.308913,8216.285956
2562.999138,-153.219100,-222.061783,7994.224174
2562.999467,536.266849,-592.164754,9104.533087
2562.999797,536.266849,-518.144159,9992.780217
2563.000126,-306.438199,-370.102971,9178.553681
2563.000455,-1225.752797,-148.041188,11029.068536
2563.000784,-383.047749,-148.041188,10140.821405
2563.001113,1225.752797,962.267725,9104.533087
2563.001442,2374.896044,814.226536,8216.285956
2563.001772,3600.648841,518.144159,7328.038826
2563.002101,3677.258390,-296.082377,7476.080014
2563.002430,2681.334243,-148.041188,8068.244768
2563.002759,612.876398,-148.041188,7994.224174
2563.003088,-919.314598,-1332.370696,9474.636058
2563.003418,-1915.238745,-1110.308913,10066.800811
2563.003747,-1915.238745,-1110.308913,10436.903782
2563.004076,-1762.019645,-1110.308913,8808.450710
2563.004405,-689.485948,-1406.391290,10066.800811
2563.004734,-306.438199,-1258.350101,9770.718434
2563.005064,-536.266849,-370.102971,10955.047942
2563.005393,-842.705048,444.123565,11177.109724
2563.005722,-766.095498,814.226536,9992.780217
2563.006051,-383.047749,888.247130,9474.636058
2563.006380,76.609550,-0.000000,10066.800811
2563.006710,2298.286494,-962.267725,8734.430116
2563.007039,4060.306139,-444.123565,7031.956449
2563.007368,4136.915689,444.123565,6661.853478
2563.007697,2374.896044,740.205942,6291.750507
2563.008026,1762.019645,518.144159,7772.162391
2563.008355,-153.219100,888.247130,8438.347739
2563.008685,-383.047749,-0.000000,8734.430116
2563.009014,-842.705048,-1110.308913,9844.739029
2563.009343,-229.828649,-962.267725,9252.574275
2563.009672,0.000000,-740.205942,9844.739029
2563.010001,-689.485948,-888.247130,10732.986159
2563.010331,-1149.143247,-222.061783,10288.862594
2563.010660,-383.047749,888.247130,9992.780217
2563.010989,76.609550,1184.329507,9178.553681
2563.011318,1225.752797,-148.041188,8956.491898
2563.011647,2604.724693,-1110.308913,8142.265362
2563.011977,3447.429741,-148.041188,6957.935855
2563.012306,2681.334243,-740.205942,6809.894666
2563.012635,1149.143247,-0.000000,7624.121203
2563.012964,76.609550,-0.000000,9548.656652
2563.013293,-1455.581446,-222.061783,9252.574275
2563.013623,-2068.457845,-370.102971,10436.903782
2563.013952,-689.485948,-1924.535449,9844.739029
2563.014281,-1149.143247,-518.144159,7624.121203
2563.014610,-536.266849,-0.000000,11103.089130
2563.014939,-2374.896044,-1036.288319,11029.068536
2563.015268,-1072.533697,-222.061783,10807.006753
2563.015598,-995.924147,888.247130,9992.780217
2563.015927,-459.657299,1036.288319,8364.327145
2563.016256,229.828649,-1110.308913,9474.636058
2563.016585,2374.896044,-1406.391290,9844.739029
2563.016914,2528.115143,740.205942,6883.915261
2563.017244,3370.820191,-148.041188,7698.141797
2563.017573,1991.848295,222.061783,7105.977043
2563.017902,1149.143247,1850.514855,7920.203579
2563.018231,0.000000,444.123565,8660.409521
2563.018560,-919.314598,-296.082377,8438.347739
2563.018890,-612.876398,-2220.617826,10066.800811
2563.019219,0.000000,-1184.329507,9474.636058
2563.019548,-383.047749,-370.102971,9770.718434
2563.019877,-1302.362347,-888.247130,10881.027347
2563.020206,-842.705048,-0.000000,9844.739029
2563.020536,-229.828649,1110.308913,9844.739029
2563.020865,1685.410096,518.144159,9252.574275
2563.021194,2681.334243,-0.000000,7179.997637
2563.021523,4060.306139,-814.226536,8438.347739
2563.021852,3983.696590,-0.000000,7031.956449
2563.022181,1991.848295,-0.000000,7624.121203
2563.022511,612.876398,-518.144159,8660.409521
2563.022840,-383.047749,592.164754,8734.430116
2563.023169,-1608.800546,222.061783,9622.677246
2563.023498,-1072.533697,-1184.329507,10584.944971
2563.023827,-1378.971896,-1480.411884,8808.450710
2563.024157,-689.485948,-1110.308913,10362.883188
2563.024486,-1149.143247,-1110.308913,10288.862594
2563.024815,-1378.971896,-296.082377,10658.965565
2563.025144,-1149.143247,-0.000000,11695.253884
2563.025473,-1532.190996,1110.308913,8956.491898
2563.025803,0.000000,-0.000000,9474.636058
2563.026132,76.609550,-962.267725,9696.697840
2563.026461,2528.115143,-814.226536,9104.533087
2563.026790,2298.286494,-370.102971,7550.100608
2563.027119,2221.676944,296.082377,7179.997637
2563.027448,919.314598,740.205942,7476.080014
2563.027778,459.657299,1332.370696,8438.347739
2563.028107,-995.924147,888.247130,7994.224174
2563.028436,-1302.362347,-962.267725,9104.533087
2563.028765,0.000000,-1110.308913,9696.697840
2563.029094,-995.924147,-0.000000,9252.574275
2563.029424,-766.095498,-1110.308913,10510.924376
2563.029753,-1608.800546,-370.102971,9918.759623
2563.030082,-919.314598,962.267725,10140.821405
2563.030411,-306.438199,1110.308913,8734.430116
2563.030740,153.219100,518.144159,8956.491898
2563.031070,1762.019645,-1480.411884,8956.491898
2563.031399,2221.676944,-1110.308913,8216.285956
2563.031728,2374.896044,-814.226536,7476.080014
2563.032057,1302.362347,-888.247130,7105.977043
2563.032386,995.924147,-0.000000,8216.285956
2563.032716,-766.095498,222.061783,8882.471304
2563.033045,-1072.533697,888.247130,8734.430116
2563.033374,-612.876398,-1998.556043,9770.718434
2563.033703,-459.657299,-1258.350101,8882.471304
2563.034032,0.000000,-666.185348,9770.718434
2563.034361,-1149.143247,-592.164754,10288.862594
2563.034691,-1378.971896,-296.082377,10510.924376
2563.035020,-766.095498,370.102971,10584.944971
2563.035349,612.876398,222.061783,9918.759623
2563.035678,2451.505594,666.185348,7624.121203
2563.036007,4366.744339,-148.041188,7994.224174
2563.036337,4290.134789,222.061783,6883.915261
2563.036666,3524.039291,666.185348,7402.059420
2563.036995,2145.067394,222.061783,8364.327145
2563.037324,306.438199,-0.000000,8734.430116
2563.037653,-689.485948,-518.144159,9918.759623
2563.037983,-1685.410096,-740.205942,9992.780217
2563.038312,-1455.581446,-1924.535449,10732.986159
2563.038641,-1149.143247,-1480.411884,10881.027347
2563.038970,229.828649,-1110.308913,10955.047942
2563.039299,-153.219100,-0.000000,10288.862594
2563.039629,0.000000,1332.370696,9918.759623
2563.039958,383.047749,1628.453072,10288.862594
2563.040287,2221.676944,888.247130,8808.450710
2563.040616,3907.087040,1554.432478,5921.647536
2563.040945,4903.011187,962.267725,6587.832884
2563.041274,4596.572988,-0.000000,6513.812290
2563.041604,3524.039291,222.061783,7402.059420
2563.041933,1225.752797,-0.000000,7846.182985
2563.042262,-536.266849,-962.267725,8512.368333
2563.042591,-2528.115143,-1480.411884,10436.903782
2563.042920,-2221.676944,-962.267725,10362.883188
2563.043250,-2298.286494,-1998.556043,8882.471304
2563.043579,-1685.410096,-370.102971,10066.800811
2563.043908,-1378.971896,-888.247130,10881.027347
2563.044237,-995.924147,-148.041188,11103.089130
2563.044566,-1225.752797,370.102971,10288.862594
2563.044896,-689.485948,1332.370696,8660.409521
2563.045225,0.000000,-0.000000,9474.636058
2563.045554,919.314598,-0.000000,10436.903782
2563.045883,2451.505594,-1332.370696,7994.224174
2563.046212,3677.258390,-518.144159,7254.018232
2563.046542,3217.601092,-0.000000,6069.688724
2563.046871,1608.800546,1258.350101,7031.956449
2563.047200,229.828649,296.082377,8882.471304
2563.047529,-1149.143247,222.061783,8808.450710
2563.047858,-1685.410096,-1702.473667,10362.883188
2563.048187,-1225.752797,-1258.350101,9992.780217
2563.048517,-1378.971896,-740.205942,8808.450710
2563.048846,-1072.533697,-1554.432478,11251.130318
2563.049175,-1532.190996,-444.123565,10214.842000
2563.049504,-1072.533697,370.102971,10066.800811
2563.049833,-842.705048,1628.453072,9326.594869
2563.050163,76.609550,1110.308913,8734.430116
2563.050492,842.705048,-1110.308913,9474.636058
2563.050821,1991.848295,-1110.308913,8512.368333
2563.051150,1225.752797,-444.123565,7402.059420
2563.051479,1378.971896,-1184.329507,7920.203579
2563.051809,612.876398,-0.000000,7550.100608
2563.052138,-536.266849,1628.453072,8364.327145
2563.052467,-2068.457845,1628.453072,8734.430116
2563.052796,-1378.971896,-222.061783,9252.574275
2563.053125,-229.828649,-518.144159,9400.615463
2563.053455,-229.828649,-0.000000,9474.636058
2563.053784,-766.095498,-740.205942,10214.842000
2563.054113,-1838.629195,-814.226536,10362.883188
2563.054442,-612.876398,-0.000000,10807.006753
2563.054771,-612.876398,444.123565,9474.636058
2563.055100,612.876398,-0.000000,8882.471304
2563.055430,995.924147,-1110.308913,9104.533087
2563.055759,2451.505594,-1036.288319,8068.244768
2563.056088,3217.601092,-518.144159,7402.059420
2563.056417,2451.505594,-444.123565,7624.121203
2563.056746,1378.971896,-0.000000,8216.285956
2563.057076,1149.143247,518.144159,9252.574275
2563.057405,0.000000,370.102971,8438.347739
2563.057734,-383.047749,-444.123565,9548.656652
2563.058063,-153.219100,-1554.432478,10436.903782
2563.058392,229.828649,-666.185348,9992.780217
2563.058722,-306.438199,-518.144159,10214.842000
2563.059051,-306.438199,-296.082377,10658.965565
2563.059380,0.000000,370.102971,10658.965565
2563.059709,2145.067394,1406.391290,8586.388927
2563.060038,3983.696590,1406.391290,6735.874072
2563.060367,4826.401637,592.164754,6069.688724
2563.060697,4979.620737,296.082377,7031.956449
2563.061026,3753.867940,518.144159,7105.977043
2563.061355,1225.752797,-1036.288319,8808.450710
2563.061684,-229.828649,-1702.473667,9548.656652
2563.062013,-1838.629195,-1036.288319,10066.800811
2563.062342,-2451.505594,-1332.370696,10807.006753
2563.062671,-1838.629195,-888.247130,9178.553681
2563.063000,-383.047749,-222.061783,9474.636058
2563.063329,0.000000,-592.164754,10584.944971
2563.063658,-229.828649,370.102971,10362.883188
2563.063987,-383.047749,370.102971,10584.944971
2563.064316,-1072.533697,444.123565,8660.409521
2563.064645,-306.438199,370.102971,9918.759623
2563.064974,1378.971896,-74.020594,9104.533087
2563.065303,2911.162892,592.164754,6069.688724
2563.065632,4290.134789,-518.144159,7550.100608
2563.065961,4290.134789,-0.000000,5995.668130
2563.066290,2987.772442,666.185348,7476.080014
2563.066619,0.000000,-296.082377,8586.388927
2563.066948,-1225.752797,-444.123565,9178.553681
2563.067277,-2374.896044,-1110.308913,10510.924376
2563.067606,-1532.190996,-1184.329507,9696.697840
2563.067935,-1455.581446,-148.041188,8882.471304
2563.068264,-689.485948,-1776.494261,10436.903782
2563.068594,-153.219100,-1036.288319,10214.842000
2563.068923,-612.876398,592.164754,10362.883188
2563.069252,-995.924147,592.164754,9178.553681
2563.069581,-612.876398,518.144159,9104.533087
2563.069910,306.438199,-1184.329507,9474.636058
2563.070239,1455.581446,-814.226536,8142.265362
2563.070568,2451.505594,-1184.329507,7550.100608
2563.070897,1838.629195,-1332.370696,7846.182985
2563.071226,689.485948,-296.082377,7846.182985
2563.071555,306.438199,666.185348,9030.512492
2563.071884,-1608.800546,592.164754,9104.533087
2563.072213,-1149.143247,592.164754,9326.594869
2563.072542,-842.705048,-0.000000,10214.842000
2563.072871,-612.876398,666.185348,8068.244768
2563.073200,0.000000,-592.164754,10140.821405
2563.073529,-766.095498,-1036.288319,10807.006753
2563.073858,-1072.533697,-370.102971,9992.780217
2563.074187,-1302.362347,888.247130,10288.862594
2563.074516,-689.485948,296.082377,8660.409521
2563.074845,842.705048,-296.082377,7994.224174
2563.075174,2911.162892,518.144159,7772.162391
2563.075503,2604.724693,296.082377,7550.100608
2563.075832,1915.238745,-814.226536,7846.182985
2563.076161,0.000000,-0.000000,8290.306550
2563.076490,-383.047749,-0.000000,9474.636058
2563.076819,-1532.190996,-0.000000,9326.594869
2563.077148,-1915.238745,-444.123565,10510.924376
2563.077477,-1149.143247,-296.082377,9918.759623
2563.077806,0.000000,-296.082377,9918.759623
2563.078135,76.609550,-296.082377,10288.862594
2563.078464,0.000000,-518.144159,10732.986159
2563.078793,-612.876398,518.144159,10881.027347
2563.079122,0.000000,-74.020594,10658.965565
2563.079451,1762.019645,518.144159,7698.141797
2563.079780,3983.696590,592.164754,7550.100608
2563.080109,4366.744339,296.082377,6735.874072
2563.080438,3600.648841,296.082377,6587.832884
2563.080768,2681.334243,-370.102971,8586.388927
2563.081097,536.266849,-962.267725,8142.265362
2563.081426,-995.924147,-666.185348,9474.636058
2563.081755,-2145.067394,-814.226536,10140.821405
2563.082084,-1838.629195,-1184.329507,10436.903782
2563.082413,-1225.752797,-962.267725,9696.697840
2563.082742,153.219100,-666.185348,9474.636058
2563.083071,0.000000,-814.226536,9992.780217
2563.083400,0.000000,-0.000000,10510.924376
2563.083729,-1149.143247,370.102971,10214.842000
2563.084058,-1072.533697,296.082377,9474.636058
2563.084387,1072.533697,-592.164754,9178.553681
2563.084716,2451.505594,296.082377,7105.977043
2563.085045,3830.477490,-0.000000,6587.832884
2563.085374,3524.039291,-666.185348,7105.977043
2563.085703,2911.162892,-222.061783,6809.894666
2563.086032,1225.752797,-370.102971,8216.285956
2563.086361,-459.657299,-148.041188,8438.347739
2563.086690,-1455.581446,-0.000000,9104.533087
2563.087019,-1532.190996,-666.185348,10881.027347
2563.087348,-842.705048,222.061783,9178.553681
2563.087677,-76.609550,-444.123565,10288.862594
2563.088006,-306.438199,-888.247130,10362.883188
2563.088335,-459.657299,518.144159,10140.821405
2563.088664,-842.705048,962.267725,10066.800811
2563.088993,-689.485948,370.102971,9400.615463
2563.089322,1149.143247,222.061783,8882.471304
2563.089651,2528.115143,814.226536,8068.244768
2563.089980,2987.772442,-222.061783,7031.956449
2563.090309,2681.334243,-962.267725,7328.038826
2563.090638,1455.581446,-962.267725,8142.265362
2563.090967,-306.438199,-1036.288319,8512.368333
2563.091296,-1685.410096,-1406.391290,9548.656652
2563.091625,-2221.676944,-1332.370696,10658.965565
2563.091954,-1762.019645,-888.247130,10140.821405
2563.092283,-1455.581446,-444.123565,9918.759623
2563.092613,-766.095498,-592.164754,10807.006753
2563.092942,-919.314598,-444.123565,10436.903782
2563.093271,-536.266849,296.082377,10881.027347
2563.093600,-1915.238745,1406.391290,9474.636058
2563.093929,1149.143247,296.082377,9326.594869
2563.094258,2987.772442,1776.494261,6291.750507
2563.094587,3140.991542,1554.432478,6809.894666
2563.094916,3370.820191,370.102971,6809.894666
2563.095245,3064.381992,222.061783,7328.038826
2563.095574,153.219100,-962.267725,7772.162391
2563.095903,-153.219100,-814.226536,9400.615463
2563.096232,-2298.286494,-1924.535449,10510.924376
2563.096561,-3370.820191,-1480.411884,10510.924376
2563.096890,-2298.286494,-666.185348,9770.718434
2563.097219,-1838.629195,-74.020594,10288.862594
2563.097548,-306.438199,-370.102971,9252.574275
2563.097877,383.047749,-0.000000,10955.047942
2563.098206,-536.266849,962.267725,9474.636058
2563.098535,229.828649,1184.329507,10362.883188
2563.098864,2068.457845,-148.041188,8512.368333
2563.099193,4060.306139,2072.576638,5847.626942
2563.099522,4366.744339,1850.514855,5921.647536
2563.099851,3677.258390,592.164754,6069.688724
2563.100180,2987.772442,-222.061783,8068.244768
2563.100509,306.438199,-1184.329507,7920.203579
2563.100838,-383.047749,-2146.597232,9252.574275
2563.101167,-2987.772442,-2442.679609,10955.047942
2563.101496,-2911.162892,-1998.556043,10140.821405
2563.101825,-2987.772442,-148.041188,9474.636058
2563.102154,-1991.848295,-666.185348,11103.089130
2563.102483,-1225.752797,-1332.370696,9992.780217
2563.102812,-306.438199,-1036.288319,11473.192101
2563.103141,-1838.629195,518.144159,9030.512492
2563.103470,-612.876398,444.123565,9844.739029
2563.103799,919.314598,-1406.391290,11547.212695
2563.104128,2068.457845,2368.659014,5847.626942
2563.104457,4213.525239,962.267725,7550.100608
2563.104787,3447.429741,666.185348,5551.544565
2563.105116,4290.134789,-0.000000,7179.997637
2563.105445,1302.362347,-0.000000,8512.368333
2563.105774,-459.657299,-444.123565,8512.368333
2563.106103,-2221.676944,-2072.576638,10584.944971
2563.106432,-2451.505594,-1628.453072,11251.130318
2563.106761,-2374.896044,-222.061783,9844.739029
2563.107090,-1685.410096,-666.185348,10510.924376
2563.107419,76.609550,-1406.391290,10140.821405
2563.107748,-459.657299,-74.020594,10214.842000
2563.108077,0.000000,1924.535449,10066.800811
2563.108406,459.657299,296.082377,10436.903782
2563.108735,2298.286494,-222.061783,8142.265362
2563.109064,4136.915689,2368.659014,6587.832884
2563.109393,3907.087040,1628.453072,5477.523971
2563.109722,2911.162892,-592.164754,7105.977043
2563.110051,2681.334243,-1110.308913,8734.430116
2563.110380,1225.752797,-740.205942,9030.512492
2563.110709,-919.314598,-1998.556043,8586.388927
2563.111038,-2451.505594,-1850.514855,10288.862594
2563.111367,-1915.238745,-1554.432478,10807.006753
2563.111696,-1685.410096,518.144159,10066.800811
2563.112025,-459.657299,666.185348,9770.718434
2563.112354,153.219100,-370.102971,10214.842000
2563.112683,0.000000,296.082377,10658.965565
2563.113012,-766.095498,962.267725,10881.027347
2563.113341,842.705048,-296.082377,10362.883188
2563.113670,1991.848295,148.041188,6735.874072
2563.113999,3600.648841,1702.473667,7402.059420
2563.114328,3140.991542,1110.308913,5921.647536
2563.114657,2987.772442,-0.000000,8142.265362
2563.114986,1378.971896,-1184.329507,8586.388927
2563.115315,229.828649,-1036.288319,8364.327145
2563.115644,-1532.190996,-2368.659014,10362.883188
2563.115973,-2757.943793,-1776.494261,10658.965565
2563.116302,-2451.505594,-1184.329507,10732.986159
2563.116632,-1762.019645,296.082377,9844.739029
2563.116961,76.609550,-74.020594,9918.759623
2563.117290,-153.219100,-0.000000,10214.842000
2563.117619,383.047749,888.247130,10288.862594
2563.117948,459.657299,370.102971,10955.047942
2563.118277,1302.362347,666.185348,7846.182985
2563.118606,3677.258390,1998.556043,7254.018232
2563.118935,3524.039291,1480.411884,5773.606348
2563.119264,3524.039291,1480.411884,6143.709319
2563.119593,2604.724693,-370.102971,7994.224174
2563.119922,459.657299,-1258.350101,7772.162391
2563.120251,-536.266849,-2442.679609,9400.615463
2563.120580,-2068.457845,-2368.659014,10510.924376
2563.120909,-2757.943793,-1554.432478,10140.821405
2563.121238,-2757.943793,-74.020594,9844.739029
2563.121567,-1608.800546,740.205942,9696.697840
2563.121896,-995.924147,-148.041188,10362.883188
2563.122225,0.000000,-0.000000,11399.171507
2563.122554,0.000000,1036.288319,9696.697840
2563.122883,-1302.362347,592.164754,9474.636058
2563.123212,-612.876398,-1110.308913,11473.192101
2563.123541,1532.190996,1332.370696,7328.038826
2563.123870,3140.991542,1110.308913,6883.915261
2563.124199,2911.162892,-0.000000,6217.729913
2563.124528,3294.210641,-0.000000,6513.812290
2563.124857,1762.019645,-888.247130,8660.409521
2563.125186,-153.219100,-1184.329507,7920.203579
2563.125515,-1455.581446,-2072.576638,9548.656652
2563.125844,-2604.724693,-2368.659014,11547.212695
2563.126173,-2374.896044,-222.061783,9622.677246
2563.126502,-1991.848295,222.061783,10881.027347
2563.126831,-1072.533697,-1702.473667,10510.924376
2563.127160,-306.438199,-666.185348,10732.986159
2563.127489,-229.828649,888.247130,10140.821405
2563.127818,-919.314598,814.226536,8808.450710
2563.128147,-536.266849,-740.205942,10362.883188
2563.128476,1149.143247,222.061783,9178.553681
2563.128806,2221.676944,1850.514855,5699.585753
2563.129135,2987.772442,-666.185348,7476.080014
2563.129464,2451.505594,-518.144159,6883.915261
2563.129793,2221.676944,-370.102971,8216.285956
2563.130122,0.000000,-518.144159,8142.265362
2563.130451,-995.924147,-518.144159,8808.450710
2563.130780,-1838.629195,-1184.329507,10214.842000
2563.131109,-842.705048,-0.000000,10066.800811
2563.131438,-1149.143247,518.144159,9622.677246
2563.131767,-383.047749,-814.226536,10066.800811
2563.132096,306.438199,-888.247130,10362.883188
2563.132425,306.438199,-0.000000,10807.006753
2563.132754,1225.752797,-0.000000,10362.883188
2563.133083,2068.457845,1110.308913,6439.791695
2563.133412,4290.134789,962.267725,7550.100608
2563.133741,4136.915689,2220.617826,5329.482782
2563.134070,4060.306139,1184.329507,7105.977043
2563.134399,3064.381992,-1110.308913,8216.285956
2563.134728,1762.019645,-1628.453072,7624.121203
2563.135057,-612.876398,-1702.473667,10066.800811
2563.135386,-2528.115143,-2368.659014,10362.883188
2563.135715,-2451.505594,-2368.659014,11695.253884
2563.136044,-2298.286494,-888.247130,10436.903782
2563.136373,0.000000,-0.000000,10288.862594
2563.136702,-306.438199,-222.061783,10140.821405
2563.137031,536.266849,518.144159,10658.965565
2563.137360,0.000000,1110.308913,10066.800811
2563.137689,1685.410096,-0.000000,11325.150913
2563.138018,2604.724693,1924.535449,5995.668130
2563.138347,4903.011187,2072.576638,7105.977043
2563.138676,3524.039291,1406.391290,5625.565159
2563.139005,4136.915689,1480.411884,6883.915261
2563.139334,2221.676944,-666.185348,7624.121203
2563.139663,153.219100,-1110.308913,7179.997637
2563.139992,-1378.971896,-2368.659014,10288.862594
2563.140321,-2604.724693,-2368.659014,10881.027347
2563.140651,-3064.381992,-1998.556043,9252.574275
2563.140980,-3830.477490,-222.061783,11547.212695
2563.141309,-1149.143247,-814.226536,9770.718434
2563.141638,-1149.143247,-370.102971,11621.233289
2563.141967,-383.047749,-148.041188,11251.130318
2563.142296,-383.047749,1776.494261,8216.285956
2563.142625,-229.828649,-518.144159,9992.780217
2563.142954,1762.019645,-148.041188,10140.821405
2563.143283,2681.334243,2516.700203,5625.565159
2563.143612,4290.134789,1480.411884,7994.224174
2563.143941,3447.429741,740.205942,4737.318029
2563.144270,3294.210641,740.205942,7031.956449
2563.144599,0.000000,-814.226536,7920.203579
2563.144928,-919.314598,-1332.370696,8290.306550
2563.145257,-2374.896044,-3108.864956,11251.130318
2563.145586,-1838.629195,-1776.494261,9622.677246
2563.145915,-2145.067394,-0.000000,9030.512492
2563.146244,-2298.286494,-1406.391290,11547.212695
2563.146573,-1608.800546,-1258.350101,10807.006753
2563.146902,-689.485948,-0.000000,11473.192101
2563.147231,-689.485948,1258.350101,8956.491898
2563.147560,-995.924147,962.267725,8808.450710
2563.147889,-306.438199,-1554.432478,11177.109724
2563.148218,1455.581446,1036.288319,7550.100608
2563.148547,1915.238745,1110.308913,7031.956449
2563.148876,2221.676944,-740.205942,6735.874072
2563.149205,1685.410096,-0.000000,6587.832884
2563.149534,612.876398,-0.000000,8956.491898
2563.149863,-1378.971896,-1110.308913,8512.368333
2563.150192,-2145.067394,-1850.514855,10288.862594
2563.150521,-2221.676944,-1702.473667,10584.944971
2563.150850,-1762.019645,592.164754,8734.430116
2563.151179,-1455.581446,-74.020594,10955.047942
2563.151508,-1378.971896,-962.267725,10658.965565
2563.151837,-229.828649,296.082377,10362.883188
2563.152166,76.609550,1332.370696,10140.821405
2563.152496,1838.629195,-0.000000,10140.821405
2563.152825,2374.896044,1258.350101,6661.853478
2563.153154,4596.572988,2072.576638,7624.121203
2563.153483,3370.820191,1702.473667,5551.544565
2563.153812,3370.820191,-0.000000,7550.100608
2563.154141,1762.019645,-888.247130,8290.306550
2563.154470,229.828649,-1036.288319,8512.368333
2563.154799,-1302.362347,-2220.617826,10732.986159
2563.155128,-2834.553343,-3034.844362,9770.718434
2563.155457,-1991.848295,-2368.659014,11251.130318
2563.155786,-1838.629195,-444.123565,10510.924376
2563.156115,229.828649,-518.144159,9474.636058
2563.156444,-306.438199,-148.041188,10436.903782
2563.156773,0.000000,1184.329507,10066.800811
2563.157102,2528.115143,1702.473667,10584.944971
2563.157431,2987.772442,1702.473667,4737.318029
2563.157760,5439.278036,2368.659014,7550.100608
2563.158089,4903.011187,2294.638420,5847.626942
2563.158418,5439.278036,1850.514855,7328.038826
2563.158747,1608.800546,-74.020594,7254.018232
2563.159076,919.314598,-1480.411884,7772.162391
2563.159405,-1378.971896,-3404.947333,10807.006753
2563.159734,-2604.724693,-2886.803174,10955.047942
2563.160063,-2528.115143,-3701.029710,10807.006753
2563.160392,-3370.820191,-1332.370696,10436.903782
2563.160721,-1455.581446,-814.226536,10955.047942
2563.161050,-1225.752797,-74.020594,10214.842000
2563.161379,689.485948,666.185348,10140.821405
2563.161708,0.000000,1776.494261,8216.285956
2563.162037,1915.238745,-1406.391290,12953.603985
2563.162366,2604.724693,1480.411884,5551.544565
2563.162695,6052.154434,2442.679609,6957.935855
2563.163024,4136.915689,1998.556043,4737.318029
2563.163353,4519.963438,2368.659014,5995.668130
2563.163682,2757.943793,-0.000000,8142.265362
2563.164011,0.000000,-740.205942,7179.997637
2563.164340,-842.705048,-2886.803174,10510.924376
2563.164669,-2757.943793,-3849.070898,11473.192101
2563.164998,-3600.648841,-2738.761985,9622.677246
2563.165327,-4213.525239,-666.185348,11473.192101
2563.165656,-2451.505594,-1110.308913,10140.821405
2563.165985,-1915.238745,-740.205942,10732.986159
2563.166314,-459.657299,-0.000000,11251.130318
2563.166643,-612.876398,2368.659014,7846.182985
2563.166972,0.000000,-666.185348,8734.430116
2563.167301,1532.190996,-444.123565,12361.439231
2563.167630,1838.629195,2072.576638,5255.462188
2563.167959,4519.963438,1110.308913,7846.182985
2563.168288,2911.162892,-0.000000,5255.462188
2563.168617,3064.381992,740.205942,6735.874072
2563.168946,76.609550,-222.061783,8882.471304
2563.169275,-689.485948,-1258.350101,8142.265362
2563.169604,-1915.238745,-2960.823768,10732.986159
2563.169933,-2068.457845,-1480.411884,11843.295072
2563.170262,-2681.334243,296.082377,9030.512492
2563.170591,-2451.505594,-740.205942,11547.212695
2563.170920,-995.924147,-740.205942,10658.965565
2563.171249,-229.828649,296.082377,10658.965565
2563.171578,-766.095498,1480.411884,10066.800811
2563.171907,-1149.143247,814.226536,8956.491898
2563.172236,0.000000,-2146.597232,11251.130318
2563.172565,1608.800546,1258.350101,8216.285956
2563.172894,2145.067394,1628.453072,5921.647536
2563.173223,2681.334243,-962.267725,7624.121203
2563.173552,2145.067394,-0.000000,6661.853478
2563.173881,2145.067394,-0.000000,8808.450710
2563.174210,-536.266849,-1258.350101,8586.388927
2563.174539,-1225.752797,-888.247130,9474.636058
2563.174868,-1149.143247,-1628.453072,11917.315666
2563.175197,-1532.190996,888.247130,9474.636058
2563.175526,-842.705048,666.185348,9474.636058
2563.175855,-689.485948,-222.061783,10510.924376
2563.176184,76.609550,-0.000000,10214.842000
2563.176513,0.000000,888.247130,11177.109724
2563.176842,1838.629195,592.164754,9178.553681
2563.177171,2757.943793,592.164754,6661.853478
2563.177500,4060.306139,888.247130,7254.018232
2563.177829,3064.381992,1924.535449,5847.626942
2563.178158,2298.286494,-0.000000,7994.224174
2563.178487,1072.533697,-1184.329507,8808.450710
2563.178816,766.095498,-1628.453072,8734.430116
2563.179145,-1532.190996,-2664.741391,10140.821405
2563.179474,-2604.724693,-2664.741391,11029.068536
2563.179803,-1915.238745,-1924.535449,10362.883188
2563.180132,-1225.752797,296.082377,10362.883188
2563.180461,-229.828649,296.082377,10288.862594
2563.180790,-612.876398,-0.000000,10066.800811
2563.181119,229.828649,814.226536,10140.821405
2563.181448,0.000000,-518.144159,12065.356855
2563.181777,2298.286494,-74.020594,7772.162391
2563.182106,4366.744339,1184.329507,6661.853478
2563.182435,4290.134789,1332.370696,5699.585753
2563.182764,3753.867940,1480.411884,6217.729913
2563.183093,3447.429741,518.144159,7920.203579
2563.183422,1915.238745,-814.226536,7920.203579
2563.183751,229.828649,-1924.535449,9030.512492
2563.184080,-2221.676944,-2220.617826,10436.903782
2563.184409,-2451.505594,-2442.679609,11103.089130
2563.184738,-2757.943793,-962.267725,9696.697840
2563.185067,-1072.533697,-0.000000,11029.068536
2563.185396,-766.095498,-666.185348,10214.842000
2563.185725,0.000000,666.185348,10584.944971
2563.186054,0.000000,1850.514855,8586.388927
2563.186383,-612.876398,222.061783,9326.594869
2563.186712,766.095498,-1332.370696,10732.986159
2563.187041,2068.457845,1258.350101,6365.771101
2563.187370,3294.210641,592.164754,6735.874072
2563.187699,2604.724693,-148.041188,6291.750507
2563.188028,2068.457845,148.041188,6661.853478
2563.188357,689.485948,-814.226536,8512.368333
2563.188686,-689.485948,-1110.308913,8290.306550
2563.189015,-1915.238745,-1702.473667,9918.759623
2563.189344,-1991.848295,-2442.679609,11473.192101
2563.189673,-2221.676944,518.144159,8586.388927
2563.190002,-1915.238745,-0.000000,11177.109724
2563.190331,-1072.533697,-1332.370696,11103.089130
2563.190660,-306.438199,-444.123565,10510.924376
2563.190989,-1072.533697,1702.473667,9548.656652
2563.191318,-1225.752797,592.164754,9252.574275
2563.191647,229.828649,-1924.535449,10881.027347
2563.191976,2221.676944,888.247130,7994.224174
2563.192305,3064.381992,1480.411884,6069.688724
2563.192634,2681.334243,-740.205942,7031.956449
2563.192963,2451.505594,-0.000000,7698.141797
2563.193292,1302.362347,-0.000000,8660.409521
2563.193621,0.000000,-666.185348,8142.265362
2563.193950,-1149.143247,-1406.391290,9474.636058
2563.194279,-2374.896044,-2960.823768,11547.212695
2563.194608,-1378.971896,-0.000000,10510.924376
2563.194937,-842.705048,962.267725,10066.800811
2563.195266,-689.485948,-666.185348,10436.903782
2563.195595,-383.047749,-74.020594,10732.986159
2563.195924,0.000000,1554.432478,10658.965565
2563.196253,995.924147,592.164754,9696.697840
2563.196582,2757.943793,740.205942,6513.812290
2563.196911,4290.134789,1406.391290,6957.935855
2563.197240,2681.334243,2294.638420,5255.462188
2563.197569,2528.115143,-0.000000,7846.182985
2563.197898,919.314598,-962.267725,8290.306550
2563.198227,-306.438199,-1184.329507,8586.388927
2563.198556,-1838.629195,-2072.576638,10362.883188
2563.198885,-2374.896044,-2368.659014,11177.109724
2563.199214,-2604.724693,-1406.391290,9104.533087
2563.199543,-1455.581446,-370.102971,11029.068536
2563.199872,-1302.362347,-0.000000,10214.842000
2563.200201,-153.219100,-0.000000,11399.171507
2563.200530,-229.828649,518.144159,10658.965565
2563.200859,-842.705048,1480.411884,9326.594869
2563.201188,76.609550,-1628.453072,10955.047942
2563.201517,2298.286494,-296.082377,8586.388927
2563.201846,3524.039291,1628.453072,5255.462188
2563.202175,4366.744339,740.205942,6661.853478
2563.202504,3294.210641,962.267725,5699.585753
2563.202834,3370.820191,296.082377,7994.224174
2563.203163,919.314598,-222.061783,7550.100608
2563.203492,-306.438199,-518.144159,8438.347739
2563.203821,-2374.896044,-2738.761985,10955.047942
2563.204150,-1915.238745,-1628.453072,11325.150913
2563.204479,-2374.896044,-444.123565,9918.759623
2563.204808,-1302.362347,-1628.453072,11547.212695
2563.205137,-842.705048,-962.267725,10658.965565
2563.205466,0.000000,888.247130,10881.027347
2563.205795,-153.219100,1036.288319,9918.759623
2563.206124,1149.143247,-222.061783,9770.718434
2563.206453,2834.553343,-0.000000,7105.977043
2563.206782,4366.744339,2368.659014,6661.853478
2563.207111,3600.648841,888.247130,5403.503377
2563.207440,3140.991542,148.041188,7105.977043
2563.207769,1532.190996,-148.041188,8068.244768
2563.208098,153.219100,-296.082377,7994.224174
2563.208427,-1455.581446,-1924.535449,9474.636058
2563.208756,-2145.067394,-2294.638420,11325.150913
2563.209085,-2451.505594,-2146.597232,11103.089130
2563.209414,-1685.410096,-0.000000,9622.677246
2563.209743,-689.485948,-666.185348,10658.965565
2563.210072,-919.314598,-1184.329507,11177.109724
2563.210401,-612.876398,1184.329507,10066.800811
2563.210730,-689.485948,1184.329507,10140.821405
2563.211059,1378.971896,-1554.432478,10362.883188
2563.211388,3907.087040,666.185348,6883.915261
2563.211717,5056.230287,2072.576638,6217.729913
2563.212046,3983.696590,1110.308913,5033.400406
2563.212375,3830.477490,1258.350101,6957.935855
2563.212704,2451.505594,814.226536,7920.203579
2563.213033,689.485948,-74.020594,7994.224174
2563.213362,-995.924147,-1628.453072,9548.656652
2563.213691,-2987.772442,-2738.761985,11399.171507
2563.214020,-2298.286494,-2368.659014,11695.253884
2563.214349,-1762.019645,-0.000000,10436.903782
2563.214678,-1072.533697,-1258.350101,11177.109724
2563.215007,-1225.752797,-1110.308913,11621.233289
2563.215336,-536.266849,1554.432478,10510.924376
2563.215665,-536.266849,1998.556043,9770.718434
2563.215994,1378.971896,-1480.411884,9622.677246
2563.216323,2451.505594,-296.082377,7772.162391
2563.216652,3370.820191,2738.761985,6735.874072
2563.216981,3370.820191,-0.000000,6439.791695
2563.217310,1532.190996,1036.288319,5773.606348
2563.217639,1378.971896,296.082377,8586.388927
2563.217968,-612.876398,-444.123565,8512.368333
2563.218297,-1991.848295,-1110.308913,10510.924376
2563.218626,-2298.286494,-1850.514855,11251.130318
2563.218955,-2451.505594,-592.164754,9474.636058
2563.219284,-1991.848295,-296.082377,11399.171507
2563.219613,-1685.410096,-888.247130,10807.006753
2563.219942,-995.924147,-888.247130,11029.068536
2563.220271,-612.876398,888.247130,9918.759623
2563.220600,-306.438199,1036.288319,8216.285956
2563.220929,-229.828649,-1406.391290,9918.759623
2563.221258,2451.505594,-370.102971,9178.553681
2563.221587,3217.601092,3330.926739,5033.400406
2563.221916,3907.087040,592.164754,6587.832884
2563.222245,2681.334243,1036.288319,5403.503377
2563.222574,2068.457845,1184.329507,7772.162391
2563.222903,-153.219100,-296.082377,8290.306550
2563.223232,-1532.190996,-1332.370696,9252.574275
2563.223561,-1991.848295,-2590.720797,11473.192101
2563.223890,-1608.800546,-666.185348,9918.759623
2563.224219,-1608.800546,-370.102971,10732.986159
2563.224548,-2221.676944,-1850.514855,11177.109724
2563.224877,-919.314598,-1258.350101,11251.130318
2563.225206,-229.828649,296.082377,10584.944971
2563.225535,-612.876398,740.205942,9474.636058
2563.225864,76.609550,-1036.288319,9400.615463
2563.226193,1532.190996,-1554.432478,9474.636058
2563.226522,1838.629195,1702.473667,6291.750507
2563.226851,2604.724693,-0.000000,7031.956449
2563.227180,1915.238745,-0.000000,6883.915261
2563.227509,995.924147,962.267725,7402.059420
2563.227838,689.485948,370.102971,8660.409521
2563.228167,-1532.190996,-1110.308913,8586.388927
2563.228496,-1225.752797,-2442.679609,10881.027347
2563.228825,-995.924147,-1332.370696,10214.842000
2563.229154,-1149.143247,-0.000000,9992.780217
2563.229483,-995.924147,-1480.411884,10658.965565
2563.229812,-1072.533697,-888.247130,10732.986159
2563.230141,-689.485948,-0.000000,11103.089130
2563.230470,306.438199,-296.082377,9696.697840
2563.230799,2681.334243,-370.102971,9178.553681
2563.231128,3677.258390,888.247130,6291.750507
2563.231457,4903.011187,1924.535449,6291.750507
2563.231786,3830.477490,1776.494261,6069.688724
2563.232115,3370.820191,888.247130,7402.059420
2563.232444,2298.286494,444.123565,8068.244768
2563.232773,459.657299,148.041188,8142.265362
2563.233102,-1455.581446,-2072.576638,9918.759623
2563.233431,-1225.752797,-2294.638420,11325.150913
2563.233760,-1225.752797,-666.185348,9326.594869
2563.234089,-229.828649,-1110.308913,11177.109724
2563.234418,0.000000,-1036.288319,10436.903782
2563.234747,-536.266849,222.061783,11399.171507
2563.235076,-383.047749,-148.041188,11325.150913
2563.235405,0.000000,-0.000000,9918.759623
2563.235734,2451.505594,-592.164754,8512.368333
2563.236063,3753.867940,1258.350101,6587.832884
2563.236392,3983.696590,1702.473667,6513.812290
2563.236721,3064.381992,1480.411884,6809.894666
2563.237050,2911.162892,1480.411884,7994.224174
2563.237379,766.095498,296.082377,8290.306550
2563.237708,-766.095498,-592.164754,9474.636058
2563.238037,-1608.800546,-1332.370696,10955.047942
2563.238366,-2068.457845,-1924.535449,9474.636058
2563.238695,-1225.752797,-888.247130,10807.006753
2563.239024,-1532.190996,-666.185348,9992.780217
2563.239353,-1302.362347,-1776.494261,11399.171507
2563.239682,-1378.971896,-962.267725,11695.253884
2563.240011,-1378.971896,-0.000000,9918.759623
2563.240340,-995.924147,-370.102971,8290.306550
2563.240669,-612.876398,-1554.432478,10066.800811
2563.240998,612.876398,-370.102971,9178.553681
2563.241327,1685.410096,370.102971,7031.956449
2563.241656,3140.991542,814.226536,6883.915261
2563.241985,2221.676944,962.267725,6365.771101
2563.242314,1838.629195,1184.329507,7772.162391
2563.242643,0.000000,1332.370696,7550.100608
2563.242972,-919.314598,-222.061783,7994.224174
2563.243301,-995.924147,-1332.370696,10140.821405
2563.243630,-1532.190996,-444.123565,10214.842000
2563.243959,-1762.019645,-1702.473667,9770.718434
2563.244288,-2145.067394,-1184.329507,10362.883188
2563.244617,-1149.143247,-1258.350101,9992.780217
2563.244946,306.438199,-0.000000,9918.759623
2563.245275,1608.800546,1258.350101,7994.224174
2563.245604,2681.334243,888.247130,7402.059420
2563.245933,3217.601092,740.205942,6661.853478
2563.246262,2757.943793,1776.494261,7105.977043
2563.246591,842.705048,518.144159,7624.121203
2563.246920,0.000000,-666.185348,9178.553681
2563.247249,-1685.410096,-370.102971,9622.677246
2563.247578,-3140.991542,-1998.556043,10807.006753
2563.247907,-2987.772442,-2368.659014,11399.171507
2563.248236,-2757.943793,-1850.514855,9918.759623
2563.248565,-1532.190996,-1776.494261,11251.130318
2563.248894,-1302.362347,-888.247130,10510.924376
2563.249223,-612.876398,-0.000000,10436.903782
2563.249552,-1225.752797,740.205942,8586.388927
2563.249881,-383.047749,-74.020594,11177.109724
2563.250210,1838.629195,-444.123565,9474.636058
2563.250539,4749.792088,1554.432478,5329.482782
2563.250868,5898.935335,1110.308913,5773.606348
2563.251197,4136.915689,1480.411884,5625.565159
2563.251526,4366.744339,2220.617826,7920.203579
2563.251855,995.924147,666.185348,7698.141797
2563.252184,459.657299,370.102971,8364.327145
2563.252513,-1915.238745,-1258.350101,10732.986159
2563.252842,-2451.505594,-2812.782580,11399.171507
2563.253171,-2757.943793,-2368.659014,10955.047942
2563.253500,-2145.067394,-1184.329507,10955.047942
2563.253829,-612.876398,-2590.720797,10658.965565
2563.254158,-1149.143247,74.020594,10584.944971
2563.254487,0.000000,2738.761985,9474.636058
2563.254816,919.314598,-814.226536,11473.192101
2563.255145,3294.210641,-518.144159,7105.977043
2563.255474,6205.373534,2294.638420,6735.874072
2563.255803,5362.668486,1850.514855,4589.276840
2563.256132,5209.449386,1110.308913,6439.791695
2563.256461,3447.429741,1480.411884,7920.203579
2563.256790,1378.971896,666.185348,7994.224174
2563.257119,-153.219100,-962.267725,9252.574275
2563.257448,-2757.943793,-962.267725,10584.944971
2563.257777,-2604.724693,-2590.720797,12065.356855
2563.258106,-3064.381992,-1850.514855,11103.089130
2563.258435,-2068.457845,-740.205942,10658.965565
2563.258764,-1991.848295,-2738.761985,11473.192101
2563.259093,-1685.410096,-222.061783,10881.027347
2563.259422,-1225.752797,2146.597232,9474.636058
2563.259751,-689.485948,-814.226536,9622.677246
2563.260080,2528.115143,-1036.288319,9474.636058
2563.260409,3677.258390,2146.597232,5403.503377
2563.260738,4596.572988,1702.473667,6513.812290
2563.261067,2987.772442,666.185348,6439.791695
2563.261396,4213.525239,1406.391290,7550.100608
2563.261725,1378.971896,1776.494261,7772.162391
2563.262060,0.000000,222.061783,8438.347739
2563.262389,-1991.848295,-814.226536,9844.739029
2563.262718,-2604.724693,-2146.597232,11325.150913
2563.263047,-1685.410096,-1776.494261,10881.027347
2563.263376,-2451.505594,-666.185348,10140.821405
2563.263705,-536.266849,-2368.659014,10955.047942
2563.264034,-1685.410096,-444.123565,10362.883188
2563.264363,-766.095498,2146.597232,9178.553681
2563.264692,-536.266849,296.082377,9104.533087
2563.265021,2221.676944,-1776.494261,8808.450710
2563.265351,3140.991542,1258.350101,5847.626942
2563.265680,3677.258390,1184.329507,6069.688724
2563.266009,2068.457845,-444.123565,7179.997637
2563.266338,1762.019645,740.205942,8364.327145
2563.266667,153.219100,444.123565,8808.450710
2563.266996,-995.924147,-148.041188,8956.491898
2563.267325,-2298.286494,-1036.288319,10214.842000
2563.267654,-1915.238745,-1998.556043,11251.130318
2563.267983,-1608.800546,-518.144159,9992.780217
2563.268312,-1225.752797,-814.226536,10732.986159
2563.268641,-1532.190996,-1776.494261,10658.965565
2563.268971,-1302.362347,-0.000000,10066.800811
2563.269300,-1072.533697,888.247130,9918.759623
2563.269629,842.705048,-444.123565,9474.636058
2563.269958,2298.286494,-888.247130,6809.894666
2563.270287,4519.963438,1406.391290,7105.977043
2563.270616,3447.429741,1258.350101,5625.565159
2563.270945,2834.553343,444.123565,7772.162391
2563.271274,1149.143247,-0.000000,8290.306550
2563.271603,0.000000,-74.020594,8882.471304
2563.271932,-1685.410096,-1628.453072,10362.883188
2563.272261,-2604.724693,-2294.638420,10362.883188
2563.272591,-2834.553343,-2146.597232,11547.212695
2563.272920,-1455.581446,-666.185348,10658.965565
2563.273249,-612.876398,-74.020594,10436.903782
2563.273578,-612.876398,-592.164754,10807.006753
2563.273907,-459.657299,1036.288319,9696.697840
2563.274236,1302.362347,1480.411884,10584.944971
2563.274565,2834.553343,888.247130,4885.359217
2563.274894,6052.154434,814.226536,6513.812290
2563.275223,3677.258390,2590.720797,5773.606348
2563.275552,4519.963438,962.267725,7402.059420
2563.275882,995.924147,444.123565,7254.018232
2563.276211,153.219100,-518.144159,7772.162391
2563.276540,-1455.581446,-1110.308913,10584.944971
2563.276869,-2834.553343,-2294.638420,10362.883188
2563.277198,-2681.334243,-2368.659014,11103.089130
2563.277527,-2451.505594,-1850.514855,9918.759623
2563.277856,-1608.800546,-888.247130,10881.027347
2563.278185,-1378.971896,-1258.350101,10807.006753
2563.278514,-459.657299,-0.000000,10881.027347
2563.278843,-1225.752797,888.247130,9474.636058
2563.279172,1072.533697,-962.267725,11399.171507
2563.279502,2528.115143,1332.370696,5921.647536
2563.279831,5439.278036,1924.535449,7328.038826
2563.280160,4903.011187,1998.556043,5403.503377
2563.280489,4903.011187,2146.597232,6217.729913
2563.280818,2528.115143,1036.288319,8142.265362
2563.281147,842.705048,222.061783,7698.141797
2563.281476,-766.095498,-1036.288319,10732.986159
2563.281805,-3447.429741,-1998.556043,11769.274478
2563.282134,-2604.724693,-3182.885551,12139.377449
2563.282463,-3217.601092,-1554.432478,10362.883188
2563.282792,-842.705048,-1406.391290,11621.233289
2563.283122,-1072.533697,-1184.329507,10510.924376
2563.283451,-383.047749,962.267725,10140.821405
2563.283780,-995.924147,1776.494261,8882.471304
2563.284109,995.924147,-1036.288319,11177.109724
2563.284438,3064.381992,888.247130,5551.544565
2563.284767,5286.058936,2442.679609,5995.668130
2563.285096,3677.258390,1036.288319,5255.462188
2563.285425,3677.258390,592.164754,6513.812290
2563.285754,2145.067394,740.205942,7846.182985
2563.286083,153.219100,-0.000000,7624.121203
2563.286412,-1302.362347,-1258.350101,9992.780217
2563.286742,-2604.724693,-1628.453072,10881.027347
2563.287071,-2451.505594,-1924.535449,10955.047942
2563.287400,-2681.334243,-370.102971,10214.842000
2563.287729,-1915.238745,-962.267725,10807.006753
2563.288058,-1762.019645,-1850.514855,11103.089130
2563.288387,-1072.533697,444.123565,10732.986159
2563.288716,-1532.190996,1554.432478,8290.306550
2563.289045,76.609550,-1480.411884,9474.636058
2563.289374,2298.286494,-1110.308913,8956.491898
2563.289703,3140.991542,1554.432478,5255.462188
2563.290032,4290.134789,-74.020594,7254.018232
2563.290362,2604.724693,370.102971,5847.626942
2563.290691,3217.601092,962.267725,7846.182985
2563.291020,766.095498,592.164754,8142.265362
2563.291349,-306.438199,-222.061783,8734.430116
2563.291678,-1762.019645,-1776.494261,10881.027347
2563.292007,-1608.800546,-1998.556043,12065.356855
2563.292336,-1455.581446,-1184.329507,11251.130318
2563.292665,-1608.800546,-962.267725,10362.883188
2563.292994,-766.095498,-1406.391290,10214.842000
2563.293323,-1838.629195,518.144159,10732.986159
2563.293652,0.000000,962.267725,10362.883188
2563.293982,1072.533697,-0.000000,9474.636058
2563.294311,2911.162892,-666.185348,7179.997637
2563.294640,3907.087040,1850.514855,6365.771101
2563.294969,3140.991542,1406.391290,6143.709319
2563.295298,2681.334243,-0.000000,7624.121203
2563.295627,1378.971896,666.185348,7920.203579
2563.295956,0.000000,148.041188,8512.368333
2563.296285,-1762.019645,-814.226536,9918.759623
2563.296614,-2451.505594,-1776.494261,10584.944971
2563.296943,-1608.800546,-1776.494261,10584.944971
2563.297272,-1608.800546,-518.144159,11029.068536
2563.297602,-1378.971896,-444.123565,10288.862594
2563.297931,-1608.800546,-1036.288319,11547.212695
2563.298260,-1149.143247,1332.370696,9622.677246
2563.298589,-995.924147,814.226536,9326.594869
2563.298918,383.047749,-1998.556043,9992.780217
2563.299247,2298.286494,-74.020594,7031.956449
2563.299576,3753.867940,1036.288319,6809.894666
2563.299905,3447.429741,296.082377,5773.606348
2563.300234,2451.505594,1110.308913,7031.956449
2563.300563,1685.410096,-148.041188,8808.450710
2563.300893,766.095498,-0.000000,8068.244768
2563.301222,-1225.752797,-888.247130,9696.697840
2563.301551,-2298.286494,-2664.741391,10510.924376
2563.301880,-1838.629195,-1628.453072,11325.150913
2563.302209,-1762.019645,-814.226536,10510.924376
2563.302538,-612.876398,-1036.288319,10584.944971
2563.302867,-383.047749,-814.226536,10140.821405
2563.303196,-536.266849,-148.041188,11177.109724
2563.303525,2221.676944,1480.411884,8438.347739
2563.303854,4136.915689,1036.288319,5921.647536
2563.304183,5592.497135,1110.308913,5625.565159
2563.304513,4519.963438,2220.617826,4811.338623
2563.304842,3907.087040,888.247130,7624.121203
2563.305171,1302.362347,-0.000000,8142.265362
2563.305500,229.828649,-962.267725,8364.327145
2563.305829,-2145.067394,-1628.453072,10955.047942
2563.306158,-3370.820191,-2368.659014,11695.253884
2563.306487,-2987.772442,-2368.659014,10881.027347
2563.306816,-2451.505594,-1184.329507,10732.986159
2563.307145,-1302.362347,-1184.329507,10584.944971
2563.307474,-1838.629195,-740.205942,11029.068536
2563.307803,-1455.581446,592.164754,11029.068536
2563.308133,-1532.190996,962.267725,8586.388927
2563.308462,1685.410096,-222.061783,10658.965565
2563.308791,3217.601092,1702.473667,4737.318029
2563.309120,6205.373534,1628.453072,7031.956449
2563.309449,4749.792088,1628.453072,5625.565159
2563.309778,5362.668486,1924.535449,5921.647536
2563.310107,3064.381992,444.123565,7254.018232
2563.310436,306.438199,148.041188,7402.059420
2563.310765,-842.705048,-1036.288319,10807.006753
2563.311094,-3677.258390,-2812.782580,11621.233289
2563.311423,-2987.772442,-2590.720797,11547.212695
2563.311753,-2987.772442,-1406.391290,10214.842000
2563.312082,-919.314598,-1998.556043,11621.233289
2563.312411,-1991.848295,-1776.494261,10881.027347
2563.312740,-383.047749,1554.432478,11325.150913
2563.313069,-1378.971896,1184.329507,8290.306550
2563.313398,1991.848295,-1406.391290,10658.965565
2563.313727,3677.258390,1184.329507,5995.668130
2563.314056,5669.106685,2812.782580,6069.688724
2563.314385,4366.744339,666.185348,5403.503377
2563.314714,4213.525239,1184.329507,6513.812290
2563.315043,2298.286494,296.082377,8068.244768
2563.315373,-383.047749,444.123565,7846.182985
2563.315702,-1532.190996,-1036.288319,10436.903782
2563.316031,-3217.601092,-2294.638420,11843.295072
2563.316360,-2987.772442,-2220.617826,10658.965565
2563.316689,-3064.381992,-444.123565,11029.068536
2563.317018,-2451.505594,-1998.556043,11621.233289
2563.317347,-2221.676944,-1406.391290,11325.150913
2563.317676,-1455.581446,592.164754,10881.027347
2563.318005,-1608.800546,2220.617826,7476.080014
2563.318334,76.609550,-1332.370696,9992.780217
2563.318663,2604.724693,-148.041188,8142.265362
2563.318993,3600.648841,3330.926739,4441.235652
2563.319322,3983.696590,370.102971,7031.956449
2563.319651,2757.943793,666.185348,5551.544565
2563.319980,2528.115143,1036.288319,8438.347739
2563.320309,-536.266849,370.102971,8364.327145
2563.320638,-1302.362347,-518.144159,9030.512492
2563.320967,-3064.381992,-2812.782580,11769.274478
2563.321296,-1915.238745,-1036.288319,10807.006753
2563.321625,-1991.848295,-0.000000,10807.006753
2563.321954,-2145.067394,-1850.514855,11399.171507
2563.322284,-1225.752797,-1406.391290,10362.883188
2563.322613,-689.485948,1258.350101,10362.883188
2563.322942,-766.095498,1258.350101,9030.512492
2563.323271,1685.410096,-1036.288319,9770.718434
2563.323600,3064.381992,-0.000000,6439.791695
2563.323929,5132.839837,2220.617826,6735.874072
2563.324258,3217.601092,370.102971,5773.606348
2563.324587,2987.772442,222.061783,7698.141797
2563.324916,1149.143247,-0.000000,8290.306550
2563.325245,-536.266849,370.102971,8586.388927
2563.325574,-1838.629195,-2294.638420,10955.047942
2563.325904,-2757.943793,-2516.700203,11177.109724
2563.326233,-1915.238745,-2368.659014,11547.212695
2563.326562,-1991.848295,-444.123565,10881.027347
2563.326891,-995.924147,-1110.308913,10658.965565
2563.327220,-1072.533697,-1184.329507,11103.089130
2563.327549,-536.266849,1258.350101,9770.718434
2563.327878,766.095498,518.144159,10732.986159
2563.328207,2604.724693,-814.226536,6513.812290
2563.328536,5745.716235,1924.535449,6735.874072
2563.328865,4903.011187,1924.535449,4515.256246
2563.329194,4213.525239,1850.514855,6661.853478
2563.329524,2911.162892,296.082377,8364.327145
2563.329853,1608.800546,-296.082377,7328.038826
2563.330182,76.609550,-1036.288319,9178.553681
2563.330511,-2374.896044,-1998.556043,10362.883188
2563.330840,-2451.505594,-2886.803174,11325.150913
2563.331169,-2374.896044,-1628.453072,11473.192101
2563.331498,-766.095498,-296.082377,10214.842000
2563.331827,-689.485948,-1554.432478,10066.800811
2563.332156,-459.657299,518.144159,9992.780217
2563.332485,76.609550,1554.432478,10658.965565
2563.332814,1915.238745,592.164754,8364.327145
2563.333144,4979.620737,1628.453072,5551.544565
2563.333473,5822.325785,2146.597232,5551.544565
2563.333802,4443.353888,1998.556043,5329.482782
2563.334131,4443.353888,962.267725,7994.224174
2563.334460,1991.848295,-74.020594,7402.059420
2563.334789,76.609550,-592.164754,8364.327145
2563.335118,-2681.334243,-2072.576638,10881.027347
2563.335447,-3217.601092,-2590.720797,11843.295072
2563.335776,-3753.867940,-2886.803174,11177.109724
2563.336105,-2451.505594,-1110.308913,11473.192101
2563.336434,-1991.848295,-1702.473667,10807.006753
2563.336764,-2221.676944,-1258.350101,11621.233289
2563.337093,-1532.190996,666.185348,11547.212695
2563.337422,-1762.019645,1258.350101,8512.368333
2563.337751,536.266849,-1110.308913,10584.944971
2563.338080,2298.286494,518.144159,7105.977043
2563.338409,4673.182538,2220.617826,5625.565159
2563.338738,4136.915689,1184.329507,6143.709319
2563.339067,2834.553343,814.226536,5403.503377
2563.339396,2757.943793,518.144159,8956.491898
2563.339725,-612.876398,-0.000000,7772.162391
2563.340054,-1532.190996,-814.226536,9548.656652
2563.340384,-3447.429741,-2960.823768,11991.336260
2563.340713,-2681.334243,-1850.514855,9622.677246
2563.341042,-2604.724693,-1184.329507,11103.089130
2563.341371,-1532.190996,-1702.473667,11103.089130
2563.341700,-1455.581446,-1184.329507,10288.862594
2563.342029,-995.924147,1036.288319,10807.006753
2563.342358,-459.657299,1480.411884,8142.265362
2563.342687,0.000000,-962.267725,9622.677246
2563.343016,2451.505594,-1184.329507,7402.059420
2563.343345,4136.915689,3182.885551,5477.523971
2563.343674,3294.210641,-222.061783,5995.668130
2563.344004,2451.505594,518.144159,6661.853478
2563.344333,1915.238745,-0.000000,8586.388927
2563.344662,-459.657299,888.247130,7698.141797
2563.344991,-995.924147,-814.226536,9030.512492
2563.345320,-2145.067394,-2294.638420,10658.965565
2563.345649,-2298.286494,-1628.453072,10881.027347
2563.345978,-2221.676944,74.020594,11103.089130
2563.346307,-1685.410096,-1036.288319,10658.965565
2563.346636,-1378.971896,-1924.535449,11399.171507
2563.346965,-1149.143247,444.123565,10140.821405
2563.347295,-1302.362347,1406.391290,9104.533087
2563.347624,383.047749,-1850.514855,9992.780217
2563.347953,2757.943793,-592.164754,7550.100608
2563.348282,4290.134789,2664.741391,6735.874072
2563.348611,3907.087040,666.185348,5773.606348
2563.348940,2757.943793,518.144159,7105.977043
2563.349269,1915.238745,148.041188,8438.347739
2563.349598,383.047749,518.144159,7994.224174
2563.349927,-1455.581446,-1554.432478,10214.842000
2563.350256,-2451.505594,-2590.720797,11843.295072
2563.350585,-1378.971896,-2294.638420,11399.171507
2563.350915,-1455.581446,-518.144159,10584.944971
2563.351244,-306.438199,-740.205942,10881.027347
2563.351573,-766.095498,-888.247130,10510.924376
2563.351902,0.000000,888.247130,10436.903782
2563.352231,2221.676944,814.226536,10510.924376
2563.352560,3600.648841,814.226536,5181.441594
2563.352889,6511.811733,296.082377,7328.038826
2563.353218,4673.182538,2886.803174,4367.215058
2563.353547,5132.839837,1702.473667,6291.750507
2563.353876,2374.896044,518.144159,7105.977043
2563.354205,1762.019645,814.226536,7031.956449
2563.354535,-536.266849,-1110.308913,9474.636058
2563.354864,-2757.943793,-1406.391290,10510.924376
2563.355193,-2451.505594,-3627.009116,12065.356855
2563.355522,-3064.381992,-2072.576638,10881.027347
2563.355851,-1149.143247,-1184.329507,11177.109724
2563.356180,-2374.896044,-1702.473667,11473.192101
2563.356509,-1302.362347,-296.082377,11177.109724
2563.356838,-1225.752797,1406.391290,9400.615463
2563.357167,-995.924147,-814.226536,9548.656652
2563.357496,1685.410096,-888.247130,9844.739029
2563.357825,2681.334243,1850.514855,6143.709319
2563.358155,4903.011187,1258.350101,6661.853478
2563.358484,3140.991542,962.267725,4885.359217
2563.358813,3294.210641,1628.453072,7402.059420
2563.359142,1072.533697,-74.020594,9030.512492
2563.359471,-842.705048,740.205942,8734.430116
2563.359800,-1608.800546,-1850.514855,11473.192101
2563.360129,-3217.601092,-2368.659014,11621.233289
2563.360458,-2987.772442,-1554.432478,10732.986159
2563.360787,-2451.505594,-1110.308913,12065.356855
2563.361116,-1302.362347,-1184.329507,10436.903782
2563.361445,-1072.533697,-296.082377,10807.006753
2563.361775,-1149.143247,1850.514855,9252.574275
2563.362104,1225.752797,962.267725,10510.924376
2563.362433,2604.724693,-666.185348,6735.874072
2563.362762,5362.668486,2072.576638,6735.874072
2563.363091,3907.087040,2664.741391,4367.215058
2563.363420,3677.258390,666.185348,6735.874072
2563.363749,1302.362347,592.164754,7846.182985
2563.364078,689.485948,-370.102971,8364.327145
2563.364408,-1302.362347,-1628.453072,9770.718434
2563.364737,-3524.039291,-2294.638420,11177.109724
2563.365066,-2911.162892,-2220.617826,10362.883188
2563.365395,-2987.772442,-1258.350101,11029.068536
2563.365724,-2068.457845,-222.061783,10881.027347
2563.366053,-1685.410096,-1776.494261,11325.150913
2563.366383,-1149.143247,-0.000000,11325.150913
2563.366712,-1302.362347,2368.659014,8216.285956
2563.367041,1532.190996,-1184.329507,11399.171507
2563.367370,2298.286494,518.144159,5847.626942
2563.367699,5132.839837,2368.659014,7105.977043
2563.368029,4290.134789,1184.329507,5403.503377
2563.368358,3753.867940,1480.411884,6143.709319
2563.368687,2145.067394,370.102971,8512.368333
2563.369016,153.219100,296.082377,8364.327145
2563.369345,-1149.143247,-1702.473667,10066.800811
2563.369675,-3294.210641,-2664.741391,11695.253884
2563.370004,-2681.334243,-2664.741391,12139.377449
2563.370333,-3600.648841,-1332.370696,11251.130318
2563.370662,-1532.190996,-666.185348,11473.192101
2563.370991,-1915.238745,-1406.391290,11251.130318
2563.371321,-766.095498,962.267725,10288.862594
2563.371650,0.000000,1850.514855,9844.739029
2563.371979,2757.943793,-888.247130,8216.285956
2563.372308,5132.839837,1480.411884,5255.462188
2563.372637,5745.716235,2886.803174,5255.462188
2563.372966,3294.210641,1554.432478,5107.421000
2563.373296,3753.867940,592.164754,8068.244768
2563.373625,1455.581446,296.082377,7402.059420
2563.373954,306.438199,-0.000000,7994.224174
2563.374283,-2987.772442,-2368.659014,11843.295072
2563.374612,-3217.601092,-2664.741391,11695.253884
2563.374942,-3524.039291,-2812.782580,11843.295072
2563.375271,-2987.772442,-962.267725,11621.233289
2563.375600,-1991.848295,-1628.453072,10658.965565
2563.375929,-1532.190996,-1702.473667,11843.295072
2563.376258,-1455.581446,888.247130,9770.718434
2563.376588,612.876398,-0.000000,9696.697840
2563.376917,3064.381992,-222.061783,7994.224174
2563.377246,6281.983084,2294.638420,5403.503377
2563.377575,6052.154434,2294.638420,3849.070898
2563.377904,4366.744339,1924.535449,5403.503377
2563.378234,4519.963438,962.267725,7772.162391
2563.378563,1915.238745,296.082377,7179.997637
2563.378892,459.657299,-444.123565,8734.430116
2563.379221,-1685.410096,-2220.617826,11325.150913
2563.379550,-3524.039291,-3849.070898,12287.418637
2563.379879,-3447.429741,-2294.638420,12139.377449
2563.380209,-2451.505594,-1110.308913,11917.315666
2563.380538,-2451.505594,-2220.617826,10881.027347
2563.380867,-1685.410096,-222.061783,11251.130318
2563.381196,-229.828649,1480.411884,10288.862594
2563.381525,995.924147,518.144159,10362.883188
2563.381855,4290.134789,592.164754,6439.791695
2563.382184,6052.154434,2664.741391,6217.729913
2563.382513,5056.230287,2738.761985,3775.050304
2563.382842,4826.401637,2146.597232,6365.771101
2563.383171,2681.334243,-0.000000,7328.038826
2563.383501,995.924147,592.164754,8068.244768
2563.383830,-1225.752797,-1628.453072,9770.718434
2563.384159,-3370.820191,-2072.576638,11251.130318
2563.384488,-3370.820191,-3034.844362,11917.315666
2563.384817,-4366.744339,-1480.411884,10510.924376
2563.385147,-2451.505594,-1110.308913,12509.480420
2563.385476,-3064.381992,-1850.514855,11399.171507
2563.385805,-1608.800546,-0.000000,10881.027347
2563.386134,-1225.752797,1776.494261,9326.594869
2563.386463,229.828649,-296.082377,9104.533087
2563.386792,2681.334243,-0.000000,8438.347739
2563.387122,4673.182538,2146.597232,4589.276840
2563.387451,5132.839837,1776.494261,5403.503377
2563.387780,3294.210641,1332.370696,5921.647536
2563.388109,4290.134789,518.144159,7624.121203
2563.388438,995.924147,148.041188,7994.224174
2563.388768,-306.438199,-518.144159,9104.533087
2563.389097,-2528.115143,-1850.514855,11177.109724
2563.389426,-2987.772442,-2812.782580,12361.439231
2563.389755,-2911.162892,-1184.329507,11325.150913
2563.390084,-2834.553343,-1036.288319,11769.274478
2563.390414,-2451.505594,-1850.514855,11399.171507
2563.390743,-1302.362347,370.102971,10510.924376
2563.391072,-919.314598,1480.411884,9992.780217
2563.391401,995.924147,148.041188,8660.409521
2563.391730,2834.553343,222.061783,6365.771101
2563.392060,4826.401637,2368.659014,6587.832884
2563.392389,3753.867940,1702.473667,4663.297435
2563.392718,3600.648841,-444.123565,7402.059420
2563.393047,1149.143247,-222.061783,7698.141797
2563.393376,153.219100,-0.000000,8290.306550
2563.393706,-2221.676944,-1258.350101,9770.718434
2563.394035,-3217.601092,-1406.391290,10955.047942
2563.394364,-3370.820191,-2516.700203,11843.295072
2563.394693,-3524.039291,-888.247130,10881.027347
2563.395022,-2451.505594,-1480.411884,11547.212695
2563.395351,-2451.505594,-1850.514855,10584.944971
2563.395681,-1532.190996,-148.041188,10584.944971
2563.396010,-306.438199,962.267725,9696.697840
2563.396339,2298.286494,666.185348,6735.874072
2563.396668,4366.744339,1184.329507,6365.771101
2563.396997,5132.839837,2368.659014,4293.194464
2563.397327,4903.011187,1702.473667,5625.565159
2563.397656,3600.648841,814.226536,6217.729913
2563.397985,1915.238745,-296.082377,7328.038826
2563.398314,0.000000,-1110.308913,8660.409521
2563.398643,-2374.896044,-1998.556043,10362.883188
2563.398973,-3600.648841,-3108.864956,11917.315666
2563.399302,-3447.429741,-3108.864956,12065.356855
2563.399631,-2298.286494,-1110.308913,11547.212695
2563.399960,-1608.800546,-2220.617826,11473.192101
2563.400289,-1762.019645,-518.144159,10658.965565
2563.400619,-383.047749,666.185348,10658.965565
2563.400948,1608.800546,666.185348,9178.553681
2563.401277,3830.477490,2146.597232,6069.688724
2563.401606,6588.421283,1332.370696,6217.729913
2563.401935,5286.058936,2516.700203,3330.926739
2563.402264,5975.544884,2146.597232,6143.709319
2563.402594,3907.087040,962.267725,7105.977043
2563.402923,1225.752797,-666.185348,7031.956449
2563.403252,-995.924147,-1924.535449,10362.883188
2563.403581,-3140.991542,-2072.576638,11177.109724
2563.403910,-3447.429741,-3108.864956,12805.562797
2563.404240,-3830.477490,-1924.535449,10362.883188
2563.404569,-2451.505594,-1258.350101,13471.748144
2563.404898,-2604.724693,-1776.494261,11621.233289
2563.405227,-995.924147,740.205942,11399.171507
2563.405556,-2145.067394,1554.432478,10510.924376
2563.405886,-306.438199,-0.000000,9030.512492
2563.406215,3677.258390,592.164754,9400.615463
2563.406544,4596.572988,2368.659014,4145.153275
2563.406873,6358.592633,1184.329507,5625.565159
2563.407202,3830.477490,1332.370696,4737.318029
2563.407532,4749.792088,962.267725,7105.977043
2563.407861,1991.848295,1184.329507,6957.935855
2563.408190,1302.362347,222.061783,7550.100608
2563.408519,-1838.629195,-1480.411884,10658.965565
2563.408848,-2681.334243,-2368.659014,11621.233289
2563.409177,-2451.505594,-1480.411884,12435.459826
2563.409507,-3677.258390,-888.247130,10510.924376
2563.409836,-1302.362347,-2220.617826,12361.439231
2563.410165,-2528.115143,-296.082377,10732.986159
2563.410494,-1072.533697,2220.617826,9770.718434
2563.410823,-1302.362347,1110.308913,8364.327145
2563.411153,2681.334243,-1184.329507,9918.759623
2563.411482,3217.601092,1480.411884,5477.523971
2563.411811,4596.572988,1184.329507,6143.709319
2563.412140,3140.991542,-444.123565,6513.812290
2563.412469,2528.115143,296.082377,6587.832884
2563.412799,1685.410096,-0.000000,7402.059420
2563.413128,-689.485948,-148.041188,7994.224174
2563.413457,-1149.143247,-1110.308913,10214.842000
2563.413786,-2604.724693,-1332.370696,11547.212695
2563.414115,-2681.334243,-2442.679609,11843.295072
2563.414445,-2681.334243,-444.123565,10732.986159
2563.414774,-1532.190996,-1998.556043,11473.192101
2563.415103,-2604.724693,-1036.288319,10955.047942
2563.415432,-1608.800546,2220.617826,10288.862594
2563.415761,-536.266849,1332.370696,9622.677246
2563.416091,1838.629195,-666.185348,7550.100608
2563.416420,3830.477490,888.247130,6291.750507
2563.416749,3140.991542,1850.514855,5551.544565
2563.417078,2681.334243,-296.082377,6809.894666
2563.417407,1915.238745,-148.041188,7550.100608
2563.417736,229.828649,-222.061783,7920.203579
2563.418066,-612.876398,-1110.308913,9474.636058
2563.418395,-2374.896044,-1480.411884,10288.862594
2563.418724,-1991.848295,-2146.597232,11251.130318
2563.419053,-1915.238745,-1776.494261,10955.047942
2563.419382,-1762.019645,-74.020594,12065.356855
2563.419712,-1915.238745,-962.267725,10732.986159
2563.420041,-995.924147,962.267725,10362.883188
2563.420370,-995.924147,1480.411884,9844.739029
2563.420699,1608.800546,740.205942,9400.615463
2563.421028,3140.991542,592.164754,5477.523971
2563.421358,4903.011187,888.247130,6957.935855
2563.421687,2604.724693,740.205942,5181.441594
2563.422016,3983.696590,592.164754,7994.224174
2563.422345,1455.581446,-296.082377,7328.038826
2563.422674,612.876398,-222.061783,7624.121203
2563.423004,-1532.190996,-1332.370696,10807.006753
2563.423333,-2528.115143,-2072.576638,10362.883188
2563.423662,-2451.505594,-3256.906145,12287.418637
2563.423991,-2451.505594,-666.185348,11325.150913
2563.424320,-1302.362347,-1480.411884,11325.150913
2563.424649,-1991.848295,-592.164754,11769.274478
2563.424979,-842.705048,1776.494261,9770.718434
2563.425308,-383.047749,1110.308913,11843.295072
2563.425637,2374.896044,-444.123565,8216.285956
2563.425966,5286.058936,2220.617826,6883.915261
2563.426295,5362.668486,962.267725,5255.462188
2563.426625,4596.572988,1406.391290,5181.441594
2563.426954,3677.258390,-0.000000,7920.203579
2563.427283,2068.457845,370.102971,7105.977043
2563.427612,459.657299,-592.164754,8216.285956
2563.427941,-1378.971896,-1998.556043,11103.089130
2563.428271,-3064.381992,-1850.514855,10881.027347
2563.428600,-2528.115143,-3256.906145,13323.706956
2563.428929,-2451.505594,-222.061783,9992.780217
2563.429258,-995.924147,-1332.370696,11621.233289
2563.429587,-1532.190996,-296.082377,11473.192101
2563.429917,-842.705048,2960.823768,9548.656652
2563.430246,1685.410096,-0.000000,11695.253884
2563.430575,2757.943793,1406.391290,4811.338623
2563.430904,6511.811733,1702.473667,7105.977043
2563.431233,4519.963438,2220.617826,4071.132681
2563.431562,5286.058936,1554.432478,6069.688724
2563.431892,2911.162892,-0.000000,7105.977043
2563.432221,689.485948,-222.061783,6661.853478
2563.432550,-459.657299,-2220.617826,9770.718434
2563.432879,-2451.505594,-1924.535449,9992.780217
2563.433208,-3600.648841,-3182.885551,12361.439231
2563.433538,-4136.915689,-2368.659014,11103.089130
2563.433867,-2528.115143,-962.267725,11621.233289
2563.434196,-2757.943793,-2294.638420,12509.480420
2563.434525,-1225.752797,-0.000000,11473.192101
2563.434854,-1072.533697,2146.597232,9252.574275
2563.435184,1378.971896,-0.000000,11251.130318
2563.435513,3294.210641,1110.308913,6587.832884
2563.435842,5592.497135,1924.535449,7031.956449
2563.436171,5362.668486,1924.535449,4589.276840
2563.436500,4749.792088,962.267725,5255.462188
2563.436830,3294.210641,814.226536,7105.977043
2563.437159,536.266849,-148.041188,7328.038826
2563.437488,-1072.533697,-1406.391290,10066.800811
2563.437817,-3140.991542,-2294.638420,11325.150913
2563.438146,-3677.258390,-2960.823768,11621.233289
2563.438476,-3753.867940,-2368.659014,11251.130318
2563.438805,-3064.381992,-888.247130,12509.480420
2563.439134,-2834.553343,-1924.535449,11473.192101
2563.439463,-1378.971896,222.061783,11621.233289
2563.439792,-1455.581446,2368.659014,8956.491898
2563.440121,0.000000,-0.000000,9178.553681
2563.440451,3064.381992,-0.000000,7846.182985
2563.440780,4366.744339,2812.782580,4663.297435
2563.441109,5209.449386,1110.308913,5033.400406
2563.441438,3294.210641,518.144159,5329.482782
2563.441767,2987.772442,222.061783,7402.059420
2563.442097,76.609550,-0.000000,8734.430116
2563.442426,-2298.286494,-592.164754,9400.615463
2563.442755,-3140.991542,-2442.679609,11917.315666
2563.443084,-3370.820191,-1702.473667,9992.780217
2563.443413,-3830.477490,-1258.350101,11029.068536
2563.443743,-3677.258390,-1258.350101,12953.603985
2563.444072,-2834.553343,-2146.597232,11251.130318
2563.444401,-1762.019645,-518.144159,11473.192101
2563.444730,-1225.752797,1850.514855,9474.636058
2563.445059,153.219100,-74.020594,8290.306550
2563.445389,3140.991542,-1258.350101,8734.430116
2563.445718,4903.011187,2886.803174,4367.215058
2563.446047,5669.106685,1110.308913,6069.688724
2563.446376,4290.134789,814.226536,5403.503377
2563.446705,3753.867940,814.226536,7550.100608
2563.447034,842.705048,444.123565,8586.388927
2563.447364,-612.876398,-518.144159,9178.553681
2563.447693,-2298.286494,-3182.885551,11695.253884
2563.448022,-2911.162892,-2886.803174,12731.542202
2563.448351,-2834.553343,-1184.329507,11399.171507
2563.448680,-1762.019645,-1776.494261,12287.418637
2563.449010,-1532.190996,-1776.494261,11547.212695
2563.449339,-1072.533697,1036.288319,9844.739029
2563.449668,0.000000,1628.453072,10436.903782
2563.449997,2298.286494,518.144159,8142.265362
2563.450326,4979.620737,592.164754,5847.626942
2563.450656,5822.325785,1850.514855,5773.606348
2563.450985,4290.134789,962.267725,4737.318029
2563.451314,4290.134789,-222.061783,7772.162391
2563.451643,1532.190996,-0.000000,7328.038826
2563.451972,919.314598,148.041188,8734.430116
2563.452302,-1915.238745,-1480.411884,10658.965565
2563.452631,-2834.553343,-1776.494261,10807.006753
2563.452960,-2757.943793,-2664.741391,12065.356855
2563.453289,-2451.505594,-0.000000,10955.047942
2563.453618,-1378.971896,-1776.494261,11029.068536
2563.453947,-1225.752797,-1184.329507,11399.171507
2563.454277,-689.485948,1480.411884,9696.697840
2563.454606,-612.876398,1702.473667,9178.553681
2563.454935,2757.943793,-444.123565,7698.141797
2563.455264,4596.572988,1480.411884,4885.359217
2563.455593,5822.325785,1480.411884,5773.606348
2563.455923,4213.525239,1184.329507,4737.318029
2563.456252,3140.991542,814.226536,7772.162391
2563.456581,2834.553343,-74.020594,7772.162391
2563.456910,383.047749,-0.000000,7846.182985
2563.457239,-1762.019645,-2072.576638,11325.150913
2563.457569,-3447.429741,-2516.700203,11325.150913
2563.457898,-2911.162892,-2664.741391,12731.542202
2563.458227,-2911.162892,-592.164754,11473.192101
2563.458556,-1608.800546,-1110.308913,10955.047942
2563.458885,-1838.629195,-148.041188,10658.965565
2563.459215,-612.876398,1850.514855,9770.718434
2563.459544,-612.876398,1036.288319,9178.553681
2563.459873,1532.190996,-740.205942,8438.347739
2563.460202,3830.477490,666.185348,5181.441594
2563.460531,4213.525239,592.164754,5107.421000
2563.460861,3064.381992,-0.000000,6069.688724
2563.461190,1762.019645,-740.205942,8142.265362
2563.461519,0.000000,-666.185348,7772.162391
2563.461848,-1225.752797,-814.226536,9474.636058
2563.462177,-2374.896044,-666.185348,11177.109724
2563.462506,-2528.115143,-1628.453072,10584.944971
2563.462836,-2451.505594,-296.082377,11251.130318
2563.463165,-2374.896044,-0.000000,11103.089130
2563.463494,-1608.800546,-444.123565,11029.068536
2563.463823,-1455.581446,222.061783,11029.068536
2563.464152,-1838.629195,2072.576638,9400.615463
2563.464481,-612.876398,962.267725,8734.430116
2563.464810,1072.533697,-1776.494261,8808.450710
2563.465139,2834.553343,222.061783,6069.688724
2563.465468,3983.696590,-0.000000,6439.791695
2563.465797,3140.991542,-740.205942,6587.832884
2563.466126,2451.505594,-0.000000,7254.018232
2563.466456,1762.019645,592.164754,8290.306550
2563.466785,0.000000,444.123565,8882.471304
2563.467114,-1072.533697,-444.123565,9918.759623
2563.467443,-1608.800546,-1924.535449,11547.212695
2563.467772,-1991.848295,-592.164754,12065.356855
2563.468101,-1149.143247,-370.102971,11251.130318
2563.468430,-766.095498,-962.267725,10955.047942
2563.468759,-1532.190996,-222.061783,11621.233289
2563.469088,153.219100,592.164754,10807.006753
2563.469417,1532.190996,1776.494261,7105.977043
2563.469746,3983.696590,-0.000000,6661.853478
2563.470076,4903.011187,-0.000000,5329.482782
2563.470405,4519.963438,1332.370696,6291.750507
2563.470734,1838.629195,-888.247130,7254.018232
2563.471063,842.705048,-1184.329507,8068.244768
2563.471392,-153.219100,-1036.288319,9326.594869
2563.471721,-1838.629195,-962.267725,10140.821405
2563.472050,-2528.115143,-1924.535449,11325.150913
2563.472379,-2221.676944,-1702.473667,11473.192101
2563.472708,-1608.800546,-518.144159,11029.068536
2563.473037,-689.485948,-1036.288319,10955.047942
2563.473367,-1685.410096,-370.102971,10510.924376
2563.473696,-1532.190996,666.185348,10288.862594
2563.474025,-229.828649,-74.020594,11177.109724
2563.474354,2298.286494,888.247130,6365.771101
2563.474683,5209.449386,1258.350101,5995.668130
2563.475012,5439.278036,592.164754,4071.132681
2563.475341,4903.011187,1258.350101,5995.668130
2563.475670,3677.258390,592.164754,7476.080014
2563.475999,1915.238745,222.061783,6883.915261
2563.476328,229.828649,-444.123565,8586.388927
2563.476657,-1991.848295,-1036.288319,10362.883188
2563.476987,-3753.867940,-2294.638420,10881.027347
2563.477316,-2911.162892,-3404.947333,13027.624579
2563.477645,-1608.800546,-888.247130,10140.821405
2563.477974,-766.095498,-1776.494261,11769.274478
2563.478303,-1762.019645,-0.000000,11251.130318
2563.478632,-1225.752797,2072.576638,9474.636058
2563.478961,612.876398,296.082377,11177.109724
2563.479290,1991.848295,666.185348,5847.626942
2563.479619,4903.011187,1480.411884,6587.832884
2563.479948,4826.401637,740.205942,5033.400406
2563.480277,4366.744339,148.041188,6735.874072
2563.480607,2374.896044,-370.102971,7698.141797
2563.480936,383.047749,-74.020594,7402.059420
2563.481265,-919.314598,-1406.391290,9992.780217
2563.481594,-3064.381992,-1110.308913,11621.233289
2563.481923,-3447.429741,-2072.576638,12139.377449
2563.482252,-3907.087040,-2516.700203,11991.336260
2563.482581,-2068.457845,-0.000000,11325.150913
2563.482910,-1608.800546,-1258.350101,11621.233289
2563.483239,-1762.019645,-0.000000,10807.006753
2563.483568,-1915.238745,2294.638420,9474.636058
2563.483897,-383.047749,370.102971,11177.109724
2563.484227,2451.505594,-296.082377,7698.141797
2563.484556,4826.401637,1554.432478,5625.565159
2563.484885,4749.792088,962.267725,5477.523971
2563.485214,4136.915689,814.226536,5477.523971
2563.485543,3294.210641,1184.329507,7846.182985
2563.485872,1455.581446,888.247130,7105.977043
2563.486201,612.876398,-222.061783,9104.533087
2563.486530,-2145.067394,-1332.370696,11399.171507
2563.486859,-3370.820191,-2368.659014,10955.047942
2563.487188,-2681.334243,-2294.638420,11917.315666
2563.487517,-2757.943793,-0.000000,10584.944971
2563.487847,-766.095498,-1628.453072,11473.192101
2563.488176,-2068.457845,-74.020594,10584.944971
2563.488505,-1072.533697,2294.638420,9548.656652
2563.488834,1378.971896,-74.020594,10584.944971
2563.489163,2911.162892,-0.000000,5551.544565
2563.489492,5898.935335,1480.411884,6809.894666
2563.489821,4290.134789,1776.494261,4441.235652
2563.490150,4136.915689,-0.000000,6587.832884
2563.490479,1762.019645,296.082377,7624.121203
2563.490808,766.095498,-370.102971,7624.121203
2563.491137,-919.314598,-1184.329507,10140.821405
2563.491467,-3447.429741,-1184.329507,11029.068536
2563.491796,-2834.553343,-2516.700203,13027.624579
2563.492125,-3600.648841,-1776.494261,11769.274478
2563.492454,-2068.457845,-814.226536,11547.212695
2563.492783,-2451.505594,-2368.659014,11917.315666
2563.493112,-1685.410096,-0.000000,10658.965565
2563.493441,-1838.629195,1924.535449,8956.491898
2563.493770,-229.828649,-1036.288319,10658.965565
2563.494099,3064.381992,-740.205942,6365.771101
2563.494428,5056.230287,1628.453072,6365.771101
2563.494758,4596.572988,1184.329507,4219.173869
2563.495087,3753.867940,296.082377,5995.668130
2563.495416,2987.772442,592.164754,7846.182985
2563.495745,919.314598,1110.308913,6661.853478
2563.496074,153.219100,-814.226536,10066.800811
2563.496403,-2298.286494,-1924.535449,10807.006753
2563.496732,-2987.772442,-2664.741391,11843.295072
2563.497061,-2681.334243,-2220.617826,11843.295072
2563.497390,-1608.800546,-296.082377,10658.965565
2563.497719,-1378.971896,-1776.494261,11399.171507
2563.498048,-995.924147,-0.000000,10362.883188
2563.498378,76.609550,1184.329507,10288.862594
2563.498707,1608.800546,-444.123565,7846.182985
2563.499036,5132.839837,814.226536,5329.482782
2563.499365,5592.497135,2146.597232,4737.318029
2563.499694,4213.525239,1406.391290,4959.379811
2563.500023,3830.477490,-148.041188,7624.121203
2563.500352,1608.800546,444.123565,7550.100608
2563.500681,919.314598,-0.000000,8660.409521
2563.501010,-2221.676944,-1406.391290,10732.986159
2563.501339,-3064.381992,-2072.576638,11103.089130
2563.501668,-2604.724693,-2812.782580,12509.480420
2563.501998,-2604.724693,-222.061783,10288.862594
2563.502327,-1608.800546,-1480.411884,12065.356855
2563.502656,-1838.629195,-1184.329507,11473.192101
2563.502985,-1608.800546,1850.514855,9918.759623
2563.503314,-459.657299,444.123565,10584.944971
2563.503643,2374.896044,-444.123565,7624.121203
2563.503972,4519.963438,1406.391290,6217.729913
2563.504301,5362.668486,1110.308913,5699.585753
2563.504630,4213.525239,1628.453072,5107.421000
2563.504959,3753.867940,222.061783,8290.306550
2563.505288,995.924147,962.267725,7328.038826
2563.505618,689.485948,-0.000000,8882.471304
2563.505947,-1915.238745,-1702.473667,11399.171507
2563.506276,-3140.991542,-1628.453072,10955.047942
2563.506605,-2604.724693,-2368.659014,12361.439231
2563.506934,-2911.162892,222.061783,10362.883188
2563.507263,-1302.362347,-1998.556043,12139.377449
2563.507592,-1378.971896,-592.164754,10584.944971
2563.507921,-995.924147,2220.617826,9326.594869
2563.508250,-153.219100,370.102971,10214.842000
2563.508579,2298.286494,-666.185348,6661.853478
2563.508908,4979.620737,1480.411884,5921.647536
2563.509238,4979.620737,1776.494261,4071.132681
2563.509567,3983.696590,-0.000000,5921.647536
2563.509896,2528.115143,-370.102971,7402.059420
2563.510225,1149.143247,296.082377,7402.059420
2563.510554,-995.924147,-1036.288319,9844.739029
2563.510883,-2834.553343,-1110.308913,11103.089130
2563.511212,-3524.039291,-2072.576638,11473.192101
2563.511541,-3600.648841,-1628.453072,11399.171507
2563.511870,-2911.162892,-222.061783,11251.130318
2563.512199,-2528.115143,-2812.782580,11695.253884
2563.512529,-2528.115143,-888.247130,11103.089130
2563.512858,-1532.190996,1406.391290,9622.677246
2563.513187,-842.705048,222.061783,8586.388927
2563.513516,2604.724693,-1628.453072,8438.347739
2563.513845,3524.039291,2146.597232,5255.462188
2563.514174,4673.182538,1332.370696,5255.462188
2563.514503,3830.477490,370.102971,5625.565159
2563.514832,3217.601092,666.185348,7550.100608
2563.515161,1149.143247,814.226536,7550.100608
2563.515490,-995.924147,-74.020594,8956.491898
2563.515819,-2834.553343,-1776.494261,11547.212695
2563.516149,-3370.820191,-2368.659014,12065.356855
2563.516478,-3370.820191,-1776.494261,12139.377449
2563.516807,-2528.115143,-518.144159,11547.212695
2563.517136,-1378.971896,-2516.700203,11547.212695
2563.517465,-1838.629195,-370.102971,10881.027347
2563.517794,-995.924147,1554.432478,9474.636058
2563.518123,0.000000,518.144159,9474.636058
2563.518452,2987.772442,-1110.308913,7179.997637
2563.518781,5362.668486,1924.535449,5551.544565
2563.519110,4979.620737,2368.659014,4885.359217
2563.519439,3677.258390,-0.000000,6217.729913
2563.519769,2528.115143,148.041188,8142.265362
2563.520098,536.266849,1110.308913,7846.182985
2563.520427,-1072.533697,-222.061783,9474.636058
2563.520756,-3140.991542,-1850.514855,11843.295072
2563.521085,-2757.943793,-2220.617826,11621.233289
2563.521414,-2374.896044,-1332.370696,11103.089130
2563.521743,-1532.190996,-888.247130,11843.295072
2563.522072,-2221.676944,-1258.350101,11251.130318
2563.522401,-766.095498,-814.226536,11547.212695
2563.522730,-1915.238745,2072.576638,8068.244768
2563.523059,689.485948,-592.164754,10510.924376
2563.523389,2757.943793,-1554.432478,7105.977043
2563.523718,5056.230287,1554.432478,5921.647536
2563.524047,4519.963438,222.061783,5551.544565
2563.524376,4290.134789,814.226536,5995.668130
2563.524705,3524.039291,518.144159,7920.203579
2563.525034,2221.676944,1924.535449,7105.977043
2563.525363,919.314598,740.205942,9474.636058
2563.525692,-1302.362347,-1036.288319,10807.006753
2563.526021,-2604.724693,-2516.700203,11843.295072
2563.526350,-1838.629195,-2072.576638,13841.851115
2563.526679,-1685.410096,-740.205942,10732.986159
2563.527009,-919.314598,-2220.617826,11769.274478
2563.527338,-2068.457845,-0.000000,10436.903782
2563.527667,0.000000,1406.391290,10955.047942
2563.527996,1532.190996,-0.000000,7624.121203
2563.528325,4596.572988,518.144159,5921.647536
2563.528654,5132.839837,1850.514855,5403.503377
2563.528983,4443.353888,1702.473667,5551.544565
2563.529312,2987.772442,-0.000000,7328.038826
2563.529641,2221.676944,-0.000000,7476.080014
2563.529970,1225.752797,-148.041188,8068.244768
2563.530299,-1072.533697,-148.041188,9918.759623
2563.530629,-2374.896044,-1184.329507,11177.109724
2563.530958,-2221.676944,-2146.597232,12879.583391
2563.531287,-2451.505594,-1036.288319,10584.944971
2563.531616,-1838.629195,-962.267725,11695.253884
2563.531945,-2604.724693,-1332.370696,11103.089130
2563.532274,-1838.629195,888.247130,9770.718434
2563.532603,-1608.800546,1258.350101,8734.430116
2563.532932,1762.019645,-0.000000,9474.636058
2563.533261,2757.943793,74.020594,5033.400406
2563.533590,4903.011187,74.020594,6587.832884
2563.533920,3217.601092,518.144159,4737.318029
2563.534249,2987.772442,-74.020594,7105.977043
2563.534578,919.314598,-518.144159,7550.100608
2563.534907,-306.438199,-222.061783,8142.265362
2563.535236,-1225.752797,-1776.494261,11251.130318
2563.535565,-2911.162892,-1406.391290,10807.006753
2563.535894,-2757.943793,-2738.761985,12361.439231
2563.536223,-2757.943793,-888.247130,11621.233289
2563.536552,-1302.362347,-0.000000,10807.006753
2563.536881,-1378.971896,-518.144159,11103.089130
2563.537210,-1302.362347,1110.308913,9696.697840
2563.537540,612.876398,1480.411884,10584.944971
2563.537869,1149.143247,592.164754,5847.626942
2563.538198,4366.744339,888.247130,6217.729913
2563.538527,3524.039291,1110.308913,4737.318029
2563.538856,3447.429741,296.082377,6069.688724
2563.539185,1072.533697,-962.267725,7772.162391
2563.539514,-383.047749,-518.144159,7994.224174
2563.539843,-1378.971896,-1776.494261,10510.924376
2563.540172,-3447.429741,-1258.350101,10807.006753
2563.540501,-3294.210641,-2072.576638,11991.336260
2563.540830,-3064.381992,-1258.350101,11325.150913
2563.541160,-1685.410096,-0.000000,11769.274478
2563.541489,-2298.286494,-666.185348,11843.295072
2563.541818,-766.095498,888.247130,10955.047942
2563.542147,-1762.019645,1998.556043,9104.533087
2563.542476,766.095498,-666.185348,10881.027347
2563.542805,2068.457845,370.102971,6217.729913
2563.543134,4596.572988,1480.411884,6291.750507
2563.543463,3600.648841,1184.329507,4589.276840
2563.543792,3600.648841,1110.308913,5847.626942
2563.544121,2374.896044,-222.061783,7846.182985
2563.544450,0.000000,296.082377,7179.997637
2563.544780,-459.657299,-1406.391290,10362.883188
2563.545109,-3294.210641,-1628.453072,11103.089130
2563.545438,-4060.306139,-2590.720797,12065.356855
2563.545767,-4366.744339,-1036.288319,11843.295072
2563.546096,-2757.943793,-0.000000,10510.924376
2563.546425,-2604.724693,-1110.308913,11547.212695
2563.546754,-2451.505594,592.164754,10510.924376
2563.547083,-1915.238745,2590.720797,8364.327145
2563.547412,-2451.505594,-0.000000,7994.224174
2563.547741,-459.657299,-370.102971,9178.553681
2563.548070,-536.266849,666.185348,6809.894666
2563.548400,459.657299,-0.000000,6291.750507
2563.548729,-306.438199,-1406.391290,6291.750507
2563.549058,-919.314598,-1702.473667,7846.182985
2563.549387,-2145.067394,-1480.411884,8956.491898
2563.549716,-3830.477490,-1258.350101,9696.697840
2563.550045,-3217.601092,-2220.617826,11473.192101
2563.550374,-3524.039291,-148.041188,10288.862594
2563.550703,-3677.258390,888.247130,9844.739029
2563.551032,-4290.134789,888.247130,10658.965565
2563.551361,-3753.867940,370.102971,11103.089130
2563.551690,-2451.505594,-222.061783,10658.965565
2563.552020,-1532.190996,518.144159,8882.471304
2563.552349,-1225.752797,1036.288319,6883.915261
2563.552678,-1991.848295,-1110.308913,9030.512492
2563.553007,229.828649,-74.020594,7772.162391
2563.553336,919.314598,1924.535449,4367.215058
2563.553665,1838.629195,444.123565,6513.812290
2563.553994,689.485948,444.123565,5773.606348
2563.554323,-383.047749,148.041188,8438.347739
2563.554652,-4060.306139,222.061783,8882.471304
2563.554981,-3983.696590,-1702.473667,9474.636058
2563.555311,-3907.087040,-2072.576638,11251.130318
2563.555640,-5286.058936,888.247130,9252.574275
2563.555969,-7048.078582,-1628.453072,12509.480420
2563.556298,-8197.221829,-2220.617826,13027.624579
2563.556627,-5515.887586,-1332.370696,12065.356855
2563.556956,-5209.449386,-1406.391290,11251.130318
2563.557285,-4060.306139,296.082377,8512.368333
2563.557614,-2221.676944,-0.000000,8364.327145
2563.557943,-1072.533697,222.061783,6143.709319
2563.558272,-1149.143247,1554.432478,6883.915261
2563.558601,-306.438199,-1480.411884,9918.759623
2563.558931,919.314598,-518.144159,7179.997637
2563.559260,1225.752797,370.102971,7402.059420
2563.559589,229.828649,370.102971,6883.915261
2563.559918,-1225.752797,-0.000000,8586.388927
2563.560247,-1915.238745,-296.082377,10881.027347
2563.560576,-2221.676944,1332.370696,10362.883188
2563.560905,-1685.410096,370.102971,11325.150913
2563.561234,-3217.601092,296.082377,9400.615463
2563.561563,-3983.696590,-74.020594,9992.780217
2563.561892,-4749.792088,888.247130,9696.697840
2563.562221,-4290.134789,296.082377,8660.409521
2563.562551,-3677.258390,-1036.288319,8586.388927
2563.562880,-3370.820191,-666.185348,8734.430116
2563.563209,-2834.553343,-1480.411884,8142.265362
2563.563538,-3370.820191,-3108.864956,7920.203579
2563.563867,-3217.601092,-3256.906145,9474.636058
2563.564196,-2374.896044,-1924.535449,9474.636058
2563.564525,-2145.067394,-666.185348,9400.615463
2563.564854,-1915.238745,-518.144159,9548.656652
2563.565183,-1838.629195,666.185348,9696.697840
2563.565512,-1838.629195,1406.391290,9548.656652
2563.565842,-2145.067394,1480.411884,9622.677246
2563.566171,-1608.800546,1776.494261,9400.615463
2563.566500,-2221.676944,1850.514855,9400.615463
2563.566829,-2221.676944,2146.597232,8734.430116
2563.567158,-2145.067394,1258.350101,7105.977043
2563.567487,-2374.896044,740.205942,7698.141797
2563.567816,-1378.971896,-370.102971,6957.935855
2563.568146,-1302.362347,-518.144159,6809.894666
2563.568475,-2145.067394,-1406.391290,7476.080014
2563.568804,-2681.334243,-1110.308913,8512.368333
2563.569133,-3447.429741,-444.123565,9178.553681
2563.569462,-3677.258390,888.247130,8142.265362
2563.569791,-3064.381992,1480.411884,9178.553681
2563.570120,-3294.210641,1628.453072,9326.594869
2563.570449,-2834.553343,2072.576638,10584.944971
2563.570779,-3064.381992,2368.659014,10436.903782
2563.571108,-4366.744339,888.247130,10955.047942
2563.571437,-4060.306139,814.226536,11695.253884
2563.571766,-3064.381992,666.185348,10658.965565
2563.572095,-2451.505594,-148.041188,9696.697840
2563.572424,-842.705048,-222.061783,9992.780217
2563.572753,-459.657299,1036.288319,7920.203579
2563.573082,-1225.752797,592.164754,8882.471304
2563.573412,383.047749,296.082377,9992.780217
2563.573741,1532.190996,1702.473667,7698.141797
2563.574070,3064.381992,3923.091493,7031.956449
2563.574399,2604.724693,4811.338623,5699.585753
2563.574728,2834.553343,4737.318029,7476.080014
2563.575057,2374.896044,5847.626942,9104.533087
2563.575386,2528.115143,4737.318029,8734.430116
2563.575715,1225.752797,3256.906145,10214.842000
2563.576045,-995.924147,2812.782580,10658.965565
2563.576374,-1455.581446,2146.597232,9992.780217
2563.576703,-2221.676944,1480.411884,10881.027347
2563.577032,-1838.629195,2220.617826,10584.944971
2563.577361,153.219100,666.185348,10214.842000
2563.577690,153.219100,1850.514855,8808.450710
2563.578019,842.705048,3108.864956,8142.265362
2563.578349,1991.848295,2516.700203,7624.121203
2563.578678,1608.800546,3552.988522,5773.606348
2563.579007,1915.238745,5477.523971,7105.977043
2563.579336,1915.238745,4441.235652,7994.224174
2563.579665,229.828649,3701.029710,8512.368333
2563.579994,-1685.410096,3478.967927,9548.656652
2563.580323,-3447.429741,2590.720797,9770.718434
2563.580652,-3140.991542,1184.329507,11251.130318
2563.580982,-3447.429741,1702.473667,10510.924376
2563.581311,-2604.724693,2368.659014,11029.068536
2563.581640,-2528.115143,3182.885551,9918.759623
2563.581969,-2451.505594,2442.679609,10362.883188
2563.582298,-2681.334243,2368.659014,10807.006753
2563.582627,-1225.752797,2442.679609,9326.594869
2563.582956,-383.047749,2960.823768,8068.244768
2563.583285,-766.095498,2516.700203,9400.615463
2563.583615,-459.657299,888.247130,10955.047942
2563.583944,2145.067394,2886.803174,8808.450710
2563.584273,3753.867940,5181.441594,7105.977043
2563.584602,3830.477490,4515.256246,6587.832884
2563.584931,3217.601092,5625.565159,6661.853478
2563.585260,3447.429741,7624.121203,8734.430116
2563.585589,2221.676944,6365.771101,7254.018232
2563.585919,1838.629195,6587.832884,7328.038826
2563.586248,536.266849,5255.462188,8882.471304
2563.586577,459.657299,5773.606348,7476.080014
2563.586906,-1149.143247,2590.720797,9844.739029
2563.587235,-1532.190996,-1110.308913,10955.047942
2563.587564,-1378.971896,888.247130,9548.656652
2563.587893,-1685.410096,-1332.370696,10732.986159
2563.588222,-1532.190996,888.247130,9326.594869
2563.588552,-842.705048,2812.782580,11695.253884
2563.588881,1685.410096,3256.906145,8364.327145
2563.589210,2528.115143,5995.668130,7920.203579
2563.589539,3370.820191,4737.318029,7254.018232
2563.589868,4060.306139,4737.318029,7920.203579
2563.590197,3524.039291,5403.503377,7105.977043
2563.590526,2604.724693,4515.256246,6513.812290
2563.590855,689.485948,2220.617826,8956.491898
2563.591185,-1762.019645,666.185348,12361.439231
2563.591514,-2604.724693,-444.123565,11177.109724
2563.591843,-3447.429741,1406.391290,12657.521608
2563.592172,-2604.724693,-1110.308913,10140.821405
2563.592501,-2374.896044,1554.432478,9918.759623
2563.592830,-1838.629195,296.082377,9992.780217
2563.593159,-1991.848295,962.267725,9622.677246
2563.593488,-1455.581446,1480.411884,9326.594869
2563.593818,-229.828649,-0.000000,9992.780217
2563.594147,2451.505594,222.061783,11695.253884
2563.594476,2681.334243,3552.988522,5255.462188
2563.594805,4443.353888,814.226536,8660.409521
2563.595134,3140.991542,1924.535449,6661.853478
2563.595463,5209.449386,4441.235652,7105.977043
2563.595792,3370.820191,3108.864956,7105.977043
2563.596122,2068.457845,3775.050304,7179.997637
2563.596451,229.828649,-296.082377,10658.965565
2563.596780,-2681.334243,-518.144159,10066.800811
2563.597109,-4673.182538,-2146.597232,12065.356855
2563.597438,-3677.258390,-3627.009116,12583.501014
2563.597767,-2451.505594,-1406.391290,8364.327145
2563.598096,-1915.238745,-1776.494261,10955.047942
2563.598425,-1838.629195,592.164754,9030.512492
2563.598755,-536.266849,1776.494261,8512.368333
2563.599084,-383.047749,-1258.350101,8068.244768
2563.599413,3140.991542,814.226536,11843.295072
2563.599742,2987.772442,2886.803174,5921.647536
