#time,accel_x,accel_y,accel_z
2422.112809,383.047749,-370.102971,8734.430116
2422.113138,612.876398,-0.000000,9104.533087
2422.113467,383.047749,-518.144159,8956.491898
2422.113796,153.219100,-74.020594,9030.512492
2422.114125,0.000000,-0.000000,9178.553681
2422.114454,153.219100,-74.020594,9104.533087
2422.114782,306.438199,-148.041188,9104.533087
2422.115111,459.657299,-222.061783,9030.512492
2422.115440,536.266849,-444.123565,9474.636058
2422.115769,612.876398,-0.000000,9474.636058
2422.116098,306.438199,-0.000000,9104.533087
2422.116427,383.047749,-222.061783,9178.553681
2422.116756,383.047749,-222.061783,9400.615463
2422.117085,383.047749,-74.020594,9178.553681
2422.117414,536.266849,-74.020594,9474.636058
2422.117742,612.876398,-222.061783,8882.471304
2422.118071,383.047749,-0.000000,9474.636058
2422.118400,153.219100,-148.041188,9178.553681
2422.118729,306.438199,-222.061783,9030.512492
2422.119058,306.438199,-0.000000,8956.491898
2422.119387,383.047749,-0.000000,9104.533087
2422.119716,689.485948,-222.061783,8882.471304
2422.120045,842.705048,-222.061783,8734.430116
2422.120373,689.485948,-518.144159,9104.533087
2422.120702,383.047749,-148.041188,9030.512492
2422.121031,229.828649,-74.020594,8882.471304
2422.121360,229.828649,-0.000000,9104.533087
2422.121689,76.609550,-0.000000,9030.512492
2422.122018,306.438199,222.061783,9030.512492
2422.122347,689.485948,-296.082377,9178.553681
2422.122676,383.047749,-0.000000,9252.574275
2422.123005,536.266849,-148.041188,8882.471304
2422.123333,383.047749,-222.061783,8808.450710
2422.123662,306.438199,-74.020594,9030.512492
2422.123991,153.219100,-0.000000,8882.471304
2422.124320,689.485948,-148.041188,9104.533087
2422.124649,383.047749,-518.144159,8660.409521
2422.124978,459.657299,-444.123565,9252.574275
2422.125307,229.828649,-148.041188,9178.553681
2422.125636,229.828649,-148.041188,9178.553681
2422.125965,459.657299,-148.041188,9178.553681
2422.126293,383.047749,-296.082377,9104.533087
2422.126622,306.438199,-444.123565,8882.471304
2422.126951,459.657299,-296.082377,9104.533087
2422.127280,919.314598,-444.123565,9326.594869
2422.127609,383.047749,-296.082377,9178.553681
2422.127938,306.438199,-148.041188,9326.594869
2422.128267,306.438199,-370.102971,9252.574275
2422.128596,383.047749,-148.041188,9178.553681
2422.128925,459.657299,-74.020594,9178.553681
2422.129253,536.266849,-592.164754,9178.553681
2422.129582,383.047749,-0.000000,9252.574275
2422.129911,459.657299,-74.020594,9252.574275
2422.130240,612.876398,-0.000000,8956.491898
2422.130569,229.828649,-74.020594,9104.533087
2422.130898,229.828649,-148.041188,8956.491898
2422.131227,689.485948,-0.000000,8734.430116
2422.131556,459.657299,-0.000000,9030.512492
2422.131885,459.657299,-0.000000,8586.388927
2422.132213,229.828649,-148.041188,9104.533087
2422.132542,306.438199,-0.000000,9030.512492
2422.132871,306.438199,-0.000000,9104.533087
2422.133200,459.657299,-0.000000,8956.491898
2422.133529,76.609550,-370.102971,9178.553681
2422.133858,383.047749,-0.000000,9104.533087
2422.134187,383.047749,-222.061783,8734.430116
2422.134516,536.266849,148.041188,8882.471304
2422.134844,306.438199,-0.000000,9104.533087
2422.135173,153.219100,-74.020594,8734.430116
2422.135502,76.609550,-148.041188,9104.533087
2422.135831,536.266849,-296.082377,9104.533087
2422.136160,229.828649,-222.061783,8808.450710
2422.136489,383.047749,-370.102971,8882.471304
2422.136818,229.828649,-222.061783,9474.636058
2422.137147,306.438199,-74.020594,9400.615463
2422.137476,153.219100,-148.041188,9326.594869
2422.137804,306.438199,-222.061783,9104.533087
2422.138133,229.828649,-444.123565,9178.553681
2422.138462,689.485948,-222.061783,9400.615463
2422.138791,306.438199,-296.082377,9548.656652
2422.139120,536.266849,-740.205942,9326.594869
2422.139449,229.828649,-148.041188,9326.594869
2422.139778,306.438199,-74.020594,9326.594869
2422.140107,229.828649,-74.020594,9104.533087
2422.140436,766.095498,-222.061783,9030.512492
2422.140764,536.266849,-222.061783,9178.553681
2422.141093,383.047749,-296.082377,9030.512492
2422.141422,383.047749,-74.020594,9178.553681
2422.141751,229.828649,-74.020594,9104.533087
2422.142080,383.047749,-0.000000,8956.491898
2422.142409,306.438199,-0.000000,9030.512492
2422.142738,995.924147,-518.144159,9474.636058
2422.143067,1225.752797,-1036.288319,9474.636058
2422.143396,1532.190996,-518.144159,9474.636058
2422.143724,1685.410096,-740.205942,9030.512492
2422.144053,2068.457845,-444.123565,8882.471304
2422.144382,2681.334243,370.102971,8808.450710
2422.144711,3370.820191,296.082377,8808.450710
2422.145040,4290.134789,-0.000000,8586.388927
2422.145369,3830.477490,370.102971,8364.327145
2422.145698,3217.601092,592.164754,8216.285956
2422.146027,2987.772442,148.041188,8586.388927
2422.146356,3064.381992,-370.102971,9400.615463
2422.146684,2451.505594,-518.144159,8808.450710
2422.147013,1532.190996,-740.205942,9622.677246
2422.147342,1762.019645,-2294.638420,9992.780217
2422.147671,2145.067394,-962.267725,9474.636058
2422.148000,2604.724693,-518.144159,9474.636058
2422.148329,2757.943793,-1702.473667,10066.800811
2422.148658,3064.381992,-222.061783,9030.512492
2422.148987,4519.963438,814.226536,9474.636058
2422.149315,5439.278036,666.185348,7105.977043
2422.149644,4213.525239,962.267725,8586.388927
2422.149973,4903.011187,962.267725,8956.491898
2422.150302,4903.011187,962.267725,7105.977043
2422.150631,3983.696590,962.267725,9104.533087
2422.150960,3064.381992,-0.000000,8808.450710
2422.151289,2145.067394,222.061783,9252.574275
2422.151618,995.924147,-888.247130,9696.697840
2422.151947,1762.019645,-1184.329507,9918.759623
2422.152275,1302.362347,-740.205942,9844.739029
2422.152604,153.219100,-1036.288319,9548.656652
2422.152933,1915.238745,-370.102971,9696.697840
2422.153262,1685.410096,-0.000000,9696.697840
2422.153591,2451.505594,1184.329507,7624.121203
2422.153920,1991.848295,370.102971,9474.636058
2422.154249,2528.115143,1332.370696,8290.306550
2422.154578,2681.334243,296.082377,8438.347739
2422.154907,1838.629195,444.123565,8142.265362
2422.155235,1838.629195,296.082377,9474.636058
2422.155564,612.876398,-740.205942,8734.430116
2422.155893,229.828649,-1258.350101,9178.553681
2422.156222,0.000000,-1184.329507,9770.718434
2422.156551,-229.828649,-2146.597232,9696.697840
2422.156880,-1532.190996,-1702.473667,9400.615463
2422.157209,0.000000,-1850.514855,10214.842000
2422.157538,-153.219100,-888.247130,9252.574275
2422.157867,383.047749,-814.226536,9474.636058
2422.158195,459.657299,-444.123565,8956.491898
2422.158524,1149.143247,296.082377,8956.491898
2422.158853,1302.362347,1036.288319,8734.430116
2422.159182,2145.067394,1036.288319,7846.182985
2422.159511,2145.067394,1628.453072,8068.244768
2422.159840,1838.629195,1998.556043,8660.409521
2422.160169,1455.581446,1258.350101,7846.182985
2422.160498,689.485948,1110.308913,8512.368333
2422.160827,306.438199,222.061783,8808.450710
2422.161155,0.000000,-814.226536,8882.471304
2422.161484,-842.705048,-1258.350101,9400.615463
2422.161813,-1302.362347,-1036.288319,9696.697840
2422.162142,-995.924147,-1110.308913,10140.821405
2422.162471,-995.924147,-1036.288319,9400.615463
2422.162800,-383.047749,-1110.308913,9770.718434
2422.163129,-306.438199,-740.205942,9992.780217
2422.163458,612.876398,-740.205942,10214.842000
2422.163786,1072.533697,-814.226536,9548.656652
2422.164115,2221.676944,148.041188,9622.677246
2422.164444,2528.115143,666.185348,9178.553681
2422.164773,3217.601092,1554.432478,8290.306550
2422.165102,3370.820191,1850.514855,8068.244768
2422.165431,3064.381992,2220.617826,7698.141797
2422.165760,2528.115143,1850.514855,7698.141797
2422.166089,1685.410096,1776.494261,7994.224174
2422.166418,536.266849,1332.370696,8438.347739
2422.166746,-689.485948,296.082377,8808.450710
2422.167075,-1532.190996,-888.247130,9400.615463
2422.167404,-1225.752797,-1554.432478,9474.636058
2422.167733,-1685.410096,-1258.350101,8882.471304
2422.168062,-1378.971896,-1628.453072,9992.780217
2422.168391,-1762.019645,-1924.535449,9844.739029
2422.168720,-1455.581446,-1184.329507,10288.862594
2422.169049,-1072.533697,-1776.494261,10732.986159
2422.169378,-919.314598,-1702.473667,9918.759623
2422.169706,-842.705048,-1998.556043,10732.986159
2422.170035,-229.828649,-1110.308913,9992.780217
2422.170364,306.438199,-888.247130,9622.677246
2422.170693,0.000000,-592.164754,10140.821405
2422.171022,536.266849,-222.061783,9474.636058
2422.171351,1532.190996,-0.000000,9178.553681
2422.171680,2451.505594,2072.576638,6069.688724
2422.172009,3140.991542,1850.514855,6587.832884
2422.172338,2374.896044,2220.617826,6661.853478
2422.172666,2374.896044,1998.556043,6883.915261
2422.172995,1225.752797,666.185348,7254.018232
2422.173324,536.266849,-518.144159,7994.224174
2422.173653,-919.314598,-740.205942,9030.512492
2422.173982,-1915.238745,-1924.535449,9918.759623
2422.174311,-1685.410096,-2368.659014,10140.821405
2422.174640,-1302.362347,-1850.514855,10066.800811
2422.174969,0.000000,-1332.370696,9918.759623
2422.175298,-919.314598,-740.205942,10288.862594
2422.175626,-383.047749,-888.247130,10658.965565
2422.175955,-536.266849,-888.247130,9918.759623
2422.176284,229.828649,-592.164754,9622.677246
2422.176613,153.219100,-444.123565,9918.759623
2422.176942,229.828649,-296.082377,9770.718434
2422.177271,2068.457845,-0.000000,9696.697840
2422.177600,2528.115143,1480.411884,7624.121203
2422.177929,3677.258390,2220.617826,6587.832884
2422.178257,3217.601092,2738.761985,6439.791695
2422.178586,2911.162892,2738.761985,6957.935855
2422.178915,1915.238745,2590.720797,7476.080014
2422.179244,995.924147,1110.308913,7920.203579
2422.179573,0.000000,-0.000000,8734.430116
2422.179902,-1455.581446,-1110.308913,9918.759623
2422.180231,-1838.629195,-1998.556043,10584.944971
2422.180560,-1378.971896,-2442.679609,9918.759623
2422.180889,-1225.752797,-2294.638420,10288.862594
2422.181217,-842.705048,-2368.659014,10955.047942
2422.181546,-1225.752797,-1406.391290,10732.986159
2422.181875,-766.095498,-1406.391290,10584.944971
2422.182204,-306.438199,-1406.391290,10510.924376
2422.182533,76.609550,-888.247130,9622.677246
2422.182862,-689.485948,-1184.329507,9918.759623
2422.183191,-689.485948,-592.164754,10214.842000
2422.183520,459.657299,-444.123565,9400.615463
2422.183849,1915.238745,814.226536,8586.388927
2422.184177,2374.896044,1258.350101,6957.935855
2422.184506,2681.334243,2220.617826,6809.894666
2422.184835,2221.676944,2516.700203,6883.915261
2422.185164,1762.019645,1998.556043,7550.100608
2422.185493,1455.581446,1110.308913,7772.162391
2422.185822,612.876398,592.164754,8364.327145
2422.186151,-383.047749,-740.205942,8808.450710
2422.186480,-1378.971896,-1406.391290,9548.656652
2422.186809,-1302.362347,-1628.453072,10140.821405
2422.187137,-995.924147,-1776.494261,9918.759623
2422.187466,229.828649,-1332.370696,9992.780217
2422.187795,306.438199,-518.144159,10140.821405
2422.188124,0.000000,-740.205942,10362.883188
2422.188453,0.000000,-666.185348,9696.697840
2422.188782,306.438199,-518.144159,9844.739029
2422.189111,766.095498,-296.082377,9474.636058
2422.189440,995.924147,296.082377,9474.636058
2422.189769,2451.505594,740.205942,8438.347739
2422.190098,2987.772442,962.267725,7550.100608
2422.190426,3524.039291,1998.556043,6809.894666
2422.190755,3600.648841,2220.617826,6809.894666
2422.191084,2528.115143,2220.617826,7105.977043
2422.191413,1608.800546,1480.411884,7772.162391
2422.191742,153.219100,222.061783,8290.306550
2422.192071,-2068.457845,-518.144159,9474.636058
2422.192400,-1762.019645,-1776.494261,9992.780217
2422.192729,-1762.019645,-1776.494261,9252.574275
2422.193058,-1762.019645,-1924.535449,9992.780217
2422.193387,-1762.019645,-1998.556043,9696.697840
2422.193716,-2145.067394,-2146.597232,10881.027347
2422.194044,-2374.896044,-2368.659014,11399.171507
2422.194373,-1915.238745,-2368.659014,10510.924376
2422.194702,-1072.533697,-2368.659014,10955.047942
2422.195031,-306.438199,-888.247130,10658.965565
2422.195360,153.219100,-666.185348,9844.739029
2422.195689,-383.047749,-0.000000,9252.574275
2422.196018,153.219100,-0.000000,9918.759623
2422.196347,536.266849,370.102971,8734.430116
2422.196676,919.314598,962.267725,8290.306550
2422.197005,3294.210641,1628.453072,7624.121203
2422.197334,2451.505594,1776.494261,6291.750507
2422.197662,1838.629195,2146.597232,7328.038826
2422.197991,1225.752797,1924.535449,6735.874072
2422.198320,1378.971896,962.267725,7624.121203
2422.198649,0.000000,148.041188,7920.203579
2422.198978,-689.485948,-888.247130,8438.347739
2422.199307,-1302.362347,-1554.432478,10140.821405
2422.199636,-842.705048,-1776.494261,9178.553681
2422.199965,-383.047749,-1776.494261,10066.800811
2422.200294,-459.657299,-1258.350101,10436.903782
2422.200623,0.000000,-666.185348,9992.780217
2422.200952,0.000000,-1406.391290,10436.903782
2422.201280,76.609550,-1036.288319,10214.842000
2422.201609,536.266849,-148.041188,9918.759623
2422.201938,306.438199,-296.082377,9992.780217
2422.202267,689.485948,-0.000000,9844.739029
2422.202596,1838.629195,518.144159,9548.656652
2422.202925,2987.772442,2220.617826,7031.956449
2422.203254,3830.477490,1924.535449,6883.915261
2422.203583,3677.258390,1924.535449,6217.729913
2422.203912,3370.820191,2220.617826,6661.853478
2422.204241,1915.238745,1332.370696,7624.121203
2422.204570,536.266849,888.247130,8290.306550
2422.204898,-536.266849,-888.247130,9400.615463
2422.205227,-1302.362347,-1998.556043,10214.842000
2422.205556,-1378.971896,-2442.679609,9622.677246
2422.205885,-1072.533697,-2590.720797,10584.944971
2422.206214,-995.924147,-2442.679609,10140.821405
2422.206543,-1149.143247,-2072.576638,10807.006753
2422.206872,-995.924147,-1924.535449,11325.150913
2422.207201,-766.095498,-1110.308913,10658.965565
2422.207530,0.000000,-814.226536,10584.944971
2422.207859,-306.438199,-0.000000,9992.780217
2422.208188,-459.657299,-148.041188,9548.656652
2422.208516,-459.657299,-74.020594,9622.677246
2422.208845,383.047749,-0.000000,8956.491898
2422.209174,0.000000,296.082377,8364.327145
2422.209503,536.266849,592.164754,7772.162391
2422.209832,153.219100,666.185348,7550.100608
2422.210161,383.047749,666.185348,7476.080014
2422.210490,689.485948,1406.391290,7402.059420
2422.210819,1072.533697,814.226536,6957.935855
2422.211148,995.924147,518.144159,7698.141797
2422.211477,919.314598,370.102971,7402.059420
2422.211805,153.219100,-0.000000,8364.327145
2422.212134,0.000000,-518.144159,9178.553681
2422.212463,0.000000,-962.267725,9548.656652
2422.212792,-306.438199,-1258.350101,9844.739029
2422.213121,76.609550,-740.205942,9770.718434
2422.213450,153.219100,-1110.308913,9622.677246
2422.213779,383.047749,-1258.350101,9918.759623
2422.214108,383.047749,-666.185348,9770.718434
2422.214437,459.657299,-222.061783,9844.739029
2422.214766,1225.752797,-0.000000,9474.636058
2422.215095,1991.848295,592.164754,9030.512492
2422.215423,1915.238745,1480.411884,8512.368333
2422.215752,2528.115143,1554.432478,7624.121203
2422.216081,2911.162892,1628.453072,7254.018232
2422.216410,2528.115143,1850.514855,7550.100608
2422.216739,1762.019645,1184.329507,7624.121203
2422.217068,459.657299,-0.000000,8142.265362
2422.217397,-306.438199,-814.226536,9326.594869
2422.217726,-1685.410096,-1998.556043,10214.842000
2422.218055,-1302.362347,-1998.556043,9696.697840
2422.218384,-1532.190996,-1850.514855,9844.739029
2422.218713,-1225.752797,-2146.597232,10362.883188
2422.219041,-1302.362347,-1702.473667,10584.944971
2422.219370,-1149.143247,-1924.535449,11103.089130
2422.219699,-383.047749,-1850.514855,10362.883188
2422.220028,229.828649,-1332.370696,10510.924376
2422.220357,0.000000,-222.061783,10436.903782
2422.220686,0.000000,444.123565,9622.677246
2422.221015,0.000000,370.102971,9696.697840
2422.221344,0.000000,518.144159,9104.533087
2422.221673,536.266849,962.267725,8290.306550
2422.222002,612.876398,592.164754,8142.265362
2422.222331,1378.971896,1406.391290,7105.977043
2422.222659,1455.581446,1406.391290,6957.935855
2422.222988,1762.019645,1480.411884,6957.935855
2422.223317,612.876398,1184.329507,7105.977043
2422.223646,229.828649,296.082377,7994.224174
2422.223975,-459.657299,-518.144159,8068.244768
2422.224304,-842.705048,-1110.308913,9104.533087
2422.224633,-689.485948,-1850.514855,9770.718434
2422.224962,-459.657299,-1184.329507,9474.636058
2422.225291,-306.438199,-1702.473667,10362.883188
2422.225620,-229.828649,-1406.391290,10288.862594
2422.225949,76.609550,-740.205942,10510.924376
2422.226277,229.828649,-888.247130,10436.903782
2422.226606,383.047749,-296.082377,9992.780217
2422.226935,153.219100,-444.123565,9992.780217
2422.227264,612.876398,-148.041188,9622.677246
2422.227593,2145.067394,592.164754,9104.533087
2422.227922,2757.943793,962.267725,7994.224174
2422.228251,3064.381992,1924.535449,7031.956449
2422.228580,2834.553343,2368.659014,6587.832884
2422.228909,2911.162892,2146.597232,7105.977043
2422.229238,1915.238745,1258.350101,7105.977043
2422.229567,995.924147,296.082377,7698.141797
2422.229895,0.000000,-1036.288319,8734.430116
2422.230224,-1225.752797,-1628.453072,9474.636058
2422.230553,-1149.143247,-1998.556043,9992.780217
2422.230882,-1532.190996,-2220.617826,9992.780217
2422.231211,-995.924147,-2368.659014,10288.862594
2422.231540,-1378.971896,-1702.473667,9918.759623
2422.231869,-689.485948,-1480.411884,10658.965565
2422.232198,-995.924147,-1258.350101,10807.006753
2422.232527,-306.438199,-814.226536,10066.800811
2422.232856,383.047749,-666.185348,10362.883188
2422.233185,-153.219100,518.144159,9178.553681
2422.233513,0.000000,-148.041188,9548.656652
2422.233842,0.000000,222.061783,8956.491898
2422.234171,459.657299,370.102971,8660.409521
2422.234500,842.705048,-0.000000,8512.368333
2422.234829,1072.533697,1184.329507,6957.935855
2422.235158,1915.238745,1628.453072,7254.018232
2422.235487,1532.190996,1110.308913,7476.080014
2422.235816,995.924147,1702.473667,6809.894666
2422.236145,842.705048,518.144159,8216.285956
2422.236474,0.000000,-0.000000,8512.368333
2422.236802,-536.266849,-370.102971,9252.574275
2422.237131,-1225.752797,-1332.370696,10214.842000
2422.237460,-842.705048,-1406.391290,10584.944971
2422.237789,-306.438199,-962.267725,10436.903782
2422.238118,-306.438199,-592.164754,10362.883188
2422.238447,0.000000,-444.123565,10214.842000
2422.238776,229.828649,-518.144159,10436.903782
2422.239105,612.876398,-518.144159,10362.883188
2422.239434,1072.533697,-518.144159,9770.718434
2422.239763,1685.410096,296.082377,10066.800811
2422.240092,2298.286494,1110.308913,8142.265362
2422.240420,2911.162892,1480.411884,7920.203579
2422.240749,3370.820191,2146.597232,7105.977043
2422.241078,3370.820191,2442.679609,7105.977043
2422.241407,2834.553343,1924.535449,6809.894666
2422.241736,1762.019645,1258.350101,7772.162391
2422.242065,1072.533697,148.041188,8142.265362
2422.242394,-766.095498,-592.164754,8660.409521
2422.242723,-1685.410096,-1850.514855,10362.883188
2422.243052,-1762.019645,-2146.597232,9622.677246
2422.243381,-1608.800546,-2368.659014,9622.677246
2422.243710,-2298.286494,-2368.659014,10510.924376
2422.244038,0.000000,-1776.494261,10510.924376
2422.244367,-1072.533697,-2072.576638,10436.903782
2422.244696,-612.876398,-1776.494261,10214.842000
2422.245025,0.000000,-1184.329507,10214.842000
2422.245354,76.609550,-370.102971,9696.697840
2422.245683,-383.047749,-0.000000,9104.533087
2422.246012,0.000000,-148.041188,10214.842000
2422.246341,76.609550,518.144159,9178.553681
2422.246670,612.876398,-0.000000,8808.450710
2422.246999,1225.752797,962.267725,7994.224174
2422.247328,1838.629195,2146.597232,6513.812290
2422.247656,1915.238745,1924.535449,6883.915261
2422.247985,1149.143247,2072.576638,6809.894666
2422.248314,995.924147,1480.411884,7328.038826
2422.248643,306.438199,148.041188,7698.141797
2422.248972,-612.876398,-1036.288319,8808.450710
2422.249301,-1149.143247,-1702.473667,9844.739029
2422.249630,-1608.800546,-1998.556043,9474.636058
2422.249959,-1149.143247,-1776.494261,9992.780217
2422.250288,-995.924147,-1628.453072,10732.986159
2422.250617,-383.047749,-592.164754,10732.986159
2422.250946,-536.266849,-888.247130,10881.027347
2422.251274,-306.438199,-814.226536,10584.944971
2422.251603,536.266849,-444.123565,9622.677246
2422.251932,306.438199,-0.000000,10140.821405
2422.252261,153.219100,-0.000000,9992.780217
2422.252590,1608.800546,-0.000000,9770.718434
2422.252919,2604.724693,1184.329507,7994.224174
2422.253248,3677.258390,1776.494261,7105.977043
2422.253577,3294.210641,2220.617826,6143.709319
2422.253906,3217.601092,2442.679609,6143.709319
2422.254235,2451.505594,1850.514855,6661.853478
2422.254564,1302.362347,1036.288319,7105.977043
2422.254892,0.000000,-222.061783,8290.306550
2422.255221,-1378.971896,-1850.514855,9474.636058
2422.255550,-3064.381992,-2516.700203,10807.006753
2422.255879,-1838.629195,-2516.700203,10066.800811
2422.256208,-1149.143247,-2590.720797,10510.924376
2422.256537,-1072.533697,-2294.638420,10436.903782
2422.256866,-612.876398,-1258.350101,10510.924376
2422.257195,-536.266849,-1184.329507,10881.027347
2422.257524,-612.876398,-962.267725,9844.739029
2422.257853,383.047749,-296.082377,9844.739029
2422.258181,-306.438199,444.123565,9696.697840
2422.258510,-383.047749,-74.020594,10066.800811
2422.258839,-459.657299,-370.102971,9474.636058
2422.259168,842.705048,-74.020594,8882.471304
2422.259497,1532.190996,666.185348,7550.100608
2422.259826,2528.115143,1480.411884,7105.977043
2422.260155,2145.067394,1998.556043,6957.935855
2422.260484,1378.971896,1850.514855,7328.038826
2422.260813,1455.581446,1332.370696,7846.182985
2422.261142,612.876398,518.144159,7698.141797
2422.261471,0.000000,-370.102971,8882.471304
2422.261799,-1072.533697,-962.267725,9622.677246
2422.262128,-1915.238745,-1776.494261,10362.883188
2422.262457,-842.705048,-2368.659014,10510.924376
2422.262786,-536.266849,-1702.473667,10288.862594
2422.263115,-306.438199,-592.164754,10584.944971
2422.263444,0.000000,-222.061783,10140.821405
2422.263773,76.609550,-148.041188,9918.759623
2422.264102,383.047749,-296.082377,9770.718434
2422.264431,1302.362347,-74.020594,9918.759623
2422.264760,1378.971896,-0.000000,9252.574275
2422.265089,2528.115143,1110.308913,7550.100608
2422.265417,2604.724693,1628.453072,7698.141797
2422.265746,3524.039291,1850.514855,7476.080014
2422.266075,2987.772442,1924.535449,6735.874072
2422.266404,1762.019645,1850.514855,7328.038826
2422.266733,1302.362347,962.267725,7624.121203
2422.267062,-229.828649,296.082377,8068.244768
2422.267391,-1302.362347,-1480.411884,8956.491898
2422.267720,-1762.019645,-2368.659014,10288.862594
2422.268049,-1915.238745,-2590.720797,9622.677246
2422.268378,-1378.971896,-2294.638420,9770.718434
2422.268707,-1225.752797,-2294.638420,9918.759623
2422.269035,-1378.971896,-1628.453072,9918.759623
2422.269364,-1072.533697,-1776.494261,10436.903782
2422.269693,-306.438199,-1850.514855,9992.780217
2422.270022,-689.485948,-1110.308913,10140.821405
2422.270351,153.219100,-888.247130,9252.574275
2422.270680,-689.485948,-296.082377,10066.800811
2422.271009,-153.219100,-666.185348,10288.862594
2422.271338,842.705048,-148.041188,9326.594869
2422.271667,1532.190996,962.267725,7846.182985
2422.271996,2757.943793,1776.494261,7254.018232
2422.272325,2068.457845,2516.700203,6957.935855
2422.272653,2374.896044,2146.597232,7846.182985
2422.272982,995.924147,1924.535449,7772.162391
2422.273311,536.266849,1258.350101,7920.203579
2422.273640,0.000000,-222.061783,8586.388927
2422.273969,-1532.190996,-888.247130,9400.615463
2422.274298,-1302.362347,-1628.453072,10584.944971
2422.274627,-842.705048,-2220.617826,9844.739029
2422.274956,-919.314598,-1628.453072,10362.883188
2422.275285,-842.705048,-962.267725,10732.986159
2422.275614,-306.438199,-518.144159,10362.883188
2422.275943,0.000000,-444.123565,10362.883188
2422.276271,383.047749,-518.144159,9696.697840
2422.276600,612.876398,-370.102971,9844.739029
2422.276929,1302.362347,-814.226536,10214.842000
2422.277258,1991.848295,-0.000000,8734.430116
2422.277587,3217.601092,1258.350101,7994.224174
2422.277916,3907.087040,1924.535449,6809.894666
2422.278245,3677.258390,2812.782580,6365.771101
2422.278574,3140.991542,2442.679609,7179.997637
2422.278903,2298.286494,2220.617826,6735.874072
2422.279232,1762.019645,740.205942,7624.121203
2422.279560,0.000000,-444.123565,8216.285956
2422.279889,-1532.190996,-1554.432478,9326.594869
2422.280218,-2221.676944,-3182.885551,10140.821405
2422.280547,-1991.848295,-2368.659014,9548.656652
2422.280876,-1378.971896,-2960.823768,10584.944971
2422.281205,-1455.581446,-2664.741391,10288.862594
2422.281534,-1302.362347,-1998.556043,10140.821405
2422.281863,-995.924147,-2442.679609,11103.089130
2422.282192,-689.485948,-1776.494261,10288.862594
2422.282521,153.219100,-444.123565,9992.780217
2422.282850,-459.657299,-444.123565,9622.677246
2422.283178,-306.438199,-740.205942,10807.006753
2422.283507,383.047749,-444.123565,10288.862594
2422.283836,1762.019645,666.185348,7920.203579
2422.284165,2528.115143,1480.411884,7105.977043
2422.284494,2834.553343,2442.679609,6513.812290
2422.284823,2681.334243,2960.823768,6883.915261
2422.285152,1532.190996,2220.617826,7550.100608
2422.285481,689.485948,1480.411884,7550.100608
2422.285810,0.000000,-0.000000,8364.327145
2422.286139,-1225.752797,-1332.370696,9252.574275
2422.286468,-1378.971896,-1850.514855,9992.780217
2422.286796,-1608.800546,-1850.514855,9696.697840
2422.287125,-995.924147,-1776.494261,10214.842000
2422.287454,-612.876398,-888.247130,10066.800811
2422.287783,-153.219100,-0.000000,10140.821405
2422.288112,-306.438199,-296.082377,10140.821405
2422.288441,612.876398,-592.164754,9696.697840
2422.288770,153.219100,-148.041188,9622.677246
2422.289099,612.876398,-666.185348,9918.759623
2422.289428,1149.143247,-518.144159,10214.842000
2422.289757,2451.505594,518.144159,8216.285956
2422.290086,3830.477490,1480.411884,7402.059420
2422.290415,3677.258390,1480.411884,6513.812290
2422.290743,3907.087040,2368.659014,6809.894666
2422.291072,2451.505594,2590.720797,7105.977043
2422.291401,2221.676944,1406.391290,7328.038826
2422.291730,153.219100,518.144159,8142.265362
2422.292059,-1225.752797,-592.164754,8956.491898
2422.292388,-2451.505594,-2294.638420,10066.800811
2422.292717,-2451.505594,-2294.638420,9918.759623
2422.293046,-2145.067394,-2368.659014,9474.636058
2422.293375,-1915.238745,-2664.741391,10584.944971
2422.293704,-1685.410096,-1776.494261,10658.965565
2422.294033,-1532.190996,-1258.350101,10732.986159
2422.294362,-1225.752797,-2072.576638,10362.883188
2422.294690,-689.485948,-962.267725,9770.718434
2422.295019,0.000000,-888.247130,10140.821405
2422.295348,-383.047749,-814.226536,9770.718434
2422.295677,-306.438199,-888.247130,11103.089130
2422.296006,383.047749,-666.185348,10066.800811
2422.296335,1685.410096,370.102971,8734.430116
2422.296664,2068.457845,1406.391290,7254.018232
2422.296993,2757.943793,2442.679609,6883.915261
2422.297322,2374.896044,2960.823768,6735.874072
2422.297651,1991.848295,2516.700203,7476.080014
2422.297980,766.095498,2146.597232,8068.244768
2422.298309,995.924147,518.144159,7772.162391
2422.298638,-536.266849,-444.123565,8734.430116
2422.298966,-1532.190996,-962.267725,9252.574275
2422.299295,-1608.800546,-1850.514855,10436.903782
2422.299624,-1225.752797,-1628.453072,10140.821405
2422.299953,-383.047749,-1036.288319,10510.924376
2422.300282,-1685.410096,-370.102971,10140.821405
2422.300611,-383.047749,-370.102971,10510.924376
2422.300940,229.828649,-666.185348,10510.924376
2422.301269,383.047749,-666.185348,9844.739029
2422.301598,306.438199,-222.061783,9770.718434
2422.301927,459.657299,-444.123565,10436.903782
2422.302256,1762.019645,-370.102971,9474.636058
2422.302585,3064.381992,1258.350101,7624.121203
2422.302913,4366.744339,1480.411884,6883.915261
2422.303242,3677.258390,2220.617826,6217.729913
2422.303571,3524.039291,2368.659014,7105.977043
2422.303900,2528.115143,2220.617826,7254.018232
2422.304229,1149.143247,962.267725,7550.100608
2422.304558,153.219100,-518.144159,9326.594869
2422.304887,-1608.800546,-1406.391290,9252.574275
2422.305216,-2145.067394,-2368.659014,10584.944971
2422.305545,-2604.724693,-2516.700203,10288.862594
2422.305874,-1532.190996,-2516.700203,10362.883188
2422.306203,-1378.971896,-2368.659014,10658.965565
2422.306532,-1225.752797,-1480.411884,10214.842000
2422.306861,-842.705048,-1406.391290,10881.027347
2422.307189,-459.657299,-1480.411884,10510.924376
2422.307518,0.000000,-666.185348,9992.780217
2422.307847,-229.828649,-444.123565,9548.656652
2422.308176,-459.657299,-296.082377,9992.780217
2422.308505,0.000000,-740.205942,9474.636058
2422.308834,1378.971896,296.082377,8290.306550
2422.309163,2068.457845,740.205942,7105.977043
2422.309492,3370.820191,1702.473667,6365.771101
2422.309821,2528.115143,2146.597232,6809.894666
2422.310150,1685.410096,2294.638420,7476.080014
2422.310479,995.924147,1332.370696,7402.059420
2422.310808,306.438199,370.102971,7920.203579
2422.311136,-536.266849,-814.226536,8586.388927
2422.311465,-1455.581446,-1406.391290,9178.553681
2422.311794,-1685.410096,-1554.432478,10066.800811
2422.312123,-1532.190996,-1628.453072,9844.739029
2422.312452,-612.876398,-1184.329507,10140.821405
2422.312781,-459.657299,-592.164754,9918.759623
2422.313110,0.000000,-370.102971,10066.800811
2422.313439,0.000000,-666.185348,10066.800811
2422.313768,383.047749,-962.267725,9696.697840
2422.314097,1149.143247,-592.164754,10288.862594
2422.314426,1685.410096,-74.020594,9104.533087
2422.314755,2604.724693,666.185348,8512.368333
2422.315084,3600.648841,1406.391290,7772.162391
2422.315412,3370.820191,2294.638420,7328.038826
2422.315741,3294.210641,2294.638420,7402.059420
2422.316070,2528.115143,2072.576638,7105.977043
2422.316399,1378.971896,1480.411884,7846.182985
2422.316728,0.000000,518.144159,8734.430116
2422.317057,-1838.629195,-1110.308913,9178.553681
2422.317386,-2221.676944,-2220.617826,10807.006753
2422.317715,-2068.457845,-1850.514855,9770.718434
2422.318044,-2068.457845,-1998.556043,9992.780217
2422.318373,-2145.067394,-1702.473667,10436.903782
2422.318702,-1378.971896,-1702.473667,10362.883188
2422.319031,-1455.581446,-1924.535449,10807.006753
2422.319359,-1225.752797,-1850.514855,10362.883188
2422.319688,-229.828649,-1480.411884,10214.842000
2422.320017,383.047749,-740.205942,10140.821405
2422.320346,-306.438199,-370.102971,9252.574275
2422.320675,0.000000,-592.164754,10807.006753
2422.321004,612.876398,-296.082377,9548.656652
2422.321333,2451.505594,888.247130,7846.182985
2422.321662,3064.381992,1924.535449,5995.668130
2422.321991,3677.258390,2960.823768,6365.771101
2422.322320,2834.553343,2738.761985,6735.874072
2422.322649,2068.457845,2664.741391,7105.977043
2422.322978,766.095498,1258.350101,7476.080014
2422.323307,-306.438199,-0.000000,8142.265362
2422.323635,-1455.581446,-1110.308913,9178.553681
2422.323964,-2221.676944,-1776.494261,9992.780217
2422.324293,-2451.505594,-1406.391290,10214.842000
2422.324622,-1225.752797,-1258.350101,10510.924376
2422.324951,-1072.533697,-1406.391290,10510.924376
2422.325280,-1072.533697,-518.144159,10510.924376
2422.325609,-306.438199,-962.267725,10732.986159
2422.325938,0.000000,-1110.308913,10140.821405
2422.326267,0.000000,-814.226536,9622.677246
2422.326596,919.314598,-148.041188,10658.965565
2422.326925,995.924147,-740.205942,11103.089130
2422.327254,2221.676944,444.123565,9104.533087
2422.327583,3983.696590,2072.576638,7772.162391
2422.327911,4290.134789,2294.638420,5847.626942
2422.328240,3830.477490,2664.741391,6291.750507
2422.328569,2911.162892,2442.679609,7105.977043
2422.328898,2757.943793,2146.597232,7254.018232
2422.329227,1225.752797,962.267725,7994.224174
2422.329556,-919.314598,-592.164754,8956.491898
2422.329885,-2221.676944,-2220.617826,10140.821405
2422.330214,-2374.896044,-2590.720797,10658.965565
2422.330543,-2145.067394,-2072.576638,9400.615463
2422.330872,-1991.848295,-2442.679609,11251.130318
2422.331201,-1915.238745,-2072.576638,10732.986159
2422.331530,-995.924147,-1036.288319,10732.986159
2422.331858,-1302.362347,-1776.494261,10584.944971
2422.332187,-459.657299,-1110.308913,9622.677246
2422.332516,229.828649,-592.164754,9548.656652
2422.332845,-536.266849,-148.041188,9252.574275
2422.333174,-229.828649,-888.247130,10288.862594
2422.333503,306.438199,-592.164754,9844.739029
2422.333832,1838.629195,296.082377,7920.203579
2422.334161,2451.505594,962.267725,6957.935855
2422.334490,2528.115143,1924.535449,6365.771101
2422.334819,2221.676944,2442.679609,6735.874072
2422.335148,1762.019645,1924.535449,7550.100608
2422.335477,459.657299,1554.432478,7550.100608
2422.335806,306.438199,-0.000000,8068.244768
2422.336134,-612.876398,-962.267725,8660.409521
2422.336463,-2221.676944,-962.267725,9844.739029
2422.336792,-1685.410096,-1998.556043,10362.883188
2422.337121,-1072.533697,-1702.473667,10140.821405
2422.337450,-383.047749,-888.247130,10436.903782
2422.337779,-306.438199,-370.102971,10584.944971
2422.338108,-153.219100,-814.226536,10214.842000
2422.338437,-995.924147,-1184.329507,10510.924376
2422.338766,229.828649,-740.205942,10510.924376
2422.339095,1072.533697,-592.164754,10510.924376
2422.339424,1532.190996,148.041188,9474.636058
2422.339753,2604.724693,1258.350101,8734.430116
2422.340081,3907.087040,1998.556043,7624.121203
2422.340410,3907.087040,2368.659014,7105.977043
2422.340739,3677.258390,2590.720797,7031.956449
2422.341068,2834.553343,2368.659014,6735.874072
2422.341397,1455.581446,1924.535449,7402.059420
2422.341726,-229.828649,444.123565,8512.368333
2422.342055,-1762.019645,-666.185348,9474.636058
2422.342384,-1915.238745,-1776.494261,10584.944971
2422.342713,-1838.629195,-2072.576638,9178.553681
2422.343042,-1991.848295,-1628.453072,9474.636058
2422.343371,-1838.629195,-1998.556043,9992.780217
2422.343700,-1608.800546,-1850.514855,10436.903782
2422.344029,-1608.800546,-2072.576638,11029.068536
2422.344357,-995.924147,-1998.556043,10436.903782
2422.344686,-383.047749,-1184.329507,10140.821405
2422.345015,-1149.143247,-888.247130,9992.780217
2422.345344,0.000000,-296.082377,9400.615463
2422.345673,-229.828649,-740.205942,10732.986159
2422.346002,153.219100,-518.144159,9474.636058
2422.346331,1762.019645,666.185348,8734.430116
2422.346660,1991.848295,1480.411884,6439.791695
2422.346989,2911.162892,2368.659014,6069.688724
2422.347318,2374.896044,2146.597232,6735.874072
2422.347647,2298.286494,2146.597232,6735.874072
2422.347976,919.314598,962.267725,7254.018232
2422.348304,0.000000,-0.000000,7846.182985
2422.348633,-995.924147,-1258.350101,8512.368333
2422.348962,-1991.848295,-1776.494261,9696.697840
2422.349291,-1685.410096,-2294.638420,9696.697840
2422.349620,-1149.143247,-1628.453072,9992.780217
2422.349949,-1302.362347,-1258.350101,10510.924376
2422.350278,-995.924147,-370.102971,10955.047942
2422.350607,-306.438199,-592.164754,10807.006753
2422.350936,0.000000,-1258.350101,9918.759623
2422.351265,153.219100,-962.267725,9918.759623
2422.351594,383.047749,-592.164754,10362.883188
2422.351923,536.266849,-814.226536,10510.924376
2422.352252,2298.286494,-518.144159,9696.697840
2422.352580,3064.381992,1554.432478,7920.203579
2422.352909,4213.525239,1924.535449,6735.874072
2422.353238,4136.915689,2516.700203,6069.688724
2422.353567,4213.525239,2886.803174,6513.812290
2422.353896,3370.820191,2368.659014,6957.935855
2422.354225,1915.238745,1332.370696,7179.997637
2422.354554,0.000000,-148.041188,8734.430116
2422.354883,-1532.190996,-1332.370696,9770.718434
2422.355212,-2221.676944,-2664.741391,10732.986159
2422.355541,-2145.067394,-2516.700203,10066.800811
2422.355870,-1072.533697,-2146.597232,10066.800811
2422.356199,-1225.752797,-2220.617826,10658.965565
2422.356527,-1149.143247,-1406.391290,10436.903782
2422.356856,-842.705048,-1258.350101,10732.986159
2422.357185,-612.876398,-1702.473667,10362.883188
2422.357514,0.000000,-888.247130,9696.697840
2422.357843,-612.876398,-444.123565,9696.697840
2422.358172,-766.095498,-814.226536,9770.718434
2422.358501,-536.266849,-814.226536,10362.883188
2422.358830,919.314598,-296.082377,8512.368333
2422.359159,1838.629195,222.061783,8512.368333
2422.359488,2145.067394,1184.329507,6809.894666
2422.359817,2145.067394,2442.679609,7105.977043
2422.360146,2068.457845,2368.659014,6513.812290
2422.360475,1455.581446,2072.576638,7105.977043
2422.360803,1149.143247,1184.329507,8068.244768
2422.361132,0.000000,-0.000000,7920.203579
2422.361461,-689.485948,-1258.350101,9474.636058
2422.361790,-1762.019645,-1554.432478,9992.780217
2422.362119,-1455.581446,-2368.659014,9770.718434
2422.362448,-766.095498,-1924.535449,10362.883188
2422.362777,-459.657299,-740.205942,10584.944971
2422.363106,-459.657299,-518.144159,10362.883188
2422.363435,0.000000,-370.102971,10288.862594
2422.363764,76.609550,-222.061783,9992.780217
2422.364093,459.657299,-370.102971,10288.862594
2422.364422,689.485948,-222.061783,10362.883188
2422.364750,2221.676944,592.164754,9400.615463
2422.365079,2911.162892,1554.432478,7994.224174
2422.365408,3370.820191,1924.535449,7105.977043
2422.365737,3830.477490,2442.679609,6439.791695
2422.366066,3140.991542,2368.659014,6439.791695
2422.366395,2681.334243,1850.514855,6735.874072
2422.366724,612.876398,1258.350101,7772.162391
2422.367053,-459.657299,-370.102971,9030.512492
2422.367382,-1915.238745,-1702.473667,9252.574275
2422.367711,-1991.848295,-2590.720797,10510.924376
2422.368040,-1608.800546,-2294.638420,9252.574275
2422.368369,-1072.533697,-2368.659014,10362.883188
2422.368698,-995.924147,-1776.494261,10510.924376
2422.369026,-689.485948,-1702.473667,9918.759623
2422.369355,-842.705048,-1776.494261,10881.027347
2422.369684,-689.485948,-1110.308913,9992.780217
2422.370013,-76.609550,-740.205942,10140.821405
2422.370342,-536.266849,-814.226536,9770.718434
2422.370671,-689.485948,-740.205942,10066.800811
2422.371000,-153.219100,-1110.308913,10584.944971
2422.371329,919.314598,-518.144159,9400.615463
2422.371658,2145.067394,666.185348,7550.100608
2422.371987,2528.115143,1924.535449,6735.874072
2422.372316,2757.943793,2590.720797,6439.791695
2422.372645,1915.238745,2368.659014,6735.874072
2422.372974,1302.362347,1850.514855,7328.038826
2422.373302,459.657299,1036.288319,7994.224174
2422.373631,383.047749,-592.164754,8586.388927
2422.373960,-1149.143247,-1406.391290,9696.697840
2422.374289,-1532.190996,-1776.494261,10362.883188
2422.374618,-1378.971896,-2146.597232,10066.800811
2422.374947,-919.314598,-1036.288319,9770.718434
2422.375276,-306.438199,-518.144159,10288.862594
2422.375605,-842.705048,-592.164754,10584.944971
2422.375934,459.657299,-222.061783,10214.842000
2422.376263,0.000000,-148.041188,10436.903782
2422.376592,0.000000,-518.144159,9992.780217
2422.376921,229.828649,-0.000000,9992.780217
2422.377249,1072.533697,-0.000000,9992.780217
2422.377578,2145.067394,814.226536,8216.285956
2422.377907,3217.601092,1480.411884,7179.997637
2422.378236,3907.087040,1924.535449,6513.812290
2422.378565,3217.601092,2590.720797,6661.853478
2422.378894,2757.943793,2442.679609,7031.956449
2422.379223,1685.410096,1332.370696,7031.956449
2422.379552,766.095498,-0.000000,8290.306550
2422.379881,-766.095498,-888.247130,8882.471304
2422.380210,-1685.410096,-2368.659014,9548.656652
2422.380539,-2604.724693,-2368.659014,10881.027347
2422.380868,-1762.019645,-2886.803174,10362.883188
2422.381197,-1072.533697,-2590.720797,10436.903782
2422.381525,-995.924147,-2146.597232,10214.842000
2422.381854,-689.485948,-1406.391290,10362.883188
2422.382183,-536.266849,-1036.288319,10807.006753
2422.382512,0.000000,-666.185348,9992.780217
2422.382841,-842.705048,-518.144159,10214.842000
2422.383170,-306.438199,-222.061783,10140.821405
2422.383499,-689.485948,-222.061783,10140.821405
2422.383828,383.047749,-0.000000,9252.574275
2422.384157,1685.410096,888.247130,7994.224174
2422.384486,1915.238745,1776.494261,6809.894666
2422.384815,2528.115143,1998.556043,7105.977043
2422.385144,1991.848295,2294.638420,7254.018232
2422.385472,1532.190996,1332.370696,7328.038826
2422.385801,536.266849,666.185348,7624.121203
2422.386130,0.000000,-74.020594,8068.244768
2422.386459,-1149.143247,-1184.329507,9400.615463
2422.386788,-1455.581446,-1628.453072,9696.697840
2422.387117,-1225.752797,-1480.411884,10288.862594
2422.387446,-1532.190996,-1184.329507,10362.883188
2422.387775,0.000000,-814.226536,10510.924376
2422.388104,-306.438199,-222.061783,10288.862594
2422.388433,153.219100,-74.020594,10214.842000
2422.388762,306.438199,-0.000000,9992.780217
2422.389091,459.657299,-74.020594,9696.697840
2422.389420,76.609550,-74.020594,10066.800811
2422.389748,1608.800546,-0.000000,9252.574275
2422.390077,2528.115143,1184.329507,7846.182985
2422.390406,3294.210641,1406.391290,7031.956449
2422.390735,3524.039291,2146.597232,6291.750507
2422.391064,3064.381992,2294.638420,6587.832884
2422.391393,2374.896044,2072.576638,7031.956449
2422.391722,1149.143247,1036.288319,7402.059420
2422.392051,76.609550,-222.061783,8956.491898
2422.392380,-1302.362347,-1258.350101,9474.636058
2422.392709,-1915.238745,-2368.659014,10214.842000
2422.393038,-2145.067394,-2368.659014,9622.677246
2422.393367,-1302.362347,-2294.638420,10214.842000
2422.393696,-1149.143247,-2220.617826,10436.903782
2422.394025,-1302.362347,-1628.453072,10584.944971
2422.394354,-459.657299,-2368.659014,10584.944971
2422.394684,-1225.752797,-1480.411884,10807.006753
2422.395013,-229.828649,-1110.308913,9918.759623
2422.395342,-306.438199,-592.164754,9696.697840
2422.395671,-612.876398,-666.185348,9992.780217
2422.396000,-612.876398,-592.164754,9918.759623
2422.396329,153.219100,222.061783,9326.594869
2422.396658,1378.971896,370.102971,8956.491898
2422.396987,1838.629195,1184.329507,6513.812290
2422.397316,2298.286494,2072.576638,7105.977043
2422.397645,1915.238745,2294.638420,6587.832884
2422.397974,1762.019645,2146.597232,7105.977043
2422.398303,995.924147,1332.370696,7920.203579
2422.398632,536.266849,222.061783,7920.203579
2422.398961,-383.047749,-1036.288319,8808.450710
2422.399290,-1149.143247,-1628.453072,9696.697840
2422.399619,-536.266849,-2220.617826,10066.800811
2422.399948,-612.876398,-1332.370696,9918.759623
2422.400277,-383.047749,-1258.350101,10066.800811
2422.400606,0.000000,-666.185348,10066.800811
2422.400935,229.828649,-962.267725,9992.780217
2422.401264,306.438199,-370.102971,9844.739029
2422.401593,306.438199,-814.226536,10066.800811
2422.401922,153.219100,-370.102971,9992.780217
2422.402251,1072.533697,222.061783,9548.656652
2422.402580,2068.457845,962.267725,8364.327145
2422.402909,2757.943793,1554.432478,7624.121203
2422.403238,3064.381992,1480.411884,6883.915261
2422.403567,3064.381992,1924.535449,7105.977043
2422.403897,2451.505594,1850.514855,7402.059420
2422.404226,1685.410096,1184.329507,7402.059420
2422.404555,306.438199,-222.061783,8512.368333
2422.404884,-995.924147,-962.267725,9326.594869
2422.405213,-1762.019645,-2294.638420,9918.759623
2422.405542,-1378.971896,-2590.720797,10140.821405
2422.405871,-1302.362347,-2442.679609,10140.821405
2422.406200,-459.657299,-1998.556043,10881.027347
2422.406529,-1072.533697,-1998.556043,10362.883188
2422.406858,-689.485948,-1480.411884,10732.986159
2422.407187,-689.485948,-1184.329507,10362.883188
2422.407516,-153.219100,-740.205942,9918.759623
2422.407845,-306.438199,-814.226536,9696.697840
2422.408174,-612.876398,-518.144159,9844.739029
2422.408503,-459.657299,-444.123565,9918.759623
2422.408832,0.000000,-222.061783,9252.574275
2422.409161,842.705048,370.102971,8438.347739
2422.409490,1608.800546,1184.329507,7254.018232
2422.409819,2145.067394,2220.617826,7031.956449
2422.410148,1302.362347,2146.597232,6809.894666
2422.410477,1378.971896,2072.576638,7105.977043
2422.410806,1225.752797,1184.329507,7698.141797
2422.411135,536.266849,-0.000000,7328.038826
2422.411464,-383.047749,-814.226536,8734.430116
2422.411793,-1149.143247,-1184.329507,9548.656652
2422.412122,-1378.971896,-1628.453072,10140.821405
2422.412451,-1072.533697,-1850.514855,10362.883188
2422.412781,-766.095498,-1110.308913,10510.924376
2422.413110,-536.266849,-1036.288319,10288.862594
2422.413439,-536.266849,-814.226536,10214.842000
2422.413768,76.609550,-148.041188,9844.739029
2422.414097,383.047749,-296.082377,10288.862594
2422.414426,1072.533697,-0.000000,9696.697840
2422.414755,2451.505594,592.164754,8512.368333
2422.415084,3294.210641,1480.411884,7920.203579
2422.415413,2681.334243,2072.576638,7550.100608
2422.415742,3447.429741,2146.597232,7328.038826
2422.416071,2757.943793,1924.535449,7105.977043
2422.416400,1838.629195,1554.432478,7550.100608
2422.416729,612.876398,444.123565,8290.306550
2422.417058,-459.657299,-740.205942,9178.553681
2422.417387,-1455.581446,-2072.576638,10436.903782
2422.417716,-2068.457845,-2812.782580,10658.965565
2422.418045,-1991.848295,-2516.700203,9992.780217
2422.418374,-1685.410096,-2294.638420,10510.924376
2422.418703,-1225.752797,-1628.453072,10362.883188
2422.419032,-1149.143247,-1258.350101,10288.862594
2422.419361,-306.438199,-1480.411884,10436.903782
2422.419690,0.000000,-888.247130,9622.677246
2422.420019,0.000000,-1036.288319,9844.739029
2422.420348,-383.047749,-740.205942,10066.800811
2422.420677,383.047749,-518.144159,10214.842000
2422.421006,1608.800546,296.082377,8216.285956
2422.421335,2834.553343,1036.288319,7105.977043
2422.421664,2911.162892,1554.432478,6365.771101
2422.421994,2528.115143,2442.679609,7031.956449
2422.422323,1991.848295,2516.700203,7402.059420
2422.422652,306.438199,1628.453072,7772.162391
2422.422981,229.828649,518.144159,7994.224174
2422.423310,-1149.143247,-74.020594,8512.368333
2422.423639,-1915.238745,-1554.432478,9474.636058
2422.423968,-1455.581446,-1776.494261,9844.739029
2422.424297,-1532.190996,-2220.617826,9992.780217
2422.424626,-1225.752797,-1924.535449,10214.842000
2422.424955,-689.485948,-962.267725,9696.697840
2422.425284,-612.876398,-370.102971,9918.759623
2422.425613,-229.828649,-444.123565,9918.759623
2422.425942,0.000000,-296.082377,9770.718434
2422.426271,1149.143247,-1036.288319,10362.883188
2422.426600,2068.457845,-222.061783,8512.368333
2422.426929,2911.162892,222.061783,8734.430116
2422.427258,3217.601092,592.164754,7846.182985
2422.427587,3370.820191,1998.556043,7254.018232
2422.427916,2834.553343,1554.432478,7994.224174
2422.428245,2604.724693,2146.597232,7328.038826
2422.428574,2068.457845,1628.453072,8068.244768
2422.428903,-306.438199,666.185348,7994.224174
2422.429232,-612.876398,-0.000000,8956.491898
2422.429561,-1608.800546,-1036.288319,9918.759623
2422.429890,-1685.410096,-1258.350101,9622.677246
2422.430219,-1838.629195,-2146.597232,9918.759623
2422.430548,-1915.238745,-1702.473667,9474.636058
2422.430877,-1455.581446,-1702.473667,10066.800811
2422.431207,-1149.143247,-1406.391290,10362.883188
2422.431536,-1072.533697,-1628.453072,10214.842000
2422.431865,-689.485948,-962.267725,10066.800811
2422.432194,-306.438199,-1258.350101,9844.739029
2422.432523,-306.438199,-962.267725,9918.759623
2422.432852,229.828649,-962.267725,10362.883188
2422.433181,1455.581446,-74.020594,8586.388927
2422.433510,2451.505594,444.123565,8216.285956
2422.433839,2681.334243,1702.473667,7179.997637
2422.434168,2911.162892,2664.741391,7328.038826
2422.434497,2374.896044,2590.720797,7328.038826
2422.434826,1762.019645,2220.617826,7105.977043
2422.435155,995.924147,1110.308913,8068.244768
2422.435484,-229.828649,-74.020594,8512.368333
2422.435813,-1378.971896,-962.267725,8734.430116
2422.436142,-1838.629195,-2146.597232,9622.677246
2422.436471,-1608.800546,-1924.535449,10510.924376
2422.436800,-1302.362347,-1850.514855,9844.739029
2422.437129,-995.924147,-1258.350101,10140.821405
2422.437458,-689.485948,-814.226536,9992.780217
2422.437787,-229.828649,-1036.288319,10140.821405
2422.438116,536.266849,-1110.308913,10584.944971
2422.438445,1455.581446,-592.164754,10510.924376
2422.438774,2681.334243,-0.000000,8882.471304
2422.439103,2911.162892,888.247130,8882.471304
2422.439432,3294.210641,1628.453072,8216.285956
2422.439761,3600.648841,1850.514855,8216.285956
2422.440090,3447.429741,1554.432478,7624.121203
2422.440420,2757.943793,1480.411884,7846.182985
2422.440749,1532.190996,1480.411884,8142.265362
2422.441078,153.219100,888.247130,8068.244768
2422.441407,-1378.971896,-592.164754,8882.471304
2422.441736,-1225.752797,-1110.308913,9178.553681
2422.442065,-2068.457845,-1258.350101,9548.656652
2422.442394,-1991.848295,-1628.453072,9252.574275
2422.442723,-1532.190996,-1406.391290,8956.491898
2422.443052,-1455.581446,-1332.370696,9326.594869
2422.443381,-1072.533697,-1628.453072,9622.677246
2422.443710,-612.876398,-1184.329507,10214.842000
2422.444039,-766.095498,-1184.329507,9770.718434
2422.444368,-383.047749,-1184.329507,9474.636058
2422.444697,-383.047749,-1184.329507,9918.759623
2422.445026,0.000000,-1554.432478,10066.800811
2422.445355,995.924147,-740.205942,9104.533087
2422.445684,2221.676944,296.082377,8216.285956
2422.446013,2757.943793,1258.350101,7254.018232
2422.446342,2528.115143,1924.535449,6587.832884
2422.446671,2145.067394,1998.556043,7179.997637
2422.447000,1149.143247,1702.473667,7328.038826
2422.447329,536.266849,962.267725,7920.203579
2422.447658,-536.266849,-0.000000,8364.327145
2422.447987,-1915.238745,-962.267725,8808.450710
2422.448316,-1685.410096,-1628.453072,10584.944971
2422.448645,-1455.581446,-1850.514855,9548.656652
2422.448974,-1455.581446,-1258.350101,9400.615463
2422.449304,-1455.581446,-962.267725,10066.800811
2422.449633,-995.924147,-370.102971,9918.759623
2422.449962,-536.266849,-666.185348,10510.924376
2422.450291,0.000000,-666.185348,10066.800811
2422.450620,-153.219100,-592.164754,9992.780217
2422.450949,536.266849,-1480.411884,10584.944971
2422.451278,1532.190996,-222.061783,9548.656652
2422.451607,2681.334243,444.123565,9104.533087
2422.451936,3294.210641,1110.308913,7994.224174
2422.452265,3447.429741,1702.473667,7846.182985
2422.452594,3447.429741,2220.617826,8438.347739
2422.452923,3217.601092,2146.597232,7254.018232
2422.453252,3140.991542,1702.473667,7920.203579
2422.453581,1378.971896,1110.308913,8068.244768
2422.453910,306.438199,666.185348,8660.409521
2422.454239,-919.314598,-370.102971,9474.636058
2422.454568,-1378.971896,-962.267725,9252.574275
2422.454897,-1072.533697,-1850.514855,9548.656652
2422.455226,-1762.019645,-1406.391290,9400.615463
2422.455555,-1072.533697,-1480.411884,9474.636058
2422.455884,-1225.752797,-1924.535449,10214.842000
2422.456213,-995.924147,-1480.411884,10066.800811
2422.456542,-842.705048,-1184.329507,9918.759623
2422.456871,-689.485948,-1628.453072,9474.636058
2422.457200,0.000000,-1406.391290,9622.677246
2422.457529,459.657299,-1924.535449,10140.821405
2422.457858,919.314598,-814.226536,8808.450710
2422.458187,2221.676944,296.082377,8808.450710
2422.458517,2451.505594,888.247130,7624.121203
2422.458846,2528.115143,1924.535449,7254.018232
2422.459175,2374.896044,1850.514855,7772.162391
2422.459504,2145.067394,1480.411884,7254.018232
2422.459833,1532.190996,962.267725,7920.203579
2422.460162,612.876398,370.102971,8586.388927
2422.460491,-459.657299,-0.000000,8438.347739
2422.460820,-1608.800546,-1036.288319,9622.677246
2422.461149,-1378.971896,-1628.453072,9696.697840
2422.461478,-1302.362347,-1332.370696,9548.656652
2422.461807,-1225.752797,-1036.288319,9548.656652
2422.462136,0.000000,-1036.288319,9696.697840
2422.462465,153.219100,-1184.329507,10140.821405
2422.462794,-536.266849,-666.185348,10288.862594
2422.463123,0.000000,-740.205942,9992.780217
2422.463452,536.266849,-1036.288319,10066.800811
2422.463781,1685.410096,-148.041188,9326.594869
2422.464110,2681.334243,740.205942,8734.430116
2422.464439,3370.820191,1480.411884,8216.285956
2422.464768,3370.820191,1702.473667,7994.224174
2422.465097,2911.162892,1850.514855,7624.121203
2422.465426,2528.115143,1924.535449,7254.018232
2422.465755,1455.581446,1480.411884,7698.141797
2422.466084,0.000000,1110.308913,8142.265362
2422.466413,-919.314598,-222.061783,8882.471304
2422.466742,-1915.238745,-370.102971,9844.739029
2422.467071,-1685.410096,-1776.494261,9400.615463
2422.467400,-1608.800546,-1258.350101,8808.450710
2422.467730,-1455.581446,-1406.391290,9326.594869
2422.468059,-1302.362347,-1554.432478,9474.636058
2422.468388,-1455.581446,-1628.453072,10140.821405
2422.468717,-1302.362347,-1850.514855,10288.862594
2422.469046,-919.314598,-1924.535449,10362.883188
2422.469375,-766.095498,-1924.535449,10584.944971
2422.469704,-612.876398,-1480.411884,9992.780217
2422.470033,-383.047749,-1332.370696,10362.883188
2422.470362,0.000000,-1110.308913,10288.862594
2422.470691,1302.362347,-444.123565,9696.697840
2422.471020,2374.896044,1184.329507,7920.203579
2422.471349,2911.162892,2072.576638,7624.121203
2422.471678,2451.505594,2294.638420,6439.791695
2422.472007,2374.896044,2220.617826,7105.977043
2422.472336,1532.190996,1776.494261,7402.059420
2422.472665,689.485948,814.226536,7772.162391
2422.472994,-306.438199,-74.020594,8808.450710
2422.473323,-1608.800546,-1184.329507,9548.656652
2422.473652,-2298.286494,-1480.411884,10214.842000
2422.473981,-1532.190996,-1480.411884,9548.656652
2422.474310,-1455.581446,-1184.329507,9696.697840
2422.474639,-1072.533697,-962.267725,10288.862594
2422.474968,-689.485948,-222.061783,10362.883188
2422.475297,-459.657299,-370.102971,10510.924376
2422.475626,0.000000,-666.185348,9992.780217
2422.475955,76.609550,-222.061783,9696.697840
2422.476284,1378.971896,-814.226536,10436.903782
2422.476613,1838.629195,-148.041188,9622.677246
2422.476943,2987.772442,814.226536,8364.327145
2422.477272,4290.134789,1628.453072,7624.121203
2422.477601,3907.087040,2442.679609,6735.874072
2422.477930,3524.039291,2220.617826,7328.038826
2422.478259,3370.820191,2368.659014,6883.915261
2422.478588,2604.724693,1628.453072,7328.038826
2422.478917,1302.362347,962.267725,7994.224174
2422.479246,-306.438199,-0.000000,8586.388927
2422.479575,-1685.410096,-1036.288319,9696.697840
2422.479904,-2145.067394,-1702.473667,9844.739029
2422.480233,-1378.971896,-1924.535449,9770.718434
2422.480562,-1915.238745,-2294.638420,9992.780217
2422.480891,-1455.581446,-1850.514855,10658.965565
2422.481220,-1685.410096,-1702.473667,10214.842000
2422.481549,-1378.971896,-1998.556043,10584.944971
2422.481878,-995.924147,-1850.514855,9992.780217
2422.482207,-459.657299,-1628.453072,9770.718434
2422.482536,-306.438199,-1554.432478,9474.636058
2422.482865,76.609550,-1406.391290,10658.965565
2422.483194,995.924147,-888.247130,9252.574275
2422.483523,1915.238745,296.082377,8290.306550
2422.483852,2834.553343,1184.329507,7846.182985
2422.484181,2528.115143,2146.597232,7031.956449
2422.484510,2528.115143,2664.741391,7105.977043
2422.484839,1685.410096,1998.556043,7402.059420
2422.485168,995.924147,1406.391290,7994.224174
2422.485497,0.000000,814.226536,8512.368333
2422.485827,-1072.533697,-666.185348,8512.368333
2422.486156,-1991.848295,-1406.391290,9622.677246
2422.486485,-1838.629195,-1628.453072,9474.636058
2422.486814,-1378.971896,-1332.370696,9474.636058
2422.487143,-1532.190996,-1702.473667,10288.862594
2422.487472,-766.095498,-740.205942,10140.821405
2422.487801,-612.876398,-1184.329507,9696.697840
2422.488130,-306.438199,-1110.308913,10214.842000
2422.488459,76.609550,-370.102971,9474.636058
2422.488788,383.047749,-518.144159,10214.842000
2422.489117,1225.752797,-444.123565,10288.862594
2422.489446,2451.505594,740.205942,8882.471304
2422.489775,4213.525239,1332.370696,7994.224174
2422.490104,3907.087040,2220.617826,6513.812290
2422.490433,4290.134789,2738.761985,6809.894666
2422.490762,3217.601092,2886.803174,7105.977043
2422.491091,2374.896044,2368.659014,7105.977043
2422.491420,919.314598,444.123565,8290.306550
2422.491750,-1378.971896,-740.205942,8290.306550
2422.492079,-2451.505594,-1998.556043,9548.656652
2422.492408,-2221.676944,-2516.700203,10066.800811
2422.492737,-1838.629195,-2072.576638,8808.450710
2422.493066,-1685.410096,-2590.720797,10362.883188
2422.493395,-1455.581446,-1924.535449,9918.759623
2422.493724,-1149.143247,-1406.391290,10732.986159
2422.494053,-766.095498,-2368.659014,10955.047942
2422.494382,-153.219100,-1776.494261,10288.862594
2422.494711,0.000000,-1776.494261,10140.821405
2422.495040,-612.876398,-1258.350101,9992.780217
2422.495370,-76.609550,-1110.308913,10881.027347
2422.495699,842.705048,-592.164754,10140.821405
2422.496028,2374.896044,740.205942,7920.203579
2422.496357,3217.601092,1776.494261,6883.915261
2422.496686,3217.601092,2146.597232,6217.729913
2422.497015,2987.772442,2960.823768,6365.771101
2422.497344,1685.410096,1924.535449,7254.018232
2422.497673,766.095498,1406.391290,7328.038826
2422.498002,0.000000,-0.000000,8290.306550
2422.498331,-1225.752797,-814.226536,9030.512492
2422.498661,-1762.019645,-1184.329507,9844.739029
2422.498990,-1225.752797,-1628.453072,9548.656652
2422.499319,-842.705048,-1480.411884,9622.677246
2422.499648,-995.924147,-740.205942,10140.821405
2422.499977,-689.485948,-0.000000,9992.780217
2422.500306,-383.047749,-296.082377,10214.842000
2422.500635,-153.219100,-740.205942,9844.739029
2422.500964,0.000000,-962.267725,9622.677246
2422.501293,0.000000,-740.205942,10140.821405
2422.501622,995.924147,-740.205942,10658.965565
2422.501952,2374.896044,-0.000000,9104.533087
2422.502281,3294.210641,1184.329507,7846.182985
2422.502610,3524.039291,1554.432478,7031.956449
2422.502939,3524.039291,2146.597232,6809.894666
2422.503268,3294.210641,2590.720797,7624.121203
2422.503597,1915.238745,1628.453072,7402.059420
2422.503926,1685.410096,740.205942,7846.182985
2422.504255,-612.876398,592.164754,9104.533087
2422.504584,-1532.190996,-962.267725,9696.697840
2422.504913,-2298.286494,-2146.597232,10140.821405
2422.505242,-1838.629195,-2146.597232,9696.697840
2422.505572,-1838.629195,-2294.638420,9844.739029
2422.505901,-1532.190996,-1998.556043,10881.027347
2422.506230,-1378.971896,-888.247130,10362.883188
2422.506559,-1378.971896,-1776.494261,10881.027347
2422.506888,-766.095498,-1924.535449,10288.862594
2422.507217,-306.438199,-1406.391290,9992.780217
2422.507546,-306.438199,-1110.308913,9844.739029
2422.507875,-459.657299,-962.267725,10288.862594
2422.508204,0.000000,-962.267725,10140.821405
2422.508533,1302.362347,-296.082377,9326.594869
2422.508863,2528.115143,1258.350101,7402.059420
2422.509192,2987.772442,1998.556043,7031.956449
2422.509521,2834.553343,2812.782580,6587.832884
2422.509850,2451.505594,2960.823768,6957.935855
2422.510179,1915.238745,1628.453072,7179.997637
2422.510508,1302.362347,1036.288319,7105.977043
2422.510837,306.438199,-74.020594,8290.306550
2422.511166,-842.705048,-666.185348,8734.430116
2422.511495,-1685.410096,-1850.514855,9696.697840
2422.511824,-1762.019645,-1998.556043,9992.780217
2422.512154,-766.095498,-1554.432478,9992.780217
2422.512483,-383.047749,-1480.411884,10362.883188
2422.512812,-612.876398,-1628.453072,10214.842000
2422.513141,0.000000,-1406.391290,10510.924376
2422.513470,-229.828649,-962.267725,10066.800811
2422.513799,153.219100,-518.144159,9918.759623
2422.514128,306.438199,-518.144159,10436.903782
2422.514457,1378.971896,296.082377,9622.677246
2422.514786,2911.162892,962.267725,7624.121203
2422.515115,3753.867940,1480.411884,7254.018232
2422.515444,3600.648841,2146.597232,6661.853478
2422.515774,3907.087040,2368.659014,7105.977043
2422.516103,2987.772442,2368.659014,6957.935855
2422.516432,2068.457845,1776.494261,7179.997637
2422.516761,76.609550,222.061783,8290.306550
2422.517090,-1225.752797,-888.247130,9030.512492
2422.517419,-1838.629195,-2368.659014,10436.903782
2422.517748,-2068.457845,-2516.700203,10066.800811
2422.518077,-1915.238745,-2294.638420,9696.697840
2422.518406,-1455.581446,-2368.659014,10881.027347
2422.518735,-1455.581446,-1850.514855,10658.965565
2422.519065,-1225.752797,-1628.453072,10807.006753
2422.519394,-995.924147,-1184.329507,11251.130318
2422.519723,-383.047749,-1110.308913,10140.821405
2422.520052,-306.438199,-740.205942,9992.780217
2422.520381,-612.876398,-518.144159,9474.636058
2422.520710,-229.828649,-296.082377,10140.821405
2422.521039,0.000000,-222.061783,9474.636058
2422.521368,1685.410096,592.164754,7994.224174
2422.521697,2451.505594,1406.391290,7031.956449
2422.522026,2834.553343,1554.432478,6439.791695
2422.522356,2298.286494,2442.679609,6291.750507
2422.522685,1915.238745,1924.535449,7328.038826
2422.523014,1072.533697,1406.391290,7328.038826
2422.523343,229.828649,962.267725,7772.162391
2422.523672,-766.095498,-518.144159,8586.388927
2422.524001,-1838.629195,-1554.432478,9252.574275
2422.524330,-1378.971896,-1924.535449,10362.883188
2422.524659,-1149.143247,-2072.576638,9918.759623
2422.524988,-459.657299,-1776.494261,10214.842000
2422.525317,-919.314598,-1110.308913,10658.965565
2422.525646,-536.266849,-814.226536,10510.924376
2422.525976,-383.047749,-1110.308913,10214.842000
2422.526305,153.219100,-1110.308913,10140.821405
2422.526634,459.657299,-444.123565,10362.883188
2422.526963,1302.362347,-296.082377,11547.212695
2422.527292,2221.676944,370.102971,9104.533087
2422.527621,3524.039291,1554.432478,8216.285956
2422.527950,3983.696590,2146.597232,6735.874072
2422.528279,4366.744339,2664.741391,6587.832884
2422.528608,2987.772442,2590.720797,7328.038826
2422.528937,2757.943793,1998.556043,6883.915261
2422.529267,1608.800546,518.144159,7994.224174
2422.529596,-383.047749,-74.020594,8734.430116
2422.529925,-1685.410096,-1332.370696,9548.656652
2422.530254,-2298.286494,-2442.679609,10584.944971
2422.530583,-2298.286494,-2368.659014,9474.636058
2422.530912,-995.924147,-2664.741391,11029.068536
2422.531241,-1455.581446,-2442.679609,10658.965565
2422.531570,-1225.752797,-1776.494261,10584.944971
2422.531899,-919.314598,-2220.617826,11251.130318
2422.532228,-383.047749,-1036.288319,10066.800811
2422.532558,153.219100,-444.123565,9622.677246
2422.532887,-383.047749,-222.061783,9474.636058
2422.533216,0.000000,148.041188,9844.739029
2422.533545,-229.828649,-222.061783,9844.739029
2422.533874,1225.752797,-0.000000,8808.450710
2422.534203,2374.896044,962.267725,7105.977043
2422.534532,2911.162892,1850.514855,6439.791695
2422.534861,2374.896044,2368.659014,5921.647536
2422.535190,2068.457845,2368.659014,7105.977043
2422.535519,1378.971896,1628.453072,7402.059420
2422.535848,919.314598,-0.000000,7476.080014
2422.536178,-306.438199,-888.247130,8438.347739
2422.536507,-1225.752797,-1628.453072,9326.594869
2422.536836,-1915.238745,-2294.638420,10362.883188
2422.537165,-1378.971896,-2072.576638,10362.883188
2422.537494,-459.657299,-1332.370696,10436.903782
2422.537823,-459.657299,-740.205942,10584.944971
2422.538152,-689.485948,-740.205942,10066.800811
2422.538481,-229.828649,-814.226536,10584.944971
2422.538810,306.438199,-518.144159,10362.883188
2422.539139,229.828649,-370.102971,10140.821405
2422.539469,995.924147,-0.000000,10214.842000
2422.539798,1762.019645,1036.288319,8808.450710
2422.540127,2681.334243,888.247130,8512.368333
2422.540456,2681.334243,1480.411884,7105.977043
2422.540785,3753.867940,2220.617826,6661.853478
2422.541114,2528.115143,2294.638420,7105.977043
2422.541443,1991.848295,2294.638420,7105.977043
2422.541772,766.095498,740.205942,7994.224174
2422.542101,-919.314598,-148.041188,8512.368333
2422.542430,-1838.629195,-1406.391290,9770.718434
2422.542760,-1685.410096,-2442.679609,10436.903782
2422.543089,-1838.629195,-1924.535449,9326.594869
2422.543418,-1608.800546,-2146.597232,10807.006753
2422.543747,-1378.971896,-1850.514855,10140.821405
2422.544076,-1149.143247,-1332.370696,10510.924376
2422.544405,-919.314598,-1776.494261,10584.944971
2422.544734,0.000000,-888.247130,9696.697840
2422.545063,0.000000,-888.247130,9992.780217
2422.545392,-459.657299,-666.185348,9252.574275
2422.545721,-536.266849,-1036.288319,9474.636058
2422.546050,-306.438199,-666.185348,9918.759623
2422.546380,1225.752797,-0.000000,8512.368333
2422.546709,2145.067394,1110.308913,6809.894666
2422.547038,2604.724693,1850.514855,6883.915261
2422.547367,2298.286494,2368.659014,6587.832884
2422.547696,2145.067394,2294.638420,7105.977043
2422.548025,1455.581446,1554.432478,7476.080014
2422.548354,612.876398,666.185348,7772.162391
2422.548683,-383.047749,-518.144159,8808.450710
2422.549012,-1455.581446,-1184.329507,9400.615463
2422.549341,-1762.019645,-1924.535449,10510.924376
2422.549671,-1455.581446,-2368.659014,10214.842000
2422.550000,-1225.752797,-1406.391290,10288.862594
2422.550329,-383.047749,-1184.329507,10658.965565
2422.550658,-229.828649,-518.144159,10140.821405
2422.550987,-229.828649,-444.123565,10362.883188
2422.551316,76.609550,-740.205942,10140.821405
2422.551645,306.438199,-74.020594,9992.780217
2422.551974,612.876398,-962.267725,10807.006753
2422.552303,1915.238745,-0.000000,8438.347739
2422.552632,3217.601092,1184.329507,8660.409521
2422.552962,3677.258390,1924.535449,7031.956449
2422.553291,3907.087040,2590.720797,6291.750507
2422.553620,3677.258390,2590.720797,7031.956449
2422.553949,3294.210641,2590.720797,6365.771101
2422.554278,1991.848295,1628.453072,6883.915261
2422.554607,766.095498,-74.020594,8586.388927
2422.554936,-612.876398,-740.205942,9252.574275
2422.555265,-1991.848295,-2368.659014,10362.883188
2422.555594,-1608.800546,-2738.761985,10066.800811
2422.555923,-1378.971896,-2590.720797,10140.821405
2422.556252,-1378.971896,-2368.659014,10436.903782
2422.556582,-1302.362347,-1998.556043,10436.903782
2422.556911,-1149.143247,-1850.514855,10807.006753
2422.557240,-536.266849,-1702.473667,10584.944971
2422.557569,-153.219100,-666.185348,9622.677246
2422.557898,-306.438199,-444.123565,9400.615463
2422.558227,-536.266849,-148.041188,9844.739029
2422.558556,-383.047749,-444.123565,9844.739029
2422.558885,689.485948,-0.000000,8956.491898
2422.559214,1455.581446,370.102971,7328.038826
2422.559543,2681.334243,1184.329507,7031.956449
2422.559873,2374.896044,2368.659014,6661.853478
2422.560202,1991.848295,2368.659014,6883.915261
2422.560531,1225.752797,1184.329507,7624.121203
2422.560860,689.485948,1554.432478,7624.121203
2422.561189,689.485948,-518.144159,8512.368333
2422.561518,-1302.362347,-1628.453072,9104.533087
2422.561847,-1915.238745,-1850.514855,10288.862594
2422.562176,-1762.019645,-2294.638420,11177.109724
2422.562505,-1532.190996,-1776.494261,10658.965565
2422.562834,-1072.533697,-1110.308913,10732.986159
2422.563164,-689.485948,-740.205942,10584.944971
2422.563493,-536.266849,-0.000000,9844.739029
2422.563822,76.609550,-296.082377,9770.718434
2422.564151,1532.190996,-222.061783,10140.821405
2422.564480,1838.629195,592.164754,9030.512492
2422.564809,2987.772442,1184.329507,8438.347739
2422.565138,3217.601092,1850.514855,7328.038826
2422.565467,3524.039291,2146.597232,6883.915261
2422.565796,3524.039291,2072.576638,7105.977043
2422.566125,2681.334243,1554.432478,6883.915261
2422.566454,1149.143247,1258.350101,7624.121203
2422.566784,-229.828649,740.205942,8142.265362
2422.567113,-1225.752797,-592.164754,8808.450710
2422.567442,-2451.505594,-1776.494261,10288.862594
2422.567771,-2298.286494,-2516.700203,10288.862594
2422.568100,-1991.848295,-2368.659014,9548.656652
2422.568429,-1685.410096,-2960.823768,10214.842000
2422.568758,-1072.533697,-1998.556043,9844.739029
2422.569087,-995.924147,-1998.556043,10362.883188
2422.569416,-306.438199,-1924.535449,10288.862594
2422.569745,-459.657299,-1258.350101,9696.697840
2422.570075,0.000000,-888.247130,10140.821405
2422.570404,536.266849,-962.267725,10066.800811
2422.570733,1455.581446,-0.000000,8882.471304
2422.571062,2604.724693,1258.350101,9178.553681
2422.571391,3217.601092,1406.391290,6735.874072
2422.571720,3524.039291,2368.659014,7328.038826
2422.572049,2911.162892,2220.617826,7105.977043
2422.572378,1532.190996,2368.659014,6735.874072
2422.572707,383.047749,814.226536,8142.265362
2422.573036,-612.876398,148.041188,8438.347739
2422.573366,-1915.238745,-1332.370696,9474.636058
2422.573695,-2221.676944,-2294.638420,10436.903782
2422.574024,-2145.067394,-1998.556043,9548.656652
2422.574353,-1532.190996,-1184.329507,10140.821405
2422.574682,-1302.362347,-1036.288319,10066.800811
2422.575011,-995.924147,-74.020594,9992.780217
2422.575340,-689.485948,-740.205942,10584.944971
2422.575669,76.609550,-0.000000,9696.697840
2422.575998,0.000000,-74.020594,9992.780217
2422.576327,766.095498,-962.267725,10807.006753
2422.576656,2068.457845,-296.082377,9696.697840
2422.576986,3294.210641,888.247130,8290.306550
2422.577315,3983.696590,1480.411884,7105.977043
2422.577644,4060.306139,2368.659014,6957.935855
2422.577973,3907.087040,2146.597232,7476.080014
2422.578302,2834.553343,2886.803174,6513.812290
2422.578631,2451.505594,1628.453072,7105.977043
2422.578960,766.095498,592.164754,7920.203579
2422.579289,-766.095498,-0.000000,8660.409521
2422.579618,-2221.676944,-1998.556043,10214.842000
2422.579947,-2451.505594,-2368.659014,10510.924376
2422.580277,-2298.286494,-2516.700203,9696.697840
2422.580606,-1991.848295,-2368.659014,10436.903782
2422.580935,-2681.334243,-1924.535449,10436.903782
2422.581264,-1532.190996,-2072.576638,10807.006753
2422.581593,-1225.752797,-1554.432478,10732.986159
2422.581922,-766.095498,-962.267725,9992.780217
2422.582251,-536.266849,-1036.288319,9696.697840
2422.582580,-689.485948,-1110.308913,9918.759623
2422.582909,-459.657299,-1406.391290,10584.944971
2422.583238,1149.143247,-666.185348,9474.636058
2422.583568,1915.238745,370.102971,8142.265362
2422.583897,2757.943793,1480.411884,7105.977043
2422.584226,2757.943793,2442.679609,7105.977043
2422.584555,2451.505594,2664.741391,7328.038826
2422.584884,1225.752797,1480.411884,7031.956449
2422.585213,1072.533697,888.247130,7994.224174
2422.585542,0.000000,296.082377,8142.265362
2422.585871,-1072.533697,-592.164754,9030.512492
2422.586200,-1762.019645,-1406.391290,9696.697840
2422.586529,-1532.190996,-1554.432478,9918.759623
2422.586859,-1149.143247,-1406.391290,9474.636058
2422.587188,-536.266849,-1036.288319,9918.759623
2422.587517,-689.485948,-592.164754,9622.677246
2422.587846,-612.876398,-370.102971,10436.903782
2422.588175,-306.438199,-740.205942,10066.800811
2422.588504,0.000000,-518.144159,9844.739029
2422.588833,612.876398,-1036.288319,10584.944971
2422.589162,1225.752797,-0.000000,9252.574275
2422.589491,2681.334243,888.247130,8586.388927
2422.589820,3140.991542,962.267725,8068.244768
2422.590149,3600.648841,1628.453072,7254.018232
2422.590479,3753.867940,2146.597232,7179.997637
2422.590808,2681.334243,2368.659014,7031.956449
2422.591137,2068.457845,1776.494261,7105.977043
2422.591466,459.657299,518.144159,7994.224174
2422.591795,-536.266849,-296.082377,8734.430116
2422.592124,-1838.629195,-1406.391290,9918.759623
2422.592453,-1991.848295,-2368.659014,10140.821405
2422.592782,-2145.067394,-2442.679609,9474.636058
2422.593111,-1608.800546,-2072.576638,9696.697840
2422.593440,-1532.190996,-1998.556043,9992.780217
2422.593769,-1378.971896,-1998.556043,10436.903782
2422.594098,-995.924147,-2220.617826,10955.047942
2422.594427,-536.266849,-1480.411884,10584.944971
2422.594756,-383.047749,-1554.432478,10510.924376
2422.595085,-612.876398,-1554.432478,10214.842000
2422.595414,-536.266849,-1258.350101,11103.089130
2422.595743,1149.143247,-222.061783,9696.697840
2422.596072,2528.115143,1110.308913,7698.141797
2422.596401,2987.772442,1924.535449,7105.977043
2422.596730,2681.334243,2442.679609,6735.874072
2422.597059,1378.971896,2812.782580,7254.018232
2422.597388,1685.410096,2072.576638,7328.038826
2422.597717,766.095498,962.267725,7402.059420
2422.598046,-689.485948,-148.041188,8364.327145
2422.598375,-1608.800546,-1110.308913,8808.450710
2422.598704,-2145.067394,-1998.556043,10140.821405
2422.599033,-2451.505594,-1554.432478,9178.553681
2422.599362,-2068.457845,-1184.329507,9992.780217
2422.599691,-536.266849,-888.247130,9918.759623
2422.600020,-995.924147,-0.000000,9992.780217
2422.600349,-459.657299,-888.247130,10732.986159
2422.600678,-306.438199,-148.041188,9696.697840
2422.601007,-229.828649,-0.000000,9548.656652
2422.601336,229.828649,-1110.308913,10732.986159
2422.601665,1225.752797,-666.185348,9844.739029
2422.601994,2298.286494,370.102971,8438.347739
2422.602323,3907.087040,1332.370696,7920.203579
2422.602652,3907.087040,1480.411884,6587.832884
2422.602981,4519.963438,2812.782580,7179.997637
2422.603310,3600.648841,2812.782580,7105.977043
2422.603639,2374.896044,1850.514855,6735.874072
2422.603968,1608.800546,888.247130,8068.244768
2422.604297,153.219100,222.061783,8956.491898
2422.604626,-2221.676944,-1406.391290,10140.821405
2422.604955,-2374.896044,-1998.556043,10584.944971
2422.605284,-1762.019645,-2368.659014,9770.718434
2422.605613,-1915.238745,-2072.576638,10140.821405
2422.605942,-1991.848295,-1554.432478,10732.986159
2422.606271,-1838.629195,-1480.411884,10436.903782
2422.606600,-1072.533697,-1998.556043,11473.192101
2422.606929,-612.876398,-1406.391290,9992.780217
2422.607258,-229.828649,-1332.370696,9474.636058
2422.607587,-689.485948,-1110.308913,9918.759623
2422.607916,-306.438199,-1258.350101,10584.944971
2422.608245,1149.143247,-666.185348,9252.574275
2422.608574,1915.238745,444.123565,7772.162391
2422.608903,4366.744339,1258.350101,7105.977043
2422.609232,3217.601092,2220.617826,6513.812290
2422.609561,3064.381992,2590.720797,7254.018232
2422.609890,1915.238745,2220.617826,6883.915261
2422.610219,1532.190996,1258.350101,7402.059420
2422.610548,0.000000,444.123565,8216.285956
2422.610877,-536.266849,-740.205942,8512.368333
2422.611206,-1762.019645,-1702.473667,9696.697840
2422.611535,-1838.629195,-1998.556043,9992.780217
2422.611864,-1149.143247,-1628.453072,9252.574275
2422.612193,-1149.143247,-1406.391290,9992.780217
2422.612522,-689.485948,-666.185348,9770.718434
2422.612851,0.000000,-518.144159,9992.780217
2422.613180,0.000000,-962.267725,10436.903782
2422.613509,229.828649,-296.082377,9622.677246
2422.613838,536.266849,-1110.308913,10362.883188
2422.614167,1378.971896,-148.041188,9474.636058
2422.614496,2757.943793,888.247130,8808.450710
2422.614825,3294.210641,1554.432478,7846.182985
2422.615154,3830.477490,1998.556043,7105.977043
2422.615483,3830.477490,2072.576638,7698.141797
2422.615812,3294.210641,2368.659014,7105.977043
2422.616141,2374.896044,2072.576638,7179.997637
2422.616470,689.485948,666.185348,8290.306550
2422.616799,-612.876398,-296.082377,8882.471304
2422.617128,-2374.896044,-1702.473667,9918.759623
2422.617457,-2221.676944,-2442.679609,10288.862594
2422.617787,-2451.505594,-2294.638420,9474.636058
2422.618116,-2374.896044,-2664.741391,10436.903782
2422.618445,-1455.581446,-1924.535449,10362.883188
2422.618774,-1685.410096,-1554.432478,10732.986159
2422.619103,-995.924147,-1850.514855,10807.006753
2422.619432,0.000000,-1110.308913,10066.800811
2422.619761,0.000000,-888.247130,9474.636058
2422.620090,-306.438199,-1036.288319,9992.780217
2422.620419,689.485948,-1110.308913,10881.027347
2422.620748,1455.581446,370.102971,7920.203579
2422.621077,3294.210641,1480.411884,7920.203579
2422.621406,2987.772442,1924.535449,5995.668130
2422.621735,2911.162892,2812.782580,6809.894666
2422.622064,1838.629195,2442.679609,7105.977043
2422.622393,1072.533697,1258.350101,6883.915261
2422.622722,76.609550,-0.000000,7846.182985
2422.623051,-766.095498,-592.164754,8512.368333
2422.623380,-1838.629195,-1480.411884,9548.656652
2422.623709,-2068.457845,-1702.473667,9474.636058
2422.624038,-1532.190996,-1184.329507,9326.594869
2422.624367,-1532.190996,-1332.370696,10214.842000
2422.624696,-919.314598,-518.144159,9992.780217
2422.625025,-459.657299,-0.000000,9992.780217
2422.625354,0.000000,-518.144159,11103.089130
2422.625683,-383.047749,-222.061783,10066.800811
2422.626012,153.219100,-666.185348,10436.903782
2422.626341,536.266849,-1036.288319,10510.924376
2422.626670,1685.410096,-148.041188,9030.512492
2422.626999,3294.210641,888.247130,8956.491898
2422.627328,4136.915689,1332.370696,7402.059420
2422.627657,4519.963438,2220.617826,7105.977043
2422.627986,3370.820191,2220.617826,7328.038826
2422.628315,2834.553343,2146.597232,7105.977043
2422.628644,2145.067394,1258.350101,7698.141797
2422.628973,229.828649,740.205942,8290.306550
2422.629302,-1072.533697,-592.164754,9326.594869
2422.629631,-2528.115143,-1406.391290,10288.862594
2422.629960,-1915.238745,-1998.556043,10214.842000
2422.630289,-1685.410096,-1850.514855,9326.594869
2422.630618,-1608.800546,-1702.473667,10288.862594
2422.630947,-1838.629195,-1110.308913,10140.821405
2422.631276,-1532.190996,-1406.391290,10436.903782
2422.631605,-689.485948,-1554.432478,10584.944971
2422.631934,-536.266849,-592.164754,10288.862594
2422.632263,-612.876398,-1702.473667,9548.656652
2422.632592,-459.657299,-1184.329507,9770.718434
2422.632921,306.438199,-888.247130,10362.883188
2422.633250,1532.190996,-0.000000,8438.347739
2422.633579,3140.991542,962.267725,7920.203579
2422.633908,2681.334243,1554.432478,7031.956449
2422.634237,3064.381992,2072.576638,6957.935855
2422.634566,2681.334243,2294.638420,7402.059420
2422.634895,1915.238745,1776.494261,7105.977043
2422.635224,1149.143247,814.226536,7624.121203
2422.635553,-229.828649,444.123565,8068.244768
2422.635882,-1072.533697,-888.247130,8956.491898
2422.636211,-1455.581446,-2072.576638,9992.780217
2422.636540,-1225.752797,-2072.576638,9696.697840
2422.636869,-842.705048,-2072.576638,9696.697840
2422.637198,-995.924147,-1258.350101,10436.903782
2422.637527,-919.314598,-740.205942,9918.759623
2422.637856,-842.705048,-1110.308913,10510.924376
2422.638185,-766.095498,-962.267725,10362.883188
2422.638514,0.000000,-888.247130,10214.842000
2422.638843,306.438199,-1554.432478,11029.068536
2422.639172,842.705048,-0.000000,8956.491898
2422.639501,2681.334243,962.267725,8660.409521
2422.639830,3217.601092,1628.453072,7994.224174
2422.640159,4060.306139,2220.617826,7402.059420
2422.640488,3370.820191,2590.720797,7772.162391
2422.640817,2834.553343,2442.679609,6957.935855
2422.641146,2068.457845,1776.494261,7476.080014
2422.641475,919.314598,222.061783,7772.162391
2422.641804,-536.266849,-0.000000,8808.450710
2422.642133,-2145.067394,-1480.411884,9696.697840
2422.642462,-1991.848295,-2146.597232,10066.800811
2422.642791,-1838.629195,-1850.514855,9474.636058
2422.643120,-1302.362347,-1850.514855,9844.739029
2422.643449,-1149.143247,-1628.453072,10066.800811
2422.643778,-2068.457845,-1702.473667,10658.965565
2422.644107,-919.314598,-1702.473667,10881.027347
2422.644436,-842.705048,-1258.350101,10214.842000
2422.644765,-306.438199,-1184.329507,9918.759623
2422.645094,-612.876398,-740.205942,9696.697840
2422.645423,-536.266849,-740.205942,9918.759623
2422.645752,842.705048,-888.247130,9770.718434
2422.646081,1991.848295,370.102971,9030.512492
2422.646410,2298.286494,1406.391290,6735.874072
2422.646739,2757.943793,2072.576638,6587.832884
2422.647068,2145.067394,2516.700203,6587.832884
2422.647397,1838.629195,1628.453072,7328.038826
2422.647726,919.314598,888.247130,7402.059420
2422.648055,229.828649,666.185348,7772.162391
2422.648384,-766.095498,-518.144159,9104.533087
2422.648713,-1838.629195,-1406.391290,9474.636058
2422.649042,-1915.238745,-1776.494261,10288.862594
2422.649371,-1532.190996,-1406.391290,9548.656652
2422.649700,-842.705048,-1480.411884,10140.821405
2422.650029,-995.924147,-740.205942,10140.821405
2422.650358,-153.219100,-740.205942,10732.986159
2422.650687,-842.705048,-962.267725,10288.862594
2422.651016,-383.047749,-814.226536,9918.759623
2422.651345,0.000000,-444.123565,10362.883188
2422.651674,1225.752797,-148.041188,10066.800811
2422.652003,2145.067394,888.247130,8364.327145
2422.652332,3370.820191,1258.350101,8290.306550
2422.652661,3370.820191,1998.556043,7105.977043
2422.652990,4060.306139,2146.597232,7105.977043
2422.653319,3217.601092,2590.720797,7328.038826
2422.653648,2604.724693,2072.576638,7402.059420
2422.653977,1072.533697,962.267725,7846.182985
2422.654306,-766.095498,518.144159,8438.347739
2422.654635,-1378.971896,-1184.329507,9844.739029
2422.654964,-2451.505594,-1924.535449,10362.883188
2422.655293,-1455.581446,-1998.556043,9474.636058
2422.655622,-1225.752797,-2220.617826,9770.718434
2422.655951,-1225.752797,-1998.556043,9918.759623
2422.656280,-1149.143247,-1332.370696,10214.842000
2422.656609,-766.095498,-1924.535449,10510.924376
2422.656938,-766.095498,-1628.453072,9992.780217
2422.657267,-229.828649,-814.226536,10288.862594
2422.657596,-766.095498,-1554.432478,9918.759623
2422.657925,-995.924147,-1110.308913,10362.883188
2422.658254,383.047749,-1036.288319,10288.862594
2422.658583,1762.019645,-74.020594,8364.327145
2422.658912,2911.162892,1036.288319,7624.121203
2422.659241,3217.601092,1702.473667,7179.997637
2422.659570,2757.943793,2664.741391,7105.977043
2422.659899,2528.115143,1554.432478,7550.100608
2422.660228,1532.190996,1258.350101,7846.182985
2422.660557,689.485948,592.164754,7772.162391
2422.660886,-459.657299,-370.102971,8586.388927
2422.661215,-1685.410096,-1332.370696,9326.594869
2422.661544,-1608.800546,-1628.453072,10807.006753
2422.661873,-1532.190996,-2146.597232,10214.842000
2422.662202,-842.705048,-1480.411884,9918.759623
2422.662531,-842.705048,-814.226536,10584.944971
2422.662860,-383.047749,-666.185348,10362.883188
2422.663189,-383.047749,-814.226536,10436.903782
2422.663518,0.000000,-666.185348,10362.883188
2422.663847,0.000000,-518.144159,9918.759623
2422.664176,1225.752797,-592.164754,10584.944971
2422.664506,1915.238745,1110.308913,9104.533087
2422.664835,2681.334243,1258.350101,8438.347739
2422.665164,3677.258390,1850.514855,7031.956449
2422.665493,4136.915689,2664.741391,6513.812290
2422.665822,3677.258390,2738.761985,6661.853478
2422.666151,2757.943793,2886.803174,6439.791695
2422.666480,1532.190996,1406.391290,7105.977043
2422.666809,-306.438199,-0.000000,8216.285956
2422.667138,-1378.971896,-1332.370696,9474.636058
2422.667467,-2374.896044,-2294.638420,9992.780217
2422.667796,-1608.800546,-2664.741391,9918.759623
2422.668125,-1762.019645,-2294.638420,9474.636058
2422.668454,-1149.143247,-1924.535449,10066.800811
2422.668783,-1608.800546,-2072.576638,10510.924376
2422.669112,-1072.533697,-1776.494261,11695.253884
2422.669441,-766.095498,-1702.473667,10732.986159
2422.669770,-306.438199,-1258.350101,9992.780217
2422.670099,-612.876398,-1184.329507,9696.697840
2422.670428,-842.705048,-962.267725,10140.821405
2422.670757,-919.314598,-962.267725,10510.924376
2422.671086,995.924147,-814.226536,9696.697840
2422.671415,1915.238745,1184.329507,7328.038826
2422.671744,2987.772442,1998.556043,7105.977043
2422.672073,2451.505594,2664.741391,6291.750507
2422.672402,1915.238745,2664.741391,6883.915261
2422.672731,1455.581446,1480.411884,7328.038826
2422.673060,689.485948,1258.350101,7550.100608
2422.673389,-459.657299,-370.102971,8660.409521
2422.673718,-1915.238745,-1776.494261,9548.656652
2422.674047,-2221.676944,-2220.617826,10658.965565
2422.674376,-1685.410096,-1554.432478,10140.821405
2422.674705,-612.876398,-1184.329507,9770.718434
2422.675034,-612.876398,-740.205942,10288.862594
2422.675363,-766.095498,-0.000000,10658.965565
2422.675692,-306.438199,-370.102971,10658.965565
2422.676021,76.609550,-888.247130,10066.800811
2422.676350,153.219100,-74.020594,9918.759623
2422.676679,459.657299,-444.123565,10584.944971
2422.677008,1302.362347,-148.041188,9474.636058
2422.677337,2451.505594,962.267725,8216.285956
2422.677666,3983.696590,1850.514855,7328.038826
2422.677995,3753.867940,1998.556043,6809.894666
2422.678324,3830.477490,2294.638420,7179.997637
2422.678653,3524.039291,1924.535449,6365.771101
2422.678982,2298.286494,1776.494261,6957.935855
2422.679311,612.876398,666.185348,8216.285956
2422.679640,-689.485948,-222.061783,8808.450710
2422.679969,-1762.019645,-1406.391290,10288.862594
2422.680298,-2298.286494,-2220.617826,10436.903782
2422.680627,-1149.143247,-2590.720797,10066.800811
2422.680956,-1302.362347,-1924.535449,10288.862594
2422.681285,-1225.752797,-1850.514855,10362.883188
2422.681614,-1302.362347,-1480.411884,10362.883188
2422.681943,-842.705048,-1406.391290,10658.965565
2422.682272,0.000000,-1998.556043,10140.821405
2422.682601,-383.047749,-1480.411884,9770.718434
2422.682930,-536.266849,-1110.308913,10140.821405
2422.683259,0.000000,-1406.391290,9992.780217
2422.683588,766.095498,-444.123565,9400.615463
2422.683917,2221.676944,740.205942,7772.162391
2422.684246,3217.601092,1480.411884,7105.977043
2422.684575,3140.991542,2368.659014,6957.935855
2422.684904,2681.334243,2442.679609,6735.874072
2422.685233,1685.410096,2220.617826,7105.977043
2422.685562,1455.581446,1258.350101,7476.080014
2422.685891,0.000000,444.123565,8364.327145
2422.686220,-1302.362347,-666.185348,8882.471304
2422.686549,-2068.457845,-1850.514855,10066.800811
2422.686878,-2145.067394,-2146.597232,10288.862594
2422.687207,-1149.143247,-1628.453072,10140.821405
2422.687536,-766.095498,-1258.350101,10658.965565
2422.687865,-612.876398,-1258.350101,10140.821405
2422.688194,0.000000,-592.164754,10288.862594
2422.688523,229.828649,-666.185348,10140.821405
2422.688852,0.000000,-0.000000,9696.697840
2422.689181,229.828649,-740.205942,10436.903782
2422.689510,2068.457845,148.041188,8956.491898
2422.689839,3677.258390,1184.329507,8290.306550
2422.690168,3830.477490,2368.659014,7179.997637
2422.690497,4060.306139,2516.700203,6365.771101
2422.690826,3753.867940,2812.782580,6809.894666
2422.691155,2528.115143,2886.803174,6513.812290
2422.691484,1762.019645,1702.473667,6957.935855
2422.691813,76.609550,-0.000000,8142.265362
2422.692142,-2374.896044,-888.247130,9252.574275
2422.692471,-2604.724693,-2886.803174,11103.089130
2422.692800,-2451.505594,-3108.864956,9770.718434
2422.693129,-2145.067394,-2738.761985,9622.677246
2422.693458,-1991.848295,-2886.803174,10955.047942
2422.693787,-1838.629195,-1998.556043,10436.903782
2422.694116,-1225.752797,-1776.494261,11695.253884
2422.694445,-1225.752797,-1702.473667,11103.089130
2422.694774,0.000000,-444.123565,10214.842000
2422.695103,0.000000,-592.164754,10066.800811
2422.695433,-919.314598,-222.061783,9770.718434
2422.695762,-306.438199,-1110.308913,10955.047942
2422.696091,919.314598,-0.000000,9326.594869
2422.696420,1762.019645,1036.288319,7031.956449
2422.696749,2528.115143,2072.576638,7179.997637
2422.697078,2681.334243,2664.741391,5921.647536
2422.697407,2451.505594,2516.700203,7105.977043
2422.697736,1302.362347,1406.391290,7031.956449
2422.698065,842.705048,1110.308913,7402.059420
2422.698394,-153.219100,-518.144159,8142.265362
2422.698723,-919.314598,-1110.308913,8956.491898
2422.699052,-2221.676944,-2146.597232,10214.842000
2422.699381,-1685.410096,-2220.617826,9770.718434
2422.699711,-766.095498,-1036.288319,9992.780217
2422.700040,-612.876398,-666.185348,10288.862594
2422.700369,-766.095498,-74.020594,9992.780217
2422.700698,0.000000,-444.123565,10510.924376
2422.701027,76.609550,-740.205942,9696.697840
2422.701356,766.095498,-1036.288319,9474.636058
2422.701685,0.000000,-962.267725,10288.862594
2422.702014,1455.581446,-518.144159,9326.594869
2422.702343,2681.334243,888.247130,7994.224174
2422.702672,3677.258390,1480.411884,7402.059420
2422.703001,3677.258390,2072.576638,6291.750507
2422.703330,4366.744339,2294.638420,7105.977043
2422.703659,3217.601092,2294.638420,6587.832884
2422.703989,2757.943793,1628.453072,6143.709319
2422.704318,995.924147,666.185348,8068.244768
2422.704647,-766.095498,-148.041188,8734.430116
2422.704976,-1762.019645,-1924.535449,10288.862594
2422.705305,-2068.457845,-2590.720797,10658.965565
2422.705634,-1762.019645,-2738.761985,10066.800811
2422.705963,-1455.581446,-2146.597232,10955.047942
2422.706292,-1838.629195,-1776.494261,10362.883188
2422.706621,-1455.581446,-1628.453072,10807.006753
2422.706950,-919.314598,-1776.494261,11177.109724
2422.707279,-459.657299,-888.247130,10214.842000
2422.707608,0.000000,-888.247130,9696.697840
2422.707937,0.000000,-888.247130,9992.780217
2422.708267,-612.876398,-518.144159,10140.821405
2422.708596,229.828649,-518.144159,9992.780217
2422.708925,1225.752797,518.144159,8438.347739
2422.709254,2528.115143,1628.453072,7254.018232
2422.709583,2604.724693,2368.659014,6439.791695
2422.709912,2145.067394,2738.761985,6735.874072
2422.710241,1915.238745,1850.514855,7328.038826
2422.710570,1455.581446,1924.535449,7402.059420
2422.710899,536.266849,814.226536,7920.203579
2422.711228,-229.828649,-444.123565,8734.430116
2422.711557,-1378.971896,-1332.370696,9400.615463
2422.711886,-1915.238745,-2220.617826,10288.862594
2422.712215,-1378.971896,-1924.535449,10584.944971
2422.712545,-1225.752797,-1776.494261,10140.821405
2422.712874,-536.266849,-888.247130,10584.944971
2422.713203,-383.047749,-1184.329507,10288.862594
2422.713532,-306.438199,-592.164754,10288.862594
2422.713861,0.000000,-518.144159,10066.800811
2422.714190,1149.143247,222.061783,9770.718434
2422.714519,2221.676944,814.226536,8660.409521
2422.714848,2834.553343,1628.453072,7994.224174
2422.715177,3447.429741,1628.453072,7254.018232
2422.715506,3753.867940,1998.556043,7476.080014
2422.715835,3294.210641,1924.535449,6809.894666
2422.716164,2145.067394,1776.494261,7105.977043
2422.716493,842.705048,962.267725,7994.224174
2422.716823,-612.876398,-74.020594,8512.368333
2422.717152,-1608.800546,-1924.535449,10288.862594
2422.717481,-2451.505594,-2812.782580,10288.862594
2422.717810,-2298.286494,-2812.782580,9696.697840
2422.718139,-2221.676944,-2442.679609,9992.780217
2422.718468,-1838.629195,-2072.576638,10140.821405
2422.718797,-1532.190996,-1924.535449,10288.862594
2422.719126,-1072.533697,-1702.473667,10881.027347
2422.719455,-459.657299,-888.247130,10288.862594
2422.719784,0.000000,-814.226536,9844.739029
2422.720113,-229.828649,-518.144159,10140.821405
2422.720442,0.000000,-962.267725,10436.903782
2422.720771,995.924147,-370.102971,9474.636058
2422.721101,2374.896044,962.267725,7624.121203
2422.721430,3064.381992,1776.494261,6661.853478
2422.721759,3140.991542,2442.679609,6513.812290
2422.722088,2451.505594,2368.659014,7179.997637
2422.722417,1378.971896,2146.597232,7031.956449
2422.722746,995.924147,740.205942,7105.977043
2422.723075,-459.657299,-74.020594,8290.306550
2422.723404,-1608.800546,-1258.350101,8734.430116
2422.723733,-2068.457845,-2220.617826,10140.821405
2422.724062,-1838.629195,-1924.535449,10066.800811
2422.724391,-766.095498,-1702.473667,9992.780217
2422.724720,-1302.362347,-1036.288319,9770.718434
2422.725049,-689.485948,-222.061783,9548.656652
2422.725379,-459.657299,-444.123565,10658.965565
2422.725708,0.000000,-370.102971,10288.862594
2422.726037,76.609550,-666.185348,10362.883188
2422.726366,1149.143247,-962.267725,10955.047942
2422.726695,995.924147,444.123565,8956.491898
2422.727024,3753.867940,962.267725,8882.471304
2422.727353,3907.087040,1702.473667,7328.038826
2422.727682,4213.525239,2368.659014,7624.121203
2422.728011,3830.477490,2738.761985,7328.038826
2422.728340,2681.334243,2590.720797,7031.956449
2422.728669,1302.362347,1406.391290,8364.327145
2422.728998,229.828649,444.123565,8512.368333
2422.729327,-1072.533697,-592.164754,9474.636058
2422.729657,-2145.067394,-2368.659014,10362.883188
2422.729986,-2221.676944,-2146.597232,10362.883188
2422.730315,-1991.848295,-1924.535449,9696.697840
2422.730644,-1838.629195,-1776.494261,9992.780217
2422.730973,-1838.629195,-1258.350101,10066.800811
2422.731302,-919.314598,-1480.411884,10658.965565
2422.731631,-842.705048,-740.205942,10436.903782
2422.731960,-383.047749,-1036.288319,9918.759623
2422.732289,0.000000,-962.267725,10066.800811
2422.732618,-612.876398,-1110.308913,9770.718434
2422.732947,229.828649,-1406.391290,10732.986159
2422.733276,1685.410096,-370.102971,8882.471304
2422.733605,2987.772442,1110.308913,7328.038826
2422.733935,3140.991542,1702.473667,7179.997637
2422.734264,3064.381992,3256.906145,6735.874072
2422.734593,2528.115143,2368.659014,7105.977043
2422.734922,1685.410096,1184.329507,7031.956449
2422.735251,919.314598,814.226536,7402.059420
2422.735580,0.000000,-740.205942,8364.327145
2422.735909,-1532.190996,-1480.411884,9252.574275
2422.736238,-1762.019645,-1998.556043,10881.027347
2422.736567,-1608.800546,-1702.473667,9696.697840
2422.736896,-995.924147,-1628.453072,9622.677246
2422.737225,-995.924147,-1110.308913,10066.800811
2422.737554,-536.266849,-0.000000,9918.759623
2422.737883,-383.047749,-666.185348,10584.944971
2422.738213,-229.828649,-814.226536,10066.800811
2422.738542,1149.143247,-814.226536,10140.821405
2422.738871,1532.190996,-444.123565,9252.574275
2422.739200,2451.505594,814.226536,8734.430116
2422.739529,2987.772442,1332.370696,7994.224174
2422.739858,3370.820191,1628.453072,7772.162391
2422.740187,3600.648841,1184.329507,7179.997637
2422.740516,3217.601092,1628.453072,7772.162391
2422.740845,1915.238745,1332.370696,8068.244768
2422.741174,689.485948,814.226536,7624.121203
2422.741503,-306.438199,-296.082377,8734.430116
2422.741832,-995.924147,-814.226536,9548.656652
2422.742161,-1915.238745,-1332.370696,9400.615463
2422.742491,-1838.629195,-1628.453072,9918.759623
2422.742820,-1455.581446,-1332.370696,9474.636058
2422.743149,-1302.362347,-1850.514855,9474.636058
2422.743478,-766.095498,-1554.432478,10066.800811
2422.743807,-919.314598,-1110.308913,10140.821405
2422.744136,-766.095498,-1184.329507,10140.821405
2422.744465,-536.266849,-1184.329507,9992.780217
2422.744794,0.000000,-1406.391290,10584.944971
2422.745123,536.266849,-1036.288319,9474.636058
2422.745452,1378.971896,-74.020594,8512.368333
2422.745781,1685.410096,296.082377,8290.306550
2422.746110,2604.724693,1554.432478,7772.162391
2422.746439,2451.505594,1998.556043,7698.141797
2422.746769,1685.410096,1776.494261,7550.100608
2422.747098,995.924147,1332.370696,7550.100608
2422.747427,0.000000,296.082377,8142.265362
2422.747756,-766.095498,-370.102971,8290.306550
2422.748085,-1915.238745,-1332.370696,9030.512492
2422.748414,-1608.800546,-1554.432478,10288.862594
2422.748743,-1532.190996,-1850.514855,9622.677246
2422.749072,-1532.190996,-962.267725,9918.759623
2422.749401,-1149.143247,-518.144159,9548.656652
2422.749730,-689.485948,-518.144159,9622.677246
2422.750059,-383.047749,-518.144159,9918.759623
2422.750388,0.000000,-592.164754,10807.006753
2422.750717,689.485948,-592.164754,10955.047942
2422.751047,1378.971896,-296.082377,9770.718434
2422.751376,2528.115143,518.144159,9400.615463
2422.751705,2834.553343,1036.288319,8438.347739
2422.752034,3370.820191,1628.453072,8290.306550
2422.752363,3600.648841,1998.556043,7920.203579
2422.752692,3677.258390,2146.597232,7550.100608
2422.753021,3064.381992,1554.432478,7920.203579
2422.753350,1302.362347,888.247130,8142.265362
2422.753679,153.219100,-0.000000,8512.368333
2422.754008,-1225.752797,-222.061783,8882.471304
2422.754337,-1608.800546,-962.267725,9252.574275
2422.754666,-1378.971896,-1184.329507,9992.780217
2422.754995,-1762.019645,-888.247130,9474.636058
2422.755325,-1455.581446,-814.226536,9104.533087
2422.755654,-995.924147,-1850.514855,9844.739029
2422.755983,-995.924147,-1332.370696,9696.697840
2422.756312,-1225.752797,-962.267725,10066.800811
2422.756641,-229.828649,-1776.494261,9992.780217
2422.756970,-383.047749,-1628.453072,9696.697840
2422.757299,153.219100,-1628.453072,11177.109724
2422.757628,919.314598,-1628.453072,9474.636058
2422.757957,1838.629195,-518.144159,8734.430116
2422.758286,2604.724693,1184.329507,7920.203579
2422.758615,2834.553343,1554.432478,7402.059420
2422.758944,2451.505594,2220.617826,7994.224174
2422.759273,1838.629195,1702.473667,7476.080014
2422.759603,1149.143247,814.226536,7846.182985
2422.759932,0.000000,296.082377,8216.285956
2422.760261,-612.876398,-296.082377,8956.491898
2422.760590,-1838.629195,-1332.370696,9696.697840
2422.760919,-1532.190996,-1332.370696,9992.780217
2422.761248,-1532.190996,-888.247130,9474.636058
2422.761577,-1149.143247,-740.205942,9918.759623
2422.761906,-1685.410096,-666.185348,9696.697840
2422.762235,-459.657299,-518.144159,9770.718434
2422.762564,-459.657299,-296.082377,10140.821405
2422.762893,76.609550,-740.205942,10214.842000
2422.763222,919.314598,-592.164754,9918.759623
2422.763552,1991.848295,-148.041188,9474.636058
2422.763881,2221.676944,148.041188,8808.450710
2422.764210,2298.286494,888.247130,8068.244768
2422.764539,3447.429741,1554.432478,7994.224174
2422.764868,3217.601092,1850.514855,8068.244768
2422.765197,2757.943793,2146.597232,8068.244768
2422.765526,1915.238745,1554.432478,7994.224174
2422.765855,842.705048,962.267725,8290.306550
2422.766184,0.000000,222.061783,8660.409521
2422.766513,-383.047749,-518.144159,8586.388927
2422.766842,-842.705048,-814.226536,8882.471304
2422.767171,-1225.752797,-962.267725,9400.615463
2422.767500,-1149.143247,-814.226536,9178.553681
2422.767830,-1149.143247,-1406.391290,9252.574275
2422.768159,-1149.143247,-1554.432478,9622.677246
2422.768488,-766.095498,-1480.411884,9622.677246
2422.768817,-995.924147,-1554.432478,9918.759623
2422.769146,-612.876398,-1776.494261,10510.924376
2422.769475,0.000000,-2368.659014,10140.821405
2422.769804,383.047749,-1258.350101,10140.821405
2422.770133,995.924147,-740.205942,9178.553681
2422.770462,1762.019645,-0.000000,8438.347739
2422.770791,1991.848295,962.267725,8216.285956
2422.771120,2374.896044,1406.391290,8290.306550
2422.771449,1685.410096,1480.411884,7698.141797
2422.771778,1532.190996,740.205942,8142.265362
2422.772108,383.047749,592.164754,8216.285956
2422.772437,-383.047749,-0.000000,8512.368333
2422.772766,-1072.533697,-296.082377,8808.450710
2422.773095,-1915.238745,-592.164754,9252.574275
2422.773424,-1378.971896,-1406.391290,9400.615463
2422.773753,-2068.457845,-740.205942,9474.636058
2422.774082,-1149.143247,-814.226536,9326.594869
2422.774411,-1302.362347,-888.247130,9474.636058
2422.774740,-689.485948,-592.164754,9918.759623
2422.775069,-229.828649,-444.123565,9770.718434
2422.775398,0.000000,-444.123565,9992.780217
2422.775727,842.705048,-666.185348,10436.903782
2422.776056,1762.019645,-0.000000,8956.491898
2422.776386,2528.115143,370.102971,8882.471304
2422.776715,2757.943793,666.185348,8142.265362
2422.777044,3447.429741,1406.391290,7994.224174
2422.777373,3140.991542,1850.514855,8290.306550
2422.777702,2757.943793,1776.494261,7772.162391
2422.778031,1838.629195,1184.329507,7846.182985
2422.778360,919.314598,888.247130,8290.306550
2422.778689,-229.828649,296.082377,8808.450710
2422.779018,-842.705048,-222.061783,8660.409521
2422.779347,-1149.143247,-592.164754,9104.533087
2422.779676,-1455.581446,-962.267725,9326.594869
2422.780005,-1685.410096,-740.205942,9178.553681
2422.780334,-1455.581446,-1406.391290,9474.636058
2422.780664,-1532.190996,-2072.576638,9992.780217
2422.780993,-1915.238745,-1554.432478,9548.656652
2422.781322,-1149.143247,-1998.556043,9992.780217
2422.781651,-766.095498,-1850.514855,10140.821405
2422.781980,-459.657299,-1924.535449,10066.800811
2422.782309,229.828649,-1776.494261,10658.965565
2422.782638,1225.752797,-814.226536,9622.677246
2422.782967,2374.896044,148.041188,8882.471304
2422.783296,3064.381992,962.267725,8142.265362
2422.783625,3064.381992,1850.514855,7772.162391
2422.783954,2911.162892,1924.535449,8068.244768
2422.784283,1838.629195,1850.514855,7994.224174
2422.784612,1225.752797,1184.329507,7994.224174
2422.784942,0.000000,444.123565,8364.327145
2422.785271,-1225.752797,-222.061783,8512.368333
2422.785600,-1685.410096,-1184.329507,9474.636058
2422.785929,-1838.629195,-1036.288319,9622.677246
2422.786258,-1762.019645,-814.226536,9400.615463
2422.786587,-1685.410096,-1110.308913,9622.677246
2422.786916,-1149.143247,-592.164754,9696.697840
2422.787245,-766.095498,-740.205942,9992.780217
2422.787574,-536.266849,-888.247130,9844.739029
2422.787903,153.219100,-518.144159,9474.636058
2422.788232,919.314598,-740.205942,10881.027347
2422.788561,1838.629195,296.082377,8882.471304
2422.788890,2757.943793,296.082377,8956.491898
2422.789220,3447.429741,1036.288319,7698.141797
2422.789549,3983.696590,2072.576638,7624.121203
2422.789878,3600.648841,1776.494261,7920.203579
2422.790207,2528.115143,1850.514855,6957.935855
2422.790536,1991.848295,1628.453072,8216.285956
2422.790865,536.266849,444.123565,8290.306550
2422.791194,-383.047749,-148.041188,8438.347739
2422.791523,-1685.410096,-1184.329507,9252.574275
2422.791852,-1455.581446,-1184.329507,9178.553681
2422.792181,-1532.190996,-1332.370696,9474.636058
2422.792510,-1302.362347,-1184.329507,9400.615463
2422.792839,-1225.752797,-1184.329507,9696.697840
2422.793168,-1302.362347,-2072.576638,9770.718434
2422.793497,-1149.143247,-1776.494261,10140.821405
2422.793826,-995.924147,-1702.473667,10140.821405
2422.794155,-842.705048,-1998.556043,10140.821405
2422.794484,-689.485948,-1924.535449,10955.047942
2422.794813,-459.657299,-1628.453072,10362.883188
2422.795143,229.828649,-1036.288319,10436.903782
2422.795472,842.705048,-666.185348,9104.533087
2422.795801,2298.286494,814.226536,7846.182985
2422.796130,3064.381992,1998.556043,7772.162391
2422.796459,2681.334243,2368.659014,7105.977043
2422.796788,2068.457845,2072.576638,7328.038826
2422.797117,1532.190996,1184.329507,7550.100608
2422.797446,1072.533697,666.185348,7698.141797
2422.797775,-459.657299,-0.000000,7920.203579
2422.798104,-1762.019645,-962.267725,9030.512492
2422.798433,-1762.019645,-1628.453072,9844.739029
2422.798762,-1455.581446,-814.226536,9326.594869
2422.799091,-995.924147,-814.226536,9474.636058
2422.799420,-1149.143247,-814.226536,9770.718434
2422.799749,-459.657299,-666.185348,10140.821405
2422.800078,-306.438199,-518.144159,10436.903782
2422.800407,-153.219100,-444.123565,9992.780217
2422.800736,0.000000,-518.144159,10066.800811
2422.801065,306.438199,-666.185348,10584.944971
2422.801394,1455.581446,-370.102971,9770.718434
2422.801723,2604.724693,1184.329507,8438.347739
2422.802052,4060.306139,740.205942,8142.265362
2422.802381,3677.258390,2146.597232,7179.997637
2422.802710,4136.915689,2368.659014,7402.059420
2422.803039,2987.772442,1924.535449,7328.038826
2422.803368,2145.067394,1480.411884,7254.018232
2422.803697,995.924147,888.247130,8216.285956
2422.804026,-612.876398,-0.000000,8512.368333
2422.804355,-1302.362347,-1406.391290,9400.615463
2422.804684,-1838.629195,-1628.453072,10584.944971
2422.805013,-1225.752797,-1702.473667,9770.718434
2422.805342,-1532.190996,-1776.494261,9548.656652
2422.805671,-1225.752797,-1554.432478,9844.739029
2422.806000,-1455.581446,-1110.308913,10066.800811
2422.806329,-995.924147,-1776.494261,10510.924376
2422.806658,-612.876398,-1480.411884,10436.903782
2422.806987,-536.266849,-1554.432478,10658.965565
2422.807316,-766.095498,-1554.432478,10584.944971
2422.807645,-306.438199,-1628.453072,10436.903782
2422.807975,1149.143247,-444.123565,9326.594869
2422.808304,2374.896044,740.205942,8068.244768
2422.808633,2604.724693,1110.308913,7031.956449
2422.808962,3140.991542,2442.679609,7105.977043
2422.809291,2681.334243,2442.679609,7624.121203
2422.809620,2145.067394,2072.576638,6735.874072
2422.809949,1302.362347,1258.350101,7402.059420
2422.810278,0.000000,518.144159,8068.244768
2422.810607,-1225.752797,-518.144159,8660.409521
2422.810936,-1225.752797,-962.267725,9844.739029
2422.811265,-1302.362347,-1554.432478,9770.718434
2422.811594,-1685.410096,-1332.370696,9474.636058
2422.811923,-1532.190996,-1110.308913,10214.842000
2422.812252,-995.924147,-666.185348,9844.739029
2422.812581,-766.095498,-888.247130,10362.883188
2422.812910,-459.657299,-814.226536,10510.924376
2422.813239,-306.438199,-666.185348,9696.697840
2422.813568,842.705048,-666.185348,11769.274478
2422.813897,1225.752797,-74.020594,9326.594869
2422.814226,2911.162892,740.205942,8586.388927
2422.814555,3217.601092,1258.350101,7772.162391
2422.814884,3983.696590,2146.597232,7328.038826
2422.815213,3983.696590,2294.638420,7698.141797
2422.815542,3217.601092,1998.556043,7476.080014
2422.815871,2145.067394,1332.370696,7698.141797
2422.816200,612.876398,518.144159,8216.285956
2422.816529,-229.828649,-74.020594,8734.430116
2422.816858,-1991.848295,-1036.288319,9770.718434
2422.817187,-1838.629195,-1998.556043,9844.739029
2422.817516,-1762.019645,-1776.494261,9696.697840
2422.817845,-1762.019645,-2072.576638,9992.780217
2422.818174,-1455.581446,-1998.556043,9844.739029
2422.818503,-1225.752797,-1924.535449,9770.718434
2422.818832,-919.314598,-2072.576638,10732.986159
2422.819161,-1072.533697,-1480.411884,9992.780217
2422.819490,-229.828649,-1406.391290,9992.780217
2422.819819,-689.485948,-1110.308913,10066.800811
2422.820148,-383.047749,-1110.308913,10066.800811
2422.820477,459.657299,-814.226536,9474.636058
2422.820807,1608.800546,370.102971,8290.306550
2422.821136,2987.772442,1258.350101,7550.100608
2422.821465,2911.162892,2146.597232,6735.874072
2422.821794,2681.334243,2368.659014,6883.915261
2422.822123,1762.019645,1998.556043,6957.935855
2422.822452,1762.019645,1480.411884,7772.162391
2422.822781,153.219100,592.164754,7994.224174
2422.823110,-919.314598,-592.164754,8290.306550
2422.823439,-1685.410096,-1036.288319,9400.615463
2422.823768,-1455.581446,-1332.370696,9918.759623
2422.824097,-1302.362347,-814.226536,9252.574275
2422.824426,-995.924147,-1110.308913,10066.800811
2422.824755,-995.924147,-962.267725,9770.718434
2422.825084,-306.438199,-962.267725,10362.883188
2422.825413,0.000000,-1406.391290,10955.047942
2422.825742,-229.828649,-592.164754,10140.821405
2422.826071,0.000000,-666.185348,10658.965565
2422.826400,229.828649,-518.144159,10732.986159
2422.826729,1762.019645,148.041188,9326.594869
2422.827058,2834.553343,888.247130,8290.306550
2422.827387,3600.648841,1850.514855,7105.977043
2422.827716,4979.620737,2590.720797,7179.997637
2422.828045,3753.867940,2072.576638,7179.997637
2422.828374,2757.943793,2294.638420,6883.915261
2422.828703,1685.410096,1036.288319,7624.121203
2422.829032,0.000000,444.123565,8142.265362
2422.829361,-1302.362347,-518.144159,9030.512492
2422.829690,-2374.896044,-1850.514855,10658.965565
2422.830019,-1991.848295,-1702.473667,9918.759623
2422.830348,-1302.362347,-1406.391290,10288.862594
2422.830677,-1685.410096,-2220.617826,10436.903782
2422.831006,-1838.629195,-1406.391290,9992.780217
2422.831335,-1455.581446,-1702.473667,10881.027347
2422.831664,-1302.362347,-1406.391290,10436.903782
2422.831993,-229.828649,-1184.329507,10362.883188
2422.832322,153.219100,-2072.576638,10584.944971
2422.832651,-459.657299,-962.267725,9548.656652
2422.832980,-383.047749,-888.247130,10140.821405
2422.833310,76.609550,-148.041188,9178.553681
2422.833639,2068.457845,296.082377,8660.409521
2422.833968,2374.896044,1924.535449,6957.935855
2422.834297,3600.648841,2220.617826,6735.874072
2422.834626,2987.772442,2368.659014,6069.688724
2422.834955,2834.553343,2368.659014,6809.894666
2422.835284,1455.581446,1628.453072,7105.977043
2422.835613,536.266849,592.164754,7624.121203
2422.835942,-459.657299,-740.205942,8808.450710
2422.836271,-1685.410096,-1036.288319,9548.656652
2422.836600,-1455.581446,-2146.597232,10362.883188
2422.836929,-1378.971896,-1998.556043,9992.780217
2422.837258,-689.485948,-1776.494261,10436.903782
2422.837587,-766.095498,-1110.308913,10362.883188
2422.837916,-536.266849,-592.164754,10658.965565
2422.838245,-306.438199,-814.226536,10658.965565
2422.838574,-306.438199,-814.226536,10214.842000
2422.838903,-383.047749,-148.041188,10510.924376
2422.839232,1072.533697,-0.000000,10436.903782
2422.839561,1685.410096,518.144159,8808.450710
2422.839890,2681.334243,1258.350101,8142.265362
2422.840219,3907.087040,1776.494261,6957.935855
2422.840548,3600.648841,2368.659014,7031.956449
2422.840877,3140.991542,2294.638420,7179.997637
2422.841206,2221.676944,2146.597232,7031.956449
2422.841535,1072.533697,592.164754,8216.285956
2422.841864,-383.047749,-0.000000,8808.450710
2422.842193,-1762.019645,-1184.329507,9326.594869
2422.842522,-1915.238745,-1998.556043,10658.965565
2422.842851,-1685.410096,-1776.494261,9474.636058
2422.843180,-1225.752797,-1924.535449,9992.780217
2422.843509,-1608.800546,-2294.638420,9992.780217
2422.843838,-1378.971896,-1702.473667,10510.924376
2422.844167,-995.924147,-2368.659014,10362.883188
2422.844496,-842.705048,-1332.370696,10362.883188
2422.844825,-306.438199,-814.226536,10066.800811
2422.845154,-459.657299,-592.164754,9548.656652
2422.845483,-689.485948,-666.185348,9622.677246
2422.845812,-153.219100,-740.205942,9696.697840
2422.846142,842.705048,-222.061783,9104.533087
2422.846471,2298.286494,666.185348,7772.162391
2422.846800,2451.505594,1554.432478,7105.977043
2422.847129,2145.067394,2368.659014,6365.771101
2422.847458,1915.238745,1850.514855,6809.894666
2422.847787,1378.971896,1554.432478,7031.956449
2422.848116,536.266849,962.267725,7254.018232
2422.848445,-612.876398,-592.164754,8512.368333
2422.848774,-995.924147,-1554.432478,9400.615463
2422.849103,-1455.581446,-1850.514855,10214.842000
2422.849432,-1378.971896,-1702.473667,9918.759623
2422.849761,-612.876398,-1332.370696,9844.739029
2422.850090,-842.705048,-1184.329507,10362.883188
2422.850419,-612.876398,-740.205942,10362.883188
2422.850748,0.000000,-814.226536,10584.944971
2422.851077,-229.828649,-962.267725,10288.862594
2422.851406,229.828649,-518.144159,10288.862594
2422.851735,0.000000,-148.041188,10288.862594
2422.852064,919.314598,-370.102971,9992.780217
2422.852393,2068.457845,1036.288319,8290.306550
2422.852722,3677.258390,1332.370696,7550.100608
2422.853051,3753.867940,2368.659014,6365.771101
2422.853380,4366.744339,2516.700203,6587.832884
2422.853709,3064.381992,2516.700203,6809.894666
2422.854038,1608.800546,1850.514855,7402.059420
2422.854367,536.266849,518.144159,7994.224174
2422.854696,-1149.143247,-370.102971,8882.471304
2422.855025,-2221.676944,-1406.391290,9918.759623
2422.855354,-2221.676944,-2442.679609,10066.800811
2422.855683,-1608.800546,-2368.659014,9770.718434
2422.856012,-1378.971896,-2368.659014,10214.842000
2422.856341,-1225.752797,-1850.514855,10214.842000
2422.856670,-1072.533697,-1406.391290,10807.006753
2422.856999,-689.485948,-1406.391290,10732.986159
2422.857328,-459.657299,-962.267725,10066.800811
2422.857657,919.314598,-888.247130,9696.697840
2422.857986,-383.047749,-962.267725,10658.965565
2422.858315,-153.219100,-888.247130,10140.821405
2422.858644,1149.143247,296.082377,8586.388927
2422.858974,2757.943793,1332.370696,7179.997637
2422.859303,3370.820191,1924.535449,6587.832884
2422.859632,2987.772442,2368.659014,6661.853478
2422.859961,2374.896044,2294.638420,7328.038826
2422.860290,1455.581446,1332.370696,7624.121203
2422.860619,383.047749,296.082377,7994.224174
2422.860948,-919.314598,-592.164754,9104.533087
2422.861277,-2145.067394,-1776.494261,9918.759623
2422.861606,-2451.505594,-2072.576638,10584.944971
2422.861935,-1915.238745,-2072.576638,10436.903782
2422.862264,-919.314598,-1924.535449,9696.697840
2422.862593,-306.438199,-518.144159,10510.924376
2422.862922,-383.047749,-444.123565,9696.697840
2422.863251,0.000000,-518.144159,10362.883188
2422.863580,995.924147,-518.144159,10584.944971
2422.863909,1915.238745,444.123565,8808.450710
2422.864238,2528.115143,962.267725,8882.471304
2422.864567,3370.820191,1036.288319,7920.203579
2422.864896,3830.477490,1776.494261,7031.956449
2422.865225,3370.820191,1924.535449,7402.059420
2422.865554,2987.772442,1850.514855,7031.956449
2422.865883,2068.457845,1702.473667,7476.080014
2422.866212,919.314598,1258.350101,7920.203579
2422.866541,-306.438199,-0.000000,8364.327145
2422.866870,-1149.143247,-1702.473667,9178.553681
2422.867199,-1455.581446,-1776.494261,9992.780217
2422.867528,-2374.896044,-2368.659014,9992.780217
2422.867857,-2145.067394,-2146.597232,9622.677246
2422.868186,-1838.629195,-1850.514855,9844.739029
2422.868515,-1302.362347,-1924.535449,9770.718434
2422.868844,-766.095498,-1776.494261,9770.718434
2422.869173,459.657299,-1110.308913,10066.800811
2422.869502,0.000000,-1406.391290,10140.821405
2422.869831,1149.143247,-666.185348,9474.636058
2422.870160,1991.848295,-0.000000,9178.553681
2422.870489,2145.067394,148.041188,8290.306550
2422.870818,2374.896044,740.205942,7994.224174
2422.871147,2298.286494,1110.308913,8216.285956
2422.871477,1608.800546,1776.494261,7402.059420
2422.871806,995.924147,1184.329507,7920.203579
2422.872135,153.219100,666.185348,8364.327145
2422.872464,-689.485948,-0.000000,8660.409521
2422.872793,-1608.800546,-518.144159,9104.533087
2422.873122,-1915.238745,-1332.370696,9474.636058
2422.873451,-1838.629195,-1554.432478,9770.718434
2422.873780,-1455.581446,-1480.411884,9622.677246
2422.874109,-1685.410096,-592.164754,9770.718434
2422.874438,-1455.581446,-518.144159,9696.697840
2422.874767,-459.657299,-370.102971,9474.636058
2422.875096,383.047749,-0.000000,9696.697840
2422.875425,1149.143247,296.082377,9696.697840
2422.875754,2068.457845,-74.020594,9770.718434
2422.876083,2604.724693,370.102971,9400.615463
2422.876412,2604.724693,296.082377,8808.450710
2422.876741,3294.210641,814.226536,8438.347739
2422.877070,2911.162892,1332.370696,8216.285956
2422.877399,2528.115143,1924.535449,8290.306550
2422.877728,1991.848295,1776.494261,8216.285956
2422.878057,1072.533697,1110.308913,8438.347739
2422.878386,766.095498,222.061783,9252.574275
2422.878715,-383.047749,-296.082377,8660.409521
2422.879044,-1225.752797,-444.123565,8734.430116
2422.879373,-1455.581446,-962.267725,8882.471304
2422.879702,-1608.800546,-888.247130,9104.533087
2422.880031,-1532.190996,-1110.308913,9474.636058
2422.880360,-1608.800546,-1480.411884,9770.718434
2422.880689,-2068.457845,-1406.391290,10066.800811
2422.881018,-689.485948,-1628.453072,9770.718434
2422.881347,-459.657299,-1332.370696,10140.821405
2422.881676,-153.219100,-1406.391290,10140.821405
2422.882005,612.876398,-1110.308913,9844.739029
2422.882334,1685.410096,-518.144159,9252.574275
2422.882663,1838.629195,-444.123565,9252.574275
2422.882992,2528.115143,518.144159,8290.306550
2422.883321,2298.286494,1184.329507,8660.409521
2422.883650,1762.019645,1184.329507,8660.409521
2422.883979,1072.533697,1184.329507,8290.306550
2422.884309,689.485948,296.082377,8660.409521
2422.884638,-153.219100,-0.000000,8512.368333
2422.884967,-459.657299,-1036.288319,8734.430116
2422.885296,-995.924147,-666.185348,9030.512492
2422.885625,-1608.800546,-518.144159,8882.471304
2422.885954,-1072.533697,-148.041188,9474.636058
2422.886283,-1072.533697,-148.041188,9178.553681
2422.886612,-1072.533697,-370.102971,9474.636058
2422.886941,-842.705048,-444.123565,9622.677246
2422.887270,0.000000,-444.123565,9474.636058
2422.887599,1072.533697,-370.102971,9474.636058
2422.887928,1455.581446,-222.061783,9400.615463
2422.888257,2145.067394,-0.000000,9474.636058
2422.888586,2298.286494,296.082377,8882.471304
2422.888915,2451.505594,592.164754,8734.430116
2422.889244,3064.381992,888.247130,8364.327145
2422.889573,2604.724693,740.205942,8586.388927
2422.889902,2451.505594,1110.308913,7994.224174
2422.890231,1149.143247,1036.288319,8882.471304
2422.890560,842.705048,370.102971,8660.409521
2422.890889,76.609550,518.144159,8734.430116
2422.891218,-306.438199,148.041188,8734.430116
2422.891547,-612.876398,-148.041188,8660.409521
2422.891876,-995.924147,-518.144159,8808.450710
2422.892205,-1378.971896,-814.226536,9178.553681
2422.892534,-1149.143247,-1184.329507,9326.594869
2422.892863,-1455.581446,-1406.391290,9770.718434
2422.893192,-1378.971896,-1480.411884,9844.739029
2422.893521,-919.314598,-1554.432478,9918.759623
2422.893850,-842.705048,-1776.494261,9844.739029
2422.894179,-229.828649,-1628.453072,9992.780217
2422.894508,0.000000,-962.267725,10140.821405
2422.894837,459.657299,-740.205942,9548.656652
2422.895166,1455.581446,-222.061783,9030.512492
2422.895495,1608.800546,370.102971,8512.368333
2422.895825,1455.581446,592.164754,8438.347739
2422.896154,1149.143247,814.226536,8364.327145
2422.896483,995.924147,666.185348,8290.306550
2422.896812,536.266849,370.102971,8364.327145
2422.897141,-383.047749,592.164754,8290.306550
2422.897470,-383.047749,-0.000000,8882.471304
2422.897799,-689.485948,-74.020594,8364.327145
2422.898129,-612.876398,-148.041188,8734.430116
2422.898458,-766.095498,-0.000000,8734.430116
2422.898787,-995.924147,-296.082377,9178.553681
2422.899116,-612.876398,-592.164754,9326.594869
2422.899445,-306.438199,-518.144159,9326.594869
2422.899774,383.047749,-740.205942,9474.636058
2422.900103,0.000000,-444.123565,9622.677246
2422.900433,383.047749,-296.082377,9622.677246
2422.900762,995.924147,-444.123565,9474.636058
2422.901091,1455.581446,-222.061783,9400.615463
2422.901420,1915.238745,666.185348,9326.594869
2422.901749,2145.067394,222.061783,8882.471304
2422.902078,2221.676944,1036.288319,8586.388927
2422.902408,2451.505594,1332.370696,8142.265362
2422.902737,2221.676944,1332.370696,8216.285956
2422.903066,1762.019645,1184.329507,8216.285956
2422.903395,1455.581446,1110.308913,8216.285956
2422.903724,612.876398,296.082377,8364.327145
2422.904053,-229.828649,-296.082377,8586.388927
2422.904382,-612.876398,-888.247130,8956.491898
2422.904712,-1149.143247,-740.205942,9400.615463
2422.905041,-1532.190996,-1110.308913,9696.697840
2422.905370,-1455.581446,-1406.391290,9844.739029
2422.905699,-1608.800546,-1702.473667,10362.883188
2422.906028,-995.924147,-1924.535449,10510.924376
2422.906357,-1378.971896,-2072.576638,9918.759623
2422.906687,-383.047749,-2072.576638,10436.903782
2422.907016,0.000000,-1554.432478,10436.903782
2422.907345,612.876398,-740.205942,9770.718434
2422.907674,1762.019645,-296.082377,9178.553681
2422.908003,1838.629195,592.164754,8586.388927
2422.908332,2528.115143,740.205942,8216.285956
2422.908661,2681.334243,1406.391290,7698.141797
2422.908991,2221.676944,1406.391290,7846.182985
2422.909320,1225.752797,1110.308913,7550.100608
2422.909649,536.266849,740.205942,8142.265362
2422.909978,-383.047749,-0.000000,8068.244768
2422.910307,-1378.971896,-592.164754,8808.450710
2422.910636,-1838.629195,-1332.370696,8956.491898
2422.910965,-2068.457845,-1110.308913,9474.636058
2422.911295,-1685.410096,-740.205942,9474.636058
2422.911624,-1225.752797,-518.144159,9474.636058
2422.911953,-1149.143247,-666.185348,9474.636058
2422.912282,-689.485948,-444.123565,9474.636058
2422.912611,-459.657299,-518.144159,9696.697840
2422.912940,536.266849,-592.164754,9992.780217
2422.913270,1455.581446,148.041188,9548.656652
2422.913599,2145.067394,444.123565,9548.656652
2422.913928,2604.724693,518.144159,8734.430116
2422.914257,3294.210641,1110.308913,8364.327145
2422.914586,3370.820191,1406.391290,8142.265362
2422.914915,2911.162892,1776.494261,7920.203579
2422.915244,2374.896044,1554.432478,7920.203579
2422.915574,1685.410096,962.267725,7846.182985
2422.915903,153.219100,592.164754,9030.512492
2422.916232,-536.266849,-0.000000,9400.615463
2422.916561,-1302.362347,-296.082377,9030.512492
2422.916890,-1762.019645,-1036.288319,9326.594869
2422.917219,-1915.238745,-1184.329507,9622.677246
2422.917548,-1685.410096,-1776.494261,9474.636058
2422.917878,-1838.629195,-1628.453072,9844.739029
2422.918207,-1455.581446,-1554.432478,10066.800811
2422.918536,-1149.143247,-1036.288319,9918.759623
2422.918865,-842.705048,-1110.308913,9992.780217
2422.919194,-536.266849,-1554.432478,10140.821405
2422.919523,153.219100,-1480.411884,10362.883188
2422.919853,766.095498,-740.205942,9474.636058
2422.920182,1532.190996,-444.123565,9178.553681
2422.920511,1762.019645,296.082377,8364.327145
2422.920840,2374.896044,888.247130,8068.244768
2422.921169,1991.848295,1628.453072,7772.162391
2422.921498,1685.410096,1628.453072,7402.059420
2422.921827,995.924147,1110.308913,8216.285956
2422.922157,229.828649,814.226536,8142.265362
2422.922486,-383.047749,-0.000000,8290.306550
2422.922815,-1838.629195,-222.061783,8882.471304
2422.923144,-1685.410096,-814.226536,9252.574275
2422.923473,-1149.143247,-740.205942,9030.512492
2422.923802,-1072.533697,-740.205942,9474.636058
2422.924131,-995.924147,-666.185348,9474.636058
2422.924461,-689.485948,-1036.288319,9696.697840
2422.924790,1072.533697,-666.185348,9696.697840
2422.925119,612.876398,-814.226536,9770.718434
2422.925448,1225.752797,-518.144159,9548.656652
2422.925777,1838.629195,-74.020594,9326.594869
2422.926106,2374.896044,370.102971,9326.594869
2422.926436,2834.553343,740.205942,8882.471304
2422.926765,3140.991542,814.226536,8364.327145
2422.927094,3064.381992,962.267725,8068.244768
2422.927423,2681.334243,1184.329507,8290.306550
2422.927752,1685.410096,962.267725,8660.409521
2422.928081,995.924147,592.164754,8734.430116
2422.928410,153.219100,296.082377,8734.430116
2422.928740,-229.828649,-222.061783,9104.533087
2422.929069,-842.705048,-518.144159,9030.512492
2422.929398,-1149.143247,-962.267725,9178.553681
2422.929727,-1149.143247,-740.205942,9548.656652
2422.930056,-1302.362347,-1258.350101,9252.574275
