#time,accel_x,accel_y,accel_z
2644.701670,229.828649,-148.041188,8956.491898
2644.701999,383.047749,-370.102971,8956.491898
2644.702328,306.438199,-148.041188,8956.491898
2644.702656,229.828649,-0.000000,9178.553681
2644.702985,153.219100,-74.020594,8882.471304
2644.703314,306.438199,-0.000000,8956.491898
2644.703643,459.657299,-74.020594,9178.553681
2644.703972,383.047749,-0.000000,9030.512492
2644.704301,0.000000,-0.000000,9474.636058
2644.704630,76.609550,-296.082377,8882.471304
2644.704959,0.000000,-222.061783,9030.512492
2644.705287,153.219100,-74.020594,9178.553681
2644.705616,153.219100,-148.041188,9104.533087
2644.705945,459.657299,-296.082377,9178.553681
2644.706274,-229.828649,-222.061783,9474.636058
2644.706603,383.047749,-148.041188,9178.553681
2644.706932,229.828649,-148.041188,9400.615463
2644.707261,306.438199,-222.061783,9326.594869
2644.707590,229.828649,-296.082377,9326.594869
2644.707918,229.828649,-148.041188,9104.533087
2644.708247,0.000000,-370.102971,9252.574275
2644.708576,383.047749,-296.082377,9400.615463
2644.708905,383.047749,-296.082377,9252.574275
2644.709234,0.000000,-222.061783,9178.553681
2644.709563,306.438199,-74.020594,8956.491898
2644.709892,306.438199,-0.000000,9178.553681
2644.710221,383.047749,-74.020594,9178.553681
2644.710549,153.219100,-0.000000,8882.471304
2644.710878,383.047749,-0.000000,9178.553681
2644.711207,153.219100,-148.041188,9252.574275
2644.711536,306.438199,-148.041188,8734.430116
2644.711865,306.438199,-74.020594,8882.471304
2644.712194,229.828649,-0.000000,9030.512492
2644.712523,306.438199,-74.020594,8660.409521
2644.712852,383.047749,-0.000000,9104.533087
2644.713181,689.485948,-296.082377,9104.533087
2644.713509,153.219100,-74.020594,9104.533087
2644.713838,306.438199,-74.020594,8808.450710
2644.714167,306.438199,-0.000000,8734.430116
2644.714496,153.219100,-0.000000,8956.491898
2644.714825,76.609550,-74.020594,8882.471304
2644.715154,383.047749,-0.000000,9178.553681
2644.715483,612.876398,-148.041188,9252.574275
2644.715812,383.047749,-296.082377,9030.512492
2644.716140,229.828649,-296.082377,9326.594869
2644.716469,383.047749,-296.082377,9178.553681
2644.716798,76.609550,-148.041188,9178.553681
2644.717127,229.828649,-370.102971,9104.533087
2644.717456,536.266849,-222.061783,8808.450710
2644.717785,306.438199,-148.041188,9326.594869
2644.718114,306.438199,-296.082377,9326.594869
2644.718443,229.828649,-222.061783,9104.533087
2644.718771,76.609550,-74.020594,9252.574275
2644.719100,229.828649,-148.041188,9252.574275
2644.719429,306.438199,-0.000000,9400.615463
2644.719758,306.438199,-370.102971,9252.574275
2644.720087,459.657299,-370.102971,9326.594869
2644.720416,383.047749,-444.123565,9178.553681
2644.720745,536.266849,-0.000000,9178.553681
2644.721074,383.047749,-148.041188,9178.553681
2644.721402,459.657299,-0.000000,9252.574275
2644.721731,229.828649,-0.000000,9030.512492
2644.722060,842.705048,-444.123565,9104.533087
2644.722389,536.266849,-222.061783,9178.553681
2644.722718,306.438199,-74.020594,8956.491898
2644.723047,536.266849,-222.061783,9104.533087
2644.723376,153.219100,-0.000000,8956.491898
2644.723705,229.828649,-0.000000,8956.491898
2644.724033,229.828649,-0.000000,8956.491898
2644.724362,459.657299,-148.041188,9104.533087
2644.724691,76.609550,-444.123565,9104.533087
2644.725020,306.438199,-148.041188,9104.533087
2644.725349,229.828649,-0.000000,9104.533087
2644.725678,306.438199,-74.020594,8956.491898
2644.726007,76.609550,-0.000000,8956.491898
2644.726336,383.047749,-148.041188,8882.471304
2644.726664,76.609550,-0.000000,9178.553681
2644.726993,229.828649,-518.144159,8808.450710
2644.727322,383.047749,-518.144159,9104.533087
2644.727651,536.266849,-444.123565,9400.615463
2644.727980,536.266849,-148.041188,9326.594869
2644.728309,76.609550,-222.061783,9030.512492
2644.728638,383.047749,-74.020594,9178.553681
2644.728967,612.876398,-296.082377,9400.615463
2644.729295,306.438199,-296.082377,9326.594869
2644.729624,0.000000,-592.164754,9400.615463
2644.729953,229.828649,-296.082377,9178.553681
2644.730282,306.438199,-0.000000,9252.574275
2644.730611,383.047749,-222.061783,9104.533087
2644.730940,229.828649,-74.020594,9178.553681
2644.731269,383.047749,-666.185348,9252.574275
2644.731598,536.266849,-518.144159,9178.553681
2644.731927,536.266849,-296.082377,8882.471304
2644.732255,306.438199,-0.000000,9474.636058
2644.732584,383.047749,-0.000000,8956.491898
2644.732913,306.438199,-0.000000,8956.491898
2644.733242,306.438199,-222.061783,9030.512492
2644.733571,459.657299,-148.041188,9104.533087
2644.733900,459.657299,-148.041188,9178.553681
2644.734229,689.485948,-370.102971,8956.491898
2644.734558,76.609550,-74.020594,8956.491898
2644.734886,229.828649,-74.020594,8956.491898
2644.735215,536.266849,-296.082377,9178.553681
2644.735544,1225.752797,-814.226536,9548.656652
2644.735873,1455.581446,-740.205942,9474.636058
2644.736202,1915.238745,-666.185348,9178.553681
2644.736531,2451.505594,-444.123565,9326.594869
2644.736860,2757.943793,518.144159,9326.594869
2644.737189,3447.429741,370.102971,9104.533087
2644.737517,4136.915689,-148.041188,8660.409521
2644.737846,3524.039291,296.082377,8438.347739
2644.738175,2987.772442,518.144159,8586.388927
2644.738504,3064.381992,370.102971,7994.224174
2644.738833,2604.724693,-148.041188,9622.677246
2644.739162,3370.820191,-1036.288319,8882.471304
2644.739491,1225.752797,-740.205942,9548.656652
2644.739820,1762.019645,-1924.535449,10066.800811
2644.740148,2068.457845,-1554.432478,9474.636058
2644.740477,1991.848295,-0.000000,9548.656652
2644.740806,2911.162892,-2072.576638,9992.780217
2644.741135,3370.820191,-1036.288319,8956.491898
2644.741464,3983.696590,592.164754,9992.780217
2644.741793,5592.497135,888.247130,7402.059420
2644.742122,4826.401637,1332.370696,8216.285956
2644.742451,5132.839837,1480.411884,9326.594869
2644.742779,5669.106685,1628.453072,7402.059420
2644.743108,3907.087040,888.247130,8808.450710
2644.743437,2911.162892,296.082377,8586.388927
2644.743766,2068.457845,148.041188,8956.491898
2644.744095,1762.019645,-444.123565,9548.656652
2644.744424,919.314598,-1036.288319,9548.656652
2644.744753,1455.581446,-888.247130,10140.821405
2644.745082,383.047749,-1406.391290,9844.739029
2644.745410,1378.971896,-370.102971,9844.739029
2644.745739,1762.019645,-962.267725,10288.862594
2644.746068,3370.820191,666.185348,8216.285956
2644.746397,3600.648841,148.041188,9326.594869
2644.746726,4519.963438,1776.494261,8216.285956
2644.747055,4673.182538,1036.288319,7846.182985
2644.747384,4903.011187,1258.350101,7846.182985
2644.747713,4596.572988,592.164754,8808.450710
2644.748041,3830.477490,-370.102971,8882.471304
2644.748370,3064.381992,-1480.411884,8956.491898
2644.748699,2528.115143,-1406.391290,9548.656652
2644.749028,2221.676944,-1850.514855,10362.883188
2644.749357,1455.581446,-2072.576638,9844.739029
2644.749686,1991.848295,-2072.576638,10288.862594
2644.750015,2528.115143,-1110.308913,9696.697840
2644.750344,3830.477490,-148.041188,9696.697840
2644.750672,3447.429741,296.082377,8364.327145
2644.751001,4443.353888,1480.411884,8586.388927
2644.751330,4596.572988,2442.679609,8068.244768
2644.751659,4903.011187,2516.700203,7328.038826
2644.751988,4290.134789,2294.638420,7550.100608
2644.752317,4213.525239,1554.432478,7846.182985
2644.752646,2987.772442,444.123565,8142.265362
2644.752975,2374.896044,-814.226536,9474.636058
2644.753304,2145.067394,-2220.617826,9844.739029
2644.753632,1838.629195,-2886.803174,10584.944971
2644.753961,1608.800546,-3034.844362,11103.089130
2644.754290,2451.505594,-2664.741391,11103.089130
2644.754619,3217.601092,-1850.514855,10214.842000
2644.754948,4826.401637,-148.041188,9104.533087
2644.755277,5822.325785,1258.350101,9400.615463
2644.755606,6205.373534,1998.556043,8364.327145
2644.755935,5515.887586,2664.741391,7550.100608
2644.756263,4979.620737,3330.926739,7402.059420
2644.756592,4596.572988,4145.153275,6587.832884
2644.756921,4213.525239,2442.679609,6809.894666
2644.757250,3217.601092,1480.411884,7179.997637
2644.757579,1532.190996,-1332.370696,9474.636058
2644.757908,-536.266849,-4145.153275,10658.965565
2644.758237,-1225.752797,-3849.070898,11251.130318
2644.758566,-766.095498,-5477.523971,11843.295072
2644.758894,-1225.752797,-2516.700203,10066.800811
2644.759223,-383.047749,-1850.514855,11473.192101
2644.759552,689.485948,-370.102971,10140.821405
2644.759881,3447.429741,962.267725,11029.068536
2644.760210,5898.935335,1406.391290,8586.388927
2644.760539,7890.783629,1776.494261,8216.285956
2644.760868,6128.763984,1258.350101,7994.224174
2644.761197,6052.154434,1406.391290,6735.874072
2644.761525,6205.373534,2886.803174,6587.832884
2644.761854,5592.497135,2220.617826,7550.100608
2644.762183,5592.497135,2812.782580,5329.482782
2644.762512,4673.182538,3256.906145,6513.812290
2644.762841,4749.792088,888.247130,6735.874072
2644.763170,2068.457845,-2664.741391,8734.430116
2644.763499,-383.047749,-7105.977043,12065.356855
2644.763828,-1302.362347,-4663.297435,11547.212695
2644.764156,-1608.800546,-5329.482782,14211.954086
2644.764485,-1532.190996,-5403.503377,12509.480420
2644.764814,-229.828649,370.102971,11251.130318
2644.765143,2451.505594,-0.000000,11769.274478
2644.765472,3983.696590,1850.514855,9844.739029
2644.765801,7584.345430,1332.370696,8956.491898
2644.766130,7737.564530,2368.659014,9696.697840
2644.766459,7277.907231,3182.885551,7402.059420
2644.766787,8580.269578,4737.318029,5107.421000
2644.767116,7660.954980,1850.514855,5847.626942
2644.767445,7814.174080,2368.659014,5107.421000
2644.767774,6894.859482,2590.720797,6513.812290
2644.768103,4826.401637,962.267725,6809.894666
2644.768432,3907.087040,2516.700203,5255.462188
2644.768761,3294.210641,-2072.576638,10214.842000
2644.769090,-1915.238745,-6513.812290,13915.871710
2644.769418,-2757.943793,-2960.823768,10658.965565
2644.769747,-1838.629195,-2664.741391,14359.995275
2644.770076,-1608.800546,-6069.688724,11399.171507
2644.770405,-995.924147,2146.597232,11843.295072
2644.770734,2451.505594,-1184.329507,10807.006753
2644.771063,-1608.800546,3256.906145,8734.430116
2644.771392,5362.668486,-1406.391290,14878.139434
2644.771721,8120.612279,1554.432478,4145.153275
2644.772050,9499.584175,1702.473667,9030.512492
2644.772378,5822.325785,814.226536,5551.544565
2644.772707,8044.002729,2590.720797,3256.906145
2644.773036,6511.811733,296.082377,9326.594869
2644.773365,5669.106685,1924.535449,4737.318029
2644.773694,5362.668486,2664.741391,8660.409521
2644.774023,2451.505594,1480.411884,7105.977043
2644.774352,2987.772442,-74.020594,9104.533087
2644.774681,0.000000,-888.247130,11251.130318
2644.775009,689.485948,-4071.132681,11769.274478
2644.775338,-842.705048,-518.144159,11177.109724
2644.775667,76.609550,-6809.894666,14359.995275
2644.775996,-1455.581446,-444.123565,8808.450710
2644.776325,1685.410096,-1554.432478,11251.130318
2644.776654,2221.676944,1184.329507,8660.409521
2644.776983,2987.772442,2368.659014,8216.285956
2644.777312,4826.401637,1258.350101,7105.977043
2644.777640,4903.011187,1924.535449,8068.244768
2644.777969,3677.258390,2368.659014,8142.265362
2644.778298,3524.039291,-444.123565,6661.853478
2644.778627,3600.648841,-592.164754,7920.203579
2644.778956,2221.676944,-2220.617826,9030.512492
2644.779285,919.314598,-1998.556043,10288.862594
2644.779614,-689.485948,-814.226536,10140.821405
2644.779943,-995.924147,-1332.370696,10510.924376
2644.780271,612.876398,1258.350101,9770.718434
2644.780601,306.438199,962.267725,8512.368333
2644.780930,153.219100,814.226536,9548.656652
2644.781259,536.266849,444.123565,8882.471304
2644.781588,1302.362347,962.267725,8586.388927
2644.781917,1762.019645,814.226536,8660.409521
2644.782246,766.095498,-148.041188,9178.553681
2644.782576,153.219100,-2220.617826,9474.636058
2644.782905,153.219100,-1184.329507,8882.471304
2644.783234,0.000000,-74.020594,8956.491898
2644.783563,-383.047749,-888.247130,9770.718434
2644.783892,-766.095498,-1184.329507,9622.677246
2644.784221,-383.047749,-1628.453072,10510.924376
2644.784551,-536.266849,-1036.288319,9992.780217
2644.784880,536.266849,-74.020594,9474.636058
2644.785209,842.705048,518.144159,9622.677246
2644.785538,766.095498,444.123565,9548.656652
2644.785867,1302.362347,1332.370696,8660.409521
2644.786196,2528.115143,1702.473667,8216.285956
2644.786525,3294.210641,2146.597232,7846.182985
2644.786855,2451.505594,1184.329507,8808.450710
2644.787184,766.095498,-370.102971,8438.347739
2644.787513,536.266849,-814.226536,9252.574275
2644.787842,1685.410096,-666.185348,10066.800811
2644.788171,1915.238745,-592.164754,9178.553681
2644.788500,536.266849,-1406.391290,9252.574275
2644.788830,0.000000,-2220.617826,9696.697840
2644.789159,766.095498,-444.123565,9622.677246
2644.789488,1838.629195,1110.308913,8956.491898
2644.789817,2068.457845,1184.329507,8364.327145
2644.790146,689.485948,2072.576638,8956.491898
2644.790475,306.438199,1554.432478,9030.512492
2644.790805,842.705048,1554.432478,8290.306550
2644.791134,229.828649,666.185348,7105.977043
2644.791463,-229.828649,-0.000000,8586.388927
2644.791792,-1225.752797,-1258.350101,9326.594869
2644.792121,-2221.676944,-1998.556043,9696.697840
2644.792450,-1685.410096,-2442.679609,9992.780217
2644.792780,-536.266849,-2368.659014,9770.718434
2644.793109,-689.485948,-740.205942,8882.471304
2644.793438,-1149.143247,-444.123565,9548.656652
2644.793767,-459.657299,-0.000000,9030.512492
2644.794096,995.924147,592.164754,9400.615463
2644.794425,1455.581446,1036.288319,8660.409521
2644.794755,1225.752797,296.082377,8364.327145
2644.795084,-306.438199,666.185348,8216.285956
2644.795413,689.485948,1036.288319,7179.997637
2644.795742,1072.533697,666.185348,8438.347739
2644.796071,-1302.362347,592.164754,9030.512492
2644.796400,-2298.286494,-1036.288319,9918.759623
2644.796729,-1762.019645,-1406.391290,9992.780217
2644.797059,-1378.971896,-814.226536,8364.327145
2644.797388,153.219100,-1258.350101,8956.491898
2644.797717,0.000000,-2368.659014,9474.636058
2644.798046,-1455.581446,-1924.535449,10288.862594
2644.798375,-1072.533697,-1850.514855,10881.027347
2644.798704,306.438199,-1406.391290,10066.800811
2644.799034,1991.848295,-222.061783,8734.430116
2644.799363,2911.162892,1480.411884,9030.512492
2644.799692,1532.190996,1184.329507,8364.327145
2644.800021,3064.381992,1776.494261,7772.162391
2644.800350,3524.039291,2664.741391,7402.059420
2644.800679,3140.991542,2220.617826,6883.915261
2644.801009,995.924147,-74.020594,8068.244768
2644.801338,-689.485948,-666.185348,8956.491898
2644.801667,-612.876398,-1258.350101,9252.574275
2644.801996,-612.876398,-2072.576638,9400.615463
2644.802325,-689.485948,-1258.350101,9474.636058
2644.802654,-1762.019645,-1036.288319,9104.533087
2644.802984,-1225.752797,-888.247130,9548.656652
2644.803313,0.000000,-518.144159,8438.347739
2644.803642,1072.533697,-1702.473667,9326.594869
2644.803971,229.828649,-666.185348,9104.533087
2644.804300,-383.047749,-962.267725,10881.027347
2644.804629,919.314598,-222.061783,10436.903782
2644.804958,2374.896044,1110.308913,8290.306550
2644.805288,1915.238745,1332.370696,8068.244768
2644.805617,1991.848295,1924.535449,7920.203579
2644.805946,2068.457845,1184.329507,7994.224174
2644.806275,536.266849,1406.391290,8290.306550
2644.806604,1762.019645,666.185348,8734.430116
2644.806933,689.485948,-1110.308913,8808.450710
2644.807263,-1915.238745,-1628.453072,8734.430116
2644.807592,-2221.676944,-1554.432478,10807.006753
2644.807921,-1302.362347,-2738.761985,11029.068536
2644.808250,-842.705048,-444.123565,9252.574275
2644.808579,0.000000,518.144159,9474.636058
2644.808908,-1378.971896,740.205942,9918.759623
2644.809238,-1225.752797,444.123565,9918.759623
2644.809567,842.705048,-0.000000,9992.780217
2644.809896,612.876398,740.205942,8808.450710
2644.810225,-612.876398,-444.123565,9992.780217
2644.810554,-1455.581446,-1184.329507,10362.883188
2644.810883,0.000000,-1184.329507,10140.821405
2644.811213,766.095498,-370.102971,9104.533087
2644.811542,1532.190996,-0.000000,8068.244768
2644.811871,229.828649,-0.000000,8364.327145
2644.812200,612.876398,592.164754,8586.388927
2644.812529,1532.190996,1184.329507,7550.100608
2644.812858,1762.019645,148.041188,7698.141797
2644.813188,689.485948,-740.205942,8364.327145
2644.813517,-229.828649,-666.185348,9178.553681
2644.813846,-229.828649,-1110.308913,9400.615463
2644.814175,229.828649,-592.164754,8882.471304
2644.814504,459.657299,-222.061783,9252.574275
2644.814833,-766.095498,296.082377,9474.636058
2644.815162,-1149.143247,-0.000000,10436.903782
2644.815492,-153.219100,-148.041188,9178.553681
2644.815821,995.924147,-0.000000,9104.533087
2644.816150,842.705048,-0.000000,8586.388927
2644.816479,76.609550,-1184.329507,9030.512492
2644.816808,0.000000,-1184.329507,9252.574275
2644.817137,1991.848295,-444.123565,8438.347739
2644.817467,2451.505594,-0.000000,7920.203579
2644.817796,1302.362347,-740.205942,7772.162391
2644.818125,229.828649,-740.205942,8586.388927
2644.818454,766.095498,296.082377,8586.388927
2644.818783,1302.362347,592.164754,8290.306550
2644.819112,1149.143247,-518.144159,8512.368333
2644.819442,-229.828649,-148.041188,10066.800811
2644.819771,-1532.190996,-1036.288319,10288.862594
2644.820100,0.000000,-296.082377,9992.780217
2644.820429,383.047749,-148.041188,10066.800811
2644.820758,76.609550,370.102971,9178.553681
2644.821087,-459.657299,444.123565,9400.615463
2644.821417,-766.095498,-0.000000,9770.718434
2644.821746,766.095498,-0.000000,9178.553681
2644.822075,1455.581446,296.082377,8660.409521
2644.822404,995.924147,-296.082377,9030.512492
2644.822733,229.828649,-1184.329507,8808.450710
2644.823062,612.876398,-888.247130,9326.594869
2644.823391,1532.190996,-0.000000,8438.347739
2644.823721,1838.629195,888.247130,8216.285956
2644.824050,536.266849,666.185348,9030.512492
2644.824379,-153.219100,592.164754,8808.450710
2644.824708,153.219100,1184.329507,9252.574275
2644.825037,689.485948,666.185348,8734.430116
2644.825366,229.828649,-0.000000,8882.471304
2644.825696,-1225.752797,-888.247130,9696.697840
2644.826025,-1455.581446,-1036.288319,9770.718434
2644.826354,-383.047749,-740.205942,9622.677246
2644.826683,229.828649,-518.144159,9252.574275
2644.827012,-536.266849,-370.102971,9104.533087
2644.827341,-1225.752797,-0.000000,9474.636058
2644.827671,-842.705048,-888.247130,9622.677246
2644.828000,689.485948,-222.061783,9030.512492
2644.828329,1378.971896,-222.061783,8586.388927
2644.828658,0.000000,-666.185348,9178.553681
2644.828987,-306.438199,-1036.288319,9474.636058
2644.829316,995.924147,-740.205942,9622.677246
2644.829646,2451.505594,370.102971,7402.059420
2644.829975,2221.676944,888.247130,7920.203579
2644.830304,689.485948,444.123565,9104.533087
2644.830633,0.000000,1036.288319,9178.553681
2644.830962,383.047749,592.164754,9178.553681
2644.831291,1455.581446,-0.000000,9104.533087
2644.831621,-306.438199,-518.144159,9400.615463
2644.831950,-2298.286494,-666.185348,10510.924376
2644.832279,-842.705048,-1184.329507,10214.842000
2644.832608,-306.438199,-74.020594,9326.594869
2644.832937,459.657299,-0.000000,9400.615463
2644.833266,-306.438199,592.164754,9178.553681
2644.833595,-842.705048,-0.000000,9548.656652
2644.833925,153.219100,444.123565,8808.450710
2644.834254,2221.676944,518.144159,7772.162391
2644.834583,1378.971896,-0.000000,8142.265362
2644.834912,459.657299,-518.144159,8290.306550
2644.835241,1072.533697,-370.102971,9178.553681
2644.835570,2374.896044,-0.000000,9400.615463
2644.835900,1991.848295,-0.000000,8290.306550
2644.836229,995.924147,444.123565,9696.697840
2644.836558,-383.047749,-0.000000,9104.533087
2644.836887,-689.485948,-0.000000,8438.347739
2644.837216,536.266849,518.144159,9400.615463
2644.837545,229.828649,-888.247130,8364.327145
2644.837875,-1072.533697,-740.205942,8956.491898
2644.838204,-1532.190996,-2368.659014,10214.842000
2644.838533,-1149.143247,-888.247130,9474.636058
2644.838862,-306.438199,-1406.391290,8734.430116
2644.839191,0.000000,-296.082377,8808.450710
2644.839520,-1302.362347,-0.000000,8956.491898
2644.839850,-1225.752797,-814.226536,9770.718434
2644.840179,76.609550,-740.205942,8364.327145
2644.840508,919.314598,-296.082377,8512.368333
2644.840837,459.657299,-1036.288319,8882.471304
2644.841166,459.657299,-962.267725,9252.574275
2644.841495,689.485948,-1110.308913,9104.533087
2644.841825,1762.019645,-222.061783,8512.368333
2644.842154,2068.457845,592.164754,8438.347739
2644.842483,842.705048,148.041188,8586.388927
2644.842812,383.047749,296.082377,9474.636058
2644.843141,1455.581446,370.102971,8734.430116
2644.843470,1685.410096,-370.102971,8660.409521
2644.843799,766.095498,-740.205942,8660.409521
2644.844129,-612.876398,-962.267725,9474.636058
2644.844458,-919.314598,-666.185348,9696.697840
2644.844787,-612.876398,-814.226536,9474.636058
2644.845116,1072.533697,-1480.411884,9548.656652
2644.845445,-612.876398,-0.000000,7920.203579
2644.845774,-1225.752797,296.082377,9918.759623
2644.846104,-306.438199,-592.164754,9696.697840
2644.846433,842.705048,444.123565,8734.430116
2644.846762,1685.410096,444.123565,8882.471304
2644.847091,1991.848295,-222.061783,9178.553681
2644.847420,1455.581446,-962.267725,9104.533087
2644.847749,2145.067394,888.247130,8734.430116
2644.848079,2451.505594,1110.308913,8142.265362
2644.848408,2145.067394,592.164754,8956.491898
2644.848737,689.485948,666.185348,8882.471304
2644.849066,306.438199,296.082377,9030.512492
2644.849395,1378.971896,148.041188,8068.244768
2644.849724,1072.533697,518.144159,9178.553681
2644.850054,-612.876398,-1036.288319,10140.821405
2644.850383,-1608.800546,-1850.514855,10436.903782
2644.850712,-1608.800546,-1332.370696,10066.800811
2644.851041,-383.047749,-1036.288319,9696.697840
2644.851370,-459.657299,-222.061783,9474.636058
2644.851699,-766.095498,-74.020594,9918.759623
2644.852028,-919.314598,-74.020594,9474.636058
2644.852358,-306.438199,518.144159,9548.656652
2644.852687,1225.752797,1110.308913,8512.368333
2644.853016,1378.971896,1110.308913,8438.347739
2644.853345,919.314598,296.082377,8586.388927
2644.853674,459.657299,-518.144159,9400.615463
2644.854003,1455.581446,-0.000000,9252.574275
2644.854333,2145.067394,-74.020594,8068.244768
2644.854662,1455.581446,296.082377,8734.430116
2644.854991,0.000000,592.164754,8734.430116
2644.855320,-306.438199,444.123565,8660.409521
2644.855649,459.657299,-148.041188,8882.471304
2644.855978,612.876398,-0.000000,7994.224174
2644.856308,-612.876398,-1036.288319,8882.471304
2644.856637,-2374.896044,-2368.659014,10288.862594
2644.856966,-1915.238745,-2072.576638,10807.006753
2644.857295,-1455.581446,-1480.411884,9844.739029
2644.857624,-995.924147,-592.164754,8808.450710
2644.857953,-1455.581446,-444.123565,9252.574275
2644.858283,-1838.629195,296.082377,9178.553681
2644.858612,0.000000,592.164754,9918.759623
2644.858941,1532.190996,1036.288319,8808.450710
2644.859270,2068.457845,-0.000000,7772.162391
2644.859599,919.314598,-74.020594,8438.347739
2644.859928,1762.019645,-444.123565,8438.347739
2644.860258,2834.553343,370.102971,7772.162391
2644.860587,2987.772442,666.185348,7105.977043
2644.860916,1532.190996,592.164754,8660.409521
2644.861245,1072.533697,518.144159,8956.491898
2644.861574,536.266849,-148.041188,8882.471304
2644.861903,536.266849,-148.041188,8438.347739
2644.862232,0.000000,-1110.308913,9252.574275
2644.862562,-1685.410096,-1258.350101,9696.697840
2644.862891,-2221.676944,-1924.535449,10881.027347
2644.863220,-1378.971896,-1110.308913,10362.883188
2644.863549,306.438199,-1332.370696,9548.656652
2644.863878,-612.876398,-0.000000,9474.636058
2644.864207,-1685.410096,-518.144159,10288.862594
2644.864537,0.000000,-0.000000,9696.697840
2644.864866,1532.190996,592.164754,8290.306550
2644.865195,2451.505594,666.185348,8142.265362
2644.865524,2451.505594,296.082377,8438.347739
2644.865853,1915.238745,-518.144159,9474.636058
2644.866182,2145.067394,-296.082377,8512.368333
2644.866512,3140.991542,962.267725,8142.265362
2644.866841,1991.848295,814.226536,8290.306550
2644.867170,919.314598,1184.329507,9622.677246
2644.867499,0.000000,370.102971,9252.574275
2644.867828,-612.876398,222.061783,9030.512492
2644.868157,0.000000,-0.000000,9400.615463
2644.868487,-306.438199,-666.185348,9252.574275
2644.868816,-1532.190996,-1110.308913,10584.944971
2644.869145,-1532.190996,-1628.453072,10584.944971
2644.869474,-383.047749,-1110.308913,9178.553681
2644.869803,-383.047749,-0.000000,8956.491898
2644.870132,-536.266849,-0.000000,9326.594869
2644.870461,-766.095498,-444.123565,9844.739029
2644.870791,153.219100,222.061783,8808.450710
2644.871120,1685.410096,592.164754,8142.265362
2644.871449,1915.238745,444.123565,7994.224174
2644.871778,383.047749,-444.123565,8734.430116
2644.872107,383.047749,-1036.288319,9474.636058
2644.872436,536.266849,-296.082377,9622.677246
2644.872766,1225.752797,-0.000000,8068.244768
2644.873095,919.314598,-0.000000,9326.594869
2644.873424,-689.485948,592.164754,9548.656652
2644.873753,-689.485948,-74.020594,9474.636058
2644.874082,229.828649,518.144159,8734.430116
2644.874411,76.609550,-444.123565,8660.409521
2644.874741,-306.438199,-1776.494261,9178.553681
2644.875070,-1378.971896,-1850.514855,9844.739029
2644.875399,0.000000,-1702.473667,9326.594869
2644.875728,229.828649,-740.205942,9030.512492
2644.876057,229.828649,-148.041188,8660.409521
2644.876386,-383.047749,-222.061783,9104.533087
2644.876716,-383.047749,370.102971,9252.574275
2644.877045,459.657299,518.144159,9030.512492
2644.877374,1838.629195,296.082377,8068.244768
2644.877703,919.314598,-370.102971,8734.430116
2644.878032,306.438199,-518.144159,9400.615463
2644.878361,229.828649,-592.164754,9252.574275
2644.878691,842.705048,-148.041188,8808.450710
2644.879020,1455.581446,296.082377,8290.306550
2644.879349,766.095498,-222.061783,8142.265362
2644.879678,459.657299,-148.041188,8734.430116
2644.880007,842.705048,-0.000000,8660.409521
2644.880336,1762.019645,-0.000000,8216.285956
2644.880665,1685.410096,-0.000000,8290.306550
2644.880994,229.828649,-296.082377,8660.409521
2644.881323,-229.828649,-666.185348,10140.821405
2644.881652,229.828649,-592.164754,9030.512492
2644.881981,766.095498,-296.082377,9030.512492
2644.882310,229.828649,518.144159,8734.430116
2644.882640,-1378.971896,-0.000000,9474.636058
2644.882969,-1532.190996,-148.041188,10362.883188
2644.883298,-229.828649,592.164754,8512.368333
2644.883627,76.609550,-148.041188,9030.512492
2644.883956,153.219100,-1036.288319,8956.491898
2644.884285,-689.485948,-814.226536,10214.842000
2644.884614,0.000000,-1480.411884,10066.800811
2644.884943,689.485948,-148.041188,8512.368333
2644.885272,1149.143247,-370.102971,8882.471304
2644.885601,842.705048,1036.288319,8956.491898
2644.885930,1149.143247,1036.288319,9178.553681
2644.886259,1685.410096,962.267725,7846.182985
2644.886589,2298.286494,888.247130,8068.244768
2644.886918,1302.362347,-0.000000,8882.471304
2644.887247,0.000000,-814.226536,8882.471304
2644.887576,-612.876398,-962.267725,9622.677246
2644.887905,-536.266849,-888.247130,9844.739029
2644.888234,-689.485948,-962.267725,9178.553681
2644.888563,-919.314598,-444.123565,9474.636058
2644.888892,-1532.190996,-740.205942,10140.821405
2644.889221,-1302.362347,-666.185348,9992.780217
2644.889550,383.047749,148.041188,9104.533087
2644.889879,229.828649,-0.000000,8512.368333
2644.890208,-842.705048,-740.205942,9548.656652
2644.890538,-536.266849,-1480.411884,10658.965565
2644.890867,919.314598,-370.102971,9400.615463
2644.891196,2681.334243,-0.000000,9104.533087
2644.891525,2221.676944,962.267725,7920.203579
2644.891854,1608.800546,1258.350101,8808.450710
2644.892183,2145.067394,962.267725,8734.430116
2644.892512,2834.553343,1776.494261,7179.997637
2644.892841,2911.162892,1110.308913,7328.038826
2644.893170,1378.971896,-0.000000,8142.265362
2644.893499,153.219100,-962.267725,9622.677246
2644.893828,-383.047749,-1628.453072,9770.718434
2644.894157,0.000000,-2146.597232,9474.636058
2644.894487,-536.266849,-1924.535449,10140.821405
2644.894816,-1838.629195,-814.226536,9918.759623
2644.895145,-1762.019645,-370.102971,10140.821405
2644.895474,-766.095498,-370.102971,9696.697840
2644.895803,536.266849,-0.000000,8364.327145
2644.896132,1225.752797,592.164754,9252.574275
2644.896461,842.705048,-148.041188,9918.759623
2644.896790,1685.410096,-222.061783,9178.553681
2644.897119,3524.039291,-0.000000,8068.244768
2644.897448,3064.381992,1184.329507,6809.894666
2644.897777,2757.943793,592.164754,7920.203579
2644.898106,2298.286494,1480.411884,8364.327145
2644.898435,1685.410096,888.247130,8512.368333
2644.898765,1378.971896,888.247130,8438.347739
2644.899094,842.705048,-74.020594,8734.430116
2644.899423,-995.924147,-1036.288319,9400.615463
2644.899752,-1991.848295,-2220.617826,10140.821405
2644.900081,-2145.067394,-1332.370696,9548.656652
2644.900410,-1225.752797,-1554.432478,9844.739029
2644.900739,-1532.190996,-814.226536,9252.574275
2644.901068,-1532.190996,-444.123565,9178.553681
2644.901397,-1762.019645,-222.061783,8734.430116
2644.901726,-459.657299,222.061783,9030.512492
2644.902055,689.485948,222.061783,8512.368333
2644.902384,-383.047749,-518.144159,8586.388927
2644.902714,-459.657299,-1850.514855,9770.718434
2644.903043,306.438199,-1480.411884,9400.615463
2644.903372,1762.019645,-222.061783,8660.409521
2644.903701,2068.457845,962.267725,7772.162391
2644.904030,1072.533697,148.041188,8290.306550
2644.904359,536.266849,1258.350101,9030.512492
2644.904688,1302.362347,1036.288319,7846.182985
2644.905017,1302.362347,666.185348,8216.285956
2644.905346,1072.533697,-1110.308913,8882.471304
2644.905675,-1149.143247,-962.267725,9326.594869
2644.906004,-1072.533697,-1554.432478,9918.759623
2644.906333,-919.314598,-1406.391290,9548.656652
2644.906663,-612.876398,-1332.370696,9178.553681
2644.906992,-842.705048,-592.164754,9548.656652
2644.907321,-919.314598,-222.061783,9474.636058
2644.907650,0.000000,-1332.370696,9548.656652
2644.907979,229.828649,-740.205942,9400.615463
2644.908308,1072.533697,518.144159,9400.615463
2644.908637,766.095498,-592.164754,9474.636058
2644.908966,612.876398,-518.144159,9918.759623
2644.909295,2604.724693,222.061783,9474.636058
2644.909624,3294.210641,1036.288319,7698.141797
2644.909953,2451.505594,1406.391290,8882.471304
2644.910282,1532.190996,1184.329507,9474.636058
2644.910612,1532.190996,1332.370696,8882.471304
2644.910941,1608.800546,1110.308913,8438.347739
2644.911270,1532.190996,296.082377,8586.388927
2644.911599,383.047749,-1332.370696,8808.450710
2644.911928,-306.438199,-888.247130,10214.842000
2644.912257,229.828649,-1332.370696,9918.759623
2644.912586,0.000000,-1406.391290,8956.491898
2644.912915,76.609550,-666.185348,9474.636058
2644.913244,-536.266849,296.082377,9548.656652
2644.913573,-612.876398,-0.000000,9548.656652
2644.913902,0.000000,296.082377,8586.388927
2644.914231,2068.457845,666.185348,8882.471304
2644.914561,1762.019645,592.164754,8734.430116
2644.914890,229.828649,-74.020594,8808.450710
2644.915219,612.876398,-1184.329507,9770.718434
2644.915548,919.314598,-296.082377,9178.553681
2644.915877,1149.143247,444.123565,8364.327145
2644.916206,229.828649,518.144159,9400.615463
2644.916535,-383.047749,148.041188,9474.636058
2644.916864,0.000000,518.144159,9104.533087
2644.917193,383.047749,-0.000000,9178.553681
2644.917522,536.266849,-222.061783,8512.368333
2644.917851,-612.876398,-962.267725,9178.553681
2644.918180,-1225.752797,-1258.350101,9622.677246
2644.918509,-1072.533697,-1036.288319,9548.656652
2644.918839,0.000000,-518.144159,9252.574275
2644.919168,-229.828649,-370.102971,8660.409521
2644.919497,-919.314598,-518.144159,8956.491898
2644.919826,-1608.800546,-666.185348,9770.718434
2644.920155,-536.266849,-444.123565,9400.615463
2644.920484,459.657299,-592.164754,8512.368333
2644.920813,-612.876398,-444.123565,8882.471304
2644.921142,-1072.533697,-1110.308913,9992.780217
2644.921471,-995.924147,-1776.494261,9696.697840
2644.921800,919.314598,-0.000000,8438.347739
2644.922129,1378.971896,814.226536,7772.162391
2644.922458,919.314598,962.267725,8364.327145
2644.922788,0.000000,814.226536,8956.491898
2644.923117,689.485948,222.061783,8586.388927
2644.923446,2298.286494,-0.000000,8068.244768
2644.923775,1378.971896,-0.000000,7994.224174
2644.924104,153.219100,-666.185348,9104.533087
2644.924433,-229.828649,-666.185348,9992.780217
2644.924762,306.438199,-444.123565,8882.471304
2644.925091,536.266849,-296.082377,8586.388927
2644.925420,0.000000,-74.020594,9178.553681
2644.925749,-612.876398,-0.000000,9696.697840
2644.926078,-689.485948,-444.123565,9400.615463
2644.926407,842.705048,-518.144159,8734.430116
2644.926737,919.314598,-74.020594,8882.471304
2644.927066,229.828649,-518.144159,9030.512492
2644.927395,306.438199,-888.247130,9918.759623
2644.927724,842.705048,-222.061783,9696.697840
2644.928053,2145.067394,518.144159,8586.388927
2644.928382,2068.457845,444.123565,8808.450710
2644.928711,919.314598,444.123565,9400.615463
2644.929040,459.657299,1406.391290,8216.285956
2644.929369,1225.752797,518.144159,8734.430116
2644.929698,2145.067394,444.123565,7846.182985
2644.930027,995.924147,370.102971,8290.306550
2644.930356,-153.219100,-1776.494261,10584.944971
2644.930686,-459.657299,-1184.329507,9992.780217
2644.931015,-153.219100,-444.123565,9326.594869
2644.931344,76.609550,-296.082377,9104.533087
2644.931673,-459.657299,-148.041188,9474.636058
2644.932002,-1302.362347,-0.000000,9548.656652
2644.932331,0.000000,666.185348,9252.574275
2644.932660,766.095498,-0.000000,8216.285956
2644.932989,689.485948,-74.020594,7476.080014
2644.933318,689.485948,-444.123565,9474.636058
2644.933647,229.828649,-740.205942,9178.553681
2644.933976,919.314598,-370.102971,8512.368333
2644.934305,1532.190996,814.226536,8808.450710
2644.934634,766.095498,-0.000000,8734.430116
2644.934964,76.609550,-74.020594,9104.533087
2644.935293,919.314598,-592.164754,8068.244768
2644.935622,1378.971896,-0.000000,8660.409521
2644.935951,1072.533697,-0.000000,7994.224174
2644.936280,536.266849,-222.061783,7994.224174
2644.936609,-229.828649,-592.164754,9178.553681
2644.936938,0.000000,-0.000000,8438.347739
2644.937267,229.828649,222.061783,8290.306550
2644.937596,-766.095498,-296.082377,9548.656652
2644.937925,-1378.971896,-0.000000,10362.883188
2644.938254,-1455.581446,-518.144159,9030.512492
2644.938583,-1378.971896,-518.144159,9104.533087
2644.938913,612.876398,-1110.308913,9474.636058
2644.939242,-229.828649,-1110.308913,8364.327145
2644.939571,-612.876398,-1332.370696,9770.718434
2644.939900,-153.219100,-1406.391290,10066.800811
2644.940229,1762.019645,-444.123565,8660.409521
2644.940558,1532.190996,888.247130,8438.347739
2644.940887,1608.800546,1628.453072,8586.388927
2644.941216,1225.752797,666.185348,9474.636058
2644.941545,1685.410096,1184.329507,8216.285956
2644.941874,1915.238745,666.185348,7920.203579
2644.942203,1455.581446,148.041188,8068.244768
2644.942532,-383.047749,-148.041188,8808.450710
2644.942862,-459.657299,-888.247130,10288.862594
2644.943191,-689.485948,-888.247130,9696.697840
2644.943520,-536.266849,-888.247130,9252.574275
2644.943849,-1225.752797,-518.144159,10140.821405
2644.944178,-1608.800546,-370.102971,9696.697840
2644.944507,-995.924147,-740.205942,9474.636058
2644.944836,459.657299,-296.082377,9400.615463
2644.945165,842.705048,-0.000000,8734.430116
2644.945494,689.485948,-370.102971,8808.450710
2644.945823,995.924147,-148.041188,9474.636058
2644.946152,2068.457845,-0.000000,8586.388927
2644.946481,2987.772442,1332.370696,7846.182985
2644.946811,2757.943793,1480.411884,8512.368333
2644.947140,1532.190996,1258.350101,9030.512492
2644.947469,766.095498,592.164754,8586.388927
2644.947798,689.485948,740.205942,8586.388927
2644.948127,766.095498,-0.000000,8512.368333
2644.948456,-306.438199,-888.247130,8956.491898
2644.948785,-1685.410096,-1850.514855,10214.842000
2644.949114,-1608.800546,-1628.453072,10288.862594
2644.949443,-919.314598,-1480.411884,9326.594869
2644.949772,-383.047749,-740.205942,8956.491898
2644.950101,-1072.533697,-74.020594,9474.636058
2644.950430,-1455.581446,-518.144159,9770.718434
2644.950760,0.000000,-740.205942,9400.615463
2644.951089,1225.752797,370.102971,9400.615463
2644.951418,1302.362347,-0.000000,8660.409521
2644.951747,1838.629195,-148.041188,8808.450710
2644.952076,1149.143247,-592.164754,9844.739029
2644.952405,1838.629195,-0.000000,8882.471304
2644.952734,1991.848295,1184.329507,8068.244768
2644.953063,1608.800546,518.144159,8660.409521
2644.953392,-306.438199,518.144159,9030.512492
2644.953721,-229.828649,-740.205942,9844.739029
2644.954050,306.438199,-296.082377,8956.491898
2644.954379,459.657299,-1036.288319,8290.306550
2644.954708,-689.485948,-1036.288319,8956.491898
2644.955038,-1378.971896,-1184.329507,10066.800811
2644.955367,-459.657299,-962.267725,9844.739029
2644.955696,0.000000,-222.061783,8660.409521
2644.956025,229.828649,-222.061783,9178.553681
2644.956354,76.609550,592.164754,8956.491898
2644.956683,-689.485948,-0.000000,9622.677246
2644.957012,536.266849,518.144159,9030.512492
2644.957341,1838.629195,296.082377,7920.203579
2644.957670,1072.533697,296.082377,8068.244768
2644.957999,1072.533697,-444.123565,9326.594869
2644.958328,689.485948,-296.082377,9252.574275
2644.958657,995.924147,-666.185348,8956.491898
2644.958987,1225.752797,370.102971,9104.533087
2644.959316,0.000000,-0.000000,8882.471304
2644.959645,-306.438199,-0.000000,9474.636058
2644.959974,0.000000,296.082377,8808.450710
2644.960303,842.705048,592.164754,8438.347739
2644.960632,995.924147,-0.000000,8808.450710
2644.960961,-229.828649,444.123565,9400.615463
2644.961290,-842.705048,-222.061783,10066.800811
2644.961619,-229.828649,-74.020594,8808.450710
2644.961948,383.047749,-370.102971,9104.533087
2644.962277,-153.219100,-222.061783,9030.512492
2644.962606,-842.705048,-518.144159,9622.677246
2644.962936,-1378.971896,-814.226536,9474.636058
2644.963265,383.047749,-444.123565,8882.471304
2644.963594,919.314598,-74.020594,9030.512492
2644.963923,459.657299,-370.102971,9326.594869
2644.964252,76.609550,-888.247130,9992.780217
2644.964581,76.609550,-1036.288319,9844.739029
2644.964910,1378.971896,-0.000000,9252.574275
2644.965239,1455.581446,148.041188,8882.471304
2644.965568,536.266849,740.205942,9474.636058
2644.965897,0.000000,-0.000000,9918.759623
2644.966226,459.657299,222.061783,8956.491898
2644.966555,1378.971896,-0.000000,8290.306550
2644.966885,766.095498,-444.123565,9178.553681
2644.967214,-1072.533697,-1480.411884,9918.759623
2644.967543,-919.314598,-1332.370696,10140.821405
2644.967872,-306.438199,-666.185348,9178.553681
2644.968201,842.705048,370.102971,9030.512492
2644.968530,76.609550,518.144159,9178.553681
2644.968859,-536.266849,222.061783,9104.533087
2644.969188,536.266849,592.164754,8586.388927
2644.969517,2298.286494,962.267725,7624.121203
2644.969846,2145.067394,444.123565,6735.874072
2644.970175,1302.362347,-962.267725,8512.368333
2644.970504,1149.143247,-370.102971,10140.821405
2644.970833,842.705048,-814.226536,8068.244768
2644.971163,1455.581446,-666.185348,8068.244768
2644.971492,1225.752797,444.123565,9474.636058
2644.971821,-536.266849,-666.185348,10066.800811
2644.972150,-229.828649,-962.267725,9696.697840
2644.972479,0.000000,-740.205942,9104.533087
2644.972808,766.095498,-666.185348,7772.162391
2644.973137,459.657299,-444.123565,8586.388927
2644.973466,-383.047749,-962.267725,10066.800811
2644.973795,-153.219100,-518.144159,9548.656652
2644.974124,689.485948,-148.041188,8438.347739
2644.974453,536.266849,-666.185348,9178.553681
2644.974782,306.438199,-0.000000,8586.388927
2644.975112,306.438199,592.164754,9400.615463
2644.975441,536.266849,370.102971,8882.471304
2644.975770,1838.629195,518.144159,8364.327145
2644.976099,995.924147,-444.123565,9326.594869
2644.976428,76.609550,-1110.308913,8290.306550
2644.976757,153.219100,-814.226536,10510.924376
2644.977086,0.000000,-666.185348,10066.800811
2644.977415,612.876398,-222.061783,8660.409521
2644.977744,0.000000,-222.061783,8290.306550
2644.978073,-1685.410096,592.164754,9548.656652
2644.978402,0.000000,-74.020594,9844.739029
2644.978731,153.219100,518.144159,8734.430116
2644.979061,153.219100,740.205942,8364.327145
2644.979390,306.438199,-0.000000,8956.491898
2644.979719,-1225.752797,-370.102971,9400.615463
2644.980048,-459.657299,-0.000000,9548.656652
2644.980377,919.314598,-814.226536,8956.491898
2644.980706,-306.438199,666.185348,8808.450710
2644.981035,0.000000,-444.123565,9178.553681
2644.981364,-919.314598,-222.061783,9252.574275
2644.981693,-306.438199,-296.082377,8956.491898
2644.982023,995.924147,-148.041188,7994.224174
2644.982352,689.485948,-592.164754,8734.430116
2644.982681,-306.438199,-1036.288319,9548.656652
2644.983010,0.000000,-148.041188,8956.491898
2644.983340,842.705048,-0.000000,8882.471304
2644.983669,612.876398,-0.000000,8438.347739
2644.983998,0.000000,666.185348,9178.553681
2644.984327,-536.266849,-370.102971,10510.924376
2644.984656,766.095498,-666.185348,10288.862594
2644.984986,1149.143247,-222.061783,8512.368333
2644.985315,612.876398,-666.185348,8660.409521
2644.985644,-229.828649,-962.267725,9104.533087
2644.985973,76.609550,-888.247130,9622.677246
2644.986302,689.485948,-74.020594,8586.388927
2644.986632,842.705048,-296.082377,8660.409521
2644.986961,229.828649,-74.020594,9252.574275
2644.987290,-842.705048,222.061783,9030.512492
2644.987619,-383.047749,-0.000000,9474.636058
2644.987949,383.047749,222.061783,8882.471304
2644.988278,995.924147,-296.082377,8364.327145
2644.988607,306.438199,-518.144159,9326.594869
2644.988936,76.609550,-666.185348,9918.759623
2644.989265,919.314598,-592.164754,9400.615463
2644.989595,1608.800546,-0.000000,8290.306550
2644.989924,1915.238745,962.267725,8586.388927
2644.990253,1072.533697,1184.329507,9030.512492
2644.990582,612.876398,592.164754,8734.430116
2644.990911,1762.019645,962.267725,8364.327145
2644.991241,2374.896044,1110.308913,7994.224174
2644.991570,536.266849,-74.020594,8734.430116
2644.991899,-306.438199,-1184.329507,9844.739029
2644.992228,-1072.533697,-1036.288319,9622.677246
2644.992558,-919.314598,-592.164754,9252.574275
2644.992887,-995.924147,-888.247130,9918.759623
2644.993216,-1991.848295,-444.123565,9918.759623
2644.993545,-2528.115143,-592.164754,10214.842000
2644.993874,-1302.362347,-1110.308913,10066.800811
2644.994204,0.000000,-370.102971,9104.533087
2644.994533,383.047749,-222.061783,9104.533087
2644.994862,536.266849,-888.247130,9252.574275
2644.995191,842.705048,-444.123565,8660.409521
2644.995520,2068.457845,148.041188,8512.368333
2644.995850,2757.943793,1110.308913,7624.121203
2644.996179,2757.943793,666.185348,8068.244768
2644.996508,766.095498,222.061783,8956.491898
2644.996837,842.705048,-148.041188,9178.553681
2644.997167,459.657299,-296.082377,8808.450710
2644.997496,0.000000,-370.102971,8734.430116
2644.997825,-1455.581446,-1406.391290,9622.677246
2644.998154,-2451.505594,-2664.741391,11029.068536
2644.998483,-2068.457845,-1702.473667,10362.883188
2644.998813,-536.266849,-1184.329507,9622.677246
2644.999142,-153.219100,-888.247130,9474.636058
2644.999471,-1072.533697,518.144159,9030.512492
2644.999800,-995.924147,-740.205942,10362.883188
2645.000129,842.705048,-0.000000,8882.471304
2645.000459,2604.724693,370.102971,7846.182985
2645.000788,2681.334243,444.123565,7105.977043
2645.001117,3140.991542,-148.041188,9030.512492
2645.001446,2451.505594,-222.061783,8660.409521
2645.001776,3524.039291,1110.308913,7624.121203
2645.002105,3217.601092,1184.329507,7476.080014
2645.002434,1915.238745,962.267725,8956.491898
2645.002763,0.000000,148.041188,9474.636058
2645.003092,306.438199,-222.061783,9696.697840
2645.003422,153.219100,-814.226536,9178.553681
2645.003751,-459.657299,-1258.350101,9400.615463
2645.004080,-1838.629195,-1628.453072,10362.883188
2645.004409,-2451.505594,-1406.391290,10510.924376
2645.004739,-995.924147,-1480.411884,9548.656652
2645.005068,383.047749,-296.082377,8882.471304
2645.005397,0.000000,-0.000000,8956.491898
2645.005726,0.000000,740.205942,9252.574275
2645.006055,459.657299,296.082377,9400.615463
2645.006385,2374.896044,1332.370696,8438.347739
2645.006714,3370.820191,1628.453072,7846.182985
2645.007043,2987.772442,222.061783,8142.265362
2645.007372,1762.019645,-0.000000,9474.636058
2645.007701,1991.848295,-0.000000,9474.636058
2645.008031,2374.896044,-0.000000,8068.244768
2645.008360,1302.362347,296.082377,8808.450710
2645.008689,-383.047749,148.041188,10066.800811
2645.009018,-1378.971896,-222.061783,9918.759623
2645.009348,-1455.581446,-74.020594,9104.533087
2645.009677,0.000000,-814.226536,8586.388927
2645.010006,-995.924147,-888.247130,7920.203579
2645.010335,-2987.772442,-1702.473667,9992.780217
2645.010664,-2681.334243,-2516.700203,10955.047942
2645.010994,-1378.971896,-444.123565,8956.491898
2645.011323,-1149.143247,-740.205942,9252.574275
2645.011652,-1149.143247,-370.102971,9252.574275
2645.011981,-995.924147,-370.102971,10288.862594
2645.012310,229.828649,-518.144159,9844.739029
2645.012640,1838.629195,370.102971,7920.203579
2645.012969,1838.629195,-74.020594,8364.327145
2645.013298,1838.629195,518.144159,8216.285956
2645.013627,1378.971896,-148.041188,8586.388927
2645.013957,1455.581446,1110.308913,8068.244768
2645.014286,2604.724693,444.123565,8142.265362
2645.014615,1149.143247,666.185348,8216.285956
2645.014944,-306.438199,-148.041188,9178.553681
2645.015273,-1225.752797,-1184.329507,9252.574275
2645.015603,-383.047749,-1110.308913,8808.450710
2645.015932,0.000000,-1258.350101,8808.450710
2645.016261,-1072.533697,-1258.350101,9104.533087
2645.016590,-1762.019645,-1554.432478,10658.965565
2645.016919,-612.876398,-1480.411884,10510.924376
2645.017249,766.095498,-0.000000,8808.450710
2645.017578,1149.143247,-0.000000,9400.615463
2645.017907,383.047749,592.164754,9030.512492
2645.018236,383.047749,296.082377,10066.800811
2645.018566,1378.971896,370.102971,8882.471304
2645.018895,2451.505594,592.164754,7920.203579
2645.019224,2451.505594,370.102971,8438.347739
2645.019553,1455.581446,-222.061783,9400.615463
2645.019882,919.314598,-0.000000,9400.615463
2645.020212,1762.019645,148.041188,8734.430116
2645.020541,1149.143247,296.082377,8068.244768
2645.020870,536.266849,-0.000000,9992.780217
2645.021199,-153.219100,-814.226536,9844.739029
2645.021528,-459.657299,-592.164754,9400.615463
2645.021858,689.485948,-814.226536,9178.553681
2645.022187,766.095498,-222.061783,9104.533087
2645.022516,153.219100,-74.020594,8364.327145
2645.022845,-229.828649,-296.082377,9918.759623
2645.023175,459.657299,-0.000000,8734.430116
2645.023504,919.314598,518.144159,8808.450710
2645.023833,459.657299,666.185348,9030.512492
2645.024162,-995.924147,370.102971,8956.491898
2645.024491,-689.485948,-0.000000,9548.656652
2645.024821,153.219100,-0.000000,8882.471304
2645.025150,995.924147,-0.000000,8290.306550
2645.025479,229.828649,-814.226536,9178.553681
2645.025808,-1072.533697,-1406.391290,9474.636058
2645.026137,0.000000,-1480.411884,9696.697840
2645.026467,919.314598,-74.020594,8808.450710
2645.026796,1378.971896,518.144159,8216.285956
2645.027125,0.000000,-0.000000,8512.368333
2645.027454,-612.876398,-74.020594,9400.615463
2645.027784,383.047749,370.102971,8734.430116
2645.028113,1532.190996,-0.000000,7920.203579
2645.028442,459.657299,-296.082377,8438.347739
2645.028771,-1072.533697,-1184.329507,9844.739029
2645.029100,-689.485948,-1110.308913,10362.883188
2645.029430,-306.438199,-370.102971,8882.471304
2645.029759,0.000000,296.082377,8734.430116
2645.030088,-1072.533697,-74.020594,9696.697840
2645.030417,-1532.190996,-296.082377,10140.821405
2645.030746,-1455.581446,-1110.308913,9992.780217
2645.031076,-383.047749,-222.061783,9104.533087
2645.031405,76.609550,-592.164754,9104.533087
2645.031734,0.000000,-1110.308913,9474.636058
2645.032063,-459.657299,-74.020594,10214.842000
2645.032393,995.924147,-0.000000,8956.491898
2645.032722,2451.505594,962.267725,7254.018232
2645.033051,1991.848295,1258.350101,8808.450710
2645.033380,1302.362347,1184.329507,9252.574275
2645.033709,1072.533697,1036.288319,8364.327145
2645.034039,1915.238745,-0.000000,8512.368333
2645.034368,2145.067394,592.164754,8364.327145
2645.034697,995.924147,148.041188,8512.368333
2645.035026,-229.828649,-814.226536,9770.718434
2645.035355,-383.047749,-296.082377,9474.636058
2645.035685,76.609550,-814.226536,9400.615463
2645.036014,306.438199,-666.185348,9400.615463
2645.036343,-612.876398,-0.000000,9992.780217
2645.036672,-1762.019645,-666.185348,10362.883188
2645.037002,-536.266849,-518.144159,9548.656652
2645.037331,766.095498,-0.000000,8586.388927
2645.037660,1225.752797,-444.123565,9030.512492
2645.037989,689.485948,-0.000000,8956.491898
2645.038318,1455.581446,-222.061783,10066.800811
2645.038648,1838.629195,-74.020594,8660.409521
2645.038977,2681.334243,1332.370696,8512.368333
2645.039306,1608.800546,296.082377,8882.471304
2645.039635,612.876398,1184.329507,9178.553681
2645.039964,995.924147,370.102971,9030.512492
2645.040294,1302.362347,222.061783,8142.265362
2645.040623,919.314598,-888.247130,8512.368333
2645.040952,-229.828649,-2220.617826,9474.636058
2645.041281,-1302.362347,-1406.391290,9622.677246
2645.041611,-1302.362347,-1406.391290,10066.800811
2645.041940,-766.095498,-962.267725,9030.512492
2645.042269,-1149.143247,-74.020594,8956.491898
2645.042598,-1455.581446,-222.061783,9474.636058
2645.042927,-1149.143247,-1184.329507,9844.739029
2645.043257,-383.047749,-814.226536,9400.615463
2645.043586,229.828649,-148.041188,8586.388927
2645.043915,766.095498,-518.144159,8586.388927
2645.044244,536.266849,-370.102971,8956.491898
2645.044573,1149.143247,-0.000000,8882.471304
2645.044903,2145.067394,888.247130,8364.327145
2645.045232,2757.943793,296.082377,7772.162391
2645.045561,1532.190996,1184.329507,8660.409521
2645.045890,766.095498,296.082377,9104.533087
2645.046220,995.924147,148.041188,8290.306550
2645.046549,1378.971896,148.041188,7920.203579
2645.046878,766.095498,-444.123565,8068.244768
2645.047207,-995.924147,-1110.308913,9474.636058
2645.047536,-1302.362347,-1184.329507,9992.780217
2645.047866,-842.705048,-666.185348,8734.430116
2645.048195,-995.924147,-370.102971,9622.677246
2645.048524,-1149.143247,-0.000000,9400.615463
2645.048853,-1838.629195,-0.000000,9992.780217
2645.049183,-1149.143247,-1184.329507,10658.965565
2645.049512,0.000000,-222.061783,9474.636058
2645.049841,1608.800546,222.061783,9178.553681
2645.050170,459.657299,-296.082377,9104.533087
2645.050499,2068.457845,-148.041188,9400.615463
2645.050829,1838.629195,518.144159,9178.553681
2645.051158,3370.820191,1850.514855,7920.203579
2645.051487,2757.943793,1702.473667,7920.203579
2645.051816,1302.362347,962.267725,8956.491898
2645.052145,536.266849,444.123565,9030.512492
2645.052475,1838.629195,370.102971,9104.533087
2645.052804,842.705048,-0.000000,8734.430116
2645.053133,0.000000,-888.247130,9474.636058
2645.053462,-1991.848295,-1258.350101,10510.924376
2645.053792,-1762.019645,-888.247130,10214.842000
2645.054121,-536.266849,-518.144159,9400.615463
2645.054450,0.000000,-370.102971,8734.430116
2645.054779,-689.485948,-74.020594,9696.697840
2645.055108,-766.095498,-666.185348,9770.718434
2645.055438,0.000000,-666.185348,9252.574275
2645.055767,919.314598,-0.000000,8660.409521
2645.056096,1762.019645,-0.000000,8290.306550
2645.056425,1072.533697,-0.000000,8956.491898
2645.056754,536.266849,-222.061783,9400.615463
2645.057084,2451.505594,296.082377,8068.244768
2645.057413,2604.724693,1628.453072,7550.100608
2645.057742,1838.629195,1110.308913,8512.368333
2645.058071,689.485948,-518.144159,9030.512492
2645.058401,-842.705048,-74.020594,9326.594869
2645.058730,383.047749,-1110.308913,9252.574275
2645.059059,153.219100,-1702.473667,7920.203579
2645.059388,-612.876398,-1258.350101,9104.533087
2645.059717,-1072.533697,-1628.453072,10066.800811
2645.060047,-995.924147,-1036.288319,9474.636058
2645.060376,-153.219100,-1036.288319,8808.450710
2645.060705,153.219100,296.082377,8364.327145
2645.061034,-995.924147,-74.020594,9474.636058
2645.061363,-383.047749,-740.205942,10066.800811
2645.061693,612.876398,-148.041188,8882.471304
2645.062022,1608.800546,-370.102971,8734.430116
2645.062351,1225.752797,-518.144159,8808.450710
2645.062680,689.485948,-518.144159,9474.636058
2645.063010,612.876398,-740.205942,9770.718434
2645.063339,1455.581446,518.144159,8586.388927
2645.063668,2068.457845,370.102971,7994.224174
2645.063997,842.705048,-0.000000,8290.306550
2645.064326,0.000000,-148.041188,9992.780217
2645.064656,153.219100,-592.164754,8808.450710
2645.064985,842.705048,-74.020594,8660.409521
2645.065314,536.266849,-666.185348,8290.306550
2645.065643,-306.438199,-444.123565,9178.553681
2645.065972,-1302.362347,-962.267725,10140.821405
2645.066302,0.000000,-444.123565,9104.533087
2645.066631,919.314598,-0.000000,9030.512492
2645.066960,0.000000,518.144159,9104.533087
2645.067289,-842.705048,-0.000000,9474.636058
2645.067619,-306.438199,-148.041188,9622.677246
2645.067948,229.828649,222.061783,8734.430116
2645.068277,766.095498,-0.000000,8882.471304
2645.068606,459.657299,370.102971,8882.471304
2645.068935,0.000000,-222.061783,9770.718434
2645.069265,612.876398,-0.000000,9326.594869
2645.069594,1532.190996,814.226536,7846.182985
2645.069923,612.876398,518.144159,8142.265362
2645.070252,-306.438199,444.123565,9400.615463
2645.070581,-612.876398,-148.041188,9400.615463
2645.070911,0.000000,666.185348,8882.471304
2645.071240,1378.971896,-444.123565,8512.368333
2645.071569,383.047749,-370.102971,9030.512492
2645.071898,-689.485948,-740.205942,9474.636058
2645.072228,-842.705048,-592.164754,9918.759623
2645.072557,383.047749,-0.000000,8956.491898
2645.072886,-229.828649,-74.020594,9030.512492
2645.073215,-536.266849,-148.041188,9400.615463
2645.073544,-1532.190996,-814.226536,10214.842000
2645.073874,-766.095498,-962.267725,9696.697840
2645.074203,229.828649,-888.247130,9030.512492
2645.074532,383.047749,-370.102971,8808.450710
2645.074861,-306.438199,-740.205942,9696.697840
2645.075190,153.219100,-888.247130,10436.903782
2645.075520,1149.143247,-1110.308913,9326.594869
2645.075849,1762.019645,1184.329507,8734.430116
2645.076178,1302.362347,222.061783,8882.471304
2645.076507,612.876398,-74.020594,9474.636058
2645.076837,612.876398,222.061783,9326.594869
2645.077166,1685.410096,518.144159,8216.285956
2645.077495,1991.848295,-0.000000,8364.327145
2645.077824,1225.752797,-148.041188,8808.450710
2645.078153,459.657299,-0.000000,9252.574275
2645.078483,919.314598,518.144159,9252.574275
2645.078812,1532.190996,370.102971,8068.244768
2645.079141,995.924147,444.123565,8586.388927
2645.079470,-689.485948,222.061783,8882.471304
2645.079799,-383.047749,-740.205942,10066.800811
2645.080129,612.876398,-592.164754,9104.533087
2645.080458,995.924147,-296.082377,8438.347739
2645.080787,536.266849,-1036.288319,8882.471304
2645.081116,76.609550,-370.102971,9326.594869
2645.081445,536.266849,-740.205942,9326.594869
2645.081774,1225.752797,-0.000000,8290.306550
2645.082103,2068.457845,444.123565,8438.347739
2645.082432,1149.143247,444.123565,8956.491898
2645.082761,689.485948,370.102971,9030.512492
2645.083090,842.705048,592.164754,8290.306550
2645.083419,1685.410096,296.082377,7994.224174
2645.083749,1455.581446,-0.000000,8216.285956
2645.084078,0.000000,-222.061783,8586.388927
2645.084407,-842.705048,-1036.288319,9252.574275
2645.084736,-229.828649,-962.267725,8438.347739
2645.085065,0.000000,-0.000000,9622.677246
2645.085394,-1072.533697,-222.061783,9326.594869
2645.085723,-1608.800546,-962.267725,9622.677246
2645.086052,-1915.238745,-740.205942,9992.780217
2645.086381,-842.705048,-888.247130,9030.512492
2645.086710,306.438199,-0.000000,7920.203579
2645.087039,-306.438199,-444.123565,9992.780217
2645.087369,-689.485948,-666.185348,11177.109724
2645.087698,153.219100,-1110.308913,10362.883188
2645.088027,1149.143247,814.226536,8512.368333
2645.088356,689.485948,444.123565,7476.080014
2645.088685,306.438199,962.267725,9696.697840
2645.089014,0.000000,-0.000000,10362.883188
2645.089343,612.876398,296.082377,8216.285956
2645.089672,1378.971896,-444.123565,8438.347739
2645.090001,459.657299,-962.267725,8290.306550
2645.090330,-153.219100,-888.247130,9178.553681
2645.090659,-383.047749,-814.226536,9548.656652
2645.090989,0.000000,-0.000000,8512.368333
2645.091318,766.095498,-74.020594,9104.533087
2645.091647,-383.047749,-296.082377,9474.636058
2645.091976,-919.314598,-1480.411884,9696.697840
2645.092305,0.000000,-370.102971,10066.800811
2645.092634,919.314598,-370.102971,8808.450710
2645.092963,1072.533697,-444.123565,8438.347739
2645.093292,612.876398,-370.102971,8956.491898
2645.093621,919.314598,-740.205942,9474.636058
2645.093950,1838.629195,-444.123565,8364.327145
2645.094279,2451.505594,888.247130,8142.265362
2645.094609,1608.800546,370.102971,8808.450710
2645.094938,689.485948,-74.020594,9548.656652
2645.095267,612.876398,444.123565,9030.512492
2645.095596,1685.410096,296.082377,8882.471304
2645.095925,1302.362347,-0.000000,8734.430116
2645.096254,536.266849,-0.000000,9252.574275
2645.096583,306.438199,-148.041188,9104.533087
2645.096912,229.828649,-962.267725,9474.636058
2645.097241,766.095498,-1184.329507,8808.450710
2645.097570,76.609550,-0.000000,8956.491898
2645.097899,-612.876398,-518.144159,9992.780217
2645.098229,-766.095498,-962.267725,9696.697840
2645.098558,612.876398,518.144159,9474.636058
2645.098887,612.876398,222.061783,8808.450710
2645.099216,1302.362347,-74.020594,9104.533087
2645.099545,153.219100,-0.000000,9844.739029
2645.099874,612.876398,444.123565,9104.533087
2645.100203,1685.410096,444.123565,9030.512492
2645.100532,1225.752797,1332.370696,8290.306550
2645.100861,229.828649,1258.350101,8956.491898
2645.101190,-153.219100,-222.061783,9548.656652
2645.101519,-536.266849,-518.144159,9252.574275
2645.101849,612.876398,148.041188,9030.512492
2645.102178,612.876398,-740.205942,9252.574275
2645.102507,-995.924147,-1036.288319,8586.388927
2645.102836,-1302.362347,-1554.432478,9622.677246
2645.103165,-612.876398,-1110.308913,8956.491898
2645.103494,0.000000,-444.123565,8364.327145
2645.103823,0.000000,-148.041188,8882.471304
2645.104152,-1378.971896,-888.247130,9696.697840
2645.104481,-995.924147,-296.082377,9770.718434
2645.104810,76.609550,-296.082377,8882.471304
2645.105139,1225.752797,-814.226536,9030.512492
2645.105469,306.438199,-148.041188,8882.471304
2645.105798,76.609550,-222.061783,9622.677246
2645.106127,766.095498,-222.061783,9178.553681
2645.106456,1762.019645,370.102971,8290.306550
2645.106785,1532.190996,222.061783,8660.409521
2645.107114,995.924147,-0.000000,8512.368333
2645.107443,459.657299,-296.082377,9252.574275
2645.107772,689.485948,-592.164754,8586.388927
2645.108101,1685.410096,-0.000000,7994.224174
2645.108430,612.876398,-1110.308913,9178.553681
2645.108759,153.219100,-888.247130,9622.677246
2645.109089,-229.828649,-518.144159,9474.636058
2645.109418,153.219100,-222.061783,8734.430116
2645.109747,612.876398,222.061783,9252.574275
2645.110076,-383.047749,-0.000000,9992.780217
2645.110405,-842.705048,-444.123565,10288.862594
2645.110734,0.000000,-222.061783,9474.636058
2645.111063,689.485948,-518.144159,8808.450710
2645.111392,1455.581446,296.082377,7920.203579
2645.111721,1072.533697,-518.144159,9326.594869
2645.112050,612.876398,-592.164754,9992.780217
2645.112379,2374.896044,-148.041188,8512.368333
2645.112709,2681.334243,888.247130,7402.059420
2645.113038,2068.457845,1258.350101,7698.141797
2645.113367,1072.533697,-0.000000,9400.615463
2645.113696,919.314598,296.082377,9918.759623
2645.114025,1149.143247,222.061783,9030.512492
2645.114354,1072.533697,-148.041188,8216.285956
2645.114683,612.876398,-0.000000,9252.574275
2645.115012,-766.095498,148.041188,9992.780217
2645.115341,-383.047749,-444.123565,9770.718434
2645.115670,229.828649,814.226536,8586.388927
2645.115999,383.047749,296.082377,8438.347739
2645.116329,-612.876398,592.164754,9474.636058
2645.116658,-1225.752797,-444.123565,9770.718434
2645.116987,-153.219100,-888.247130,9548.656652
2645.117316,612.876398,-888.247130,8586.388927
2645.117645,919.314598,-962.267725,8438.347739
2645.117974,76.609550,-296.082377,9622.677246
2645.118303,0.000000,-1036.288319,9844.739029
2645.118632,536.266849,-0.000000,9030.512492
2645.118961,1302.362347,444.123565,8734.430116
2645.119290,383.047749,-0.000000,9326.594869
2645.119619,-229.828649,148.041188,10436.903782
2645.119949,-459.657299,-888.247130,9474.636058
2645.120278,229.828649,-444.123565,8512.368333
2645.120607,689.485948,-592.164754,8290.306550
2645.120936,-459.657299,-740.205942,8364.327145
2645.121265,-689.485948,-1258.350101,9474.636058
2645.121594,-689.485948,-370.102971,8586.388927
2645.121923,306.438199,-0.000000,7476.080014
2645.122252,0.000000,-148.041188,9030.512492
2645.122581,-1225.752797,-1110.308913,8882.471304
2645.122910,-1455.581446,-592.164754,9770.718434
2645.123239,-536.266849,-592.164754,8956.491898
2645.123569,766.095498,-444.123565,7772.162391
2645.123898,536.266849,-296.082377,9104.533087
2645.124227,153.219100,-296.082377,9622.677246
2645.124556,919.314598,-0.000000,8956.491898
2645.124885,1455.581446,-0.000000,8290.306550
2645.125214,1762.019645,888.247130,7994.224174
2645.125543,1149.143247,592.164754,8586.388927
2645.125872,0.000000,-0.000000,9548.656652
2645.126201,383.047749,296.082377,8512.368333
2645.126530,1149.143247,740.205942,8882.471304
2645.126859,766.095498,-444.123565,8660.409521
2645.127189,383.047749,-592.164754,9400.615463
2645.127518,-229.828649,-1554.432478,10510.924376
2645.127847,153.219100,222.061783,8216.285956
2645.128176,919.314598,148.041188,8586.388927
2645.128505,153.219100,444.123565,9548.656652
2645.128834,229.828649,222.061783,9770.718434
2645.129163,229.828649,-222.061783,9474.636058
2645.129492,842.705048,592.164754,9030.512492
2645.129821,1762.019645,148.041188,9030.512492
2645.130150,995.924147,-0.000000,8660.409521
2645.130479,229.828649,-666.185348,9622.677246
2645.130809,1455.581446,-296.082377,9178.553681
2645.131138,2451.505594,370.102971,8808.450710
2645.131467,1302.362347,-0.000000,9252.574275
2645.131796,229.828649,-0.000000,9474.636058
2645.132125,-229.828649,296.082377,9696.697840
2645.132454,76.609550,-592.164754,9030.512492
2645.132783,995.924147,592.164754,8734.430116
2645.133112,536.266849,-518.144159,9400.615463
2645.133441,0.000000,-222.061783,9548.656652
2645.133770,0.000000,-148.041188,8882.471304
2645.134099,153.219100,-0.000000,9474.636058
2645.134429,612.876398,-0.000000,8734.430116
2645.134758,-306.438199,444.123565,8734.430116
2645.135087,-1532.190996,-814.226536,9696.697840
2645.135416,-919.314598,-1110.308913,9326.594869
2645.135745,842.705048,-518.144159,8438.347739
2645.136074,383.047749,-1110.308913,8808.450710
2645.136403,0.000000,-0.000000,9030.512492
2645.136732,0.000000,-1258.350101,9474.636058
2645.137061,689.485948,-0.000000,8364.327145
2645.137390,1685.410096,962.267725,8216.285956
2645.137719,1149.143247,592.164754,8660.409521
2645.138049,229.828649,-148.041188,9030.512492
2645.138378,842.705048,222.061783,9252.574275
2645.138707,1072.533697,-222.061783,8586.388927
2645.139036,1072.533697,-518.144159,7846.182985
2645.139365,306.438199,-666.185348,8734.430116
2645.139694,-383.047749,-1332.370696,9770.718434
2645.140023,-229.828649,-666.185348,9030.512492
2645.140352,-153.219100,-962.267725,8956.491898
2645.140681,153.219100,-666.185348,9178.553681
2645.141010,-1378.971896,-296.082377,9548.656652
2645.141339,-1532.190996,-592.164754,10288.862594
2645.141669,-536.266849,-296.082377,9400.615463
2645.141998,536.266849,-148.041188,9400.615463
2645.142327,842.705048,-370.102971,8808.450710
2645.142656,842.705048,-444.123565,9252.574275
2645.142985,766.095498,-666.185348,9178.553681
2645.143314,1608.800546,740.205942,8660.409521
2645.143643,1762.019645,1110.308913,9178.553681
2645.143972,1225.752797,518.144159,8290.306550
2645.144301,1225.752797,370.102971,8512.368333
2645.144630,1072.533697,-0.000000,8290.306550
2645.144959,2221.676944,592.164754,7476.080014
2645.145288,1149.143247,740.205942,7920.203579
2645.145618,0.000000,-518.144159,9104.533087
2645.145947,-306.438199,-444.123565,9548.656652
2645.146276,-842.705048,-592.164754,9252.574275
2645.146605,-689.485948,-0.000000,9030.512492
2645.146934,-1072.533697,-518.144159,9770.718434
2645.147263,-2757.943793,-518.144159,10214.842000
2645.147592,-1378.971896,-888.247130,9548.656652
2645.147921,-383.047749,-444.123565,9326.594869
2645.148250,306.438199,-888.247130,8882.471304
2645.148579,229.828649,-814.226536,8882.471304
2645.148908,383.047749,-592.164754,9622.677246
2645.149238,1225.752797,-1036.288319,9252.574275
2645.149567,2451.505594,-0.000000,8068.244768
2645.149896,2298.286494,-0.000000,8068.244768
2645.150225,995.924147,222.061783,8882.471304
2645.150554,383.047749,-296.082377,9326.594869
2645.150883,995.924147,-370.102971,8512.368333
2645.151212,1378.971896,-74.020594,8512.368333
2645.151541,153.219100,-518.144159,9030.512492
2645.151870,-2145.067394,-1184.329507,10881.027347
2645.152199,-995.924147,-1406.391290,10658.965565
2645.152528,0.000000,-0.000000,8216.285956
2645.152858,153.219100,-0.000000,9104.533087
2645.153187,-612.876398,148.041188,9326.594869
2645.153516,-995.924147,-518.144159,9770.718434
2645.153845,-76.609550,-0.000000,9474.636058
2645.154174,1378.971896,-74.020594,8438.347739
2645.154503,1762.019645,-222.061783,8660.409521
2645.154832,1302.362347,-0.000000,8808.450710
2645.155161,1149.143247,-0.000000,9104.533087
2645.155490,1455.581446,296.082377,8956.491898
2645.155819,1991.848295,962.267725,8512.368333
2645.156148,2068.457845,-148.041188,8882.471304
2645.156478,383.047749,296.082377,9474.636058
2645.156807,76.609550,370.102971,9474.636058
2645.157136,1072.533697,-0.000000,8808.450710
2645.157465,459.657299,-0.000000,8142.265362
2645.157794,-229.828649,-518.144159,8586.388927
2645.158123,-766.095498,-1110.308913,9844.739029
2645.158452,-536.266849,-1554.432478,8364.327145
2645.158781,-229.828649,-666.185348,8660.409521
2645.159110,-153.219100,-222.061783,8882.471304
2645.159439,-919.314598,-592.164754,9400.615463
2645.159768,-995.924147,296.082377,9400.615463
2645.160098,76.609550,-0.000000,8660.409521
2645.160427,1149.143247,222.061783,8734.430116
2645.160756,1532.190996,-0.000000,8068.244768
2645.161085,919.314598,-370.102971,9474.636058
2645.161414,1072.533697,518.144159,9622.677246
2645.161743,1608.800546,444.123565,8808.450710
2645.162072,1762.019645,1036.288319,9104.533087
2645.162401,1149.143247,1258.350101,9178.553681
2645.162730,153.219100,222.061783,9548.656652
2645.163059,0.000000,-518.144159,9104.533087
2645.163388,1072.533697,-148.041188,8216.285956
2645.163718,383.047749,-888.247130,9030.512492
2645.164047,-1685.410096,-1184.329507,9474.636058
2645.164376,-1149.143247,-1554.432478,9992.780217
2645.164705,-1378.971896,-814.226536,9030.512492
2645.165034,-1072.533697,222.061783,9178.553681
2645.165363,536.266849,-0.000000,9252.574275
2645.165692,-1685.410096,-888.247130,9474.636058
2645.166021,-842.705048,-148.041188,10955.047942
2645.166350,1149.143247,-962.267725,8660.409521
2645.166679,766.095498,296.082377,7846.182985
2645.167008,1532.190996,-148.041188,9178.553681
2645.167338,1225.752797,-592.164754,9104.533087
2645.167667,842.705048,-0.000000,8660.409521
2645.167996,2681.334243,740.205942,8882.471304
2645.168325,1991.848295,592.164754,7846.182985
2645.168654,229.828649,666.185348,8956.491898
2645.168983,0.000000,-148.041188,9474.636058
2645.169312,306.438199,-0.000000,8734.430116
2645.169641,229.828649,-888.247130,8734.430116
2645.169970,459.657299,-518.144159,8364.327145
2645.170299,-1149.143247,-1480.411884,9918.759623
2645.170628,-306.438199,-2072.576638,9918.759623
2645.170958,0.000000,-592.164754,8290.306550
2645.171287,383.047749,-518.144159,8586.388927
2645.171616,-689.485948,-370.102971,8734.430116
2645.171945,-306.438199,222.061783,9400.615463
2645.172274,306.438199,-370.102971,8956.491898
2645.172603,1762.019645,-444.123565,7624.121203
2645.172932,1608.800546,370.102971,8586.388927
2645.173261,995.924147,-444.123565,9252.574275
2645.173590,383.047749,-0.000000,9696.697840
2645.173919,1685.410096,444.123565,9178.553681
2645.174248,1915.238745,1110.308913,8290.306550
2645.174578,842.705048,962.267725,9326.594869
2645.174907,229.828649,-666.185348,10881.027347
2645.175236,383.047749,-222.061783,9400.615463
2645.175565,842.705048,222.061783,8438.347739
2645.175894,842.705048,518.144159,8808.450710
2645.176223,76.609550,-592.164754,8734.430116
2645.176552,-306.438199,-74.020594,9992.780217
2645.176881,0.000000,-444.123565,9474.636058
2645.177210,0.000000,-148.041188,8882.471304
2645.177539,76.609550,-74.020594,9326.594869
2645.177868,-536.266849,-0.000000,9696.697840
2645.178198,-1149.143247,-518.144159,10214.842000
2645.178527,-995.924147,-0.000000,9474.636058
2645.178856,0.000000,-0.000000,8956.491898
2645.179185,536.266849,296.082377,9696.697840
2645.179514,-383.047749,-518.144159,9474.636058
2645.179843,153.219100,-814.226536,9474.636058
2645.180172,689.485948,370.102971,9104.533087
2645.180501,1302.362347,518.144159,8142.265362
2645.180830,919.314598,666.185348,8734.430116
2645.181159,383.047749,-0.000000,9104.533087
2645.181488,766.095498,-518.144159,9030.512492
2645.181818,1225.752797,-0.000000,8364.327145
2645.182147,1378.971896,-740.205942,7846.182985
2645.182476,153.219100,-666.185348,8734.430116
2645.182805,-536.266849,-814.226536,9770.718434
2645.183134,153.219100,-1110.308913,9178.553681
2645.183463,0.000000,-0.000000,8216.285956
2645.183793,0.000000,-222.061783,9030.512492
2645.184122,-689.485948,-962.267725,10510.924376
2645.184451,-2145.067394,-444.123565,9992.780217
2645.184780,-153.219100,-814.226536,9178.553681
2645.185109,919.314598,-814.226536,8586.388927
2645.185439,383.047749,-296.082377,8882.471304
2645.185768,689.485948,-296.082377,9622.677246
2645.186097,1302.362347,-666.185348,8586.388927
2645.186426,2068.457845,148.041188,8586.388927
2645.186755,1762.019645,222.061783,7994.224174
2645.187085,842.705048,148.041188,9326.594869
2645.187414,306.438199,-0.000000,9178.553681
2645.187743,842.705048,-148.041188,8438.347739
2645.188072,1302.362347,-74.020594,8808.450710
2645.188401,1685.410096,-370.102971,8808.450710
2645.188730,153.219100,-518.144159,9474.636058
2645.189060,0.000000,-814.226536,9992.780217
2645.189389,383.047749,-592.164754,8734.430116
2645.189718,536.266849,592.164754,8808.450710
2645.190047,0.000000,-74.020594,9178.553681
2645.190376,-995.924147,-518.144159,9474.636058
2645.190706,-612.876398,-444.123565,9400.615463
2645.191035,306.438199,-0.000000,8660.409521
2645.191364,689.485948,148.041188,8142.265362
2645.191693,76.609550,148.041188,8734.430116
2645.192022,0.000000,-592.164754,9844.739029
2645.192351,689.485948,-74.020594,9326.594869
2645.192681,1302.362347,370.102971,8512.368333
2645.193010,1149.143247,888.247130,8956.491898
2645.193339,229.828649,444.123565,9474.636058
2645.193668,0.000000,296.082377,9030.512492
2645.193997,766.095498,518.144159,9030.512492
2645.194327,612.876398,-0.000000,8734.430116
2645.194656,-383.047749,-296.082377,8808.450710
2645.194985,-1532.190996,-1258.350101,10288.862594
2645.195314,-1608.800546,-1406.391290,10288.862594
2645.195643,-995.924147,-1110.308913,9770.718434
2645.195973,-1455.581446,-444.123565,9178.553681
2645.196302,-1838.629195,-222.061783,9474.636058
2645.196631,-2221.676944,-370.102971,9622.677246
2645.196960,-1378.971896,-444.123565,9030.512492
2645.197289,-306.438199,-0.000000,8808.450710
2645.197618,0.000000,-666.185348,8290.306550
2645.197948,-766.095498,-666.185348,9104.533087
2645.198277,-2068.457845,-962.267725,9474.636058
2645.198606,-1608.800546,-148.041188,8660.409521
2645.198935,-842.705048,518.144159,8734.430116
2645.199264,-1225.752797,518.144159,8438.347739
2645.199594,-2145.067394,-296.082377,9400.615463
2645.199923,-2528.115143,-666.185348,9252.574275
2645.200252,-1838.629195,-444.123565,8734.430116
2645.200581,-995.924147,-814.226536,8216.285956
2645.200910,-2451.505594,296.082377,8586.388927
2645.201239,-2834.553343,-962.267725,9474.636058
2645.201569,-2834.553343,-1332.370696,9104.533087
2645.201898,-2221.676944,-222.061783,8512.368333
2645.202227,-2221.676944,592.164754,8808.450710
2645.202556,-2145.067394,370.102971,8734.430116
2645.202885,-2681.334243,-444.123565,9400.615463
2645.203215,-2451.505594,-740.205942,9474.636058
2645.203544,-2145.067394,148.041188,8734.430116
2645.203873,-1762.019645,-0.000000,8142.265362
2645.204202,-1685.410096,-0.000000,8734.430116
2645.204531,-1685.410096,-1036.288319,9104.533087
2645.204860,-1225.752797,-2442.679609,9918.759623
2645.205190,-919.314598,-1036.288319,9474.636058
2645.205519,-766.095498,444.123565,8216.285956
2645.205848,-995.924147,1110.308913,8216.285956
2645.206177,-689.485948,1036.288319,8438.347739
2645.206506,-459.657299,148.041188,9030.512492
2645.206836,-536.266849,222.061783,8882.471304
2645.207165,-459.657299,1406.391290,7846.182985
2645.207494,-1608.800546,1406.391290,8216.285956
2645.207823,-2604.724693,-0.000000,9030.512492
2645.208152,-2911.162892,-1332.370696,10066.800811
2645.208482,-3294.210641,-2146.597232,9844.739029
2645.208811,-4213.525239,-1110.308913,9326.594869
2645.209140,-4366.744339,-0.000000,9696.697840
2645.209469,-4366.744339,-0.000000,8882.471304
2645.209798,-3907.087040,296.082377,8734.430116
2645.210127,-4443.353888,-1184.329507,10140.821405
2645.210457,-5056.230287,-1406.391290,10288.862594
2645.210786,-5362.668486,-1184.329507,10362.883188
2645.211115,-4903.011187,-962.267725,9770.718434
2645.211444,-4136.915689,-888.247130,9104.533087
2645.211773,-3524.039291,-370.102971,9548.656652
2645.212103,-2374.896044,-518.144159,9178.553681
2645.212432,-2374.896044,-0.000000,8364.327145
2645.212761,-2221.676944,1110.308913,8364.327145
2645.213090,-1455.581446,1036.288319,8216.285956
2645.213419,-2757.943793,518.144159,7994.224174
2645.213748,-2757.943793,518.144159,8734.430116
2645.214078,-2681.334243,-518.144159,8808.450710
2645.214407,-2528.115143,-222.061783,8808.450710
2645.214736,-2068.457845,296.082377,8660.409521
2645.215065,-2374.896044,-0.000000,8586.388927
2645.215394,-2451.505594,-518.144159,9104.533087
2645.215724,-2757.943793,518.144159,8956.491898
2645.216053,-2604.724693,-0.000000,9104.533087
2645.216382,-2528.115143,-296.082377,9030.512492
2645.216711,-3140.991542,-222.061783,8808.450710
2645.217040,-2068.457845,-296.082377,9474.636058
2645.217370,-2681.334243,-888.247130,9326.594869
2645.217699,-3140.991542,-962.267725,8882.471304
2645.218028,-3370.820191,-962.267725,9474.636058
2645.218357,-3217.601092,-592.164754,9622.677246
2645.218686,-3600.648841,222.061783,9252.574275
2645.219015,-3753.867940,-0.000000,9622.677246
2645.219345,-3294.210641,-0.000000,9844.739029
2645.219674,-3294.210641,-592.164754,9770.718434
2645.220003,-2528.115143,-1184.329507,9844.739029
2645.220332,-1838.629195,-1554.432478,9548.656652
2645.220661,-1072.533697,-1406.391290,9178.553681
2645.220991,-1302.362347,-148.041188,8586.388927
2645.221320,-612.876398,-666.185348,9696.697840
2645.221649,306.438199,666.185348,8734.430116
2645.221978,1455.581446,2738.761985,6217.729913
2645.222307,1455.581446,2368.659014,6661.853478
2645.222636,0.000000,2072.576638,6513.812290
2645.222966,-536.266849,1110.308913,8660.409521
2645.223295,-2298.286494,-0.000000,8290.306550
2645.223624,-2451.505594,-2072.576638,10362.883188
2645.223953,-3907.087040,-2590.720797,9918.759623
2645.224282,-5515.887586,-1628.453072,9030.512492
2645.224612,-6894.859482,-3034.844362,11547.212695
2645.224941,-7431.126331,-2072.576638,11399.171507
2645.225270,-5286.058936,-2072.576638,11769.274478
2645.225599,-4903.011187,-1776.494261,10436.903782
2645.225928,-1455.581446,370.102971,8882.471304
2645.226258,-766.095498,1406.391290,9030.512492
2645.226587,-1302.362347,2294.638420,5403.503377
2645.226916,612.876398,814.226536,10732.986159
2645.227245,2068.457845,1184.329507,6735.874072
2645.227574,3600.648841,2886.803174,4811.338623
2645.227903,2528.115143,1406.391290,5625.565159
2645.228233,383.047749,1480.411884,5773.606348
2645.228562,-612.876398,-518.144159,10510.924376
2645.228891,-2681.334243,-444.123565,9030.512492
2645.229220,-1915.238745,-1554.432478,10732.986159
2645.229549,-3753.867940,-1258.350101,9844.739029
2645.229879,-4903.011187,-370.102971,8512.368333
2645.230208,-6741.640382,-2738.761985,12287.418637
2645.230537,-7201.297681,-444.123565,10732.986159
2645.230866,-4979.620737,-2294.638420,11103.089130
2645.231195,-5132.839837,-1776.494261,9622.677246
2645.231524,-3064.381992,-148.041188,9474.636058
2645.231854,-3907.087040,-666.185348,8586.388927
2645.232183,-2757.943793,-1036.288319,8290.306550
2645.232512,-2374.896044,222.061783,8808.450710
2645.232841,-766.095498,296.082377,8216.285956
2645.233170,-1762.019645,-0.000000,8808.450710
2645.233500,-2834.553343,222.061783,9178.553681
2645.233829,-3140.991542,296.082377,8808.450710
2645.234158,-3983.696590,-222.061783,8734.430116
2645.234487,-3524.039291,-0.000000,9400.615463
2645.234816,-3600.648841,444.123565,10214.842000
2645.235146,-3753.867940,518.144159,9104.533087
2645.235475,-3753.867940,666.185348,8438.347739
2645.235804,-3140.991542,814.226536,8808.450710
2645.236133,-2451.505594,962.267725,8068.244768
2645.236462,-1608.800546,1406.391290,7105.977043
2645.236791,-1455.581446,1258.350101,7254.018232
2645.237121,-2221.676944,888.247130,7550.100608
2645.237450,-3064.381992,666.185348,9326.594869
2645.237779,-2987.772442,1628.453072,8142.265362
2645.238108,-2374.896044,1480.411884,8660.409521
2645.238437,-2834.553343,1110.308913,8808.450710
2645.238767,-3217.601092,1258.350101,9474.636058
2645.239096,-3830.477490,296.082377,10807.006753
2645.239425,-4596.572988,-370.102971,11547.212695
2645.239754,-3140.991542,-0.000000,12287.418637
2645.240083,-2681.334243,296.082377,10362.883188
2645.240412,-919.314598,296.082377,9770.718434
2645.240742,-612.876398,1998.556043,8808.450710
2645.241071,-995.924147,1554.432478,10288.862594
2645.241400,0.000000,222.061783,11325.150913
2645.241729,3064.381992,3034.844362,7402.059420
2645.242058,4673.182538,4071.132681,7328.038826
2645.242388,3983.696590,3330.926739,5181.441594
2645.242717,3294.210641,3923.091493,6513.812290
2645.243046,2834.553343,4071.132681,8364.327145
2645.243375,2451.505594,5033.400406,7624.121203
2645.243704,2528.115143,2664.741391,9326.594869
2645.244034,536.266849,2368.659014,10140.821405
2645.244363,-1072.533697,1258.350101,10436.903782
2645.244692,-1302.362347,962.267725,11325.150913
2645.245021,-689.485948,1036.288319,10584.944971
2645.245350,-842.705048,1554.432478,11695.253884
2645.245679,306.438199,1924.535449,9992.780217
2645.246009,153.219100,3627.009116,8512.368333
2645.246338,766.095498,1258.350101,8364.327145
2645.246667,2221.676944,3627.009116,7328.038826
2645.246996,1608.800546,4811.338623,5847.626942
2645.247325,1991.848295,4515.256246,7402.059420
2645.247655,1149.143247,4589.276840,7328.038826
2645.247984,0.000000,3627.009116,8290.306550
2645.248313,-1225.752797,2590.720797,8512.368333
2645.248642,-2374.896044,1850.514855,9770.718434
2645.248971,-2834.553343,592.164754,11843.295072
2645.249300,-2221.676944,1258.350101,9992.780217
2645.249630,-2451.505594,3108.864956,9474.636058
2645.249959,-2681.334243,2590.720797,10214.842000
2645.250288,-3140.991542,2886.803174,10436.903782
2645.250617,-2221.676944,2368.659014,11325.150913
2645.250946,-1455.581446,3108.864956,9326.594869
2645.251276,76.609550,3256.906145,8512.368333
2645.251605,-459.657299,2590.720797,9326.594869
2645.251934,-1532.190996,2442.679609,10066.800811
2645.252263,0.000000,2146.597232,11547.212695
2645.252592,2068.457845,3701.029710,7328.038826
2645.252922,4136.915689,4589.276840,7698.141797
2645.253251,2911.162892,4811.338623,5847.626942
2645.253580,2221.676944,6439.791695,7105.977043
2645.253909,2145.067394,6365.771101,8290.306550
2645.254238,1532.190996,5033.400406,8290.306550
2645.254567,995.924147,5773.606348,7698.141797
2645.254897,536.266849,5551.544565,8438.347739
2645.255226,-995.924147,3330.926739,9474.636058
2645.255555,-2374.896044,-0.000000,12287.418637
2645.255884,-1532.190996,740.205942,10362.883188
2645.256213,-1225.752797,296.082377,11843.295072
2645.256543,-1302.362347,-0.000000,11103.089130
2645.256872,-1072.533697,3256.906145,9770.718434
2645.257201,919.314598,2738.761985,8808.450710
2645.257530,995.924147,4737.318029,7550.100608
2645.257859,2681.334243,4737.318029,7624.121203
2645.258188,3524.039291,4737.318029,7179.997637
2645.258518,2834.553343,5181.441594,7402.059420
2645.258847,2374.896044,4367.215058,7550.100608
2645.259176,-229.828649,2072.576638,8808.450710
2645.259505,-1455.581446,518.144159,11103.089130
2645.259834,-1991.848295,666.185348,10955.047942
2645.260164,-2298.286494,148.041188,11991.336260
2645.260493,-2757.943793,296.082377,9918.759623
2645.260822,-1378.971896,2146.597232,10362.883188
2645.261151,-1608.800546,2146.597232,9918.759623
2645.261480,-1302.362347,2442.679609,9548.656652
2645.261810,536.266849,1332.370696,11621.233289
2645.262139,2374.896044,2516.700203,7994.224174
2645.262468,4903.011187,2590.720797,8290.306550
2645.262797,3830.477490,2738.761985,6365.771101
2645.263126,3830.477490,3849.070898,5403.503377
2645.263455,3600.648841,3552.988522,7624.121203
2645.263785,2911.162892,4293.194464,7328.038826
2645.264114,2145.067394,4737.318029,6735.874072
2645.264443,1072.533697,3108.864956,8882.471304
2645.264772,-2451.505594,296.082377,11473.192101
2645.265101,-3217.601092,-3256.906145,13175.665768
2645.265431,-2681.334243,296.082377,11843.295072
2645.265760,-2451.505594,-2368.659014,12065.356855
2645.266089,-4060.306139,814.226536,10066.800811
2645.266418,-2145.067394,2072.576638,10732.986159
2645.266747,-612.876398,2146.597232,9400.615463
2645.267076,-229.828649,3923.091493,8142.265362
2645.267406,2145.067394,1998.556043,10362.883188
2645.267735,3524.039291,1850.514855,9326.594869
2645.268064,2987.772442,4885.359217,6217.729913
2645.268393,4903.011187,4515.256246,3404.947333
2645.268722,3524.039291,5329.482782,5477.523971
2645.269052,3907.087040,3849.070898,8956.491898
2645.269381,2221.676944,6217.729913,5107.421000
2645.269710,3064.381992,4219.173869,7105.977043
2645.270039,-76.609550,5329.482782,7031.956449
2645.270368,-2145.067394,2220.617826,11251.130318
2645.270697,-5132.839837,-3627.009116,15026.180623
2645.271027,-4596.572988,1554.432478,10140.821405
2645.271356,-2221.676944,1110.308913,11843.295072
2645.271685,-3064.381992,-3404.947333,11325.150913
2645.272014,-3294.210641,2664.741391,12361.439231
2645.272343,-1608.800546,1480.411884,8808.450710
2645.272673,-2528.115143,3627.009116,7550.100608
2645.273002,-995.924147,3627.009116,11177.109724
2645.273331,3600.648841,3108.864956,10066.800811
2645.273660,2604.724693,6439.791695,4737.318029
2645.273989,3140.991542,4367.215058,8882.471304
2645.274319,2374.896044,3701.029710,6069.688724
2645.274648,2604.724693,5847.626942,8586.388927
2645.274977,0.000000,4885.359217,7105.977043
2645.275306,536.266849,7105.977043,8512.368333
2645.275635,-383.047749,5255.462188,9400.615463
2645.275964,-1225.752797,2072.576638,9474.636058
2645.276294,-3907.087040,740.205942,12139.377449
2645.276623,-3370.820191,-0.000000,11547.212695
2645.276952,-1455.581446,-1110.308913,11103.089130
2645.277281,-995.924147,-2368.659014,12287.418637
2645.277610,-1608.800546,1110.308913,10658.965565
2645.277940,229.828649,1850.514855,9252.574275
2645.278269,689.485948,3478.967927,7846.182985
2645.278598,3217.601092,5847.626942,6957.935855
2645.278927,3447.429741,5773.606348,7550.100608
2645.279256,2145.067394,4219.173869,8290.306550
2645.279585,919.314598,4811.338623,9178.553681
2645.279915,842.705048,3701.029710,7328.038826
2645.280244,766.095498,1702.473667,8808.450710
2645.280573,-153.219100,-0.000000,11177.109724
2645.280902,-153.219100,-1480.411884,12731.542202
2645.281231,-1532.190996,-592.164754,11103.089130
2645.281561,-766.095498,-1110.308913,11029.068536
2645.281890,-1072.533697,962.267725,8808.450710
2645.282219,842.705048,1332.370696,9622.677246
2645.282548,1149.143247,3330.926739,7550.100608
2645.282877,2528.115143,2368.659014,8142.265362
2645.283207,3294.210641,1628.453072,7994.224174
2645.283536,4290.134789,1998.556043,7698.141797
2645.283865,3830.477490,2738.761985,7698.141797
2645.284194,3294.210641,1258.350101,8142.265362
2645.284523,1455.581446,74.020594,8734.430116
2645.284852,0.000000,1036.288319,9400.615463
2645.285181,-306.438199,296.082377,10066.800811
2645.285510,-995.924147,592.164754,9696.697840
2645.285839,-1149.143247,-888.247130,9844.739029
2645.286168,-2451.505594,-740.205942,10214.842000
2645.286497,-2757.943793,-1850.514855,11473.192101
2645.286826,-2298.286494,-2664.741391,10436.903782
2645.287155,-536.266849,-1406.391290,9104.533087
2645.287484,536.266849,-592.164754,7846.182985
2645.287814,1225.752797,-148.041188,7772.162391
2645.288143,2528.115143,-0.000000,7328.038826
2645.288472,2911.162892,-74.020594,7254.018232
2645.288801,2681.334243,1480.411884,7105.977043
2645.289130,1685.410096,1332.370696,7920.203579
2645.289459,689.485948,592.164754,8882.471304
2645.289788,689.485948,370.102971,8882.471304
2645.290117,689.485948,-1628.453072,9474.636058
2645.290446,-689.485948,-2886.803174,10140.821405
2645.290775,-2451.505594,-2516.700203,11103.089130
2645.291104,-3217.601092,-1924.535449,11399.171507
2645.291433,-2604.724693,-1628.453072,10362.883188
2645.291762,-842.705048,-1258.350101,9326.594869
2645.292091,-383.047749,-740.205942,8364.327145
2645.292420,-1072.533697,-0.000000,8142.265362
2645.292749,0.000000,-518.144159,8808.450710
2645.293078,1378.971896,222.061783,7254.018232
2645.293407,2221.676944,-74.020594,7402.059420
2645.293737,995.924147,-296.082377,8068.244768
2645.294066,-459.657299,-1702.473667,9474.636058
2645.294395,153.219100,-2294.638420,10362.883188
2645.294724,919.314598,-1480.411884,9326.594869
2645.295053,842.705048,296.082377,9474.636058
2645.295382,-612.876398,666.185348,9918.759623
2645.295711,-766.095498,1554.432478,9992.780217
2645.296040,76.609550,666.185348,9622.677246
2645.296369,919.314598,148.041188,8586.388927
2645.296698,919.314598,-0.000000,8586.388927
2645.297027,0.000000,-370.102971,9548.656652
2645.297356,995.924147,-592.164754,9548.656652
2645.297685,459.657299,-814.226536,8512.368333
2645.298014,1762.019645,-1110.308913,8290.306550
2645.298343,0.000000,1110.308913,8216.285956
2645.298672,-612.876398,740.205942,9104.533087
2645.299001,383.047749,222.061783,8660.409521
2645.299330,1838.629195,-0.000000,8586.388927
2645.299659,2145.067394,-222.061783,9326.594869
2645.299989,76.609550,-370.102971,10288.862594
2645.300318,0.000000,-222.061783,10362.883188
2645.300647,919.314598,-0.000000,10066.800811
2645.300976,1378.971896,-0.000000,9252.574275
2645.301305,1455.581446,1332.370696,9326.594869
2645.301634,689.485948,1554.432478,8956.491898
2645.301963,919.314598,1184.329507,8216.285956
2645.302292,1685.410096,666.185348,7328.038826
2645.302621,2068.457845,-0.000000,7994.224174
2645.302950,612.876398,-74.020594,8142.265362
2645.303279,-612.876398,-888.247130,8882.471304
2645.303608,-612.876398,-1628.453072,8956.491898
2645.303937,459.657299,-1850.514855,9400.615463
2645.304266,0.000000,-1776.494261,9252.574275
2645.304595,-612.876398,-888.247130,10066.800811
2645.304924,-842.705048,296.082377,9696.697840
2645.305253,0.000000,962.267725,9030.512492
2645.305582,1225.752797,1406.391290,9104.533087
2645.305911,1302.362347,666.185348,9326.594869
2645.306241,229.828649,-0.000000,9918.759623
2645.306570,76.609550,296.082377,9696.697840
2645.306899,689.485948,-0.000000,9400.615463
2645.307228,612.876398,-222.061783,9104.533087
2645.307557,-306.438199,-222.061783,9178.553681
2645.307886,-995.924147,-370.102971,9178.553681
2645.308215,-153.219100,-962.267725,9252.574275
2645.308544,766.095498,-444.123565,8142.265362
2645.308873,1072.533697,-444.123565,8364.327145
2645.309202,-612.876398,-518.144159,9474.636058
2645.309531,-536.266849,-666.185348,9696.697840
2645.309860,0.000000,-444.123565,9548.656652
2645.310189,766.095498,-0.000000,8956.491898
2645.310518,459.657299,1036.288319,9326.594869
2645.310847,-306.438199,1332.370696,9696.697840
2645.311176,-383.047749,666.185348,8956.491898
2645.311505,995.924147,370.102971,8586.388927
2645.311834,1455.581446,-444.123565,8586.388927
2645.312164,612.876398,-592.164754,8660.409521
2645.312493,-612.876398,-592.164754,9548.656652
2645.312822,0.000000,-1110.308913,9030.512492
2645.313151,689.485948,-1184.329507,8068.244768
2645.313480,76.609550,-74.020594,8216.285956
2645.313809,0.000000,-222.061783,9030.512492
2645.314138,0.000000,-0.000000,9178.553681
2645.314467,612.876398,-592.164754,8512.368333
2645.314796,1608.800546,-148.041188,8216.285956
2645.315125,1225.752797,-0.000000,8512.368333
2645.315454,76.609550,296.082377,9474.636058
2645.315783,-153.219100,-444.123565,10214.842000
2645.316112,76.609550,-444.123565,9400.615463
2645.316441,76.609550,-444.123565,9104.533087
2645.316770,-229.828649,518.144159,9030.512492
2645.317099,-1072.533697,-296.082377,9918.759623
2645.317428,-459.657299,-518.144159,9030.512492
2645.317757,689.485948,-1554.432478,8364.327145
2645.318086,1149.143247,-1110.308913,9030.512492
2645.318416,-306.438199,-962.267725,9474.636058
2645.318745,76.609550,-1036.288319,10066.800811
2645.319074,459.657299,-296.082377,8734.430116
2645.319403,1608.800546,-222.061783,8808.450710
2645.319732,1302.362347,-0.000000,8734.430116
2645.320061,229.828649,518.144159,9104.533087
2645.320390,919.314598,666.185348,9918.759623
2645.320719,1685.410096,-0.000000,8808.450710
2645.321048,1532.190996,-74.020594,8734.430116
2645.321377,536.266849,-666.185348,9548.656652
2645.321706,-383.047749,-814.226536,9992.780217
2645.322035,-842.705048,-814.226536,9326.594869
2645.322364,229.828649,-1258.350101,9326.594869
2645.322693,689.485948,-592.164754,8734.430116
2645.323022,-536.266849,-666.185348,9178.553681
2645.323351,-689.485948,-74.020594,8808.450710
2645.323680,459.657299,-962.267725,8364.327145
2645.324009,1762.019645,-0.000000,7772.162391
2645.324338,1685.410096,296.082377,7846.182985
2645.324668,383.047749,370.102971,9178.553681
2645.324997,153.219100,-148.041188,9252.574275
2645.325326,842.705048,-0.000000,8808.450710
2645.325655,919.314598,370.102971,8438.347739
2645.325984,0.000000,740.205942,8956.491898
2645.326313,-919.314598,814.226536,9252.574275
2645.326642,-383.047749,-222.061783,8586.388927
2645.326971,383.047749,-1184.329507,9030.512492
2645.327300,766.095498,-1480.411884,8734.430116
2645.327629,-383.047749,-1480.411884,9252.574275
2645.327958,-1225.752797,-740.205942,9548.656652
2645.328287,-459.657299,-1332.370696,9474.636058
2645.328616,306.438199,-222.061783,8586.388927
2645.328945,229.828649,370.102971,8734.430116
2645.329274,0.000000,518.144159,9474.636058
2645.329603,0.000000,518.144159,8956.491898
2645.329932,1608.800546,518.144159,8068.244768
2645.330261,2298.286494,370.102971,8586.388927
2645.330591,1072.533697,-0.000000,9548.656652
2645.330920,229.828649,-666.185348,10066.800811
2645.331249,153.219100,-222.061783,9474.636058
2645.331578,842.705048,-518.144159,9474.636058
2645.331907,766.095498,-296.082377,9178.553681
2645.332236,0.000000,-0.000000,9104.533087
2645.332565,-612.876398,740.205942,9622.677246
2645.332894,0.000000,-0.000000,9030.512492
2645.333223,766.095498,-814.226536,8734.430116
2645.333552,1225.752797,-740.205942,9474.636058
2645.333881,0.000000,-888.247130,9548.656652
2645.334210,-383.047749,-888.247130,9844.739029
2645.334539,536.266849,-1184.329507,9252.574275
2645.334868,1455.581446,-296.082377,9474.636058
2645.335197,919.314598,1258.350101,8882.471304
2645.335526,306.438199,1924.535449,8512.368333
2645.335855,995.924147,1628.453072,8068.244768
2645.336184,2221.676944,740.205942,8364.327145
2645.336513,2298.286494,-0.000000,8364.327145
2645.336843,689.485948,-740.205942,9104.533087
2645.337172,-306.438199,-518.144159,9844.739029
2645.337501,-383.047749,-1480.411884,9474.636058
2645.337830,229.828649,-444.123565,8882.471304
2645.338159,0.000000,-444.123565,8734.430116
2645.338488,-995.924147,-0.000000,8808.450710
2645.338817,-1302.362347,-0.000000,9474.636058
2645.339146,306.438199,-148.041188,8438.347739
2645.339475,842.705048,148.041188,7994.224174
2645.339804,0.000000,-0.000000,8882.471304
2645.340133,-689.485948,-666.185348,10436.903782
2645.340462,-383.047749,-1554.432478,9844.739029
2645.340791,689.485948,-1184.329507,9178.553681
2645.341120,1072.533697,148.041188,8956.491898
2645.341449,76.609550,1184.329507,9326.594869
2645.341778,-383.047749,1480.411884,8808.450710
2645.342107,766.095498,666.185348,8808.450710
2645.342436,1378.971896,518.144159,8216.285956
2645.342766,919.314598,-740.205942,9178.553681
2645.343095,-153.219100,-370.102971,9178.553681
2645.343424,-459.657299,-1258.350101,9918.759623
2645.343753,0.000000,-814.226536,9104.533087
2645.344082,76.609550,-1628.453072,9474.636058
2645.344411,-229.828649,-148.041188,9252.574275
2645.344740,-1072.533697,-0.000000,9474.636058
2645.345069,0.000000,1036.288319,9178.553681
2645.345398,612.876398,444.123565,8660.409521
2645.345727,995.924147,222.061783,8734.430116
2645.346056,306.438199,-740.205942,9622.677246
2645.346385,0.000000,-814.226536,9992.780217
2645.346714,536.266849,-1776.494261,9474.636058
2645.347043,842.705048,-1110.308913,8956.491898
2645.347372,612.876398,-0.000000,8956.491898
2645.347701,383.047749,370.102971,9178.553681
2645.348030,229.828649,1406.391290,8808.450710
2645.348359,1378.971896,444.123565,8290.306550
2645.348688,1762.019645,962.267725,7550.100608
2645.349018,1532.190996,-74.020594,8956.491898
2645.349347,459.657299,-962.267725,9326.594869
2645.349676,153.219100,-1406.391290,9178.553681
2645.350005,995.924147,-1406.391290,9030.512492
2645.350334,842.705048,-518.144159,8734.430116
2645.350663,0.000000,444.123565,8882.471304
2645.350992,-383.047749,-0.000000,9474.636058
2645.351321,612.876398,-222.061783,8512.368333
2645.351650,612.876398,-370.102971,8512.368333
2645.351979,1225.752797,-666.185348,8364.327145
2645.352308,-459.657299,-814.226536,9918.759623
2645.352637,-842.705048,-1036.288319,10066.800811
2645.352966,76.609550,-1332.370696,9178.553681
2645.353295,766.095498,-814.226536,9104.533087
2645.353624,229.828649,-0.000000,9104.533087
2645.353953,-766.095498,-0.000000,9326.594869
2645.354282,-306.438199,592.164754,9104.533087
2645.354611,1149.143247,740.205942,8142.265362
2645.354940,1455.581446,296.082377,8216.285956
2645.355270,153.219100,-222.061783,9326.594869
2645.355599,-229.828649,-0.000000,9252.574275
2645.355928,306.438199,-814.226536,9696.697840
2645.356257,919.314598,-74.020594,8882.471304
2645.356586,612.876398,-0.000000,8882.471304
2645.356915,-383.047749,370.102971,9770.718434
2645.357244,-1149.143247,444.123565,9326.594869
2645.357573,0.000000,-0.000000,8808.450710
2645.357902,536.266849,370.102971,8808.450710
2645.358231,229.828649,-222.061783,9326.594869
2645.358560,-306.438199,-296.082377,9918.759623
2645.358889,-459.657299,-740.205942,10140.821405
2645.359218,306.438199,-1184.329507,9400.615463
2645.359547,689.485948,370.102971,8808.450710
2645.359876,229.828649,666.185348,8956.491898
2645.360205,-459.657299,962.267725,9178.553681
2645.360534,306.438199,962.267725,8956.491898
2645.360863,2451.505594,-0.000000,8586.388927
2645.361193,2221.676944,666.185348,8068.244768
2645.361522,842.705048,740.205942,9104.533087
2645.361851,459.657299,-0.000000,9548.656652
2645.362180,689.485948,-0.000000,9252.574275
2645.362509,1149.143247,-0.000000,8882.471304
2645.362838,995.924147,-0.000000,8586.388927
2645.363167,-612.876398,592.164754,9918.759623
2645.363496,-766.095498,-444.123565,9696.697840
2645.363825,536.266849,-222.061783,8882.471304
2645.364154,919.314598,-0.000000,9030.512492
2645.364483,306.438199,-0.000000,8956.491898
2645.364812,-1149.143247,-296.082377,10066.800811
2645.365141,-383.047749,-370.102971,10510.924376
2645.365470,536.266849,-518.144159,9178.553681
2645.365799,612.876398,-666.185348,8882.471304
2645.366128,0.000000,740.205942,9030.512492
2645.366457,-306.438199,1036.288319,9104.533087
2645.366786,459.657299,888.247130,9252.574275
2645.367115,1915.238745,296.082377,8068.244768
2645.367445,1685.410096,296.082377,8808.450710
2645.367774,919.314598,-370.102971,9400.615463
2645.368103,383.047749,-592.164754,8882.471304
2645.368432,766.095498,-888.247130,9252.574275
2645.368761,1149.143247,-148.041188,8808.450710
2645.369090,306.438199,222.061783,8734.430116
2645.369419,-919.314598,1110.308913,9326.594869
2645.369748,-229.828649,592.164754,9030.512492
2645.370077,383.047749,-592.164754,8512.368333
2645.370406,0.000000,-962.267725,8290.306550
2645.370735,-1225.752797,-1554.432478,9992.780217
2645.371064,-1455.581446,-1850.514855,10288.862594
2645.371393,-1149.143247,-1702.473667,9400.615463
2645.371722,0.000000,-1332.370696,9326.594869
2645.372051,76.609550,-666.185348,8734.430116
2645.372380,-536.266849,296.082377,9548.656652
2645.372709,0.000000,814.226536,8660.409521
2645.373038,1302.362347,370.102971,8586.388927
2645.373367,2298.286494,740.205942,8142.265362
2645.373697,1838.629195,-74.020594,8734.430116
2645.374026,995.924147,-296.082377,9474.636058
2645.374355,842.705048,-666.185348,9030.512492
2645.374684,1225.752797,-296.082377,8882.471304
2645.375013,1455.581446,-518.144159,8660.409521
2645.375342,229.828649,-0.000000,8956.491898
2645.375671,-459.657299,-222.061783,9252.574275
2645.376000,0.000000,-518.144159,8734.430116
2645.376329,383.047749,-814.226536,8142.265362
2645.376658,153.219100,-0.000000,8438.347739
2645.376987,-919.314598,-148.041188,9622.677246
2645.377316,-1455.581446,-1480.411884,10658.965565
2645.377645,-383.047749,-1480.411884,9918.759623
2645.377974,612.876398,-1776.494261,8956.491898
2645.378303,459.657299,-296.082377,9178.553681
2645.378632,-536.266849,148.041188,9474.636058
2645.378961,153.219100,444.123565,9104.533087
2645.379290,1762.019645,444.123565,8290.306550
2645.379620,2374.896044,888.247130,7772.162391
2645.379949,1302.362347,-0.000000,8660.409521
2645.380278,919.314598,-148.041188,9030.512492
2645.380607,995.924147,-148.041188,9030.512492
2645.380936,1838.629195,-370.102971,8660.409521
2645.381265,842.705048,-74.020594,8438.347739
2645.381594,-306.438199,-0.000000,9474.636058
2645.381923,-306.438199,-0.000000,9474.636058
2645.382252,229.828649,-1110.308913,8956.491898
2645.382581,306.438199,-888.247130,8364.327145
2645.382910,-153.219100,-1036.288319,9474.636058
2645.383239,-1149.143247,-1184.329507,10510.924376
2645.383568,-1455.581446,-1554.432478,10732.986159
2645.383897,0.000000,-1184.329507,9770.718434
2645.384226,536.266849,-888.247130,9252.574275
2645.384555,0.000000,296.082377,9548.656652
2645.384884,0.000000,-74.020594,9770.718434
2645.385213,1302.362347,-74.020594,9030.512492
2645.385542,2221.676944,1184.329507,7772.162391
2645.385872,2221.676944,1110.308913,8290.306550
2645.386203,919.314598,888.247130,9252.574275
2645.386532,383.047749,592.164754,9030.512492
2645.386862,1072.533697,-296.082377,8808.450710
2645.387191,1225.752797,-0.000000,7698.141797
2645.387520,0.000000,518.144159,9326.594869
2645.387849,-842.705048,148.041188,9474.636058
2645.388178,-842.705048,-0.000000,9252.574275
2645.388507,0.000000,-740.205942,8364.327145
2645.388837,153.219100,-888.247130,8512.368333
2645.389166,-689.485948,-518.144159,9696.697840
2645.389495,-1608.800546,-1036.288319,10066.800811
2645.389824,-536.266849,-666.185348,9178.553681
2645.390153,536.266849,-370.102971,8956.491898
2645.390482,612.876398,370.102971,8808.450710
2645.390812,0.000000,814.226536,8808.450710
2645.391141,153.219100,888.247130,8512.368333
2645.391470,1149.143247,1036.288319,7402.059420
2645.391799,2298.286494,814.226536,7698.141797
2645.392128,1685.410096,296.082377,8512.368333
2645.392457,689.485948,-74.020594,8882.471304
2645.392786,153.219100,-444.123565,9178.553681
2645.393116,689.485948,-518.144159,8586.388927
2645.393445,1072.533697,-370.102971,8660.409521
2645.393774,-459.657299,222.061783,9178.553681
2645.394103,-689.485948,370.102971,9992.780217
2645.394432,0.000000,-222.061783,9178.553681
2645.394761,919.314598,-222.061783,9178.553681
2645.395091,766.095498,-222.061783,9400.615463
2645.395420,-229.828649,-666.185348,10288.862594
2645.395749,-919.314598,-814.226536,10288.862594
2645.396078,-383.047749,-740.205942,10066.800811
2645.396407,1225.752797,-444.123565,9474.636058
2645.396736,153.219100,-740.205942,9400.615463
2645.397066,-459.657299,370.102971,9770.718434
2645.397395,0.000000,-0.000000,8734.430116
2645.397724,1455.581446,-296.082377,8438.347739
2645.398053,1532.190996,-814.226536,9104.533087
2645.398382,536.266849,-444.123565,9326.594869
2645.398711,-383.047749,-962.267725,9622.677246
2645.399040,536.266849,-888.247130,9104.533087
2645.399370,1455.581446,-814.226536,8882.471304
2645.399699,1072.533697,-888.247130,9104.533087
2645.400028,0.000000,-222.061783,9104.533087
2645.400357,0.000000,-814.226536,8956.491898
2645.400686,383.047749,-296.082377,8142.265362
2645.401015,1225.752797,-888.247130,7550.100608
2645.401345,919.314598,-1110.308913,8882.471304
2645.401674,-536.266849,-888.247130,9178.553681
2645.402003,-995.924147,-1480.411884,9104.533087
2645.402332,-229.828649,-1258.350101,8290.306550
2645.402661,-306.438199,-1110.308913,8660.409521
2645.402990,-842.705048,-666.185348,9252.574275
2645.403320,-919.314598,-592.164754,8882.471304
2645.403649,-766.095498,-148.041188,8586.388927
2645.403978,995.924147,-444.123565,8290.306550
2645.404307,1149.143247,-0.000000,8364.327145
2645.404636,536.266849,-962.267725,9326.594869
2645.404965,383.047749,-740.205942,8882.471304
2645.405294,995.924147,-666.185348,8808.450710
2645.405624,2068.457845,-148.041188,8808.450710
2645.405953,1838.629195,296.082377,8808.450710
2645.406282,612.876398,1036.288319,9030.512492
2645.406611,919.314598,814.226536,8290.306550
2645.406940,1685.410096,518.144159,8142.265362
2645.407269,1608.800546,-0.000000,8808.450710
2645.407599,459.657299,-370.102971,9400.615463
2645.407928,-919.314598,222.061783,9992.780217
2645.408257,-919.314598,-740.205942,9548.656652
2645.408586,-383.047749,-666.185348,9622.677246
2645.408915,-536.266849,-222.061783,9844.739029
2645.409244,-1455.581446,-74.020594,9696.697840
2645.409574,-919.314598,666.185348,9326.594869
2645.409903,919.314598,-0.000000,8808.450710
2645.410232,1378.971896,592.164754,9474.636058
2645.410561,1685.410096,-74.020594,9474.636058
2645.410890,689.485948,-0.000000,9178.553681
2645.411219,536.266849,-0.000000,9696.697840
2645.411548,1915.238745,296.082377,9178.553681
2645.411878,2298.286494,296.082377,8660.409521
2645.412207,1838.629195,1628.453072,9030.512492
2645.412536,76.609550,962.267725,9104.533087
2645.412865,306.438199,888.247130,9178.553681
2645.413194,842.705048,296.082377,8512.368333
2645.413523,536.266849,-74.020594,9104.533087
2645.413853,-766.095498,-222.061783,9548.656652
2645.414182,-1762.019645,-1776.494261,9918.759623
2645.414511,-1455.581446,-1998.556043,9918.759623
2645.414840,-536.266849,-1110.308913,10066.800811
2645.415169,-1225.752797,-222.061783,8586.388927
2645.415498,-1532.190996,518.144159,9474.636058
2645.415828,-612.876398,370.102971,9326.594869
2645.416157,689.485948,222.061783,8290.306550
2645.416486,1532.190996,-0.000000,8438.347739
2645.416815,1225.752797,-74.020594,8882.471304
2645.417144,229.828649,444.123565,9252.574275
2645.417473,842.705048,-444.123565,9770.718434
2645.417802,1455.581446,-0.000000,8586.388927
2645.418132,1225.752797,-0.000000,8586.388927
2645.418461,459.657299,1554.432478,8586.388927
2645.418790,-229.828649,1110.308913,8808.450710
2645.419119,306.438199,1554.432478,9252.574275
2645.419448,766.095498,592.164754,8290.306550
2645.419777,842.705048,-518.144159,8512.368333
2645.420107,-995.924147,-148.041188,9844.739029
2645.420436,-919.314598,-666.185348,9770.718434
2645.420765,-306.438199,-888.247130,9104.533087
2645.421094,536.266849,-444.123565,9474.636058
2645.421423,229.828649,-0.000000,9252.574275
2645.421752,-229.828649,148.041188,9622.677246
2645.422082,229.828649,888.247130,9178.553681
2645.422411,1608.800546,-74.020594,8734.430116
2645.422740,1608.800546,148.041188,8734.430116
2645.423069,1225.752797,222.061783,8882.471304
2645.423398,383.047749,-444.123565,9696.697840
2645.423727,612.876398,-518.144159,9622.677246
2645.424056,2451.505594,-222.061783,8290.306550
2645.424386,2068.457845,-0.000000,8290.306550
2645.424715,76.609550,888.247130,8808.450710
2645.425044,229.828649,444.123565,8734.430116
2645.425373,1302.362347,-148.041188,8512.368333
2645.425702,1225.752797,-296.082377,8216.285956
2645.426031,306.438199,-888.247130,8734.430116
2645.426361,-689.485948,-1554.432478,10288.862594
2645.426690,-612.876398,-1554.432478,9918.759623
2645.427019,536.266849,-1998.556043,9178.553681
2645.427348,229.828649,-1184.329507,9474.636058
2645.427677,-689.485948,-444.123565,9918.759623
2645.428006,-459.657299,-0.000000,9326.594869
2645.428336,459.657299,148.041188,9326.594869
2645.428665,1685.410096,444.123565,8364.327145
2645.428994,1302.362347,-296.082377,9030.512492
2645.429323,229.828649,-1406.391290,9770.718434
2645.429652,0.000000,-1258.350101,9474.636058
2645.429981,995.924147,-962.267725,8808.450710
2645.430310,919.314598,-74.020594,8512.368333
2645.430640,153.219100,370.102971,8660.409521
2645.430969,-536.266849,814.226536,9104.533087
2645.431298,0.000000,-592.164754,9104.533087
2645.431627,842.705048,-0.000000,8290.306550
2645.431956,459.657299,-148.041188,8438.347739
2645.432285,-306.438199,-740.205942,9548.656652
2645.432615,-1072.533697,-962.267725,9992.780217
2645.432944,0.000000,-888.247130,10288.862594
2645.433273,383.047749,-814.226536,9178.553681
2645.433602,0.000000,-0.000000,8956.491898
2645.433931,-612.876398,1036.288319,9104.533087
2645.434260,0.000000,1480.411884,8734.430116
2645.434590,842.705048,370.102971,8290.306550
2645.434919,1608.800546,666.185348,7920.203579
2645.435248,1302.362347,-0.000000,8882.471304
2645.435577,0.000000,-296.082377,9844.739029
2645.435906,76.609550,-740.205942,9474.636058
2645.436235,1225.752797,-296.082377,8512.368333
2645.436564,1302.362347,444.123565,8734.430116
2645.436894,383.047749,962.267725,9178.553681
2645.437223,-689.485948,518.144159,9104.533087
2645.437552,536.266849,1332.370696,9104.533087
2645.437881,1149.143247,666.185348,8290.306550
2645.438210,1608.800546,-0.000000,8512.368333
2645.438539,76.609550,-518.144159,9548.656652
2645.438869,-229.828649,-1406.391290,9992.780217
2645.439198,153.219100,-1332.370696,9622.677246
2645.439527,995.924147,-814.226536,8586.388927
2645.439856,229.828649,518.144159,9178.553681
2645.440185,0.000000,592.164754,9474.636058
2645.440514,0.000000,666.185348,9178.553681
2645.440844,1072.533697,370.102971,8660.409521
2645.441173,1532.190996,-74.020594,8808.450710
2645.441502,612.876398,-0.000000,9400.615463
2645.441831,-229.828649,-1036.288319,10214.842000
2645.442160,306.438199,-1406.391290,9770.718434
2645.442489,1608.800546,-222.061783,9400.615463
2645.442818,1302.362347,518.144159,8586.388927
2645.443148,-153.219100,1110.308913,9104.533087
2645.443477,0.000000,1554.432478,9326.594869
2645.443806,919.314598,444.123565,8512.368333
2645.444135,1915.238745,148.041188,8216.285956
2645.444464,1225.752797,-0.000000,8364.327145
2645.444793,229.828649,-888.247130,9696.697840
2645.445123,-459.657299,-740.205942,9622.677246
2645.445452,229.828649,-1184.329507,9326.594869
2645.445781,536.266849,-222.061783,8734.430116
2645.446110,-536.266849,518.144159,8882.471304
2645.446439,-842.705048,814.226536,9474.636058
2645.446768,-153.219100,592.164754,8734.430116
2645.447098,995.924147,74.020594,8438.347739
2645.447427,766.095498,148.041188,8882.471304
2645.447756,0.000000,-740.205942,9474.636058
2645.448085,-306.438199,-888.247130,9770.718434
2645.448414,229.828649,-592.164754,8956.491898
2645.448743,1378.971896,-222.061783,8660.409521
2645.449072,842.705048,740.205942,8808.450710
2645.449402,-306.438199,740.205942,8734.430116
2645.449731,306.438199,1036.288319,8882.471304
2645.450060,1149.143247,-0.000000,8734.430116
2645.450389,1532.190996,-0.000000,7994.224174
2645.450718,153.219100,-962.267725,9326.594869
2645.451047,-689.485948,-962.267725,9696.697840
2645.451377,-536.266849,-1036.288319,9918.759623
2645.451706,383.047749,-1776.494261,9326.594869
2645.452035,0.000000,-666.185348,8956.491898
2645.452364,-306.438199,592.164754,9474.636058
2645.452693,-612.876398,148.041188,9030.512492
2645.453022,383.047749,592.164754,8512.368333
2645.453352,1532.190996,370.102971,8364.327145
2645.453681,995.924147,-0.000000,9178.553681
2645.454010,-459.657299,-74.020594,10214.842000
2645.454339,-766.095498,-592.164754,9844.739029
2645.454668,536.266849,-1110.308913,9918.759623
2645.454997,919.314598,-666.185348,9030.512492
2645.455326,383.047749,-74.020594,9252.574275
2645.455656,0.000000,740.205942,9474.636058
2645.455985,536.266849,296.082377,9178.553681
2645.456314,1608.800546,888.247130,7994.224174
2645.456643,1149.143247,-444.123565,8438.347739
2645.456972,229.828649,-74.020594,8882.471304
2645.457301,-689.485948,-1184.329507,9770.718434
2645.457631,76.609550,-1850.514855,9474.636058
2645.457960,536.266849,-962.267725,8586.388927
2645.458289,0.000000,-444.123565,8586.388927
2645.458618,-536.266849,-0.000000,9622.677246
2645.458947,0.000000,-296.082377,8956.491898
2645.459276,919.314598,-0.000000,7772.162391
2645.459606,1378.971896,296.082377,7624.121203
2645.459935,229.828649,-0.000000,8808.450710
2645.460264,-306.438199,-518.144159,10140.821405
2645.460593,766.095498,-888.247130,9400.615463
2645.460922,1225.752797,-888.247130,8512.368333
2645.461251,689.485948,-296.082377,8808.450710
2645.461580,0.000000,-0.000000,9548.656652
2645.461910,-306.438199,296.082377,9474.636058
2645.462239,766.095498,-370.102971,8808.450710
2645.462568,1378.971896,-0.000000,7698.141797
2645.462897,536.266849,518.144159,8808.450710
2645.463226,-383.047749,-74.020594,9622.677246
2645.463555,-536.266849,-1110.308913,9400.615463
2645.463885,76.609550,-1406.391290,9474.636058
2645.464214,229.828649,-666.185348,8808.450710
2645.464543,-536.266849,-222.061783,9400.615463
2645.464872,-1225.752797,666.185348,9548.656652
2645.465201,0.000000,-148.041188,8956.491898
2645.465530,1225.752797,444.123565,8808.450710
2645.465860,995.924147,-148.041188,8512.368333
2645.466189,0.000000,222.061783,9474.636058
2645.466518,306.438199,-370.102971,9918.759623
2645.466847,689.485948,-666.185348,9326.594869
2645.467176,1072.533697,-370.102971,8882.471304
2645.467505,995.924147,-0.000000,9178.553681
2645.467834,76.609550,-0.000000,9400.615463
2645.468164,-842.705048,592.164754,9030.512492
2645.468493,689.485948,-0.000000,8586.388927
2645.468822,1149.143247,592.164754,8068.244768
2645.469151,383.047749,-0.000000,8586.388927
2645.469480,-536.266849,-74.020594,9696.697840
2645.469809,-612.876398,-962.267725,9696.697840
2645.470139,306.438199,-1184.329507,9326.594869
2645.470468,306.438199,-222.061783,8586.388927
2645.470797,153.219100,-222.061783,9104.533087
2645.471126,0.000000,518.144159,9030.512492
2645.471455,919.314598,518.144159,8808.450710
2645.471784,1991.848295,444.123565,8290.306550
2645.472114,1762.019645,-0.000000,8660.409521
2645.472443,612.876398,148.041188,9696.697840
2645.472772,153.219100,-148.041188,9178.553681
2645.473101,689.485948,-222.061783,9400.615463
2645.473430,842.705048,-296.082377,9030.512492
2645.473759,0.000000,-222.061783,9400.615463
2645.474088,-766.095498,-0.000000,9178.553681
2645.474418,-229.828649,-592.164754,9696.697840
2645.474747,383.047749,-0.000000,8660.409521
2645.475076,995.924147,-370.102971,7772.162391
2645.475405,0.000000,-0.000000,9252.574275
2645.475734,-689.485948,-444.123565,9696.697840
2645.476063,0.000000,-888.247130,9104.533087
2645.476393,689.485948,-814.226536,9104.533087
2645.476722,536.266849,-0.000000,8364.327145
2645.477051,76.609550,-0.000000,9548.656652
2645.477380,-459.657299,518.144159,8956.491898
2645.477709,842.705048,-370.102971,9178.553681
2645.478038,1302.362347,518.144159,7994.224174
2645.478368,306.438199,-74.020594,8216.285956
2645.478697,-306.438199,-222.061783,10288.862594
2645.479026,0.000000,-1036.288319,9178.553681
2645.479355,612.876398,-1554.432478,9030.512492
2645.479684,383.047749,-740.205942,8956.491898
2645.480013,-842.705048,-74.020594,9030.512492
2645.480342,-1225.752797,296.082377,9474.636058
2645.480672,0.000000,-296.082377,8364.327145
2645.481001,842.705048,-666.185348,8512.368333
2645.481330,153.219100,-888.247130,9030.512492
2645.481659,-383.047749,-814.226536,9400.615463
2645.481988,-229.828649,-1110.308913,9918.759623
2645.482317,689.485948,-222.061783,9326.594869
2645.482647,919.314598,-444.123565,8882.471304
2645.482976,536.266849,296.082377,8808.450710
2645.483305,229.828649,592.164754,9474.636058
2645.483634,995.924147,740.205942,8808.450710
2645.483963,2221.676944,1036.288319,8586.388927
2645.484292,2068.457845,888.247130,8364.327145
2645.484621,1149.143247,-0.000000,9252.574275
2645.484951,76.609550,-370.102971,9992.780217
2645.485280,229.828649,-1110.308913,9326.594869
2645.485609,766.095498,-518.144159,9104.533087
2645.485938,612.876398,-0.000000,8808.450710
2645.486267,-689.485948,296.082377,9548.656652
2645.486596,-766.095498,592.164754,9474.636058
2645.486925,229.828649,296.082377,8512.368333
2645.487254,842.705048,-0.000000,8290.306550
2645.487583,229.828649,-222.061783,8882.471304
2645.487912,0.000000,-74.020594,9622.677246
2645.488241,0.000000,-1036.288319,10066.800811
2645.488570,766.095498,-888.247130,9400.615463
2645.488899,1302.362347,-814.226536,8734.430116
2645.489228,229.828649,296.082377,8882.471304
2645.489557,0.000000,814.226536,8956.491898
2645.489886,1149.143247,740.205942,8216.285956
2645.490215,1915.238745,740.205942,7920.203579
2645.490545,1762.019645,444.123565,7994.224174
2645.490874,153.219100,-370.102971,9030.512492
2645.491203,-383.047749,-1702.473667,9622.677246
2645.491532,229.828649,-1924.535449,9326.594869
2645.491861,306.438199,-1332.370696,8660.409521
2645.492190,-612.876398,-296.082377,9030.512492
2645.492519,-1378.971896,444.123565,9548.656652
2645.492848,-766.095498,-296.082377,9326.594869
2645.493177,536.266849,-518.144159,8882.471304
2645.493506,919.314598,-888.247130,8438.347739
2645.493835,-612.876398,-592.164754,9400.615463
2645.494164,-995.924147,-518.144159,9770.718434
2645.494493,-459.657299,-1184.329507,9474.636058
2645.494822,536.266849,-1184.329507,9474.636058
2645.495151,689.485948,-518.144159,9326.594869
2645.495480,383.047749,888.247130,9252.574275
2645.495809,383.047749,518.144159,8808.450710
2645.496138,1608.800546,518.144159,8364.327145
2645.496468,1991.848295,444.123565,8438.347739
2645.496797,1149.143247,148.041188,8956.491898
2645.497126,153.219100,296.082377,9474.636058
2645.497455,76.609550,-222.061783,9474.636058
2645.497784,919.314598,-74.020594,8882.471304
2645.498113,689.485948,-0.000000,9548.656652
2645.498442,-383.047749,370.102971,9696.697840
2645.498771,-1072.533697,370.102971,9696.697840
2645.499100,-459.657299,-0.000000,8808.450710
2645.499429,536.266849,148.041188,8956.491898
2645.499758,689.485948,-148.041188,8512.368333
2645.500087,0.000000,-740.205942,10214.842000
2645.500416,153.219100,-296.082377,9474.636058
2645.500745,689.485948,-814.226536,9030.512492
2645.501074,1455.581446,592.164754,8882.471304
2645.501403,1072.533697,888.247130,8734.430116
2645.501732,689.485948,1332.370696,8882.471304
2645.502061,919.314598,1110.308913,8438.347739
2645.502391,1762.019645,-0.000000,8142.265362
2645.502720,2528.115143,-74.020594,8808.450710
2645.503049,995.924147,-0.000000,8586.388927
2645.503378,-383.047749,-666.185348,9696.697840
2645.503707,0.000000,-370.102971,9696.697840
2645.504036,306.438199,-1036.288319,8956.491898
2645.504365,153.219100,-814.226536,9104.533087
2645.504694,-536.266849,-0.000000,10066.800811
2645.505023,-842.705048,-0.000000,9696.697840
2645.505352,-229.828649,-518.144159,9030.512492
2645.505681,766.095498,-296.082377,8660.409521
2645.506010,306.438199,-888.247130,9474.636058
2645.506339,-612.876398,-1110.308913,9622.677246
2645.506668,-459.657299,-1480.411884,9992.780217
2645.506997,536.266849,-814.226536,9474.636058
2645.507326,689.485948,-0.000000,8290.306550
2645.507655,229.828649,1110.308913,9178.553681
2645.507984,-383.047749,592.164754,8882.471304
2645.508314,766.095498,296.082377,8956.491898
2645.508643,1455.581446,148.041188,8290.306550
2645.508972,842.705048,-148.041188,8734.430116
2645.509301,0.000000,-666.185348,9992.780217
2645.509630,-612.876398,-1184.329507,9548.656652
2645.509959,76.609550,-1184.329507,9696.697840
2645.510288,1149.143247,-814.226536,8734.430116
2645.510617,76.609550,148.041188,8512.368333
2645.510946,-383.047749,962.267725,9400.615463
2645.511275,229.828649,1258.350101,8660.409521
2645.511604,995.924147,148.041188,7920.203579
2645.511933,1302.362347,962.267725,7772.162391
2645.512262,0.000000,-148.041188,9326.594869
2645.512591,-306.438199,-370.102971,10510.924376
2645.512920,-153.219100,-888.247130,9326.594869
2645.513249,536.266849,-666.185348,9326.594869
2645.513578,229.828649,-0.000000,8512.368333
2645.513907,-459.657299,1036.288319,9104.533087
2645.514237,-612.876398,592.164754,9400.615463
2645.514566,612.876398,222.061783,8660.409521
2645.514895,1762.019645,666.185348,7476.080014
2645.515224,1455.581446,296.082377,8586.388927
2645.515553,459.657299,-148.041188,9474.636058
2645.515882,459.657299,-740.205942,9548.656652
2645.516211,1608.800546,-1036.288319,9030.512492
2645.516540,1532.190996,-592.164754,8438.347739
2645.516869,689.485948,148.041188,9326.594869
2645.517198,-536.266849,370.102971,9622.677246
2645.517527,0.000000,222.061783,9252.574275
2645.517856,842.705048,-0.000000,8512.368333
2645.518185,766.095498,-0.000000,8364.327145
2645.518514,-536.266849,-592.164754,10066.800811
2645.518843,-919.314598,-1702.473667,11177.109724
2645.519172,-689.485948,-2294.638420,9844.739029
2645.519501,459.657299,-1480.411884,9474.636058
2645.519830,-306.438199,-370.102971,9400.615463
2645.520160,-766.095498,-0.000000,9400.615463
2645.520489,-229.828649,-0.000000,9474.636058
2645.520818,1225.752797,222.061783,8364.327145
2645.521147,2374.896044,-0.000000,8216.285956
2645.521476,1762.019645,-0.000000,8734.430116
2645.521805,919.314598,-1036.288319,9770.718434
2645.522134,1072.533697,-888.247130,8956.491898
2645.522463,1991.848295,-518.144159,9030.512492
2645.522792,1762.019645,444.123565,8512.368333
2645.523121,229.828649,1406.391290,8808.450710
2645.523450,-229.828649,1110.308913,9400.615463
2645.523779,689.485948,-0.000000,8142.265362
2645.524108,76.609550,-296.082377,8290.306550
2645.524437,-612.876398,-666.185348,9030.512492
2645.524766,-1608.800546,-1110.308913,9770.718434
2645.525095,-2068.457845,-1110.308913,9992.780217
2645.525424,-1149.143247,-2220.617826,9474.636058
2645.525753,-459.657299,-1184.329507,8956.491898
2645.526083,-612.876398,-296.082377,9178.553681
2645.526412,-689.485948,518.144159,8068.244768
2645.526741,689.485948,666.185348,9252.574275
2645.527070,2068.457845,666.185348,7994.224174
2645.527399,2374.896044,740.205942,7846.182985
2645.527728,1762.019645,814.226536,8882.471304
2645.528057,1225.752797,370.102971,8586.388927
2645.528386,1762.019645,518.144159,8882.471304
2645.528715,1991.848295,518.144159,9178.553681
2645.529044,1302.362347,296.082377,8734.430116
2645.529373,-229.828649,592.164754,9400.615463
2645.529702,-689.485948,592.164754,8734.430116
2645.530031,-306.438199,-740.205942,9252.574275
2645.530360,-459.657299,-0.000000,9252.574275
2645.530689,-919.314598,-814.226536,9622.677246
2645.531018,-2145.067394,-1110.308913,10140.821405
2645.531347,-1532.190996,-1628.453072,10510.924376
2645.531676,153.219100,-1184.329507,9548.656652
2645.532006,612.876398,-962.267725,9548.656652
2645.532335,229.828649,-0.000000,9474.636058
2645.532664,995.924147,444.123565,9104.533087
2645.532993,919.314598,1036.288319,8734.430116
2645.533322,2604.724693,1036.288319,8364.327145
2645.533651,2834.553343,1258.350101,8216.285956
2645.533980,1685.410096,666.185348,8956.491898
2645.534309,995.924147,370.102971,9178.553681
2645.534638,1302.362347,-222.061783,9326.594869
2645.534967,1149.143247,-222.061783,8956.491898
2645.535296,-229.828649,444.123565,8808.450710
2645.535625,-1225.752797,-0.000000,9844.739029
2645.535954,-766.095498,-444.123565,9474.636058
2645.536283,0.000000,-1258.350101,8216.285956
