#time,accel_x,accel_y,accel_z
2670.550247,229.828649,-0.000000,9104.533087
2670.550576,76.609550,-0.000000,9030.512492
2670.550905,229.828649,-74.020594,9104.533087
2670.551234,0.000000,-296.082377,9252.574275
2670.551563,536.266849,-666.185348,9030.512492
2670.551892,383.047749,-444.123565,9326.594869
2670.552221,229.828649,-370.102971,9326.594869
2670.552550,153.219100,-0.000000,9252.574275
2670.552879,306.438199,-148.041188,9104.533087
2670.553208,229.828649,-74.020594,9030.512492
2670.553537,536.266849,-148.041188,9400.615463
2670.553866,842.705048,-222.061783,9474.636058
2670.554195,229.828649,-370.102971,9178.553681
2670.554524,689.485948,-518.144159,9622.677246
2670.554853,459.657299,-148.041188,9326.594869
2670.555182,229.828649,-222.061783,9178.553681
2670.555511,76.609550,-222.061783,9104.533087
2670.555840,383.047749,-148.041188,8734.430116
2670.556169,306.438199,-296.082377,9252.574275
2670.556498,0.000000,-444.123565,9030.512492
2670.556827,153.219100,-0.000000,9104.533087
2670.557156,229.828649,-74.020594,9104.533087
2670.557485,153.219100,-74.020594,9178.553681
2670.557814,229.828649,-0.000000,9030.512492
2670.558143,76.609550,-222.061783,9030.512492
2670.558472,536.266849,-148.041188,8734.430116
2670.558801,383.047749,-444.123565,8660.409521
2670.559130,306.438199,-148.041188,9030.512492
2670.559459,459.657299,-0.000000,8808.450710
2670.559788,153.219100,-74.020594,8882.471304
2670.560118,383.047749,-222.061783,9104.533087
2670.560447,459.657299,-370.102971,8882.471304
2670.560776,612.876398,-222.061783,8956.491898
2670.561105,383.047749,-444.123565,9030.512492
2670.561434,612.876398,-370.102971,9178.553681
2670.561763,306.438199,-296.082377,8956.491898
2670.562092,229.828649,-222.061783,9104.533087
2670.562421,0.000000,-148.041188,9030.512492
2670.562750,459.657299,-518.144159,9030.512492
2670.563079,383.047749,-444.123565,9400.615463
2670.563408,766.095498,-444.123565,9474.636058
2670.563737,76.609550,-370.102971,9252.574275
2670.564066,306.438199,-0.000000,9178.553681
2670.564395,306.438199,-222.061783,9104.533087
2670.564724,229.828649,-74.020594,9326.594869
2670.565053,306.438199,-0.000000,9474.636058
2670.565382,842.705048,-222.061783,9474.636058
2670.565711,766.095498,-296.082377,9474.636058
2670.566040,842.705048,-148.041188,9326.594869
2670.566369,459.657299,-222.061783,9252.574275
2670.566698,229.828649,-0.000000,9252.574275
2670.567027,383.047749,-74.020594,9104.533087
2670.567356,306.438199,-222.061783,9178.553681
2670.567685,536.266849,-370.102971,9104.533087
2670.568014,383.047749,-296.082377,8660.409521
2670.568343,459.657299,-222.061783,8882.471304
2670.568672,153.219100,-0.000000,8956.491898
2670.569001,383.047749,-74.020594,8956.491898
2670.569330,383.047749,-74.020594,8882.471304
2670.569659,536.266849,-444.123565,8956.491898
2670.569989,383.047749,-370.102971,9104.533087
2670.570318,229.828649,-74.020594,8512.368333
2670.570647,76.609550,-222.061783,9104.533087
2670.570976,459.657299,-0.000000,8956.491898
2670.571305,383.047749,-148.041188,8882.471304
2670.571634,229.828649,-74.020594,9030.512492
2670.571963,229.828649,-0.000000,8882.471304
2670.572292,76.609550,-296.082377,9326.594869
2670.572621,76.609550,-296.082377,9252.574275
2670.572950,383.047749,-296.082377,9030.512492
2670.573279,306.438199,-0.000000,9030.512492
2670.573608,383.047749,-296.082377,9104.533087
2670.573937,306.438199,-74.020594,9178.553681
2670.574266,0.000000,-296.082377,9030.512492
2670.574595,153.219100,-370.102971,9400.615463
2670.574924,459.657299,-148.041188,9548.656652
2670.575253,306.438199,-222.061783,9252.574275
2670.575582,536.266849,-0.000000,9326.594869
2670.575911,306.438199,-74.020594,9178.553681
2670.576240,153.219100,-74.020594,9178.553681
2670.576569,153.219100,-222.061783,9178.553681
2670.576898,459.657299,-222.061783,9326.594869
2670.577227,536.266849,-74.020594,9326.594869
2670.577556,536.266849,-74.020594,9474.636058
2670.577885,306.438199,-148.041188,9326.594869
2670.578214,229.828649,-148.041188,8956.491898
2670.578543,229.828649,-0.000000,8956.491898
2670.578872,76.609550,-592.164754,9030.512492
2670.579201,383.047749,-370.102971,9178.553681
2670.579530,459.657299,-222.061783,9178.553681
2670.579860,76.609550,-74.020594,8882.471304
2670.580189,229.828649,-0.000000,8882.471304
2670.580518,229.828649,-148.041188,8882.471304
2670.580847,383.047749,-0.000000,8808.450710
2670.581176,842.705048,-0.000000,9030.512492
2670.581505,612.876398,-74.020594,8364.327145
2670.581834,689.485948,-0.000000,9030.512492
2670.582163,0.000000,296.082377,9474.636058
2670.582492,306.438199,-222.061783,8808.450710
2670.582821,306.438199,-74.020594,8882.471304
2670.583150,229.828649,-0.000000,8956.491898
2670.583479,842.705048,-0.000000,8808.450710
2670.583808,306.438199,-296.082377,9326.594869
2670.584137,153.219100,-370.102971,9104.533087
2670.584466,919.314598,-444.123565,9252.574275
2670.584795,229.828649,-74.020594,9030.512492
2670.585124,612.876398,-592.164754,8808.450710
2670.585453,459.657299,-444.123565,9252.574275
2670.585782,689.485948,-222.061783,9178.553681
2670.586111,229.828649,-74.020594,9252.574275
2670.586440,689.485948,-666.185348,9622.677246
2670.586769,1608.800546,-1036.288319,9474.636058
2670.587098,1149.143247,-740.205942,9696.697840
2670.587427,1762.019645,-592.164754,9770.718434
2670.587756,2374.896044,-0.000000,9030.512492
2670.588085,2681.334243,370.102971,9030.512492
2670.588414,3524.039291,-0.000000,8882.471304
2670.588743,4290.134789,-0.000000,8734.430116
2670.589072,3370.820191,222.061783,8660.409521
2670.589401,3294.210641,592.164754,8142.265362
2670.589731,2911.162892,148.041188,8956.491898
2670.590060,2911.162892,-370.102971,9474.636058
2670.590389,1838.629195,-666.185348,8956.491898
2670.590718,1225.752797,-1110.308913,9992.780217
2670.591047,2068.457845,-2146.597232,9548.656652
2670.591376,2987.772442,-740.205942,9474.636058
2670.591705,2451.505594,-518.144159,9844.739029
2670.592034,3370.820191,-1924.535449,9252.574275
2670.592363,3600.648841,-0.000000,8882.471304
2670.592692,4903.011187,962.267725,8734.430116
2670.593021,5362.668486,888.247130,6957.935855
2670.593350,4673.182538,1554.432478,8734.430116
2670.593679,5439.278036,962.267725,8438.347739
2670.594008,4596.572988,1184.329507,6587.832884
2670.594337,4443.353888,592.164754,8956.491898
2670.594666,2911.162892,-74.020594,8290.306550
2670.594995,2221.676944,222.061783,9252.574275
2670.595324,689.485948,-1332.370696,9622.677246
2670.595653,1072.533697,-1110.308913,9622.677246
2670.595982,766.095498,-1480.411884,10214.842000
2670.596311,0.000000,-1184.329507,10066.800811
2670.596640,1532.190996,-740.205942,9770.718434
2670.596969,2374.896044,-74.020594,10436.903782
2670.597298,2987.772442,-0.000000,7920.203579
2670.597627,4213.525239,740.205942,10140.821405
2670.597956,4596.572988,1184.329507,8216.285956
2670.598285,4979.620737,962.267725,8068.244768
2670.598614,5209.449386,1258.350101,8956.491898
2670.598943,4519.963438,592.164754,8734.430116
2670.599272,3983.696590,-0.000000,8808.450710
2670.599602,3524.039291,-1258.350101,9548.656652
2670.599931,2528.115143,-740.205942,9918.759623
2670.600260,1915.238745,-2072.576638,10066.800811
2670.600589,1762.019645,-1924.535449,10584.944971
2670.600918,2221.676944,-2072.576638,10066.800811
2670.601247,2145.067394,-740.205942,9992.780217
2670.601576,2681.334243,-0.000000,9326.594869
2670.601905,3600.648841,814.226536,8808.450710
2670.602234,4213.525239,1998.556043,8364.327145
2670.602563,4596.572988,2590.720797,7698.141797
2670.602892,4749.792088,2960.823768,7550.100608
2670.603221,4060.306139,2220.617826,7772.162391
2670.603550,4443.353888,2146.597232,7846.182985
2670.603879,3140.991542,740.205942,8068.244768
2670.604208,2911.162892,-814.226536,9400.615463
2670.604537,2451.505594,-1998.556043,9770.718434
2670.604866,2298.286494,-2960.823768,10288.862594
2670.605195,2221.676944,-3404.947333,10955.047942
2670.605524,2681.334243,-2516.700203,10436.903782
2670.605853,3600.648841,-888.247130,11029.068536
2670.606182,4443.353888,-0.000000,9474.636058
2670.606511,5286.058936,888.247130,8882.471304
2670.606840,5439.278036,2072.576638,8142.265362
2670.607169,4903.011187,2664.741391,7846.182985
2670.607498,4596.572988,3701.029710,6883.915261
2670.607827,5362.668486,3034.844362,6957.935855
2670.608156,4136.915689,1332.370696,7105.977043
2670.608485,2068.457845,592.164754,8216.285956
2670.608814,842.705048,-3404.947333,10584.944971
2670.609143,-689.485948,-3552.988522,10288.862594
2670.609473,-1302.362347,-5107.421000,11917.315666
2670.609802,-1762.019645,-4367.215058,11843.295072
2670.610131,-459.657299,-2590.720797,11473.192101
2670.610460,536.266849,-1110.308913,10955.047942
2670.610789,1915.238745,370.102971,10288.862594
2670.611118,4673.182538,1110.308913,10066.800811
2670.611447,7124.688131,2072.576638,8216.285956
2670.611776,6894.859482,1998.556043,7920.203579
2670.612105,6205.373534,1554.432478,7624.121203
2670.612434,6052.154434,2368.659014,6735.874072
2670.612763,5286.058936,2072.576638,7476.080014
2670.613092,4979.620737,2442.679609,5699.585753
2670.613421,4903.011187,2664.741391,6735.874072
2670.613750,4596.572988,1924.535449,5921.647536
2670.614079,4673.182538,222.061783,6661.853478
2670.614408,1838.629195,-4737.318029,9400.615463
2670.614737,0.000000,-6735.874072,12287.418637
2670.615066,-1685.410096,-3923.091493,11399.171507
2670.615395,-1149.143247,-7624.121203,13841.851115
2670.615724,-1762.019645,-2516.700203,10658.965565
2670.616053,1302.362347,370.102971,12509.480420
2670.616382,3447.429741,296.082377,10732.986159
2670.616711,5132.839837,2886.803174,8808.450710
2670.617040,7584.345430,518.144159,9696.697840
2670.617369,7201.297681,2368.659014,8438.347739
2670.617698,8197.221829,5107.421000,5773.606348
2670.618027,8197.221829,2960.823768,5477.523971
2670.618356,7431.126331,1554.432478,4663.297435
2670.618685,7124.688131,2516.700203,6365.771101
2670.619014,5822.325785,-0.000000,7031.956449
2670.619344,4290.134789,1850.514855,6069.688724
2670.619673,4826.401637,-222.061783,7105.977043
2670.620002,536.266849,-3478.967927,11103.089130
2670.620331,-2374.896044,-6661.853478,12953.603985
2670.620660,-2757.943793,-518.144159,11843.295072
2670.620989,-1455.581446,-7476.080014,12879.583391
2670.621318,-1302.362347,-1036.288319,10362.883188
2670.621647,1302.362347,1850.514855,13249.686362
2670.621976,919.314598,444.123565,10732.986159
2670.622305,-842.705048,1702.473667,12065.356855
2670.622634,6128.763984,-1628.453072,11473.192101
2670.622963,9422.974625,2960.823768,5255.462188
2670.623292,7584.345430,1998.556043,8364.327145
2670.623621,5669.106685,888.247130,5107.421000
2670.623950,7737.564530,814.226536,7031.956449
2670.624279,6281.983084,666.185348,7105.977043
2670.624608,5822.325785,2368.659014,3849.070898
2670.624937,4060.306139,2590.720797,9178.553681
2670.625266,2451.505594,740.205942,6809.894666
2670.625595,4136.915689,2146.597232,9326.594869
2670.625924,1608.800546,-1258.350101,8882.471304
2670.626253,919.314598,-4145.153275,11251.130318
2670.626582,0.000000,-1554.432478,11251.130318
2670.626911,0.000000,-5107.421000,12731.542202
2670.627240,-1455.581446,-888.247130,9844.739029
2670.627569,1378.971896,-296.082377,11843.295072
2670.627898,1838.629195,296.082377,9252.574275
2670.628227,2374.896044,1628.453072,7698.141797
2670.628556,3753.867940,1258.350101,7698.141797
2670.628885,4136.915689,1184.329507,8068.244768
2670.629215,4136.915689,2368.659014,7328.038826
2670.629544,3447.429741,-1110.308913,7476.080014
2670.629873,3140.991542,-1998.556043,7254.018232
2670.630202,3217.601092,-2220.617826,9326.594869
2670.630531,2374.896044,-1998.556043,10510.924376
2670.630860,2068.457845,-1110.308913,10510.924376
2670.631189,2681.334243,-518.144159,10510.924376
2670.631518,3524.039291,1184.329507,9770.718434
2670.631847,3370.820191,1184.329507,8956.491898
2670.632176,3983.696590,1258.350101,9400.615463
2670.632505,4903.011187,1554.432478,8586.388927
2670.632834,5822.325785,1628.453072,8882.471304
2670.633163,5286.058936,1110.308913,7994.224174
2670.633492,4903.011187,-148.041188,8068.244768
2670.633821,3524.039291,-444.123565,8216.285956
2670.634149,2911.162892,-296.082377,8956.491898
2670.634478,1072.533697,-74.020594,9696.697840
2670.634807,0.000000,-1480.411884,10584.944971
2670.635136,-536.266849,-1850.514855,10362.883188
2670.635465,0.000000,-1480.411884,10658.965565
2670.635794,689.485948,-1258.350101,9918.759623
2670.636123,1149.143247,-1332.370696,9622.677246
2670.636452,1378.971896,-888.247130,10881.027347
2670.636781,2374.896044,888.247130,9548.656652
2670.637110,4596.572988,2294.638420,8290.306550
2670.637439,5822.325785,2368.659014,7846.182985
2670.637768,4826.401637,2368.659014,7772.162391
2670.638097,4290.134789,1702.473667,7846.182985
2670.638426,3983.696590,1406.391290,6439.791695
2670.638755,4366.744339,1184.329507,7550.100608
2670.639084,2987.772442,-518.144159,7624.121203
2670.639413,383.047749,-740.205942,10362.883188
2670.639742,-1378.971896,-2738.761985,9770.718434
2670.640071,-2757.943793,-1480.411884,9474.636058
2670.640400,-1838.629195,-2812.782580,11029.068536
2670.640728,-2604.724693,-1406.391290,8512.368333
2670.641057,-2145.067394,296.082377,10510.924376
2670.641386,-2681.334243,296.082377,10066.800811
2670.641715,-536.266849,-0.000000,9030.512492
2670.642044,-1455.581446,-2072.576638,10362.883188
2670.642373,-1455.581446,-148.041188,9104.533087
2670.642702,-459.657299,-1406.391290,9622.677246
2670.643031,0.000000,-370.102971,8808.450710
2670.643360,2374.896044,1036.288319,7994.224174
2670.643689,2068.457845,-0.000000,8882.471304
2670.644018,1915.238745,740.205942,6809.894666
2670.644347,3140.991542,1998.556043,6513.812290
2670.644676,2298.286494,444.123565,7920.203579
2670.645005,842.705048,148.041188,7698.141797
2670.645334,0.000000,-148.041188,8734.430116
2670.645663,-1072.533697,-666.185348,9400.615463
2670.645992,-1378.971896,-962.267725,9992.780217
2670.646321,-1991.848295,-1776.494261,9992.780217
2670.646650,-1072.533697,-370.102971,9474.636058
2670.646979,-612.876398,-592.164754,9104.533087
2670.647307,-1149.143247,-888.247130,9326.594869
2670.647636,-1455.581446,-2368.659014,10955.047942
2670.647965,-1608.800546,-1554.432478,10955.047942
2670.648294,0.000000,-0.000000,9326.594869
2670.648623,612.876398,444.123565,9178.553681
2670.648952,1378.971896,370.102971,8512.368333
2670.649281,3294.210641,1850.514855,8142.265362
2670.649610,3294.210641,1480.411884,6883.915261
2670.649939,3217.601092,1258.350101,6957.935855
2670.650268,2374.896044,814.226536,6661.853478
2670.650597,1149.143247,296.082377,8364.327145
2670.650926,0.000000,148.041188,9400.615463
2670.651255,-1149.143247,-888.247130,9548.656652
2670.651584,-2451.505594,-1480.411884,10214.842000
2670.651913,-2068.457845,-1036.288319,10881.027347
2670.652242,-766.095498,-1850.514855,9992.780217
2670.652571,-306.438199,-222.061783,8956.491898
2670.652900,-612.876398,-1406.391290,10807.006753
2670.653229,-995.924147,-962.267725,10732.986159
2670.653558,-689.485948,-222.061783,10658.965565
2670.653887,76.609550,-518.144159,9696.697840
2670.654215,689.485948,370.102971,9030.512492
2670.654544,1455.581446,1184.329507,8290.306550
2670.654873,2604.724693,1554.432478,8512.368333
2670.655202,3907.087040,1184.329507,7846.182985
2670.655531,2757.943793,1332.370696,7105.977043
2670.655860,1685.410096,814.226536,8364.327145
2670.656189,76.609550,666.185348,8808.450710
2670.656518,-306.438199,-370.102971,9326.594869
2670.656847,-1072.533697,-888.247130,9474.636058
2670.657176,-1991.848295,-740.205942,10362.883188
2670.657505,-459.657299,-1110.308913,10066.800811
2670.657834,-842.705048,-814.226536,9400.615463
2670.658163,-306.438199,-1332.370696,9622.677246
2670.658492,-459.657299,-1258.350101,10362.883188
2670.658821,-766.095498,-962.267725,9992.780217
2670.659150,612.876398,-74.020594,9326.594869
2670.659479,1455.581446,-296.082377,9474.636058
2670.659808,459.657299,592.164754,8290.306550
2670.660137,2068.457845,740.205942,8364.327145
2670.660466,2834.553343,1406.391290,7772.162391
2670.660794,2221.676944,1406.391290,7105.977043
2670.661123,1685.410096,-592.164754,8142.265362
2670.661452,995.924147,-740.205942,8438.347739
2670.661781,842.705048,-296.082377,8438.347739
2670.662110,-229.828649,-1110.308913,7476.080014
2670.662439,-1455.581446,-962.267725,9696.697840
2670.662768,-919.314598,-1036.288319,9992.780217
2670.663097,0.000000,-222.061783,8364.327145
2670.663426,-689.485948,-1406.391290,9474.636058
2670.663755,0.000000,-2368.659014,10214.842000
2670.664084,0.000000,-518.144159,10510.924376
2670.664413,383.047749,-1628.453072,10288.862594
2670.664742,459.657299,592.164754,8438.347739
2670.665071,766.095498,296.082377,9992.780217
2670.665400,766.095498,814.226536,8512.368333
2670.665729,1915.238745,1554.432478,8216.285956
2670.666058,2145.067394,518.144159,7402.059420
2670.666387,1608.800546,-296.082377,7476.080014
2670.666716,919.314598,-0.000000,9696.697840
2670.667045,0.000000,-814.226536,8586.388927
2670.667373,0.000000,-148.041188,8660.409521
2670.667702,-1072.533697,-814.226536,9474.636058
2670.668031,-995.924147,-0.000000,9474.636058
2670.668360,-536.266849,-0.000000,9178.553681
2670.668689,153.219100,-222.061783,9030.512492
2670.669018,-612.876398,-444.123565,9326.594869
2670.669347,-612.876398,-962.267725,10510.924376
2670.669676,-383.047749,-666.185348,9992.780217
2670.670005,0.000000,-0.000000,9622.677246
2670.670334,-766.095498,-74.020594,9992.780217
2670.670663,-536.266849,-222.061783,9548.656652
2670.670992,-459.657299,74.020594,9474.636058
2670.671321,1685.410096,-0.000000,8290.306550
2670.671650,1532.190996,592.164754,7179.997637
2670.671979,1302.362347,-222.061783,9400.615463
2670.672308,1378.971896,518.144159,7772.162391
2670.672637,1685.410096,962.267725,7550.100608
2670.672966,1149.143247,-0.000000,8586.388927
2670.673295,-689.485948,296.082377,8882.471304
2670.673624,-229.828649,-370.102971,9696.697840
2670.673953,-229.828649,-740.205942,8808.450710
2670.674281,-383.047749,-962.267725,9474.636058
2670.674610,-1378.971896,-1702.473667,10214.842000
2670.674939,-842.705048,-962.267725,10214.842000
2670.675268,153.219100,-1258.350101,10140.821405
2670.675597,76.609550,370.102971,8956.491898
2670.675926,612.876398,370.102971,9252.574275
2670.676255,1072.533697,444.123565,9252.574275
2670.676584,2681.334243,1924.535449,7624.121203
2670.676913,2451.505594,1332.370696,6809.894666
2670.677242,1838.629195,-0.000000,9030.512492
2670.677571,995.924147,370.102971,9400.615463
2670.677900,1378.971896,296.082377,9178.553681
2670.678229,229.828649,-666.185348,8364.327145
2670.678558,-1149.143247,-0.000000,9696.697840
2670.678887,-1149.143247,-888.247130,11103.089130
2670.679216,-1378.971896,-666.185348,9622.677246
2670.679545,-536.266849,-222.061783,7994.224174
2670.679874,-383.047749,-444.123565,10288.862594
2670.680203,-766.095498,-1258.350101,10214.842000
2670.680532,0.000000,-592.164754,9918.759623
2670.680860,1302.362347,-0.000000,9326.594869
2670.681189,919.314598,296.082377,8216.285956
2670.681518,2068.457845,740.205942,8956.491898
2670.681847,2068.457845,1184.329507,7402.059420
2670.682176,2298.286494,1258.350101,7476.080014
2670.682505,2451.505594,518.144159,8438.347739
2670.682834,1072.533697,296.082377,7772.162391
2670.683163,-229.828649,-296.082377,9104.533087
2670.683492,-995.924147,-1036.288319,8512.368333
2670.683821,-1685.410096,-1406.391290,9252.574275
2670.684150,-1915.238745,-1332.370696,9770.718434
2670.684479,-536.266849,-666.185348,8882.471304
2670.684808,-842.705048,-1184.329507,9104.533087
2670.685137,-1608.800546,-1702.473667,9326.594869
2670.685466,-842.705048,-1332.370696,10362.883188
2670.685795,-1455.581446,-1332.370696,9918.759623
2670.686124,0.000000,-1628.453072,9770.718434
2670.686453,459.657299,-666.185348,9178.553681
2670.686782,76.609550,-74.020594,10362.883188
2670.687111,1915.238745,-0.000000,9326.594869
2670.687439,2911.162892,814.226536,7254.018232
2670.687768,3447.429741,888.247130,7550.100608
2670.688097,2757.943793,962.267725,8142.265362
2670.688426,2451.505594,1036.288319,8290.306550
2670.688755,1838.629195,1036.288319,7254.018232
2670.689084,1225.752797,-0.000000,7476.080014
2670.689413,-689.485948,-518.144159,10140.821405
2670.689742,-1455.581446,-1110.308913,9844.739029
2670.690071,-1149.143247,-1480.411884,10362.883188
2670.690400,-459.657299,-1110.308913,9252.574275
2670.690729,-306.438199,-1480.411884,9992.780217
2670.691058,-919.314598,-1554.432478,10362.883188
2670.691387,229.828649,-296.082377,10807.006753
2670.691716,459.657299,-740.205942,9474.636058
2670.692045,459.657299,-0.000000,9696.697840
2670.692374,1072.533697,1110.308913,9548.656652
2670.692703,2221.676944,1480.411884,7698.141797
2670.693032,3370.820191,1998.556043,6735.874072
2670.693361,2451.505594,1554.432478,7624.121203
2670.693690,2374.896044,592.164754,8586.388927
2670.694019,919.314598,-0.000000,8142.265362
2670.694347,-76.609550,-814.226536,8512.368333
2670.694676,-1225.752797,-1480.411884,9474.636058
2670.695005,-2451.505594,-1258.350101,10066.800811
2670.695334,-1532.190996,-962.267725,9178.553681
2670.695663,-689.485948,-1036.288319,8882.471304
2670.695992,-1762.019645,-962.267725,9474.636058
2670.696321,-1532.190996,-1702.473667,9992.780217
2670.696650,-612.876398,-666.185348,9992.780217
2670.696979,-306.438199,-740.205942,9770.718434
2670.697308,0.000000,-0.000000,9030.512492
2670.697637,-536.266849,-148.041188,9696.697840
2670.697966,842.705048,666.185348,9400.615463
2670.698295,2451.505594,962.267725,7254.018232
2670.698624,3064.381992,1406.391290,6957.935855
2670.698953,1991.848295,888.247130,7624.121203
2670.699282,1762.019645,296.082377,7994.224174
2670.699611,1302.362347,-0.000000,8068.244768
2670.699940,0.000000,296.082377,7476.080014
2670.700269,-1225.752797,-1036.288319,9400.615463
2670.700598,-1608.800546,-962.267725,9992.780217
2670.700926,-1762.019645,-888.247130,9326.594869
2670.701255,-229.828649,-1924.535449,9474.636058
2670.701584,-842.705048,-1628.453072,9844.739029
2670.701913,-842.705048,-1776.494261,10732.986159
2670.702242,-383.047749,-148.041188,10140.821405
2670.702571,-383.047749,-222.061783,9844.739029
2670.702900,-229.828649,222.061783,9326.594869
2670.703229,1608.800546,296.082377,8956.491898
2670.703558,2374.896044,1702.473667,7624.121203
2670.703887,3830.477490,1406.391290,7105.977043
2670.704216,2911.162892,1258.350101,7031.956449
2670.704545,2528.115143,1110.308913,8512.368333
2670.704874,1915.238745,1110.308913,7254.018232
2670.705203,612.876398,-148.041188,8290.306550
2670.705532,-1225.752797,-1406.391290,9696.697840
2670.705861,-1915.238745,-1110.308913,11029.068536
2670.706190,-1838.629195,-1406.391290,10584.944971
2670.706519,-842.705048,-666.185348,9178.553681
2670.706848,-995.924147,-1776.494261,10658.965565
2670.707177,-1378.971896,-1110.308913,10066.800811
2670.707505,-689.485948,-592.164754,10955.047942
2670.707834,0.000000,-370.102971,9918.759623
2670.708163,0.000000,-0.000000,9844.739029
2670.708492,919.314598,740.205942,9622.677246
2670.708821,2221.676944,1554.432478,8512.368333
2670.709150,2681.334243,1776.494261,7550.100608
2670.709479,2528.115143,1258.350101,7698.141797
2670.709808,1762.019645,1332.370696,8512.368333
2670.710137,995.924147,370.102971,8512.368333
2670.710466,766.095498,444.123565,8438.347739
2670.710795,-1072.533697,-666.185348,10288.862594
2670.711124,-2298.286494,-1850.514855,11177.109724
2670.711453,-2145.067394,-666.185348,10510.924376
2670.711782,-1685.410096,-1406.391290,8882.471304
2670.712111,-1225.752797,-1406.391290,9918.759623
2670.712440,-1838.629195,-1036.288319,10510.924376
2670.712769,-689.485948,-740.205942,10584.944971
2670.713098,-536.266849,-962.267725,9326.594869
2670.713427,459.657299,-74.020594,9474.636058
2670.713756,459.657299,-222.061783,9918.759623
2670.714085,1915.238745,814.226536,7846.182985
2670.714413,3370.820191,1184.329507,7402.059420
2670.714742,3447.429741,1924.535449,5847.626942
2670.715071,3524.039291,1036.288319,7105.977043
2670.715400,3064.381992,666.185348,7846.182985
2670.715729,2068.457845,740.205942,7179.997637
2670.716058,995.924147,-740.205942,8216.285956
2670.716387,-1072.533697,-1924.535449,9474.636058
2670.716716,-1838.629195,-1110.308913,9474.636058
2670.717045,-1302.362347,-2516.700203,10881.027347
2670.717374,-1149.143247,-1184.329507,9030.512492
2670.717703,-919.314598,-2146.597232,10214.842000
2670.718032,-1149.143247,-1406.391290,10362.883188
2670.718361,-306.438199,-296.082377,10140.821405
2670.718690,0.000000,-296.082377,9992.780217
2670.719019,766.095498,518.144159,9474.636058
2670.719348,842.705048,2072.576638,7476.080014
2670.719677,3907.087040,1480.411884,8882.471304
2670.720006,3983.696590,1110.308913,6217.729913
2670.720335,2681.334243,1258.350101,7920.203579
2670.720664,2221.676944,-296.082377,9474.636058
2670.720992,1149.143247,444.123565,7402.059420
2670.721321,0.000000,-1184.329507,9030.512492
2670.721650,-1378.971896,-1110.308913,9992.780217
2670.721979,-2987.772442,-2516.700203,11473.192101
2670.722308,-2451.505594,-1258.350101,10362.883188
2670.722637,-766.095498,-0.000000,8512.368333
2670.722966,-1685.410096,-740.205942,10362.883188
2670.723295,-2068.457845,-814.226536,10362.883188
2670.723624,-995.924147,-0.000000,11103.089130
2670.723953,-1532.190996,-518.144159,10362.883188
2670.724282,-612.876398,1184.329507,8586.388927
2670.724611,-536.266849,-0.000000,10362.883188
2670.724940,459.657299,222.061783,9474.636058
2670.725269,1302.362347,1258.350101,7402.059420
2670.725598,2528.115143,222.061783,7772.162391
2670.725927,995.924147,814.226536,8142.265362
2670.726256,1532.190996,592.164754,8364.327145
2670.726585,1762.019645,1406.391290,8068.244768
2670.726914,0.000000,-296.082377,7994.224174
2670.727243,-1762.019645,-666.185348,9844.739029
2670.727571,-1762.019645,-74.020594,9696.697840
2670.727900,-919.314598,-370.102971,9474.636058
2670.728229,-1225.752797,-1258.350101,9326.594869
2670.728558,-995.924147,-1406.391290,9696.697840
2670.728887,-306.438199,-1406.391290,10732.986159
2670.729216,0.000000,-1258.350101,9992.780217
2670.729545,536.266849,-74.020594,9030.512492
2670.729874,1072.533697,-666.185348,9400.615463
2670.730203,2298.286494,592.164754,7994.224174
2670.730532,3677.258390,1702.473667,7698.141797
2670.730861,3907.087040,592.164754,6957.935855
2670.731190,3983.696590,962.267725,7254.018232
2670.731519,2757.943793,962.267725,8734.430116
2670.731848,2604.724693,222.061783,7994.224174
2670.732177,1225.752797,-148.041188,7994.224174
2670.732506,-689.485948,-1258.350101,9770.718434
2670.732835,-1302.362347,-1258.350101,10362.883188
2670.733163,-1608.800546,-1628.453072,10140.821405
2670.733492,-1532.190996,-1480.411884,9548.656652
2670.733821,-689.485948,-1332.370696,9474.636058
2670.734150,-766.095498,-1850.514855,10584.944971
2670.734479,-536.266849,-1036.288319,9622.677246
2670.734808,842.705048,-888.247130,9992.780217
2670.735137,1378.971896,-0.000000,8808.450710
2670.735466,2068.457845,1110.308913,8956.491898
2670.735795,3447.429741,1554.432478,7402.059420
2670.736124,2911.162892,2220.617826,7031.956449
2670.736453,2604.724693,1850.514855,7772.162391
2670.736782,1915.238745,1258.350101,7624.121203
2670.737111,1455.581446,518.144159,8660.409521
2670.737440,0.000000,-74.020594,8216.285956
2670.737768,-1149.143247,-296.082377,9770.718434
2670.738097,-2374.896044,-2072.576638,11251.130318
2670.738426,-1455.581446,-1702.473667,9622.677246
2670.738755,-1455.581446,-814.226536,9252.574275
2670.739084,-1378.971896,-1258.350101,9474.636058
2670.739413,-1608.800546,-1480.411884,9992.780217
2670.739742,-1378.971896,-1554.432478,9622.677246
2670.740071,-306.438199,-1406.391290,10140.821405
2670.740400,-842.705048,-814.226536,9474.636058
2670.740729,-1149.143247,-518.144159,9696.697840
2670.741058,459.657299,-148.041188,10066.800811
2670.741387,1762.019645,-0.000000,7994.224174
2670.741716,3370.820191,1110.308913,7698.141797
2670.742045,3294.210641,1036.288319,7031.956449
2670.742373,2451.505594,1554.432478,7476.080014
2670.742702,2145.067394,1554.432478,7920.203579
2670.743031,1149.143247,1480.411884,8068.244768
2670.743360,-459.657299,-222.061783,9696.697840
2670.743689,-1532.190996,-222.061783,10066.800811
2670.744018,-1608.800546,-1628.453072,9918.759623
2670.744347,-1302.362347,-2368.659014,10436.903782
2670.744676,-459.657299,-1998.556043,9844.739029
2670.745005,-1072.533697,-2812.782580,11029.068536
2670.745334,-612.876398,-2072.576638,10436.903782
2670.745663,0.000000,-74.020594,9622.677246
2670.745992,0.000000,-222.061783,9474.636058
2670.746321,1149.143247,296.082377,9844.739029
2670.746650,2221.676944,1554.432478,8882.471304
2670.746978,3983.696590,2220.617826,7031.956449
2670.747307,4136.915689,2442.679609,7105.977043
2670.747636,3907.087040,2072.576638,7254.018232
2670.747965,3294.210641,1702.473667,7550.100608
2670.748294,1685.410096,592.164754,7254.018232
2670.748623,0.000000,-518.144159,8364.327145
2670.748952,-1072.533697,-962.267725,9844.739029
2670.749281,-1915.238745,-2072.576638,10584.944971
2670.749610,-842.705048,-1184.329507,8956.491898
2670.749939,-1225.752797,-1776.494261,9252.574275
2670.750268,-1838.629195,-1924.535449,10955.047942
2670.750597,-1685.410096,-1702.473667,10362.883188
2670.750926,-536.266849,-0.000000,9548.656652
2670.751255,-306.438199,-444.123565,9326.594869
2670.751583,0.000000,370.102971,9770.718434
2670.751912,76.609550,-0.000000,10140.821405
2670.752241,919.314598,518.144159,8216.285956
2670.752570,2221.676944,1332.370696,7031.956449
2670.752899,2374.896044,1036.288319,8512.368333
2670.753228,2528.115143,1184.329507,6809.894666
2670.753557,2528.115143,740.205942,7772.162391
2670.753886,1072.533697,296.082377,8068.244768
2670.754215,0.000000,-444.123565,8660.409521
2670.754544,-995.924147,-1110.308913,9696.697840
2670.754873,-1838.629195,-888.247130,9696.697840
2670.755202,-1225.752797,-1924.535449,9918.759623
2670.755531,-1915.238745,-2960.823768,10288.862594
2670.755860,-1532.190996,-1628.453072,11251.130318
2670.756188,-919.314598,-1258.350101,10436.903782
2670.756517,-306.438199,-0.000000,9770.718434
2670.756846,-459.657299,444.123565,9696.697840
2670.757175,229.828649,740.205942,10140.821405
2670.757504,1455.581446,444.123565,9104.533087
2670.757833,2604.724693,740.205942,7031.956449
2670.758162,3524.039291,148.041188,8142.265362
2670.758491,2451.505594,1110.308913,7402.059420
2670.758820,2298.286494,1258.350101,8068.244768
2670.759149,1685.410096,740.205942,7254.018232
2670.759478,459.657299,1184.329507,8290.306550
2670.759807,-612.876398,222.061783,9178.553681
2670.760136,229.828649,-888.247130,8216.285956
2670.760465,-1225.752797,-740.205942,8586.388927
2670.760794,-2451.505594,-1776.494261,11103.089130
2670.761122,-766.095498,-3330.926739,11029.068536
2670.761451,-2298.286494,-1406.391290,9474.636058
2670.761780,-842.705048,148.041188,8364.327145
2670.762109,153.219100,-148.041188,10214.842000
2670.762438,-689.485948,-296.082377,9548.656652
2670.762767,1455.581446,1924.535449,8956.491898
2670.763096,2221.676944,518.144159,7920.203579
2670.763425,1072.533697,666.185348,7698.141797
2670.763754,2451.505594,-0.000000,8882.471304
2670.764083,1838.629195,592.164754,7624.121203
2670.764412,842.705048,592.164754,7402.059420
2670.764741,919.314598,-0.000000,8512.368333
2670.765070,-766.095498,-296.082377,8956.491898
2670.765399,-1991.848295,-814.226536,9918.759623
2670.765727,-689.485948,-814.226536,9770.718434
2670.766056,-2221.676944,-1110.308913,9548.656652
2670.766385,-2221.676944,-2072.576638,11251.130318
2670.766714,-2221.676944,-2220.617826,11251.130318
2670.767043,-1455.581446,-888.247130,10214.842000
2670.767372,-1455.581446,-666.185348,9696.697840
2670.767701,0.000000,-740.205942,9474.636058
2670.768030,76.609550,-222.061783,9400.615463
2670.768359,1225.752797,518.144159,8512.368333
2670.768688,3140.991542,-0.000000,7550.100608
2670.769017,3830.477490,814.226536,6957.935855
2670.769346,3907.087040,1332.370696,6439.791695
2670.769675,3753.867940,2516.700203,6809.894666
2670.770004,2374.896044,-0.000000,7402.059420
2670.770332,919.314598,1332.370696,7994.224174
2670.770661,689.485948,148.041188,9400.615463
2670.770990,-306.438199,-296.082377,9400.615463
2670.771319,-1608.800546,-1628.453072,9770.718434
2670.771648,-1608.800546,-2368.659014,11547.212695
2670.771977,-1915.238745,-2812.782580,10584.944971
2670.772306,-383.047749,-1036.288319,11177.109724
2670.772635,-153.219100,-1110.308913,10140.821405
2670.772964,766.095498,-0.000000,9474.636058
2670.773293,536.266849,592.164754,9548.656652
2670.773622,2604.724693,1702.473667,8142.265362
2670.773951,3294.210641,1702.473667,7328.038826
2670.774280,2987.772442,962.267725,7772.162391
2670.774609,2834.553343,888.247130,8660.409521
2670.774937,1915.238745,888.247130,8142.265362
2670.775266,1072.533697,370.102971,8512.368333
2670.775595,-536.266849,-444.123565,9918.759623
2670.775924,-1455.581446,-666.185348,10881.027347
2670.776253,-1915.238745,-962.267725,10510.924376
2670.776582,-1378.971896,-518.144159,9326.594869
2670.776911,-919.314598,-1332.370696,9622.677246
2670.777240,-1838.629195,-1332.370696,10362.883188
2670.777569,-1685.410096,-518.144159,10362.883188
2670.777898,-383.047749,-148.041188,10140.821405
2670.778227,-612.876398,-518.144159,8956.491898
2670.778556,0.000000,-74.020594,9992.780217
2670.778885,76.609550,888.247130,8882.471304
2670.779214,612.876398,370.102971,8364.327145
2670.779542,1149.143247,222.061783,8512.368333
2670.779871,1455.581446,-0.000000,8142.265362
2670.780200,689.485948,592.164754,9104.533087
2670.780529,766.095498,962.267725,8068.244768
2670.780858,153.219100,296.082377,7994.224174
2670.781187,-536.266849,370.102971,9178.553681
2670.781516,-1378.971896,-814.226536,9696.697840
2670.781845,-919.314598,-1258.350101,9548.656652
2670.782174,0.000000,-1776.494261,8956.491898
2670.782503,-766.095498,-1924.535449,9770.718434
2670.782832,-919.314598,-1628.453072,10436.903782
2670.783161,76.609550,-740.205942,9400.615463
2670.783490,842.705048,-148.041188,8512.368333
2670.783819,1608.800546,592.164754,8734.430116
2670.784147,1991.848295,-0.000000,8586.388927
2670.784476,2681.334243,1036.288319,8438.347739
2670.784805,3140.991542,1110.308913,7476.080014
2670.785134,2451.505594,370.102971,8290.306550
2670.785463,1455.581446,-296.082377,8512.368333
2670.785792,1532.190996,-148.041188,8808.450710
2670.786121,536.266849,-444.123565,8734.430116
2670.786450,0.000000,-592.164754,9104.533087
2670.786779,-612.876398,-1258.350101,9770.718434
2670.787108,-689.485948,-962.267725,9844.739029
2670.787437,-153.219100,-888.247130,8808.450710
2670.787766,-459.657299,-1480.411884,9104.533087
2670.788095,-536.266849,-1776.494261,10214.842000
2670.788424,229.828649,-740.205942,9696.697840
2670.788752,1532.190996,-296.082377,8734.430116
2670.789081,1149.143247,-148.041188,8660.409521
2670.789410,1762.019645,-0.000000,9400.615463
2670.789739,1302.362347,1184.329507,8734.430116
2670.790068,1225.752797,1554.432478,8216.285956
2670.790397,1072.533697,740.205942,8438.347739
2670.790726,383.047749,666.185348,8956.491898
2670.791055,0.000000,-222.061783,9770.718434
2670.791384,-1225.752797,-0.000000,8438.347739
2670.791713,-1378.971896,-1110.308913,9030.512492
2670.792042,-1608.800546,-74.020594,9474.636058
2670.792371,-1915.238745,-0.000000,9992.780217
2670.792700,-919.314598,-0.000000,9178.553681
2670.793029,-766.095498,-222.061783,8882.471304
2670.793357,-1149.143247,-1776.494261,10214.842000
2670.793686,-536.266849,-1036.288319,10362.883188
2670.794015,0.000000,-74.020594,9696.697840
2670.794344,612.876398,592.164754,8660.409521
2670.794673,766.095498,370.102971,9178.553681
2670.795002,1302.362347,1036.288319,9104.533087
2670.795331,1532.190996,592.164754,8290.306550
2670.795660,1762.019645,222.061783,7772.162391
2670.795989,1608.800546,-444.123565,8586.388927
2670.796318,842.705048,-370.102971,8364.327145
2670.796647,0.000000,-444.123565,8438.347739
2670.796976,-383.047749,-1110.308913,9030.512492
2670.797305,-1149.143247,-444.123565,8734.430116
2670.797634,-1915.238745,-962.267725,9474.636058
2670.797962,612.876398,-1110.308913,9622.677246
2670.798291,766.095498,-74.020594,8512.368333
2670.798620,-919.314598,-1702.473667,10807.006753
2670.798949,306.438199,-2368.659014,11177.109724
2670.799278,459.657299,-592.164754,9104.533087
2670.799607,1838.629195,-74.020594,8438.347739
2670.799936,2757.943793,1036.288319,8290.306550
2670.800265,1455.581446,-296.082377,8586.388927
2670.800594,2681.334243,2072.576638,8586.388927
2670.800923,3524.039291,814.226536,7105.977043
2670.801252,842.705048,444.123565,6735.874072
2670.801581,1762.019645,-444.123565,9178.553681
2670.801910,766.095498,-74.020594,8808.450710
2670.802239,-383.047749,-740.205942,8142.265362
2670.802567,-459.657299,-296.082377,8512.368333
2670.802896,-1838.629195,-1184.329507,10214.842000
2670.803225,-1608.800546,-592.164754,10362.883188
2670.803554,-1762.019645,-0.000000,8660.409521
2670.803883,-766.095498,-962.267725,9696.697840
2670.804212,-1302.362347,-814.226536,10214.842000
2670.804541,-536.266849,222.061783,9178.553681
2670.804870,536.266849,222.061783,9770.718434
2670.805199,1149.143247,-222.061783,8290.306550
2670.805528,306.438199,1480.411884,9030.512492
2670.805857,1991.848295,-0.000000,9178.553681
2670.806186,1762.019645,2072.576638,7402.059420
2670.806515,2145.067394,1110.308913,8142.265362
2670.806844,612.876398,-0.000000,8142.265362
2670.807172,536.266849,-0.000000,9252.574275
2670.807501,-383.047749,-814.226536,9548.656652
2670.807830,-536.266849,-0.000000,7920.203579
2670.808159,-1532.190996,-962.267725,10658.965565
2670.808488,-1838.629195,-1332.370696,10881.027347
2670.808817,-1685.410096,-518.144159,9622.677246
2670.809146,-919.314598,-1554.432478,10066.800811
2670.809475,-1225.752797,-1776.494261,9474.636058
2670.809804,-766.095498,-1406.391290,10510.924376
2670.810133,153.219100,-814.226536,9844.739029
2670.810462,2757.943793,814.226536,7920.203579
2670.810791,2451.505594,592.164754,8290.306550
2670.811120,2681.334243,962.267725,8512.368333
2670.811449,2681.334243,2220.617826,7994.224174
2670.811777,2604.724693,2072.576638,7550.100608
2670.812106,2145.067394,296.082377,8290.306550
2670.812435,766.095498,-0.000000,9178.553681
2670.812764,0.000000,74.020594,9400.615463
2670.813093,-536.266849,-814.226536,8956.491898
2670.813422,-1532.190996,-1258.350101,9992.780217
2670.813751,-1685.410096,-1110.308913,10066.800811
2670.814080,-1685.410096,-444.123565,10066.800811
2670.814409,-995.924147,-1036.288319,9474.636058
2670.814738,-1149.143247,-444.123565,8956.491898
2670.815067,-766.095498,-1036.288319,10288.862594
2670.815396,229.828649,-518.144159,10288.862594
2670.815725,1225.752797,814.226536,8142.265362
2670.816054,2451.505594,888.247130,8734.430116
2670.816382,2374.896044,1554.432478,7846.182985
2670.816711,2221.676944,2146.597232,8142.265362
2670.817040,2987.772442,1776.494261,7994.224174
2670.817369,2681.334243,1332.370696,7476.080014
2670.817698,306.438199,-0.000000,9474.636058
2670.818027,0.000000,-296.082377,9326.594869
2670.818356,-1302.362347,-888.247130,9400.615463
2670.818685,-2068.457845,-888.247130,9548.656652
2670.819014,-2298.286494,-1332.370696,10140.821405
2670.819343,-2604.724693,-888.247130,10510.924376
2670.819672,-1762.019645,-1036.288319,10066.800811
2670.820001,-995.924147,-1110.308913,9178.553681
2670.820330,-1302.362347,-1702.473667,10362.883188
2670.820659,-1838.629195,-1628.453072,10214.842000
2670.820987,-689.485948,-1332.370696,10584.944971
2670.821316,995.924147,-666.185348,9326.594869
2670.821645,1608.800546,148.041188,8438.347739
2670.821974,1915.238745,222.061783,8364.327145
2670.822303,3294.210641,1406.391290,7476.080014
2670.822632,4366.744339,1184.329507,6809.894666
2670.822961,2987.772442,1628.453072,6957.935855
2670.823290,1991.848295,518.144159,8068.244768
2670.823619,536.266849,-0.000000,8956.491898
2670.823948,-766.095498,-1406.391290,8512.368333
2670.824277,-1302.362347,-1554.432478,10140.821405
2670.824606,-2834.553343,-814.226536,10584.944971
2670.824935,-689.485948,-2146.597232,10140.821405
2670.825264,-612.876398,-740.205942,9030.512492
2670.825592,-612.876398,-1554.432478,9252.574275
2670.825921,-689.485948,-1776.494261,10214.842000
2670.826250,995.924147,-1850.514855,10436.903782
2670.826579,2987.772442,1184.329507,8216.285956
2670.826908,3677.258390,1332.370696,8438.347739
2670.827237,3830.477490,1628.453072,7550.100608
2670.827566,3830.477490,1850.514855,8216.285956
2670.827895,4136.915689,2738.761985,6957.935855
2670.828224,3600.648841,1702.473667,6661.853478
2670.828553,1532.190996,-0.000000,8734.430116
2670.828882,536.266849,666.185348,8808.450710
2670.829211,-842.705048,-962.267725,9918.759623
2670.829540,-2451.505594,-1850.514855,9548.656652
2670.829869,-2757.943793,-1924.535449,11991.336260
2670.830197,-2681.334243,-1924.535449,9844.739029
2670.830526,-1915.238745,-888.247130,10362.883188
2670.830855,-1991.848295,-1998.556043,10214.842000
2670.831184,-2068.457845,-1924.535449,11103.089130
2670.831513,-1838.629195,-518.144159,10732.986159
2670.831842,-1378.971896,-370.102971,10288.862594
2670.832171,689.485948,1184.329507,9474.636058
2670.832500,1532.190996,1258.350101,8290.306550
2670.832829,2757.943793,1628.453072,8068.244768
2670.833158,3907.087040,2368.659014,6587.832884
2670.833487,4519.963438,2220.617826,6291.750507
2670.833816,2221.676944,2072.576638,7179.997637
2670.834145,1532.190996,962.267725,8068.244768
2670.834474,-383.047749,-148.041188,8438.347739
2670.834803,-1915.238745,-814.226536,9030.512492
2670.835132,-3140.991542,-1628.453072,9992.780217
2670.835461,-3217.601092,-2368.659014,11473.192101
2670.835790,-2451.505594,-2072.576638,9696.697840
2670.836119,-1532.190996,-2516.700203,9474.636058
2670.836448,-2145.067394,-1850.514855,9844.739029
2670.836777,-1991.848295,-962.267725,9918.759623
2670.837105,-612.876398,-1184.329507,10584.944971
2670.837434,766.095498,-0.000000,9992.780217
2670.837763,1838.629195,1184.329507,7920.203579
2670.838092,3677.258390,1258.350101,8142.265362
2670.838421,3370.820191,2146.597232,6143.709319
2670.838750,6052.154434,2146.597232,6661.853478
2670.839079,5362.668486,1480.411884,6291.750507
2670.839408,2604.724693,1406.391290,7402.059420
2670.839737,1991.848295,-814.226536,10140.821405
2670.840066,-306.438199,-0.000000,7624.121203
2670.840395,-2298.286494,-2220.617826,9474.636058
2670.840724,-3140.991542,-2368.659014,11769.274478
2670.841053,-2451.505594,-3182.885551,11399.171507
2670.841382,-1762.019645,-1776.494261,10362.883188
2670.841711,-689.485948,-1702.473667,8956.491898
2670.842040,-1991.848295,-1406.391290,9770.718434
2670.842369,0.000000,-1924.535449,12065.356855
2670.842698,1685.410096,814.226536,8364.327145
2670.843027,3140.991542,1850.514855,8216.285956
2670.843356,2987.772442,1702.473667,7920.203579
2670.843685,3677.258390,2738.761985,7920.203579
2670.844014,4136.915689,1924.535449,7624.121203
2670.844343,2834.553343,1480.411884,6143.709319
2670.844672,2298.286494,-444.123565,8290.306550
2670.845001,0.000000,-296.082377,9548.656652
2670.845330,-995.924147,-296.082377,9178.553681
2670.845659,-2604.724693,-1554.432478,10066.800811
2670.845988,-2451.505594,-2368.659014,11251.130318
2670.846316,-2757.943793,-1110.308913,9918.759623
2670.846645,-1915.238745,-1036.288319,10140.821405
2670.846974,-1915.238745,-888.247130,8734.430116
2670.847303,-1915.238745,-1702.473667,9770.718434
2670.847632,-1378.971896,-888.247130,10066.800811
2670.847961,-1149.143247,-0.000000,9696.697840
2670.848290,76.609550,-962.267725,10362.883188
2670.848619,995.924147,-0.000000,9178.553681
2670.848948,2451.505594,1258.350101,7772.162391
2670.849277,2911.162892,1702.473667,7254.018232
2670.849606,3217.601092,1480.411884,6661.853478
2670.849935,3370.820191,1332.370696,7105.977043
2670.850264,2834.553343,740.205942,7772.162391
2670.850593,1455.581446,1110.308913,7772.162391
2670.850922,383.047749,-740.205942,8660.409521
2670.851251,-1378.971896,-1036.288319,9326.594869
2670.851580,-2221.676944,-1628.453072,11103.089130
2670.851909,-1991.848295,-2294.638420,10584.944971
2670.852238,-1149.143247,-2220.617826,9548.656652
2670.852567,-1532.190996,-1924.535449,10288.862594
2670.852896,-1685.410096,-2146.597232,10584.944971
2670.853225,76.609550,-1702.473667,10584.944971
2670.853554,1608.800546,-0.000000,9770.718434
2670.853883,2604.724693,1776.494261,8290.306550
2670.854212,3294.210641,1258.350101,7994.224174
2670.854541,3447.429741,1702.473667,7920.203579
2670.854870,4136.915689,2220.617826,8216.285956
2670.855198,4290.134789,1406.391290,7105.977043
2670.855527,2298.286494,962.267725,7846.182985
2670.855856,1532.190996,-0.000000,9474.636058
2670.856185,229.828649,-370.102971,9178.553681
2670.856514,-1685.410096,-814.226536,9400.615463
2670.856843,-2681.334243,-2146.597232,11177.109724
2670.857172,-2604.724693,-2220.617826,10658.965565
2670.857501,-1378.971896,-592.164754,9844.739029
2670.857830,-1072.533697,-1258.350101,9178.553681
2670.858159,-1608.800546,-1258.350101,10066.800811
2670.858488,-1762.019645,-1406.391290,10732.986159
2670.858817,0.000000,-0.000000,10214.842000
2670.859146,689.485948,296.082377,8808.450710
2670.859475,1455.581446,518.144159,8068.244768
2670.859804,2911.162892,2072.576638,7550.100608
2670.860133,2298.286494,1998.556043,8142.265362
2670.860462,3140.991542,1702.473667,7105.977043
2670.860791,2451.505594,1480.411884,7254.018232
2670.861120,919.314598,296.082377,9326.594869
2670.861449,229.828649,888.247130,8438.347739
2670.861778,-1072.533697,-592.164754,8956.491898
2670.862107,-3140.991542,-592.164754,10584.944971
2670.862436,-2221.676944,-1332.370696,11103.089130
2670.862765,-2298.286494,-1628.453072,9696.697840
2670.863094,-2068.457845,-1406.391290,9104.533087
2670.863423,-1608.800546,-2072.576638,10288.862594
2670.863752,-2374.896044,-2516.700203,10362.883188
2670.864081,-1991.848295,-1406.391290,10436.903782
2670.864409,76.609550,-1702.473667,10955.047942
2670.864738,1915.238745,-740.205942,9030.512492
2670.865067,2911.162892,1258.350101,7550.100608
2670.865396,4673.182538,1628.453072,7328.038826
2670.865725,5669.106685,2368.659014,6217.729913
2670.866054,5439.278036,1554.432478,6735.874072
2670.866383,4519.963438,2146.597232,7402.059420
2670.866712,4060.306139,1554.432478,7698.141797
2670.867041,1072.533697,592.164754,7254.018232
2670.867370,-306.438199,-518.144159,8660.409521
2670.867699,-2298.286494,-1850.514855,11251.130318
2670.868028,-3217.601092,-2886.803174,11029.068536
2670.868357,-2374.896044,-2960.823768,10362.883188
2670.868686,-1991.848295,-2368.659014,9178.553681
2670.869015,-1532.190996,-2590.720797,11177.109724
2670.869344,-2374.896044,-1702.473667,9844.739029
2670.869673,-842.705048,-592.164754,9770.718434
2670.870002,1302.362347,592.164754,10584.944971
2670.870331,2298.286494,1184.329507,7994.224174
2670.870660,3677.258390,2368.659014,7994.224174
2670.870989,3830.477490,2442.679609,7105.977043
2670.871318,4443.353888,2368.659014,6513.812290
2670.871647,3907.087040,2220.617826,6883.915261
2670.871976,2451.505594,2368.659014,7994.224174
2670.872305,1378.971896,666.185348,8586.388927
2670.872634,-995.924147,444.123565,8586.388927
2670.872963,-3524.039291,-1628.453072,9918.759623
2670.873292,-3370.820191,-1924.535449,11843.295072
2670.873620,-3447.429741,-2146.597232,10066.800811
2670.873949,-1991.848295,-1480.411884,10510.924376
2670.874278,-2068.457845,-1258.350101,9844.739029
2670.874607,-2451.505594,-962.267725,10955.047942
2670.874936,-2374.896044,-1554.432478,11325.150913
2670.875265,-536.266849,-74.020594,9992.780217
2670.875594,-306.438199,222.061783,10214.842000
2670.875923,995.924147,-296.082377,11325.150913
2670.876252,1532.190996,1406.391290,8290.306550
2670.876581,4673.182538,2368.659014,7476.080014
2670.876910,4443.353888,2072.576638,5995.668130
2670.877239,3907.087040,1776.494261,7402.059420
2670.877568,3064.381992,1850.514855,8216.285956
2670.877897,1455.581446,1850.514855,6661.853478
2670.878226,0.000000,-148.041188,8660.409521
2670.878555,-2528.115143,-1332.370696,10288.862594
2670.878884,-2987.772442,-3404.947333,10955.047942
2670.879213,-2145.067394,-3034.844362,10955.047942
2670.879542,-1838.629195,-2516.700203,8734.430116
2670.879871,-1762.019645,-3775.050304,10584.944971
2670.880200,-2374.896044,-1702.473667,10066.800811
2670.880529,-612.876398,-0.000000,10066.800811
2670.880858,76.609550,-1776.494261,9992.780217
2670.881187,1225.752797,296.082377,9030.512492
2670.881516,2911.162892,1776.494261,7328.038826
2670.881845,4826.401637,1480.411884,6735.874072
2670.882174,4136.915689,2072.576638,5921.647536
2670.882503,4366.744339,1554.432478,7105.977043
2670.882831,3830.477490,1184.329507,7254.018232
2670.883160,2911.162892,2442.679609,6365.771101
2670.883489,1149.143247,444.123565,7920.203579
2670.883818,-1608.800546,-444.123565,9326.594869
2670.884147,-3294.210641,-2294.638420,10881.027347
2670.884476,-2374.896044,-2590.720797,11103.089130
2670.884805,-2528.115143,-2368.659014,8882.471304
2670.885134,-2911.162892,-2960.823768,10732.986159
2670.885463,-2451.505594,-2072.576638,10436.903782
2670.885792,-1685.410096,-296.082377,10732.986159
2670.886121,-1225.752797,-888.247130,9992.780217
2670.886450,-459.657299,962.267725,8882.471304
2670.886779,-612.876398,518.144159,11399.171507
2670.887108,995.924147,740.205942,8956.491898
2670.887437,2604.724693,2220.617826,6439.791695
2670.887766,2834.553343,370.102971,7624.121203
2670.888095,1838.629195,1776.494261,7476.080014
2670.888424,2681.334243,1332.370696,8290.306550
2670.888753,1838.629195,1036.288319,7105.977043
2670.889082,229.828649,1110.308913,8068.244768
2670.889411,-1838.629195,-1480.411884,10658.965565
2670.889740,-2451.505594,-2072.576638,10288.862594
2670.890069,-2145.067394,-1850.514855,10658.965565
2670.890398,-1838.629195,-2664.741391,9992.780217
2670.890727,-1762.019645,-2812.782580,11103.089130
2670.891056,-2298.286494,-2220.617826,11399.171507
2670.891385,-459.657299,-0.000000,9622.677246
2670.891713,76.609550,-592.164754,9252.574275
2670.892042,1455.581446,444.123565,8956.491898
2670.892371,3524.039291,2220.617826,8438.347739
2670.892700,4290.134789,2442.679609,7254.018232
2670.893029,3600.648841,1554.432478,7105.977043
2670.893358,3753.867940,1184.329507,7105.977043
2670.893687,3600.648841,1480.411884,7476.080014
2670.894016,3447.429741,1332.370696,7031.956449
2670.894345,1532.190996,666.185348,7254.018232
2670.894674,-689.485948,-444.123565,10288.862594
2670.895003,-1608.800546,-1702.473667,11473.192101
2670.895332,-1991.848295,-2368.659014,10584.944971
2670.895661,-2451.505594,-2590.720797,10510.924376
2670.895990,-2834.553343,-2738.761985,10584.944971
2670.896319,-2451.505594,-2294.638420,11325.150913
2670.896648,-842.705048,-74.020594,10807.006753
2670.896977,1072.533697,444.123565,8882.471304
2670.897306,459.657299,888.247130,8364.327145
2670.897635,2451.505594,2146.597232,8290.306550
2670.897964,4519.963438,2664.741391,6809.894666
2670.898293,3907.087040,2368.659014,6069.688724
2670.898622,2911.162892,1406.391290,7772.162391
2670.898951,2604.724693,-0.000000,8808.450710
2670.899280,383.047749,-0.000000,6957.935855
2670.899609,0.000000,222.061783,8142.265362
2670.899938,-1915.238745,-1702.473667,10436.903782
2670.900267,-2987.772442,-1924.535449,10732.986159
2670.900596,-3064.381992,-2294.638420,11103.089130
2670.900924,-2987.772442,-1850.514855,9696.697840
2670.901253,-3140.991542,-1702.473667,9474.636058
2670.901582,-1991.848295,-1702.473667,10584.944971
2670.901911,-2221.676944,-1554.432478,9844.739029
2670.902240,-612.876398,-666.185348,9770.718434
2670.902569,612.876398,-888.247130,8956.491898
2670.902898,1072.533697,-0.000000,8068.244768
2670.903227,2451.505594,1036.288319,7920.203579
2670.903556,3600.648841,2220.617826,6439.791695
2670.903885,3600.648841,1184.329507,5847.626942
2670.904214,2987.772442,666.185348,7920.203579
2670.904543,2757.943793,740.205942,7772.162391
2670.904872,1762.019645,962.267725,7179.997637
2670.905201,76.609550,-74.020594,8808.450710
2670.905530,-1762.019645,-518.144159,9622.677246
2670.905859,-2757.943793,-1258.350101,11399.171507
2670.906188,-1762.019645,-2664.741391,10881.027347
2670.906517,-2681.334243,-1332.370696,9696.697840
2670.906846,-2298.286494,-3034.844362,11103.089130
2670.907175,-2221.676944,-2516.700203,10658.965565
2670.907504,-1225.752797,-1036.288319,10584.944971
2670.907833,459.657299,-296.082377,9844.739029
2670.908162,1302.362347,148.041188,9252.574275
2670.908491,2604.724693,444.123565,9474.636058
2670.908820,3907.087040,1850.514855,7624.121203
2670.909149,4596.572988,1998.556043,6291.750507
2670.909478,3600.648841,1184.329507,7698.141797
2670.909807,3830.477490,1554.432478,7920.203579
2670.910135,3447.429741,2590.720797,7698.141797
2670.910464,1608.800546,1554.432478,8142.265362
2670.910793,0.000000,1332.370696,8586.388927
2670.911122,-1762.019645,-1184.329507,11769.274478
2670.911451,-2987.772442,-1406.391290,10510.924376
2670.911780,-2757.943793,-1850.514855,9992.780217
2670.912109,-3294.210641,-2294.638420,10955.047942
2670.912438,-2834.553343,-1850.514855,10807.006753
2670.912767,-1915.238745,-740.205942,11177.109724
2670.913096,-1378.971896,-518.144159,10362.883188
2670.913425,-842.705048,222.061783,9474.636058
2670.913754,0.000000,-444.123565,10658.965565
2670.914083,995.924147,148.041188,9030.512492
2670.914412,2681.334243,1554.432478,7031.956449
2670.914741,3294.210641,814.226536,6439.791695
2670.915070,2374.896044,1332.370696,8364.327145
2670.915399,2987.772442,1258.350101,8364.327145
2670.915728,2528.115143,1998.556043,6365.771101
2670.916057,1225.752797,962.267725,7105.977043
2670.916386,-383.047749,-444.123565,8882.471304
2670.916715,-1915.238745,-592.164754,9178.553681
2670.917044,-2145.067394,-2072.576638,10066.800811
2670.917373,-2068.457845,-2368.659014,9622.677246
2670.917702,-1915.238745,-3182.885551,10658.965565
2670.918031,-2987.772442,-2960.823768,10807.006753
2670.918360,-1225.752797,-1628.453072,9696.697840
2670.918689,-842.705048,-1110.308913,9548.656652
2670.919017,766.095498,-888.247130,9696.697840
2670.919346,1991.848295,222.061783,8290.306550
2670.919675,3830.477490,1480.411884,7698.141797
2670.920004,4136.915689,1628.453072,6513.812290
2670.920333,4290.134789,1036.288319,7624.121203
2670.920662,3677.258390,1702.473667,7624.121203
2670.920991,3677.258390,2368.659014,7105.977043
2670.921320,2757.943793,1702.473667,7254.018232
2670.921649,459.657299,518.144159,8882.471304
2670.921978,-612.876398,-518.144159,10288.862594
2670.922307,-1225.752797,-1850.514855,10066.800811
2670.922636,-2221.676944,-2368.659014,10362.883188
2670.922965,-2451.505594,-2812.782580,10658.965565
2670.923294,-3140.991542,-2886.803174,11399.171507
2670.923623,-1838.629195,-1554.432478,11029.068536
2670.923952,-766.095498,-1332.370696,9844.739029
2670.924281,0.000000,-666.185348,10066.800811
2670.924610,1149.143247,962.267725,9252.574275
2670.924939,3830.477490,1998.556043,8142.265362
2670.925268,2757.943793,1924.535449,7254.018232
2670.925597,3294.210641,1850.514855,7772.162391
2670.925926,3217.601092,1850.514855,8438.347739
2670.926255,1608.800546,1998.556043,7698.141797
2670.926584,2298.286494,1406.391290,7846.182985
2670.926913,76.609550,1184.329507,8068.244768
2670.927242,-2068.457845,-222.061783,9770.718434
2670.927571,-2681.334243,-1480.411884,10881.027347
2670.927900,-2068.457845,-2072.576638,10066.800811
2670.928228,-2451.505594,-2664.741391,10288.862594
2670.928557,-2681.334243,-2146.597232,10658.965565
2670.928886,-2451.505594,-1702.473667,10584.944971
2670.929215,-1991.848295,-1332.370696,10288.862594
2670.929544,-766.095498,-0.000000,9622.677246
2670.929873,0.000000,-0.000000,9844.739029
2670.930202,842.705048,-0.000000,9918.759623
2670.930531,2145.067394,1332.370696,7698.141797
2670.930860,2987.772442,888.247130,7105.977043
2670.931189,2068.457845,518.144159,7624.121203
2670.931518,2451.505594,-148.041188,8882.471304
2670.931847,2298.286494,1702.473667,7328.038826
2670.932176,1532.190996,888.247130,7105.977043
2670.932505,229.828649,-222.061783,8808.450710
2670.932834,-766.095498,-518.144159,9622.677246
2670.933163,-842.705048,-1480.411884,9474.636058
2670.933492,-1378.971896,-1702.473667,9474.636058
2670.933821,-995.924147,-3108.864956,9992.780217
2670.934150,-1608.800546,-2368.659014,10288.862594
2670.934479,-689.485948,-1554.432478,10658.965565
2670.934808,0.000000,-740.205942,8882.471304
2670.935137,459.657299,-1258.350101,8586.388927
2670.935466,1762.019645,962.267725,9474.636058
2670.935795,2911.162892,1702.473667,7772.162391
2670.936124,3217.601092,1332.370696,7402.059420
2670.936453,3064.381992,1258.350101,7031.956449
2670.936782,2528.115143,666.185348,7846.182985
2670.937110,2145.067394,370.102971,7846.182985
2670.937439,612.876398,666.185348,7846.182985
2670.937768,0.000000,-370.102971,9104.533087
2670.938097,-1072.533697,-444.123565,9548.656652
2670.938426,-1838.629195,-74.020594,9030.512492
2670.938755,-1302.362347,-1332.370696,9844.739029
2670.939084,-1685.410096,-1998.556043,9548.656652
2670.939413,-2221.676944,-1850.514855,11103.089130
2670.939742,-1378.971896,-1924.535449,10881.027347
2670.940071,-153.219100,-814.226536,8956.491898
2670.940400,536.266849,740.205942,9474.636058
2670.940729,689.485948,1480.411884,9252.574275
2670.941058,1302.362347,1554.432478,8882.471304
2670.941387,2528.115143,1406.391290,8660.409521
2670.941716,2911.162892,1184.329507,7476.080014
2670.942045,842.705048,592.164754,9030.512492
2670.942374,0.000000,-370.102971,9696.697840
2670.942703,-689.485948,-0.000000,8734.430116
2670.943032,-919.314598,-888.247130,9918.759623
2670.943361,-2145.067394,-444.123565,9474.636058
2670.943690,-1762.019645,-1406.391290,10881.027347
2670.944019,-1762.019645,-814.226536,10362.883188
2670.944348,-766.095498,-814.226536,9178.553681
2670.944677,-153.219100,-1036.288319,9770.718434
2670.945006,306.438199,-814.226536,9992.780217
2670.945335,1149.143247,370.102971,9770.718434
2670.945663,1532.190996,1332.370696,8142.265362
2670.945992,1685.410096,962.267725,9104.533087
2670.946321,2374.896044,1776.494261,8734.430116
2670.946650,2604.724693,1110.308913,8734.430116
2670.946979,2834.553343,370.102971,7402.059420
2670.947308,1838.629195,-148.041188,8290.306550
2670.947637,1302.362347,-296.082377,9326.594869
2670.947966,459.657299,-0.000000,8586.388927
2670.948295,153.219100,-222.061783,8586.388927
2670.948624,-612.876398,-888.247130,9030.512492
2670.948953,-1991.848295,-962.267725,10732.986159
2670.949282,-842.705048,-1036.288319,9474.636058
2670.949611,153.219100,-962.267725,8512.368333
2670.949940,-306.438199,-1110.308913,9474.636058
2670.950269,459.657299,-1258.350101,9918.759623
2670.950598,919.314598,-444.123565,8660.409521
2670.950927,1762.019645,518.144159,7772.162391
2670.951256,2451.505594,370.102971,7624.121203
2670.951585,2221.676944,1036.288319,8586.388927
2670.951914,2145.067394,814.226536,8438.347739
2670.952243,2451.505594,1110.308913,6957.935855
2670.952572,1685.410096,74.020594,8068.244768
2670.952901,76.609550,-666.185348,9400.615463
2670.953230,-153.219100,-666.185348,9104.533087
2670.953559,-1302.362347,-296.082377,8586.388927
2670.953887,-1302.362347,-0.000000,9622.677246
2670.954216,-2374.896044,-1036.288319,10584.944971
2670.954545,-2681.334243,-1110.308913,10066.800811
2670.954874,-1685.410096,-1184.329507,9104.533087
2670.955203,-1532.190996,-1628.453072,8734.430116
2670.955532,-1762.019645,-2072.576638,9992.780217
2670.955861,-1302.362347,-1110.308913,11177.109724
2670.956190,-306.438199,-962.267725,9770.718434
2670.956519,689.485948,-222.061783,9030.512492
2670.956848,1072.533697,814.226536,8068.244768
2670.957177,1608.800546,666.185348,8364.327145
2670.957506,2298.286494,1258.350101,7994.224174
2670.957835,2145.067394,962.267725,7772.162391
2670.958164,2298.286494,-296.082377,8216.285956
2670.958493,1455.581446,-74.020594,8882.471304
2670.958822,612.876398,-0.000000,8364.327145
2670.959151,153.219100,-74.020594,8660.409521
2670.959480,-1072.533697,-518.144159,9178.553681
2670.959809,-1532.190996,-814.226536,9992.780217
2670.960138,-536.266849,-592.164754,9030.512492
2670.960467,-766.095498,-962.267725,9844.739029
2670.960796,-842.705048,-1480.411884,9474.636058
2670.961125,-459.657299,-1332.370696,10066.800811
2670.961454,995.924147,-74.020594,9474.636058
2670.961783,2451.505594,222.061783,9252.574275
2670.962112,2757.943793,1110.308913,8290.306550
2670.962440,2911.162892,1406.391290,8364.327145
2670.962769,3140.991542,1480.411884,8438.347739
2670.963098,3600.648841,1628.453072,7031.956449
2670.963427,2834.553343,1332.370696,8068.244768
2670.963756,1225.752797,-222.061783,9252.574275
2670.964085,766.095498,-0.000000,9992.780217
2670.964414,-383.047749,-148.041188,9770.718434
2670.964743,-1225.752797,-1406.391290,8586.388927
2670.965072,-2374.896044,-1776.494261,11621.233289
2670.965401,-2145.067394,-1332.370696,10807.006753
2670.965730,-1685.410096,-740.205942,9770.718434
2670.966059,-1685.410096,-1258.350101,9474.636058
2670.966388,-995.924147,-1406.391290,10658.965565
2670.966717,0.000000,-740.205942,10288.862594
2670.967046,2145.067394,814.226536,8438.347739
2670.967375,2681.334243,740.205942,8290.306550
2670.967704,2145.067394,1702.473667,7624.121203
2670.968033,2604.724693,1258.350101,8882.471304
2670.968362,2681.334243,1258.350101,8216.285956
2670.968691,2145.067394,222.061783,7550.100608
2670.969020,919.314598,-148.041188,9104.533087
2670.969349,-536.266849,-592.164754,9918.759623
2670.969678,-1378.971896,-518.144159,9696.697840
2670.970007,-1915.238745,-1184.329507,8438.347739
2670.970336,-3217.601092,-1036.288319,9844.739029
2670.970665,-1762.019645,-1406.391290,10510.924376
2670.970993,-1225.752797,-222.061783,8142.265362
2670.971322,-1302.362347,-1332.370696,8882.471304
2670.971651,229.828649,-1554.432478,8882.471304
2670.971980,-383.047749,-1554.432478,9548.656652
2670.972309,1762.019645,666.185348,7550.100608
2670.972638,2451.505594,-814.226536,8142.265362
2670.972967,2834.553343,1554.432478,8068.244768
2670.973296,2374.896044,1036.288319,8142.265362
2670.973625,3140.991542,888.247130,8216.285956
2670.973954,2374.896044,-0.000000,7328.038826
2670.974283,2068.457845,-0.000000,8586.388927
2670.974612,229.828649,-518.144159,9622.677246
2670.974941,-919.314598,-1332.370696,9474.636058
2670.975270,-1072.533697,-592.164754,9548.656652
2670.975599,-1762.019645,-1258.350101,10288.862594
2670.975928,-2068.457845,-1406.391290,10510.924376
2670.976257,-1762.019645,-1110.308913,9992.780217
2670.976586,-459.657299,-888.247130,9400.615463
2670.976915,0.000000,-1036.288319,9104.533087
2670.977244,0.000000,-740.205942,10214.842000
2670.977573,383.047749,-518.144159,10140.821405
2670.977902,1915.238745,814.226536,8290.306550
2670.978231,2604.724693,2072.576638,7994.224174
2670.978560,2451.505594,1628.453072,8216.285956
2670.978889,2757.943793,2072.576638,8364.327145
2670.979217,2987.772442,2516.700203,8882.471304
2670.979546,2374.896044,1184.329507,8142.265362
2670.979875,766.095498,-296.082377,8438.347739
2670.980204,-919.314598,-296.082377,9844.739029
2670.980533,-1762.019645,-74.020594,9696.697840
2670.980862,-2604.724693,-1036.288319,9844.739029
2670.981191,-3294.210641,-1332.370696,10732.986159
2670.981520,-2834.553343,-1184.329507,10214.842000
2670.981849,-2298.286494,-1332.370696,9104.533087
2670.982178,-1838.629195,-1480.411884,9178.553681
2670.982507,-1302.362347,-1628.453072,9992.780217
2670.982836,-842.705048,-1406.391290,10732.986159
2670.983165,1225.752797,-222.061783,8882.471304
2670.983494,2451.505594,444.123565,7772.162391
2670.983823,2757.943793,1036.288319,7846.182985
2670.984152,2987.772442,1184.329507,7994.224174
2670.984481,3140.991542,1850.514855,7624.121203
2670.984810,3370.820191,1554.432478,7031.956449
2670.985139,2528.115143,370.102971,7920.203579
2670.985468,995.924147,-0.000000,8956.491898
2670.985797,-306.438199,-444.123565,8882.471304
2670.986126,-1225.752797,-518.144159,9178.553681
2670.986455,-1915.238745,-2294.638420,10288.862594
2670.986784,-1991.848295,-2220.617826,10658.965565
2670.987113,-1685.410096,-1776.494261,10066.800811
2670.987442,-1608.800546,-2146.597232,9252.574275
2670.987770,-1455.581446,-2442.679609,9622.677246
2670.988099,-689.485948,-2294.638420,10288.862594
2670.988428,1072.533697,-814.226536,9252.574275
2670.988757,3140.991542,296.082377,7476.080014
2670.989086,3677.258390,1258.350101,8290.306550
2670.989415,3064.381992,2294.638420,8142.265362
2670.989744,4060.306139,2220.617826,7772.162391
2670.990073,3830.477490,2072.576638,7179.997637
2670.990402,3370.820191,1480.411884,7624.121203
2670.990731,1685.410096,1184.329507,9178.553681
2670.991060,612.876398,-0.000000,8290.306550
2670.991389,-1072.533697,-222.061783,8586.388927
2670.991718,-2451.505594,-1702.473667,9622.677246
2670.992047,-3447.429741,-1998.556043,11103.089130
2670.992376,-3600.648841,-1184.329507,10066.800811
2670.992705,-3830.477490,-222.061783,8438.347739
2670.993034,-3830.477490,-1554.432478,9178.553681
2670.993363,-4213.525239,-1850.514855,10362.883188
2670.993692,-4136.915689,-962.267725,10658.965565
2670.994021,-3064.381992,-74.020594,9548.656652
2670.994350,-2911.162892,-0.000000,8808.450710
2670.994679,-2834.553343,-0.000000,9770.718434
2670.995008,-2604.724693,740.205942,9622.677246
2670.995337,-1915.238745,222.061783,8956.491898
2670.995666,-1149.143247,-0.000000,8512.368333
2670.995994,-1608.800546,-888.247130,8808.450710
2670.996323,-2757.943793,-370.102971,9548.656652
2670.996652,-2834.553343,370.102971,8808.450710
2670.996981,-2604.724693,592.164754,7254.018232
2670.997310,-2987.772442,-148.041188,8586.388927
2670.997639,-2911.162892,-0.000000,8734.430116
2670.997968,-2604.724693,-592.164754,8290.306550
2670.998297,-2987.772442,-296.082377,8142.265362
2670.998626,-2987.772442,-1036.288319,8438.347739
2670.998955,-4290.134789,-2368.659014,10436.903782
2670.999284,-4979.620737,-2664.741391,11177.109724
2670.999613,-3600.648841,-1924.535449,11103.089130
2670.999942,-2604.724693,-814.226536,10214.842000
2671.000271,-2068.457845,-592.164754,9474.636058
2671.000600,-1532.190996,-666.185348,9918.759623
2671.000929,-1302.362347,1702.473667,9104.533087
2671.001258,0.000000,444.123565,10288.862594
2671.001587,842.705048,-0.000000,7624.121203
2671.001916,2298.286494,2146.597232,6809.894666
2671.002245,2298.286494,1480.411884,6069.688724
2671.002574,612.876398,2072.576638,5329.482782
2671.002903,0.000000,1184.329507,7476.080014
2671.003232,-2145.067394,518.144159,7698.141797
2671.003561,-2757.943793,-1258.350101,9474.636058
2671.003890,-4060.306139,-2146.597232,10658.965565
2671.004219,-5592.497135,-1776.494261,8216.285956
2671.004547,-5669.106685,-2442.679609,10955.047942
2671.004876,-5898.935335,-1184.329507,10436.903782
2671.005205,-4903.011187,-3182.885551,11547.212695
2671.005534,-4136.915689,-2590.720797,11621.233289
2671.005863,-2834.553343,222.061783,9548.656652
2671.006192,-1838.629195,-0.000000,9030.512492
2671.006521,-1838.629195,1850.514855,7624.121203
2671.006850,-1302.362347,2664.741391,8734.430116
2671.007179,-306.438199,-0.000000,9474.636058
2671.007508,306.438199,592.164754,7031.956449
2671.007837,919.314598,962.267725,7402.059420
2671.008166,-459.657299,2368.659014,5921.647536
2671.008495,-919.314598,1110.308913,6957.935855
2671.008824,-1685.410096,-1776.494261,9400.615463
2671.009153,-2528.115143,-1776.494261,9844.739029
2671.009482,-2987.772442,-1406.391290,9918.759623
2671.009811,-3830.477490,-814.226536,9400.615463
2671.010140,-4673.182538,296.082377,9104.533087
2671.010469,-3830.477490,-0.000000,9918.759623
2671.010798,-3524.039291,-0.000000,9104.533087
2671.011127,-4060.306139,-740.205942,10955.047942
2671.011456,-3907.087040,-444.123565,10288.862594
2671.011785,-4673.182538,888.247130,9178.553681
2671.012114,-4749.792088,-814.226536,9696.697840
2671.012443,-4443.353888,-1110.308913,9474.636058
2671.012772,-1915.238745,-444.123565,9696.697840
2671.013100,-2834.553343,-1480.411884,9178.553681
2671.013429,-2528.115143,-518.144159,8882.471304
2671.013758,-2604.724693,-444.123565,8734.430116
2671.014087,-2681.334243,370.102971,8290.306550
2671.014416,-2604.724693,-0.000000,8438.347739
2671.014745,-2681.334243,-296.082377,9178.553681
2671.015074,-2757.943793,370.102971,9326.594869
2671.015403,-2451.505594,296.082377,9400.615463
2671.015732,-2374.896044,-296.082377,9400.615463
2671.016061,-1838.629195,-296.082377,8882.471304
2671.016390,-2298.286494,-0.000000,9030.512492
2671.016719,-2298.286494,-0.000000,8956.491898
2671.017048,-2145.067394,518.144159,8586.388927
2671.017377,-1302.362347,592.164754,8142.265362
2671.017706,-1149.143247,-0.000000,8216.285956
2671.018035,-2145.067394,-222.061783,8512.368333
2671.018364,-2451.505594,-962.267725,8290.306550
2671.018693,-2987.772442,-888.247130,8512.368333
2671.019022,-3524.039291,-296.082377,9326.594869
2671.019351,-3064.381992,-0.000000,9400.615463
2671.019680,-3600.648841,592.164754,9252.574275
2671.020009,-3447.429741,740.205942,9104.533087
2671.020338,-3983.696590,296.082377,9030.512492
2671.020667,-4213.525239,-1406.391290,10288.862594
2671.020996,-4136.915689,-2590.720797,11103.089130
2671.021324,-3217.601092,-2516.700203,10732.986159
2671.021653,-2068.457845,-1850.514855,9844.739029
2671.021982,-689.485948,-888.247130,8364.327145
2671.022311,-689.485948,666.185348,7920.203579
2671.022640,-536.266849,370.102971,10732.986159
2671.022969,919.314598,1184.329507,7476.080014
2671.023298,2068.457845,2442.679609,7179.997637
2671.023627,919.314598,2146.597232,5625.565159
2671.023956,-459.657299,1480.411884,7254.018232
2671.024285,-1455.581446,-592.164754,9696.697840
2671.024614,-4213.525239,-740.205942,9548.656652
2671.024943,-2987.772442,-2664.741391,10881.027347
2671.025272,-4749.792088,-1406.391290,8586.388927
2671.025601,-5209.449386,-1480.411884,9918.759623
2671.025930,-5975.544884,-2072.576638,11399.171507
2671.026259,-5362.668486,-592.164754,10881.027347
2671.026588,-3600.648841,-1998.556043,10510.924376
2671.026917,-2374.896044,-888.247130,8660.409521
2671.027246,-383.047749,962.267725,8512.368333
2671.027575,-1608.800546,1036.288319,6217.729913
2671.027904,-459.657299,-888.247130,11177.109724
2671.028233,842.705048,518.144159,7550.100608
2671.028562,2834.553343,1332.370696,6069.688724
2671.028891,1838.629195,1184.329507,6809.894666
2671.029220,0.000000,2368.659014,7031.956449
2671.029549,-383.047749,888.247130,9918.759623
2671.029877,-2604.724693,296.082377,8216.285956
2671.030206,-2298.286494,-962.267725,10066.800811
2671.030535,-3753.867940,-814.226536,10510.924376
2671.030864,-4443.353888,592.164754,7698.141797
2671.031193,-6205.373534,-2072.576638,11177.109724
2671.031522,-6511.811733,-666.185348,9992.780217
2671.031851,-5515.887586,-1924.535449,10955.047942
2671.032180,-5669.106685,-2442.679609,10362.883188
2671.032509,-4596.572988,-962.267725,9548.656652
2671.032838,-4213.525239,-2368.659014,9918.759623
2671.033167,-3830.477490,-2146.597232,8956.491898
2671.033496,-2451.505594,888.247130,9474.636058
2671.033825,-1225.752797,-666.185348,9104.533087
2671.034154,-1532.190996,1184.329507,8586.388927
2671.034483,-1915.238745,1110.308913,9326.594869
2671.034812,-2528.115143,1406.391290,8808.450710
2671.035141,-2604.724693,962.267725,8512.368333
2671.035470,-2374.896044,518.144159,8512.368333
2671.035799,-3677.258390,1554.432478,9326.594869
2671.036128,-2757.943793,1258.350101,7846.182985
2671.036457,-3447.429741,444.123565,8512.368333
2671.036786,-3217.601092,148.041188,7994.224174
2671.037115,-2834.553343,444.123565,7846.182985
2671.037444,-2987.772442,-0.000000,7476.080014
2671.037773,-2757.943793,-0.000000,7328.038826
2671.038102,-2604.724693,-0.000000,8808.450710
2671.038431,-2911.162892,814.226536,8216.285956
2671.038760,-3294.210641,1850.514855,9178.553681
2671.039089,-4060.306139,1258.350101,9548.656652
2671.039418,-3524.039291,888.247130,9992.780217
2671.039747,-3294.210641,1480.411884,9696.697840
2671.040076,-3677.258390,-0.000000,10658.965565
2671.040405,-3064.381992,-0.000000,11251.130318
2671.040734,-2298.286494,296.082377,10584.944971
2671.041063,-1915.238745,1184.329507,9548.656652
2671.041392,-612.876398,1332.370696,8142.265362
2671.041721,-689.485948,1110.308913,9178.553681
2671.042050,689.485948,-370.102971,11991.336260
2671.042379,2221.676944,3034.844362,6365.771101
2671.042708,4596.572988,2442.679609,8216.285956
2671.043037,3753.867940,4071.132681,5403.503377
2671.043366,4290.134789,4959.379811,6809.894666
2671.043695,3370.820191,4515.256246,8660.409521
2671.044024,2145.067394,4441.235652,7550.100608
2671.044353,2298.286494,2368.659014,10288.862594
2671.044682,0.000000,2442.679609,9548.656652
2671.045011,-689.485948,1702.473667,11473.192101
2671.045340,-2068.457845,370.102971,12139.377449
2671.045669,-1149.143247,1776.494261,9992.780217
2671.045998,-1225.752797,1332.370696,11621.233289
2671.046327,-306.438199,1776.494261,10584.944971
2671.046656,842.705048,3701.029710,8808.450710
2671.046985,1685.410096,1998.556043,8142.265362
2671.047314,3064.381992,4219.173869,7254.018232
2671.047643,2604.724693,5255.462188,5551.544565
2671.047972,2834.553343,3997.112087,7624.121203
2671.048301,1225.752797,5551.544565,7105.977043
2671.048630,689.485948,4219.173869,7698.141797
2671.048959,-1149.143247,2442.679609,9178.553681
2671.049288,-2757.943793,1850.514855,10140.821405
2671.049617,-3370.820191,-296.082377,12361.439231
2671.049946,-3140.991542,1406.391290,9548.656652
2671.050275,-3447.429741,2886.803174,9622.677246
2671.050604,-4290.134789,1554.432478,11251.130318
2671.050933,-4366.744339,1850.514855,11399.171507
2671.051262,-3447.429741,2072.576638,11251.130318
2671.051591,-2374.896044,1406.391290,9548.656652
2671.051920,-306.438199,2072.576638,9178.553681
2671.052249,-689.485948,3034.844362,8290.306550
2671.052578,-995.924147,3256.906145,10510.924376
2671.052907,1762.019645,1998.556043,11695.253884
2671.053236,2911.162892,5033.400406,4663.297435
2671.053565,5132.839837,4737.318029,7994.224174
2671.053894,2834.553343,5477.523971,5625.565159
2671.054223,3907.087040,6957.935855,7031.956449
2671.054552,2221.676944,6587.832884,7179.997637
2671.054881,1915.238745,5551.544565,7328.038826
2671.055210,1149.143247,5107.421000,9474.636058
2671.055539,0.000000,6069.688724,7105.977043
2671.055868,-1455.581446,1776.494261,10140.821405
2671.056197,-3064.381992,-740.205942,11769.274478
2671.056526,-612.876398,814.226536,10066.800811
2671.056855,-1225.752797,-74.020594,11621.233289
2671.057184,-1685.410096,592.164754,11103.089130
2671.057513,-1838.629195,4219.173869,10362.883188
2671.057842,1149.143247,1924.535449,9252.574275
2671.058171,1838.629195,5477.523971,7105.977043
2671.058500,3524.039291,4441.235652,7920.203579
2671.058829,4826.401637,4589.276840,7476.080014
2671.059158,3524.039291,5255.462188,6587.832884
2671.059487,2451.505594,5403.503377,7994.224174
2671.059816,306.438199,3849.070898,6735.874072
2671.060145,689.485948,2442.679609,9992.780217
2671.060474,-1991.848295,444.123565,11473.192101
2671.060803,-2451.505594,-148.041188,12213.398043
2671.061132,-2757.943793,666.185348,10955.047942
2671.061461,-1838.629195,-1184.329507,10510.924376
2671.061790,-2374.896044,2220.617826,9992.780217
2671.062119,-1378.971896,1406.391290,10066.800811
2671.062448,-1225.752797,2886.803174,8734.430116
2671.062777,-536.266849,814.226536,10807.006753
2671.063106,3217.601092,1332.370696,9252.574275
2671.063435,3753.867940,4071.132681,5255.462188
2671.063764,3524.039291,3478.967927,8068.244768
2671.064093,2451.505594,2590.720797,6513.812290
2671.064422,4596.572988,5403.503377,8068.244768
2671.064751,2604.724693,4515.256246,6439.791695
2671.065080,2068.457845,4737.318029,6291.750507
2671.065409,1149.143247,2738.761985,9992.780217
2671.065738,-3140.991542,370.102971,11103.089130
2671.066067,-3370.820191,-3997.112087,14063.912898
2671.066396,-4060.306139,888.247130,12287.418637
2671.066725,-2451.505594,-2516.700203,11177.109724
2671.067054,-3907.087040,1036.288319,9104.533087
2671.067383,-1608.800546,2220.617826,10881.027347
2671.067712,76.609550,3478.967927,8882.471304
2671.068041,0.000000,3182.885551,8438.347739
2671.068370,4519.963438,2368.659014,12361.439231
2671.068700,2528.115143,3701.029710,6587.832884
2671.069029,4519.963438,4219.173869,8660.409521
2671.069358,4366.744339,6069.688724,2072.576638
2671.069687,5592.497135,4515.256246,6143.709319
2671.070016,2911.162892,3923.091493,6883.915261
2671.070345,2834.553343,4663.297435,7105.977043
2671.070674,2451.505594,3701.029710,7254.018232
2671.071003,-1685.410096,4811.338623,7550.100608
2671.071332,-4673.182538,740.205942,11547.212695
2671.071661,-4673.182538,-2664.741391,14285.974681
2671.071990,-3524.039291,4293.194464,7550.100608
2671.072319,-2145.067394,-4959.379811,13249.686362
2671.072648,-4290.134789,-1258.350101,10140.821405
2671.072977,-995.924147,3997.112087,13027.624579
2671.073306,-1455.581446,1628.453072,8290.306550
2671.073635,-2068.457845,4663.297435,9030.512492
2671.073964,2528.115143,2368.659014,12731.542202
2671.074293,3524.039291,5625.565159,5329.482782
2671.074622,3753.867940,5625.565159,8956.491898
2671.074951,2987.772442,4145.153275,5551.544565
2671.075280,3677.258390,7179.997637,5995.668130
2671.075609,153.219100,4441.235652,7402.059420
2671.075938,-306.438199,6069.688724,7105.977043
2671.076267,229.828649,6291.750507,11103.089130
2671.076596,-1225.752797,1480.411884,9622.677246
2671.076925,-3600.648841,370.102971,13101.645173
2671.077254,-4290.134789,222.061783,10732.986159
2671.077583,-1762.019645,296.082377,11621.233289
2671.077912,-1991.848295,-2220.617826,12065.356855
2671.078241,-2757.943793,1998.556043,8660.409521
2671.078570,-842.705048,1258.350101,12435.459826
2671.078899,-153.219100,3552.988522,7476.080014
2671.079228,3140.991542,5995.668130,8142.265362
2671.079557,4060.306139,5921.647536,7402.059420
2671.079886,2451.505594,5329.482782,8142.265362
2671.080215,919.314598,5255.462188,9992.780217
2671.080544,766.095498,5921.647536,7624.121203
2671.080873,842.705048,4885.359217,8660.409521
2671.081202,919.314598,4515.256246,8068.244768
2671.081531,2068.457845,2960.823768,9178.553681
2671.081860,459.657299,740.205942,11473.192101
2671.082189,-153.219100,-888.247130,10658.965565
2671.082518,383.047749,2812.782580,9770.718434
2671.082847,153.219100,2072.576638,9918.759623
2671.083176,-383.047749,4219.173869,8216.285956
2671.083505,0.000000,4219.173869,8734.430116
2671.083834,1532.190996,1998.556043,8290.306550
2671.084163,2528.115143,3478.967927,7846.182985
2671.084492,3830.477490,3108.864956,7920.203579
2671.084821,2374.896044,2294.638420,9622.677246
2671.085150,919.314598,1554.432478,9696.697840
2671.085479,459.657299,1924.535449,8956.491898
2671.085808,-153.219100,-0.000000,10140.821405
2671.086137,-842.705048,962.267725,10436.903782
2671.086466,-1149.143247,2368.659014,10732.986159
2671.086795,-612.876398,1554.432478,10214.842000
2671.087124,-1378.971896,-444.123565,10584.944971
2671.087453,229.828649,-814.226536,10214.842000
2671.087782,0.000000,296.082377,9326.594869
2671.088111,-459.657299,1332.370696,8882.471304
2671.088440,1072.533697,1554.432478,8216.285956
2671.088769,2757.943793,1258.350101,6661.853478
2671.089098,2451.505594,2442.679609,6735.874072
2671.089427,1225.752797,2516.700203,7254.018232
2671.089756,-383.047749,148.041188,8290.306550
2671.090085,76.609550,-740.205942,9474.636058
2671.090414,536.266849,-296.082377,9400.615463
2671.090743,-1532.190996,-1258.350101,8882.471304
2671.091072,-3140.991542,-1480.411884,11251.130318
2671.091401,-2298.286494,-1850.514855,11177.109724
2671.091730,-1149.143247,-1332.370696,9696.697840
2671.092059,-1608.800546,962.267725,8956.491898
2671.092388,-1685.410096,666.185348,9548.656652
2671.092717,-995.924147,740.205942,8956.491898
2671.093046,1608.800546,1332.370696,7105.977043
2671.093375,2298.286494,1110.308913,5773.606348
2671.093704,842.705048,1110.308913,6587.832884
2671.094033,995.924147,-0.000000,8512.368333
2671.094362,1685.410096,-666.185348,7550.100608
2671.094691,1225.752797,-962.267725,7476.080014
2671.095020,0.000000,-592.164754,8882.471304
2671.095349,-919.314598,-1110.308913,10732.986159
2671.095678,-383.047749,-1924.535449,11473.192101
2671.096007,0.000000,-1110.308913,9918.759623
2671.096336,-766.095498,-444.123565,9474.636058
2671.096665,-1762.019645,1110.308913,11103.089130
2671.096994,-612.876398,-0.000000,11473.192101
2671.097323,536.266849,-0.000000,9992.780217
2671.097652,919.314598,296.082377,8290.306550
2671.097981,842.705048,666.185348,9474.636058
2671.098310,1685.410096,-148.041188,8956.491898
2671.098639,2757.943793,-0.000000,7402.059420
2671.098968,2145.067394,666.185348,7550.100608
2671.099297,1072.533697,296.082377,7402.059420
2671.099626,306.438199,-370.102971,8882.471304
2671.099955,1532.190996,-1184.329507,9770.718434
2671.100284,1762.019645,-592.164754,9400.615463
2671.100613,0.000000,-296.082377,9400.615463
2671.100942,-383.047749,-1184.329507,10881.027347
2671.101271,612.876398,-1628.453072,11251.130318
2671.101600,1072.533697,518.144159,9474.636058
2671.101929,306.438199,296.082377,9104.533087
2671.102258,-612.876398,1110.308913,9622.677246
2671.102587,536.266849,666.185348,9178.553681
2671.102916,1455.581446,1480.411884,7920.203579
2671.103245,229.828649,1184.329507,7550.100608
2671.103574,-383.047749,-74.020594,8586.388927
2671.103903,919.314598,-1332.370696,8586.388927
2671.104232,842.705048,-1406.391290,7846.182985
2671.104561,0.000000,-814.226536,7994.224174
2671.104890,-229.828649,-1628.453072,8808.450710
2671.105219,0.000000,-1036.288319,9770.718434
2671.105548,1302.362347,444.123565,8586.388927
2671.105877,842.705048,592.164754,8438.347739
2671.106206,76.609550,888.247130,9548.656652
2671.106535,919.314598,814.226536,9548.656652
2671.106864,1302.362347,1110.308913,8734.430116
2671.107193,689.485948,370.102971,9474.636058
2671.107522,-306.438199,-148.041188,9844.739029
2671.107851,0.000000,-1332.370696,10066.800811
2671.108180,0.000000,-518.144159,8364.327145
2671.108509,-766.095498,-518.144159,8364.327145
2671.108838,-1302.362347,-592.164754,9400.615463
2671.109167,-995.924147,-1850.514855,9474.636058
2671.109496,0.000000,-1554.432478,8734.430116
2671.109825,229.828649,-74.020594,8290.306550
2671.110154,153.219100,-222.061783,8956.491898
2671.110483,919.314598,-666.185348,9696.697840
2671.110812,1762.019645,-0.000000,9030.512492
2671.111141,1608.800546,1480.411884,9104.533087
2671.111470,1225.752797,1776.494261,8808.450710
2671.111799,1149.143247,1258.350101,9992.780217
2671.112128,1685.410096,1554.432478,9474.636058
2671.112457,1762.019645,1184.329507,8142.265362
2671.112786,0.000000,370.102971,9326.594869
2671.113115,-1225.752797,-814.226536,10732.986159
2671.113444,-459.657299,-1554.432478,9844.739029
2671.113773,-842.705048,-1184.329507,8512.368333
2671.114102,-1378.971896,-1406.391290,8956.491898
2671.114431,-1149.143247,-2146.597232,9474.636058
2671.114760,536.266849,-1776.494261,9622.677246
2671.115089,612.876398,-1110.308913,8586.388927
2671.115418,459.657299,-370.102971,8660.409521
2671.115747,1072.533697,740.205942,8882.471304
2671.116076,2068.457845,592.164754,8512.368333
2671.116405,2298.286494,2146.597232,7846.182985
2671.116734,1608.800546,1924.535449,8216.285956
2671.117063,919.314598,222.061783,9770.718434
2671.117392,919.314598,-518.144159,9918.759623
2671.117721,306.438199,-148.041188,8660.409521
2671.118050,-689.485948,-1258.350101,9252.574275
2671.118379,-1915.238745,-1036.288319,9918.759623
2671.118708,-1685.410096,-1924.535449,10362.883188
2671.119037,-1149.143247,-1628.453072,8882.471304
2671.119366,-1532.190996,-740.205942,7994.224174
2671.119695,-1532.190996,-1258.350101,9474.636058
2671.120024,-842.705048,-2220.617826,10140.821405
2671.120353,919.314598,-1850.514855,8438.347739
2671.120682,842.705048,-1036.288319,8142.265362
2671.121011,1149.143247,-0.000000,8734.430116
2671.121340,1685.410096,740.205942,9252.574275
2671.121669,2757.943793,1406.391290,8216.285956
2671.121998,2451.505594,2516.700203,7402.059420
2671.122327,1225.752797,1702.473667,8290.306550
2671.122656,1378.971896,-0.000000,9474.636058
2671.122985,1225.752797,296.082377,8808.450710
2671.123314,76.609550,-666.185348,8290.306550
2671.123643,-1378.971896,-1332.370696,9844.739029
2671.123972,-1838.629195,-2590.720797,10732.986159
2671.124301,-1072.533697,-3404.947333,10066.800811
2671.124630,-919.314598,-1850.514855,8438.347739
2671.124959,-1072.533697,-1184.329507,9474.636058
2671.125288,0.000000,-1184.329507,9474.636058
2671.125617,1532.190996,-296.082377,9030.512492
2671.125946,2451.505594,962.267725,7550.100608
2671.126275,2221.676944,-0.000000,8216.285956
2671.126604,2451.505594,1480.411884,8512.368333
2671.126933,3064.381992,1110.308913,7994.224174
2671.127262,2681.334243,2072.576638,7550.100608
2671.127591,1608.800546,1406.391290,7920.203579
2671.127920,842.705048,370.102971,9548.656652
2671.128249,536.266849,-444.123565,9178.553681
2671.128578,0.000000,-592.164754,8882.471304
2671.128907,-1455.581446,-1258.350101,9400.615463
2671.129236,-2298.286494,-1850.514855,10066.800811
2671.129565,-1838.629195,-2220.617826,10510.924376
2671.129894,-1378.971896,-1554.432478,8512.368333
2671.130223,-1991.848295,-1110.308913,9030.512492
2671.130552,-1608.800546,-1554.432478,10140.821405
2671.130881,153.219100,-1554.432478,9770.718434
2671.131210,1685.410096,-370.102971,8734.430116
2671.131539,1608.800546,444.123565,7846.182985
2671.131868,1302.362347,1480.411884,9178.553681
2671.132197,1532.190996,1776.494261,8956.491898
2671.132526,2451.505594,2146.597232,7698.141797
2671.132855,1455.581446,1850.514855,7772.162391
2671.133184,0.000000,592.164754,9326.594869
2671.133513,-229.828649,-1110.308913,10140.821405
2671.133842,0.000000,-1850.514855,9104.533087
2671.134171,-1532.190996,-1998.556043,8882.471304
2671.134500,-2604.724693,-2442.679609,10140.821405
2671.134829,-1991.848295,-2294.638420,10362.883188
2671.135158,-766.095498,-2072.576638,9178.553681
2671.135487,-306.438199,-444.123565,8660.409521
2671.135816,-536.266849,-0.000000,9178.553681
2671.136145,1072.533697,-222.061783,8808.450710
2671.136474,2451.505594,518.144159,8734.430116
2671.136803,2681.334243,666.185348,8142.265362
2671.137132,2298.286494,1036.288319,8660.409521
2671.137461,2451.505594,1036.288319,8586.388927
2671.137790,3140.991542,1332.370696,8438.347739
2671.138119,2068.457845,2368.659014,7550.100608
2671.138448,842.705048,1406.391290,8438.347739
2671.138777,842.705048,-0.000000,10140.821405
2671.139106,536.266849,-814.226536,9252.574275
2671.139435,0.000000,-740.205942,8734.430116
2671.139764,-1532.190996,-1036.288319,9178.553681
2671.140093,-1685.410096,-1480.411884,10732.986159
2671.140422,-995.924147,-1406.391290,10658.965565
2671.140751,-383.047749,-962.267725,9030.512492
2671.141080,-689.485948,-0.000000,9696.697840
2671.141408,76.609550,148.041188,9622.677246
2671.141737,1302.362347,370.102971,8660.409521
2671.142066,2068.457845,1110.308913,9252.574275
2671.142395,1685.410096,814.226536,8808.450710
2671.142724,1455.581446,592.164754,9474.636058
2671.143053,1685.410096,1184.329507,8586.388927
2671.143382,1532.190996,962.267725,8142.265362
2671.143711,383.047749,666.185348,8882.471304
2671.144040,-612.876398,-666.185348,9178.553681
2671.144369,-229.828649,-2146.597232,9918.759623
2671.144698,-536.266849,-1480.411884,9178.553681
2671.145027,-1378.971896,-1850.514855,8660.409521
2671.145356,-2604.724693,-1998.556043,9770.718434
2671.145685,-1455.581446,-2442.679609,10732.986159
2671.146014,-995.924147,-1998.556043,9474.636058
2671.146343,-766.095498,-296.082377,8512.368333
2671.146672,-536.266849,-296.082377,9548.656652
2671.147001,153.219100,-0.000000,9696.697840
2671.147330,1225.752797,-0.000000,8364.327145
2671.147659,1838.629195,-0.000000,7698.141797
2671.147988,1455.581446,814.226536,8216.285956
2671.148317,1762.019645,444.123565,9030.512492
2671.148646,2221.676944,1036.288319,8586.388927
2671.148975,1991.848295,1110.308913,7624.121203
2671.149303,766.095498,518.144159,8290.306550
2671.149632,612.876398,148.041188,8660.409521
2671.149961,612.876398,-444.123565,9178.553681
2671.150290,-153.219100,-666.185348,8364.327145
2671.150619,-1149.143247,-444.123565,9474.636058
2671.150948,-1455.581446,-962.267725,10510.924376
2671.151277,-306.438199,-1406.391290,9696.697840
2671.151606,-229.828649,-0.000000,8956.491898
2671.151935,-766.095498,-0.000000,9178.553681
2671.152264,76.609550,-0.000000,9622.677246
2671.152593,1455.581446,-0.000000,9474.636058
2671.152922,2451.505594,1036.288319,8512.368333
2671.153251,2145.067394,1850.514855,8808.450710
2671.153580,1532.190996,814.226536,9474.636058
2671.153909,2604.724693,888.247130,9252.574275
2671.154238,2604.724693,1924.535449,7994.224174
2671.154567,1455.581446,1850.514855,8216.285956
2671.154896,842.705048,1110.308913,9400.615463
2671.155225,536.266849,-518.144159,10288.862594
2671.155554,383.047749,-666.185348,9326.594869
2671.155883,-1149.143247,-518.144159,9548.656652
2671.156212,-2451.505594,-1184.329507,10510.924376
2671.156541,-1915.238745,-1036.288319,10214.842000
2671.156869,-1608.800546,-518.144159,9844.739029
2671.157198,-1532.190996,-1258.350101,9696.697840
2671.157527,-1455.581446,-1184.329507,10140.821405
2671.157856,0.000000,-1184.329507,9770.718434
2671.158185,536.266849,-740.205942,8734.430116
2671.158514,1225.752797,-0.000000,8364.327145
2671.158843,1302.362347,296.082377,8808.450710
2671.159172,1915.238745,666.185348,8512.368333
2671.159501,3140.991542,1998.556043,7254.018232
2671.159830,2757.943793,1924.535449,7105.977043
2671.160159,919.314598,962.267725,8142.265362
2671.160488,459.657299,-74.020594,8512.368333
2671.160817,76.609550,-1258.350101,9104.533087
2671.161146,-1149.143247,-1406.391290,8660.409521
2671.161475,-2681.334243,-1850.514855,9992.780217
2671.161804,-2528.115143,-2442.679609,10584.944971
2671.162133,-1532.190996,-2146.597232,9844.739029
2671.162462,-1455.581446,-1184.329507,9178.553681
2671.162791,-2145.067394,-1110.308913,9104.533087
2671.163120,-766.095498,-740.205942,10584.944971
2671.163449,1225.752797,-666.185348,8882.471304
2671.163778,2068.457845,-666.185348,8142.265362
2671.164107,2145.067394,-0.000000,8438.347739
2671.164436,2911.162892,-0.000000,8364.327145
2671.164764,3447.429741,1628.453072,8438.347739
2671.165093,3600.648841,2516.700203,7105.977043
2671.165422,1838.629195,2146.597232,7846.182985
2671.165751,1532.190996,1406.391290,9104.533087
2671.166080,1532.190996,-0.000000,9104.533087
2671.166409,612.876398,-592.164754,8586.388927
2671.166738,-1072.533697,-370.102971,8882.471304
2671.167067,-2528.115143,-2960.823768,11399.171507
2671.167396,-2451.505594,-3627.009116,11621.233289
2671.167725,-1378.971896,-1998.556043,9992.780217
2671.168054,-1455.581446,-1480.411884,9326.594869
2671.168383,-1455.581446,-814.226536,9770.718434
2671.168712,536.266849,-518.144159,10214.842000
2671.169041,1685.410096,518.144159,8734.430116
2671.169370,2145.067394,1406.391290,7994.224174
2671.169699,1991.848295,1110.308913,9252.574275
2671.170028,2757.943793,1702.473667,8216.285956
2671.170357,3140.991542,1998.556043,7994.224174
2671.170686,2451.505594,1554.432478,7476.080014
2671.171015,1685.410096,592.164754,8364.327145
2671.171344,1149.143247,-370.102971,9474.636058
2671.171673,689.485948,-222.061783,8512.368333
2671.172002,-766.095498,-1036.288319,8660.409521
2671.172331,-2451.505594,-1036.288319,9474.636058
2671.172659,-2374.896044,-2516.700203,10584.944971
2671.172988,-1838.629195,-2294.638420,9696.697840
2671.173317,-1915.238745,-2220.617826,9104.533087
2671.173646,-2451.505594,-2072.576638,9992.780217
2671.173975,-1149.143247,-1628.453072,10732.986159
2671.174304,1378.971896,-888.247130,9548.656652
2671.174633,1532.190996,222.061783,7402.059420
2671.174962,1455.581446,1332.370696,8956.491898
2671.175291,1991.848295,1406.391290,9030.512492
2671.175620,3294.210641,1850.514855,7920.203579
2671.175949,2987.772442,2886.803174,7105.977043
2671.176278,1838.629195,1776.494261,7179.997637
2671.176607,1685.410096,1258.350101,8882.471304
2671.176936,919.314598,-0.000000,8882.471304
2671.177265,153.219100,-1036.288319,8882.471304
2671.177594,-1608.800546,-222.061783,9178.553681
2671.177923,-2374.896044,-2590.720797,10658.965565
2671.178252,-2068.457845,-2294.638420,10584.944971
2671.178581,-1455.581446,-1628.453072,9918.759623
2671.178910,-1838.629195,-1184.329507,9474.636058
2671.179239,-1762.019645,-0.000000,10362.883188
2671.179568,0.000000,-0.000000,9474.636058
2671.179897,1915.238745,592.164754,8512.368333
2671.180225,1532.190996,1998.556043,8216.285956
2671.180554,2681.334243,1258.350101,8734.430116
2671.180883,3447.429741,1554.432478,7698.141797
2671.181212,3370.820191,2590.720797,7328.038826
2671.181541,2451.505594,2516.700203,8216.285956
2671.181870,1762.019645,2368.659014,7698.141797
2671.182199,2298.286494,740.205942,8216.285956
2671.182528,1532.190996,296.082377,8438.347739
2671.182857,0.000000,-1036.288319,9178.553681
2671.183186,-1991.848295,-518.144159,9992.780217
2671.183515,-2068.457845,-3256.906145,11473.192101
2671.183844,-2451.505594,-1776.494261,9326.594869
2671.184173,-2451.505594,-1406.391290,9992.780217
2671.184502,-2911.162892,-1110.308913,11029.068536
2671.184831,-1991.848295,-1110.308913,10732.986159
2671.185160,459.657299,-888.247130,9178.553681
2671.185489,1149.143247,-222.061783,8512.368333
2671.185818,1225.752797,-0.000000,9622.677246
2671.186147,1915.238745,148.041188,8734.430116
2671.186476,2757.943793,666.185348,7179.997637
2671.186805,2451.505594,1924.535449,7179.997637
2671.187134,2451.505594,1258.350101,7994.224174
2671.187463,2145.067394,518.144159,8512.368333
2671.187792,1608.800546,-592.164754,8586.388927
2671.188120,536.266849,-444.123565,8216.285956
2671.188449,-1455.581446,-1924.535449,9326.594869
2671.188778,-2451.505594,-2442.679609,10881.027347
2671.189107,-2221.676944,-2812.782580,10362.883188
2671.189436,-1915.238745,-1776.494261,9548.656652
2671.189765,-2528.115143,-1332.370696,9326.594869
2671.190094,-2145.067394,-2738.761985,10584.944971
2671.190423,-306.438199,-2072.576638,9992.780217
2671.190752,1149.143247,-1702.473667,8142.265362
2671.191081,1149.143247,148.041188,7846.182985
2671.191410,1838.629195,1110.308913,8882.471304
2671.191739,3217.601092,740.205942,8290.306550
2671.192068,3677.258390,962.267725,7105.977043
2671.192397,2757.943793,1332.370696,7328.038826
2671.192726,2604.724693,592.164754,7698.141797
2671.193055,3140.991542,1554.432478,7476.080014
2671.193384,2681.334243,518.144159,7698.141797
2671.193713,153.219100,-370.102971,8808.450710
2671.194042,-1149.143247,-370.102971,9104.533087
2671.194371,-1378.971896,-1480.411884,9844.739029
2671.194700,-1532.190996,-1110.308913,9622.677246
2671.195029,-2451.505594,-148.041188,9474.636058
2671.195358,-2374.896044,-1628.453072,10658.965565
2671.195687,-2145.067394,-2294.638420,10807.006753
2671.196015,-459.657299,-1702.473667,9770.718434
2671.196344,459.657299,-888.247130,8364.327145
2671.196673,995.924147,-0.000000,9622.677246
2671.197002,2298.286494,296.082377,9474.636058
2671.197331,3447.429741,666.185348,7254.018232
2671.197660,2987.772442,1924.535449,6809.894666
2671.197989,2451.505594,2368.659014,8216.285956
2671.198318,2528.115143,2516.700203,8660.409521
2671.198647,2987.772442,2294.638420,7105.977043
2671.198976,2374.896044,666.185348,7772.162391
2671.199305,-459.657299,-296.082377,9252.574275
2671.199634,-1532.190996,-1776.494261,10807.006753
2671.199963,-2451.505594,-2294.638420,10807.006753
2671.200292,-2987.772442,-2738.761985,10214.842000
2671.200621,-3907.087040,-2146.597232,10658.965565
2671.200950,-3370.820191,-2516.700203,11177.109724
2671.201279,-2681.334243,-1554.432478,9918.759623
2671.201608,-1608.800546,-1554.432478,8882.471304
2671.201937,-995.924147,-666.185348,10436.903782
2671.202266,612.876398,-296.082377,9326.594869
2671.202595,3064.381992,888.247130,8734.430116
2671.202924,3064.381992,1776.494261,6291.750507
2671.203253,2528.115143,1480.411884,8364.327145
2671.203581,2604.724693,1184.329507,8734.430116
2671.203910,3447.429741,1850.514855,7254.018232
2671.204239,3140.991542,2146.597232,6513.812290
2671.204568,1685.410096,2886.803174,6735.874072
2671.204897,306.438199,1850.514855,8290.306550
2671.205226,-1149.143247,-888.247130,9548.656652
2671.205555,-1225.752797,-2220.617826,9400.615463
2671.205884,-2604.724693,-1850.514855,9696.697840
2671.206213,-3677.258390,-3552.988522,11325.150913
2671.206542,-3217.601092,-2960.823768,10584.944971
2671.206871,-1915.238745,-2812.782580,10732.986159
2671.207200,-1532.190996,-1850.514855,9770.718434
2671.207529,0.000000,-444.123565,9844.739029
2671.207858,2068.457845,1036.288319,8956.491898
2671.208187,3983.696590,2590.720797,8142.265362
2671.208516,2528.115143,2442.679609,7846.182985
2671.208845,2834.553343,1628.453072,8216.285956
2671.209174,3140.991542,2590.720797,7698.141797
2671.209503,3677.258390,2442.679609,7476.080014
2671.209832,2068.457845,1924.535449,7772.162391
2671.210161,1149.143247,3034.844362,7328.038826
2671.210490,1838.629195,1184.329507,7698.141797
2671.210819,689.485948,-296.082377,8216.285956
2671.211148,-1838.629195,-2960.823768,10436.903782
2671.211476,-3830.477490,-1850.514855,10288.862594
2671.211805,-3753.867940,-4663.297435,12139.377449
2671.212134,-3064.381992,-3849.070898,10658.965565
2671.212463,-2528.115143,-2368.659014,11103.089130
2671.212792,-2451.505594,-2294.638420,10955.047942
2671.213121,-1149.143247,-814.226536,11029.068536
2671.213450,2298.286494,-296.082377,9474.636058
2671.213779,2987.772442,2146.597232,7031.956449
2671.214108,2374.896044,2516.700203,6883.915261
2671.214437,2221.676944,1850.514855,8068.244768
2671.214766,2604.724693,740.205942,7402.059420
2671.215095,2528.115143,1554.432478,6143.709319
2671.215424,2451.505594,-0.000000,6735.874072
2671.215753,459.657299,148.041188,8512.368333
2671.216082,-536.266849,-2294.638420,9844.739029
2671.216411,-1378.971896,-1332.370696,8512.368333
2671.216740,-3064.381992,-1702.473667,9770.718434
2671.217069,-3140.991542,-2886.803174,11251.130318
2671.217398,-2681.334243,-2294.638420,10881.027347
2671.217727,-1302.362347,-2368.659014,9696.697840
2671.218056,-1685.410096,-2516.700203,9992.780217
2671.218385,-536.266849,-2368.659014,10881.027347
2671.218714,1838.629195,-814.226536,9770.718434
2671.219043,3294.210641,814.226536,6957.935855
2671.219371,2757.943793,2294.638420,7254.018232
2671.219700,2374.896044,1554.432478,8586.388927
2671.220029,3064.381992,1554.432478,8142.265362
2671.220358,3677.258390,3034.844362,6439.791695
2671.220687,2757.943793,888.247130,7402.059420
2671.221016,1072.533697,1554.432478,7550.100608
2671.221345,2145.067394,-222.061783,9918.759623
2671.221674,536.266849,-1702.473667,9548.656652
2671.222003,-383.047749,-1924.535449,9252.574275
2671.222332,-2221.676944,-444.123565,10288.862594
2671.222661,-1225.752797,-4441.235652,12879.583391
2671.222990,-2451.505594,-592.164754,9104.533087
2671.223319,-1225.752797,-1406.391290,10140.821405
2671.223648,-1762.019645,-518.144159,10584.944971
2671.223977,-306.438199,370.102971,10732.986159
2671.224306,1991.848295,-0.000000,8882.471304
2671.224635,2604.724693,1332.370696,7920.203579
2671.224964,2145.067394,1628.453072,8882.471304
2671.225293,2604.724693,592.164754,7402.059420
2671.225622,3064.381992,1480.411884,7772.162391
2671.225951,2757.943793,2072.576638,7328.038826
2671.226280,1532.190996,1332.370696,7846.182985
2671.226609,229.828649,296.082377,9030.512492
2671.226937,-842.705048,-1776.494261,10288.862594
2671.227266,-919.314598,-814.226536,9252.574275
2671.227595,-2681.334243,-1406.391290,9474.636058
2671.227924,-2987.772442,-1998.556043,11103.089130
2671.228253,-1685.410096,-814.226536,10658.965565
2671.228582,-1378.971896,-1332.370696,9844.739029
2671.228911,-1762.019645,-518.144159,9770.718434
2671.229240,-919.314598,-962.267725,10658.965565
2671.229569,153.219100,-518.144159,9400.615463
2671.229898,1762.019645,1332.370696,7105.977043
2671.230227,1685.410096,2220.617826,7920.203579
2671.230556,1915.238745,1036.288319,8438.347739
2671.230885,2604.724693,1702.473667,8290.306550
2671.231214,3140.991542,1184.329507,7328.038826
2671.231543,1991.848295,1036.288319,8142.265362
2671.231872,229.828649,814.226536,9252.574275
2671.232201,612.876398,-444.123565,9770.718434
2671.232530,-383.047749,-0.000000,9548.656652
2671.232859,-1762.019645,-666.185348,9548.656652
2671.233188,-2221.676944,-740.205942,9918.759623
2671.233517,-1378.971896,-1110.308913,10807.006753
2671.233846,0.000000,-962.267725,9696.697840
2671.234175,-612.876398,-370.102971,8660.409521
2671.234504,-229.828649,-962.267725,9770.718434
2671.234833,919.314598,-0.000000,9548.656652
2671.235162,2145.067394,962.267725,8660.409521
2671.235491,2068.457845,1480.411884,7105.977043
2671.235820,1915.238745,1258.350101,8364.327145
2671.236149,2451.505594,1184.329507,8882.471304
2671.236478,2834.553343,148.041188,7550.100608
2671.236807,1455.581446,666.185348,8142.265362
2671.237137,536.266849,370.102971,8882.471304
2671.237466,0.000000,-1258.350101,9844.739029
2671.237795,-229.828649,-962.267725,9622.677246
2671.238124,-1225.752797,-888.247130,8364.327145
2671.238453,-2298.286494,-1258.350101,9622.677246
2671.238782,-2451.505594,-1406.391290,10955.047942
2671.239111,-1072.533697,-1776.494261,9696.697840
2671.239440,-1072.533697,-1702.473667,9400.615463
2671.239769,-1225.752797,-1110.308913,9400.615463
2671.240098,-383.047749,-1850.514855,9992.780217
2671.240427,995.924147,-888.247130,9178.553681
2671.240757,2068.457845,-444.123565,7476.080014
2671.241086,1685.410096,518.144159,8586.388927
2671.241415,1225.752797,-0.000000,9030.512492
2671.241744,2145.067394,-0.000000,8364.327145
2671.242073,2145.067394,888.247130,7550.100608
2671.242402,766.095498,444.123565,8512.368333
2671.242731,0.000000,-518.144159,10288.862594
2671.243060,-383.047749,-888.247130,9770.718434
2671.243389,-689.485948,-1110.308913,8586.388927
2671.243718,-1149.143247,-1110.308913,9622.677246
2671.244047,-2145.067394,-1554.432478,10140.821405
2671.244377,-995.924147,-2368.659014,10510.924376
2671.244706,0.000000,-1184.329507,8808.450710
2671.245035,0.000000,-962.267725,8882.471304
2671.245364,-459.657299,-740.205942,9474.636058
2671.245693,1072.533697,-592.164754,9770.718434
2671.246022,2528.115143,962.267725,8512.368333
2671.246351,2451.505594,1110.308913,7254.018232
2671.246680,2374.896044,1628.453072,8364.327145
2671.247009,2681.334243,1554.432478,8512.368333
2671.247338,3217.601092,2146.597232,7698.141797
2671.247668,2528.115143,1924.535449,7698.141797
2671.247997,919.314598,740.205942,8290.306550
2671.248326,459.657299,-0.000000,9178.553681
2671.248655,-306.438199,444.123565,8808.450710
2671.248984,-1302.362347,-148.041188,9178.553681
2671.249313,-2528.115143,-444.123565,10140.821405
2671.249642,-1532.190996,-2368.659014,10214.842000
2671.249971,-919.314598,-2886.803174,9844.739029
2671.250300,0.000000,-1406.391290,9474.636058
2671.250629,0.000000,-814.226536,9548.656652
2671.250958,306.438199,-444.123565,10066.800811
2671.251288,1991.848295,1332.370696,8660.409521
2671.251617,2528.115143,1998.556043,7994.224174
2671.251946,1685.410096,1776.494261,7994.224174
2671.252275,1991.848295,1406.391290,8216.285956
2671.252604,2757.943793,814.226536,8142.265362
2671.252933,1455.581446,370.102971,7698.141797
2671.253262,-229.828649,444.123565,9252.574275
2671.253591,-1608.800546,-370.102971,9918.759623
2671.253920,-1838.629195,-1850.514855,10436.903782
2671.254249,-2145.067394,-740.205942,9326.594869
2671.254578,-2757.943793,-1850.514855,9622.677246
2671.254908,-2911.162892,-1628.453072,10881.027347
2671.255237,-1762.019645,-2146.597232,11251.130318
2671.255566,-612.876398,-1702.473667,8364.327145
2671.255895,-536.266849,-666.185348,9474.636058
2671.256224,612.876398,-518.144159,10288.862594
2671.256553,1838.629195,592.164754,8512.368333
2671.256882,3064.381992,1924.535449,7624.121203
2671.257211,2528.115143,2294.638420,7105.977043
2671.257540,2221.676944,2220.617826,8734.430116
2671.257869,2145.067394,2368.659014,8290.306550
2671.258198,1762.019645,1110.308913,7624.121203
2671.258528,76.609550,740.205942,8364.327145
2671.258857,-1302.362347,-148.041188,9252.574275
2671.259186,-1225.752797,-2220.617826,11029.068536
2671.259515,-1225.752797,-2368.659014,9992.780217
2671.259844,-1455.581446,-1406.391290,9696.697840
2671.260173,-1762.019645,-1184.329507,9548.656652
2671.260502,-766.095498,-592.164754,9844.739029
2671.260831,766.095498,-222.061783,9030.512492
2671.261160,1915.238745,-0.000000,8068.244768
2671.261489,2221.676944,962.267725,8734.430116
2671.261818,2987.772442,1110.308913,8512.368333
2671.262148,3677.258390,1554.432478,7550.100608
2671.262477,2834.553343,2072.576638,8216.285956
2671.262806,1762.019645,2072.576638,8142.265362
2671.263135,1915.238745,888.247130,8808.450710
2671.263464,1455.581446,-592.164754,9326.594869
2671.263793,76.609550,-1258.350101,9252.574275
2671.264122,-842.705048,-1406.391290,9178.553681
2671.264451,-1608.800546,-3108.864956,10658.965565
2671.264780,-1915.238745,-2590.720797,9696.697840
2671.265109,-1532.190996,-1702.473667,9918.759623
2671.265439,-1915.238745,-1628.453072,9474.636058
2671.265768,-995.924147,-1406.391290,10214.842000
2671.266097,536.266849,-1036.288319,9474.636058
2671.266426,1455.581446,-518.144159,8068.244768
2671.266755,1608.800546,-0.000000,8882.471304
2671.267084,1915.238745,222.061783,9104.533087
2671.267413,2145.067394,222.061783,8512.368333
2671.267742,2298.286494,1332.370696,7550.100608
2671.268071,1149.143247,1258.350101,7772.162391
2671.268400,229.828649,-0.000000,9030.512492
2671.268729,153.219100,-1850.514855,8956.491898
2671.269059,383.047749,-1258.350101,9104.533087
2671.269388,-1762.019645,-1924.535449,9252.574275
2671.269717,-2528.115143,-1554.432478,9844.739029
2671.270046,-1915.238745,-1998.556043,10436.903782
2671.270375,-1225.752797,-1480.411884,9326.594869
2671.270704,-995.924147,-1036.288319,8660.409521
2671.271033,0.000000,-814.226536,9030.512492
2671.271362,689.485948,-814.226536,9474.636058
2671.271691,1838.629195,222.061783,7624.121203
2671.272020,1608.800546,814.226536,7105.977043
2671.272349,1608.800546,1702.473667,8512.368333
2671.272679,1838.629195,1628.453072,8586.388927
2671.273008,2221.676944,1480.411884,8290.306550
2671.273337,1838.629195,1332.370696,7772.162391
2671.273666,306.438199,-0.000000,8586.388927
2671.273995,153.219100,-1258.350101,9696.697840
2671.274324,153.219100,-1924.535449,9474.636058
2671.274653,-459.657299,-666.185348,8956.491898
2671.274982,-1302.362347,-518.144159,9400.615463
2671.275311,-612.876398,-74.020594,9770.718434
2671.275640,-306.438199,-444.123565,9918.759623
2671.275969,0.000000,740.205942,8512.368333
2671.276299,-229.828649,370.102971,8512.368333
2671.276628,612.876398,-74.020594,9696.697840
2671.276957,1072.533697,-222.061783,9400.615463
2671.277286,919.314598,-222.061783,8734.430116
2671.277615,383.047749,-0.000000,8882.471304
2671.277944,612.876398,-148.041188,9696.697840
2671.278273,1378.971896,444.123565,9326.594869
2671.278602,612.876398,1406.391290,8512.368333
2671.278931,0.000000,962.267725,8586.388927
2671.279260,0.000000,-222.061783,9548.656652
2671.279590,0.000000,-1258.350101,9548.656652
2671.279919,306.438199,-518.144159,8586.388927
2671.280248,-1378.971896,-666.185348,9400.615463
2671.280577,-2145.067394,-1850.514855,10140.821405
2671.280906,-995.924147,-1406.391290,9770.718434
2671.281235,-306.438199,-592.164754,9030.512492
2671.281564,-1149.143247,-370.102971,8660.409521
2671.281893,-766.095498,-148.041188,9696.697840
2671.282222,1149.143247,-592.164754,9178.553681
2671.282551,1302.362347,-0.000000,8586.388927
2671.282880,919.314598,-0.000000,8438.347739
2671.283210,995.924147,-518.144159,8882.471304
2671.283539,1762.019645,222.061783,8956.491898
2671.283868,1991.848295,1036.288319,7994.224174
2671.284197,995.924147,1036.288319,8290.306550
2671.284526,842.705048,740.205942,9104.533087
2671.284855,0.000000,148.041188,8808.450710
2671.285184,459.657299,-0.000000,8808.450710
2671.285513,-229.828649,-518.144159,8660.409521
2671.285842,-1072.533697,-888.247130,9622.677246
2671.286171,-689.485948,-1702.473667,10140.821405
2671.286500,-229.828649,-1258.350101,9474.636058
2671.286830,0.000000,-148.041188,8882.471304
2671.287159,-689.485948,-444.123565,10066.800811
2671.287488,76.609550,-666.185348,9844.739029
2671.287817,2145.067394,-592.164754,8882.471304
2671.288146,2221.676944,1184.329507,7920.203579
2671.288475,1915.238745,1110.308913,8734.430116
2671.288804,2221.676944,296.082377,9326.594869
2671.289133,3370.820191,1036.288319,7698.141797
2671.289462,2681.334243,1258.350101,7698.141797
2671.289791,1378.971896,888.247130,8364.327145
2671.290120,766.095498,296.082377,9474.636058
2671.290450,1149.143247,-666.185348,9252.574275
2671.290779,0.000000,-1184.329507,8660.409521
2671.291108,-1455.581446,-1184.329507,9548.656652
2671.291437,-2221.676944,-1998.556043,10362.883188
2671.291766,-1762.019645,-2072.576638,10066.800811
2671.292095,-1685.410096,-962.267725,8734.430116
2671.292424,-1915.238745,-666.185348,9474.636058
2671.292753,-1532.190996,-1332.370696,10140.821405
2671.293082,383.047749,-1702.473667,9548.656652
2671.293411,1225.752797,-962.267725,8216.285956
2671.293740,1149.143247,-444.123565,8512.368333
2671.294070,1302.362347,-0.000000,9400.615463
2671.294399,2145.067394,444.123565,8512.368333
2671.294728,2451.505594,1184.329507,7920.203579
2671.295057,1532.190996,1998.556043,7772.162391
2671.295386,919.314598,1184.329507,8660.409521
2671.295715,995.924147,-0.000000,8808.450710
2671.296044,0.000000,-370.102971,9104.533087
2671.296373,-1608.800546,-888.247130,9696.697840
2671.296702,-2681.334243,-1998.556043,10140.821405
2671.297031,-2451.505594,-2072.576638,10807.006753
2671.297361,-1915.238745,-1480.411884,10140.821405
2671.297690,-2145.067394,-962.267725,9104.533087
2671.298019,-1915.238745,-888.247130,9696.697840
2671.298348,0.000000,-1110.308913,9622.677246
2671.298677,1378.971896,-370.102971,9030.512492
2671.299006,2221.676944,666.185348,8438.347739
2671.299335,2528.115143,1036.288319,8808.450710
2671.299664,2681.334243,1184.329507,9104.533087
2671.299993,3370.820191,2072.576638,8142.265362
2671.300322,2911.162892,2220.617826,7179.997637
2671.300651,1762.019645,2442.679609,8216.285956
2671.300981,2451.505594,1998.556043,8660.409521
2671.301310,2145.067394,1998.556043,7772.162391
2671.301639,1532.190996,962.267725,7994.224174
2671.301968,-766.095498,-444.123565,9178.553681
2671.302297,-1608.800546,-1554.432478,10436.903782
2671.302626,-1762.019645,-1480.411884,10362.883188
2671.302955,-1608.800546,-3182.885551,10436.903782
2671.303284,-3370.820191,-1406.391290,9992.780217
2671.303613,-2374.896044,-2368.659014,11251.130318
2671.303942,-689.485948,-1628.453072,10288.862594
2671.304271,842.705048,-0.000000,8882.471304
2671.304601,1608.800546,592.164754,8660.409521
2671.304930,2528.115143,1332.370696,8586.388927
2671.305259,2987.772442,1332.370696,8586.388927
2671.305588,3447.429741,1628.453072,7698.141797
2671.305917,2528.115143,1628.453072,7476.080014
2671.306246,1378.971896,2664.741391,8216.285956
2671.306575,2298.286494,1258.350101,8068.244768
2671.306904,1991.848295,1036.288319,7698.141797
2671.307233,-689.485948,-888.247130,9770.718434
2671.307562,-2221.676944,-2590.720797,9548.656652
2671.307891,-2374.896044,-2368.659014,10807.006753
2671.308221,-2374.896044,-3404.947333,11325.150913
2671.308550,-3600.648841,-2368.659014,9622.677246
2671.308879,-3600.648841,-2368.659014,11103.089130
2671.309208,-2374.896044,-2294.638420,10881.027347
2671.309537,-536.266849,-1628.453072,9918.759623
2671.309866,1532.190996,-1184.329507,8734.430116
2671.310195,2221.676944,222.061783,9104.533087
2671.310524,2834.553343,962.267725,8216.285956
2671.310853,3524.039291,1776.494261,7105.977043
2671.311182,2757.943793,2220.617826,7698.141797
2671.311511,1991.848295,2812.782580,7920.203579
2671.311841,2451.505594,2072.576638,8068.244768
2671.312170,2221.676944,1480.411884,6217.729913
2671.312499,2221.676944,962.267725,7846.182985
2671.312828,306.438199,-222.061783,9252.574275
2671.313157,-1608.800546,-3849.070898,10140.821405
2671.313486,-2221.676944,-2590.720797,10510.924376
2671.313815,-1991.848295,-2812.782580,11029.068536
2671.314144,-3140.991542,-3552.988522,10436.903782
2671.314473,-2987.772442,-1776.494261,10881.027347
2671.314802,-766.095498,-1850.514855,10140.821405
2671.315132,306.438199,-222.061783,7846.182985
2671.315461,1225.752797,1406.391290,9104.533087
2671.315790,2911.162892,518.144159,9622.677246
2671.316119,3370.820191,1628.453072,7920.203579
2671.316448,2681.334243,2072.576638,7031.956449
2671.316777,2528.115143,962.267725,7254.018232
2671.317106,2068.457845,1776.494261,8290.306550
2671.317435,3140.991542,518.144159,8068.244768
2671.317764,2987.772442,1110.308913,6883.915261
2671.318093,1072.533697,1850.514855,6957.935855
2671.318422,-306.438199,-1036.288319,8882.471304
2671.318752,-1378.971896,-2072.576638,9992.780217
2671.319081,-1991.848295,-1332.370696,10584.944971
2671.319410,-3294.210641,-2590.720797,9992.780217
2671.319739,-3524.039291,-2812.782580,10955.047942
2671.320068,-2374.896044,-2812.782580,12509.480420
2671.320397,-1378.971896,-2072.576638,10510.924376
2671.320726,-842.705048,-962.267725,9770.718434
2671.321055,612.876398,-666.185348,9474.636058
2671.321384,2374.896044,1332.370696,9104.533087
2671.321713,2681.334243,2294.638420,7846.182985
2671.322042,2681.334243,2072.576638,7550.100608
2671.322372,1685.410096,1850.514855,7772.162391
2671.322701,2528.115143,1702.473667,7994.224174
2671.323030,2987.772442,1628.453072,7179.997637
2671.323359,1991.848295,1332.370696,7105.977043
2671.323688,0.000000,666.185348,9104.533087
2671.324017,-689.485948,-1184.329507,9696.697840
2671.324346,-1149.143247,-1258.350101,9844.739029
2671.324675,-2221.676944,-1036.288319,10066.800811
2671.325004,-2911.162892,-2146.597232,11473.192101
2671.325333,-3370.820191,-1628.453072,10436.903782
2671.325662,-1991.848295,-1702.473667,10288.862594
2671.325992,-1608.800546,-1184.329507,9844.739029
2671.326321,-459.657299,-296.082377,9844.739029
2671.326650,2145.067394,-0.000000,9474.636058
2671.326979,3064.381992,1332.370696,8512.368333
2671.327308,3064.381992,1702.473667,7476.080014
2671.327637,1915.238745,1554.432478,7550.100608
2671.327966,2451.505594,1184.329507,9030.512492
2671.328295,2757.943793,2664.741391,7254.018232
2671.328624,2221.676944,1628.453072,7328.038826
2671.328953,459.657299,1850.514855,7624.121203
2671.329283,1072.533697,1184.329507,8290.306550
2671.329612,689.485948,-518.144159,9474.636058
2671.329941,-1378.971896,-1998.556043,9252.574275
2671.330270,-2145.067394,-1332.370696,9622.677246
2671.330599,-2757.943793,-1776.494261,11251.130318
2671.330928,-2987.772442,-4145.153275,11695.253884
2671.331257,-2528.115143,-1406.391290,10362.883188
2671.331586,-1149.143247,-2146.597232,10214.842000
2671.331915,-1149.143247,-74.020594,9622.677246
2671.332244,1455.581446,-0.000000,9474.636058
2671.332573,2681.334243,1184.329507,7698.141797
2671.332903,2221.676944,2072.576638,7772.162391
2671.333232,2528.115143,1628.453072,8438.347739
2671.333561,2681.334243,592.164754,7105.977043
2671.333890,3677.258390,1924.535449,7254.018232
2671.334219,2374.896044,1184.329507,7476.080014
2671.334548,1072.533697,1628.453072,7920.203579
2671.334877,536.266849,740.205942,9252.574275
2671.335206,-306.438199,-1628.453072,9548.656652
2671.335535,-2451.505594,-1332.370696,9252.574275
2671.335864,-3064.381992,-1850.514855,11399.171507
2671.336194,-2987.772442,-3849.070898,12065.356855
2671.336523,-3217.601092,-2590.720797,10140.821405
2671.336852,-2068.457845,-2664.741391,10066.800811
2671.337181,-1838.629195,-1480.411884,10288.862594
2671.337510,306.438199,-1480.411884,10584.944971
2671.337839,2451.505594,-0.000000,8216.285956
2671.338168,3524.039291,1924.535449,5995.668130
2671.338498,2221.676944,518.144159,8512.368333
2671.338827,2681.334243,814.226536,7550.100608
2671.339156,3600.648841,2442.679609,6809.894666
2671.339485,3064.381992,1480.411884,7254.018232
2671.339814,1762.019645,1628.453072,7550.100608
2671.340143,1302.362347,1332.370696,8216.285956
2671.340473,2145.067394,444.123565,7698.141797
2671.340802,459.657299,296.082377,8586.388927
2671.341131,-1685.410096,-2886.803174,10140.821405
2671.341460,-2374.896044,-2294.638420,10732.986159
2671.341789,-1838.629195,-2738.761985,12213.398043
2671.342118,-2145.067394,-3701.029710,10881.027347
2671.342448,-2451.505594,-1406.391290,10214.842000
2671.342777,-536.266849,-1406.391290,11695.253884
2671.343106,689.485948,-0.000000,9770.718434
2671.343435,2987.772442,1110.308913,8660.409521
2671.343764,3064.381992,1924.535449,7624.121203
2671.344093,2757.943793,1184.329507,8364.327145
2671.344423,2834.553343,2294.638420,7920.203579
2671.344752,2834.553343,2072.576638,7031.956449
2671.345081,1608.800546,2072.576638,8290.306550
2671.345410,842.705048,2072.576638,7105.977043
2671.345739,2145.067394,1998.556043,8290.306550
2671.346068,1302.362347,1702.473667,6735.874072
2671.346397,-689.485948,-1258.350101,8364.327145
2671.346727,-2221.676944,-3256.906145,10584.944971
2671.347056,-3217.601092,-2146.597232,10955.047942
2671.347385,-2834.553343,-4441.235652,11621.233289
2671.347714,-3907.087040,-3478.967927,9918.759623
2671.348043,-2987.772442,-1776.494261,13471.748144
2671.348372,-536.266849,-1702.473667,10288.862594
2671.348702,689.485948,740.205942,8734.430116
2671.349031,2068.457845,1184.329507,7402.059420
2671.349360,2911.162892,1332.370696,8216.285956
2671.349689,3140.991542,1332.370696,8364.327145
2671.350018,2757.943793,1036.288319,6883.915261
2671.350347,1915.238745,1850.514855,6365.771101
2671.350677,1149.143247,740.205942,7550.100608
2671.351006,1072.533697,1480.411884,6883.915261
2671.351335,1685.410096,222.061783,9400.615463
2671.351664,-1455.581446,-2220.617826,9326.594869
2671.351993,-2068.457845,-2590.720797,10066.800811
2671.352322,-2451.505594,-2220.617826,10955.047942
2671.352652,-2451.505594,-4737.318029,12731.542202
2671.352981,-3370.820191,-1406.391290,10436.903782
2671.353310,-2298.286494,-2960.823768,10881.027347
2671.353639,-1838.629195,-1036.288319,10658.965565
2671.353968,1302.362347,-0.000000,9474.636058
2671.354297,3294.210641,1406.391290,7402.059420
2671.354626,2911.162892,1776.494261,7994.224174
2671.354956,2528.115143,1258.350101,8290.306550
2671.355285,2987.772442,1628.453072,7105.977043
2671.355614,3370.820191,3182.885551,7402.059420
2671.355943,1685.410096,1850.514855,7105.977043
2671.356272,995.924147,1554.432478,7624.121203
2671.356601,1532.190996,1406.391290,7698.141797
2671.356931,2298.286494,-370.102971,9252.574275
2671.357260,-1455.581446,-1332.370696,9474.636058
2671.357589,-1685.410096,-3034.844362,10881.027347
2671.357918,-2451.505594,-518.144159,10732.986159
2671.358247,-1455.581446,-3923.091493,11251.130318
2671.358576,-2681.334243,-1258.350101,8586.388927
2671.358906,-1302.362347,-1258.350101,12509.480420
2671.359235,-919.314598,-296.082377,9918.759623
2671.359564,995.924147,1332.370696,7698.141797
2671.359893,1838.629195,1628.453072,8216.285956
2671.360222,2681.334243,1776.494261,8660.409521
2671.360551,2374.896044,1110.308913,8216.285956
2671.360881,2221.676944,1184.329507,6143.709319
2671.361210,2298.286494,1258.350101,7328.038826
2671.361539,689.485948,1332.370696,8512.368333
2671.361868,536.266849,-740.205942,9770.718434
2671.362197,0.000000,-518.144159,9400.615463
2671.362526,-1149.143247,-1776.494261,9622.677246
2671.362856,-2451.505594,-518.144159,9696.697840
2671.363185,-2221.676944,-1776.494261,10881.027347
2671.363514,-1302.362347,-1628.453072,10881.027347
2671.363843,-1378.971896,-740.205942,9178.553681
2671.364172,-1608.800546,-1184.329507,10584.944971
2671.364501,-689.485948,-888.247130,9992.780217
2671.364830,1072.533697,-1036.288319,9770.718434
2671.365160,2068.457845,518.144159,7846.182985
2671.365489,1838.629195,740.205942,7254.018232
2671.365818,2068.457845,666.185348,9326.594869
2671.366147,2451.505594,962.267725,8586.388927
2671.366476,2374.896044,1628.453072,7328.038826
2671.366805,1072.533697,1184.329507,8216.285956
2671.367135,842.705048,-0.000000,8956.491898
2671.367464,383.047749,-666.185348,9992.780217
2671.367793,-306.438199,-370.102971,9992.780217
2671.368122,-1455.581446,-592.164754,10288.862594
2671.368451,-1302.362347,-1332.370696,10288.862594
2671.368780,-306.438199,-740.205942,9400.615463
2671.369110,306.438199,-962.267725,9400.615463
