#time,accel_x,accel_y,accel_z
2737.712296,76.609550,-148.041188,9030.512492
2737.712625,306.438199,-148.041188,9474.636058
2737.712953,612.876398,-296.082377,9178.553681
2737.713282,612.876398,-370.102971,9178.553681
2737.713611,229.828649,222.061783,9474.636058
2737.713940,0.000000,-0.000000,9622.677246
2737.714269,229.828649,-74.020594,9400.615463
2737.714598,229.828649,-0.000000,9104.533087
2737.714927,229.828649,-0.000000,9104.533087
2737.715256,383.047749,-222.061783,9030.512492
2737.715585,1072.533697,-0.000000,8882.471304
2737.715914,612.876398,-74.020594,9178.553681
2737.716243,612.876398,-296.082377,9326.594869
2737.716572,306.438199,-222.061783,9030.512492
2737.716901,306.438199,-148.041188,8956.491898
2737.717230,306.438199,-148.041188,9030.512492
2737.717558,459.657299,-518.144159,8808.450710
2737.717887,536.266849,-296.082377,9252.574275
2737.718216,459.657299,-222.061783,9030.512492
2737.718545,383.047749,-74.020594,9104.533087
2737.718874,383.047749,-0.000000,9030.512492
2737.719203,383.047749,-0.000000,8956.491898
2737.719532,306.438199,-148.041188,8882.471304
2737.719861,536.266849,-0.000000,8808.450710
2737.720190,536.266849,-592.164754,8660.409521
2737.720519,383.047749,-74.020594,9030.512492
2737.720848,383.047749,-444.123565,9178.553681
2737.721177,229.828649,-222.061783,9104.533087
2737.721506,229.828649,-222.061783,9104.533087
2737.721835,383.047749,-148.041188,9030.512492
2737.722163,229.828649,-148.041188,9030.512492
2737.722492,536.266849,-74.020594,9030.512492
2737.722821,766.095498,-74.020594,9400.615463
2737.723150,229.828649,-370.102971,9030.512492
2737.723479,306.438199,-148.041188,9400.615463
2737.723808,306.438199,-74.020594,9104.533087
2737.724137,383.047749,-222.061783,9400.615463
2737.724466,306.438199,-148.041188,9400.615463
2737.724795,995.924147,-518.144159,9400.615463
2737.725124,383.047749,-0.000000,9548.656652
2737.725453,689.485948,-296.082377,9474.636058
2737.725782,459.657299,-222.061783,9104.533087
2737.726111,383.047749,-74.020594,8956.491898
2737.726440,306.438199,-0.000000,9104.533087
2737.726769,306.438199,-0.000000,9400.615463
2737.727097,536.266849,-222.061783,9474.636058
2737.727426,153.219100,-444.123565,8956.491898
2737.727755,306.438199,-296.082377,9104.533087
2737.728084,612.876398,-148.041188,8808.450710
2737.728413,306.438199,-74.020594,8882.471304
2737.728742,76.609550,-0.000000,8956.491898
2737.729071,459.657299,-0.000000,9030.512492
2737.729400,459.657299,-0.000000,8882.471304
2737.729729,306.438199,-0.000000,8956.491898
2737.730058,153.219100,-222.061783,9030.512492
2737.730387,383.047749,-0.000000,8882.471304
2737.730716,383.047749,-0.000000,8808.450710
2737.731045,153.219100,-148.041188,8882.471304
2737.731374,383.047749,-0.000000,9178.553681
2737.731702,229.828649,-222.061783,9178.553681
2737.732031,153.219100,-370.102971,9178.553681
2737.732360,383.047749,-0.000000,9030.512492
2737.732689,306.438199,-74.020594,9252.574275
2737.733018,306.438199,-222.061783,9104.533087
2737.733347,76.609550,-148.041188,9178.553681
2737.733676,459.657299,-74.020594,9252.574275
2737.734005,306.438199,-222.061783,9104.533087
2737.734334,459.657299,-518.144159,9178.553681
2737.734663,229.828649,-222.061783,9178.553681
2737.734992,383.047749,-0.000000,9030.512492
2737.735321,459.657299,-0.000000,9252.574275
2737.735650,536.266849,-0.000000,9178.553681
2737.735979,306.438199,-0.000000,9178.553681
2737.736307,383.047749,-0.000000,9400.615463
2737.736636,459.657299,-370.102971,9400.615463
2737.736965,153.219100,-222.061783,9030.512492
2737.737294,229.828649,-148.041188,9400.615463
2737.737623,153.219100,-296.082377,9252.574275
2737.737952,229.828649,-0.000000,9178.553681
2737.738281,383.047749,-74.020594,8956.491898
2737.738610,76.609550,-0.000000,8956.491898
2737.738939,689.485948,-74.020594,9030.512492
2737.739268,1072.533697,-148.041188,9178.553681
2737.739597,1149.143247,-814.226536,9622.677246
2737.739926,1608.800546,-740.205942,9178.553681
2737.740255,1762.019645,-296.082377,9252.574275
2737.740584,2145.067394,-296.082377,9030.512492
2737.740913,2528.115143,-0.000000,8660.409521
2737.741241,3217.601092,370.102971,9030.512492
2737.741570,4060.306139,-0.000000,9178.553681
2737.741899,3370.820191,-0.000000,8586.388927
2737.742228,2987.772442,444.123565,8882.471304
2737.742557,2987.772442,666.185348,8142.265362
2737.742886,2757.943793,-370.102971,9252.574275
2737.743215,3140.991542,-444.123565,9252.574275
2737.743544,1685.410096,-1184.329507,9326.594869
2737.743873,1915.238745,-1406.391290,9918.759623
2737.744202,2528.115143,-1702.473667,9474.636058
2737.744531,2528.115143,-0.000000,9326.594869
2737.744860,2451.505594,-1480.411884,10066.800811
2737.745189,3447.429741,-518.144159,9178.553681
2737.745518,3677.258390,370.102971,9400.615463
2737.745846,5132.839837,592.164754,8142.265362
2737.746175,4443.353888,666.185348,8216.285956
2737.746504,4979.620737,1036.288319,9178.553681
2737.746833,5515.887586,666.185348,7550.100608
2737.747162,4136.915689,740.205942,8290.306550
2737.747491,3983.696590,296.082377,8956.491898
2737.747820,2757.943793,518.144159,8364.327145
2737.748149,2374.896044,-0.000000,9696.697840
2737.748478,1302.362347,-962.267725,9178.553681
2737.748807,1915.238745,-148.041188,10066.800811
2737.749136,766.095498,-1110.308913,9844.739029
2737.749465,1378.971896,-518.144159,9844.739029
2737.749794,1225.752797,-592.164754,10214.842000
2737.750123,2834.553343,370.102971,8586.388927
2737.750451,2681.334243,-222.061783,9030.512492
2737.750780,4366.744339,962.267725,9548.656652
2737.751109,4519.963438,1406.391290,8290.306550
2737.751438,4443.353888,1110.308913,8290.306550
2737.751767,4596.572988,666.185348,8808.450710
2737.752096,4213.525239,-0.000000,8364.327145
2737.752425,3447.429741,-444.123565,8808.450710
2737.752754,3064.381992,-962.267725,9474.636058
2737.753083,2451.505594,-1184.329507,10584.944971
2737.753412,2451.505594,-1850.514855,9622.677246
2737.753741,2298.286494,-1702.473667,9844.739029
2737.754070,2221.676944,-740.205942,9696.697840
2737.754399,2911.162892,-74.020594,9548.656652
2737.754728,3217.601092,444.123565,8364.327145
2737.755056,3830.477490,1258.350101,8808.450710
2737.755385,4290.134789,1628.453072,7920.203579
2737.755714,4060.306139,1776.494261,7476.080014
2737.756043,3830.477490,1998.556043,7550.100608
2737.756372,3600.648841,1406.391290,7772.162391
2737.756701,3447.429741,888.247130,7994.224174
2737.757030,2528.115143,-296.082377,9030.512492
2737.757359,2681.334243,-1332.370696,9992.780217
2737.757688,2298.286494,-2664.741391,10362.883188
2737.758017,2221.676944,-2886.803174,10881.027347
2737.758346,2757.943793,-2886.803174,11103.089130
2737.758675,3294.210641,-1924.535449,10584.944971
2737.759004,4213.525239,-222.061783,9844.739029
2737.759333,4979.620737,592.164754,9474.636058
2737.759662,6052.154434,1850.514855,8882.471304
2737.759990,5822.325785,2738.761985,7846.182985
2737.760319,4903.011187,3997.112087,7920.203579
2737.760648,4596.572988,3552.988522,7328.038826
2737.760977,4290.134789,2960.823768,7328.038826
2737.761306,3294.210641,1332.370696,7328.038826
2737.761635,1302.362347,-518.144159,9252.574275
2737.761964,0.000000,-3627.009116,10510.924376
2737.762293,-995.924147,-4367.215058,11399.171507
2737.762622,-766.095498,-5699.585753,11843.295072
2737.762951,-842.705048,-3256.906145,10140.821405
2737.763280,76.609550,-2072.576638,11029.068536
2737.763609,689.485948,-370.102971,10362.883188
2737.763938,2987.772442,666.185348,10658.965565
2737.764267,5898.935335,1480.411884,8808.450710
2737.764595,7660.954980,1036.288319,7994.224174
2737.764924,6665.030833,888.247130,7994.224174
2737.765253,6128.763984,1036.288319,6365.771101
2737.765582,5822.325785,3034.844362,7179.997637
2737.765911,5592.497135,1480.411884,6735.874072
2737.766240,5056.230287,3330.926739,5181.441594
2737.766569,4596.572988,2072.576638,6957.935855
2737.766898,3907.087040,1924.535449,6069.688724
2737.767227,4060.306139,-1480.411884,8512.368333
2737.767556,229.828649,-6587.832884,12139.377449
2737.767885,-995.924147,-6883.915261,11843.295072
2737.768214,-1991.848295,-3404.947333,12879.583391
2737.768543,-1225.752797,-8586.388927,14211.954086
2737.768872,-1838.629195,-296.082377,10214.842000
2737.769200,2374.896044,-296.082377,13249.686362
2737.769529,2987.772442,1036.288319,10066.800811
2737.769858,5822.325785,2812.782580,9252.574275
2737.770187,8120.612279,1110.308913,9474.636058
2737.770516,7660.954980,4367.215058,7105.977043
2737.770845,8197.221829,4885.359217,6143.709319
2737.771174,7890.783629,1924.535449,4811.338623
2737.771503,7507.735880,2146.597232,4441.235652
2737.771832,7201.297681,1850.514855,7254.018232
2737.772161,6128.763984,222.061783,6735.874072
2737.772490,3600.648841,2072.576638,5847.626942
2737.772819,3830.477490,-1554.432478,8660.409521
2737.773148,0.000000,-4219.173869,12731.542202
2737.773477,-2528.115143,-5477.523971,12435.459826
2737.773805,-2604.724693,-1406.391290,13471.748144
2737.774134,-2298.286494,-7772.162391,13323.706956
2737.774463,-2068.457845,1184.329507,10807.006753
2737.774792,2451.505594,-888.247130,12139.377449
2737.775121,0.000000,1924.535449,9474.636058
2737.775450,2987.772442,370.102971,13101.645173
2737.775779,7584.345430,1184.329507,5625.565159
2737.776108,9116.536426,2220.617826,8216.285956
2737.776437,5745.716235,1702.473667,6735.874072
2737.776766,7507.735880,1702.473667,4441.235652
2737.777095,5898.935335,666.185348,8586.388927
2737.777424,6128.763984,962.267725,5625.565159
2737.777753,5132.839837,2368.659014,6661.853478
2737.778082,3294.210641,1776.494261,7328.038826
2737.778411,2987.772442,444.123565,7846.182985
2737.778739,2451.505594,518.144159,10066.800811
2737.779068,1378.971896,-3404.947333,11251.130318
2737.779397,-842.705048,-1332.370696,10807.006753
2737.779726,-612.876398,-4737.318029,13841.851115
2737.780055,-1302.362347,-4219.173869,11473.192101
2737.780384,0.000000,296.082377,11399.171507
2737.780713,1685.410096,518.144159,10510.924376
2737.781042,2374.896044,2886.803174,7994.224174
2737.781371,4213.525239,1628.453072,8142.265362
2737.781700,4443.353888,1924.535449,7698.141797
2737.782029,4903.011187,2664.741391,7179.997637
2737.782358,4136.915689,1110.308913,7402.059420
2737.782687,4060.306139,-1332.370696,7476.080014
2737.783016,3370.820191,-2294.638420,9400.615463
2737.783344,2298.286494,-2960.823768,10732.986159
2737.783673,1302.362347,-1998.556043,11029.068536
2737.784002,842.705048,-1850.514855,10658.965565
2737.784331,2451.505594,370.102971,10955.047942
2737.784660,2451.505594,1184.329507,9474.636058
2737.784989,3217.601092,814.226536,9918.759623
2737.785318,4060.306139,1332.370696,8660.409521
2737.785647,5362.668486,1110.308913,8290.306550
2737.785976,5515.887586,1998.556043,8216.285956
2737.786305,5209.449386,1258.350101,8808.450710
2737.786634,4903.011187,370.102971,7772.162391
2737.786963,4749.792088,148.041188,7031.956449
2737.787291,4596.572988,1036.288319,6957.935855
2737.787620,2451.505594,-370.102971,9178.553681
2737.787949,919.314598,-2072.576638,10510.924376
2737.788278,536.266849,-2220.617826,10436.903782
2737.788607,1225.752797,-2960.823768,11177.109724
2737.788936,459.657299,-2294.638420,10066.800811
2737.789265,306.438199,-1406.391290,11251.130318
2737.789594,919.314598,-1480.411884,11843.295072
2737.789923,3524.039291,296.082377,9622.677246
2737.790251,6205.373534,2072.576638,8290.306550
2737.790580,6435.202183,1332.370696,8586.388927
2737.790909,5132.839837,888.247130,9104.533087
2737.791238,4826.401637,1332.370696,7698.141797
2737.791567,5362.668486,1258.350101,7179.997637
2737.791896,6358.592633,-370.102971,8216.285956
2737.792225,5439.278036,1332.370696,7402.059420
2737.792554,5439.278036,740.205942,8512.368333
2737.792882,4826.401637,-518.144159,7328.038826
2737.793211,4213.525239,-740.205942,8660.409521
2737.793540,2834.553343,-2294.638420,11103.089130
2737.793869,1608.800546,-1184.329507,11177.109724
2737.794198,842.705048,-0.000000,10066.800811
2737.794527,1685.410096,-1332.370696,9918.759623
2737.794856,1838.629195,-74.020594,10584.944971
2737.795185,3140.991542,-518.144159,10066.800811
2737.795514,3677.258390,1332.370696,8438.347739
2737.795842,3370.820191,1702.473667,7994.224174
2737.796171,4136.915689,1480.411884,8512.368333
2737.796500,4749.792088,1924.535449,7772.162391
2737.796829,4443.353888,222.061783,7402.059420
2737.797158,2681.334243,-1110.308913,7994.224174
2737.797487,2681.334243,-370.102971,9030.512492
2737.797816,2528.115143,-2220.617826,9030.512492
2737.798145,536.266849,-666.185348,10140.821405
2737.798474,536.266849,-1776.494261,9622.677246
2737.798802,-306.438199,-962.267725,9326.594869
2737.799131,76.609550,-888.247130,9474.636058
2737.799460,1838.629195,-148.041188,9918.759623
2737.799789,2681.334243,-666.185348,9400.615463
2737.800118,2757.943793,-0.000000,9030.512492
2737.800447,3600.648841,518.144159,8290.306550
2737.800776,2528.115143,-0.000000,8808.450710
2737.801105,4519.963438,592.164754,8956.491898
2737.801434,5439.278036,666.185348,6957.935855
2737.801762,4979.620737,740.205942,8290.306550
2737.802091,5286.058936,-370.102971,9178.553681
2737.802420,5209.449386,-444.123565,8660.409521
2737.802749,4519.963438,-1184.329507,8734.430116
2737.803078,3217.601092,-148.041188,8660.409521
2737.803407,2757.943793,-666.185348,9326.594869
2737.803736,2298.286494,-740.205942,9696.697840
2737.804065,3600.648841,-148.041188,10214.842000
2737.804393,3600.648841,370.102971,10584.944971
2737.804722,2374.896044,-666.185348,9400.615463
2737.805051,2451.505594,2294.638420,7846.182985
2737.805380,3217.601092,1258.350101,10288.862594
2737.805709,2451.505594,1332.370696,7550.100608
2737.806038,2757.943793,1480.411884,7179.997637
2737.806367,1378.971896,-1036.288319,9770.718434
2737.806696,0.000000,-222.061783,9104.533087
2737.807025,1225.752797,-962.267725,9178.553681
2737.807353,-1225.752797,-1184.329507,8882.471304
2737.807682,-995.924147,-1036.288319,9844.739029
2737.808011,-919.314598,-1110.308913,9918.759623
2737.808340,-995.924147,-1480.411884,8956.491898
2737.808669,689.485948,-1998.556043,11177.109724
2737.808998,689.485948,-1628.453072,8882.471304
2737.809327,0.000000,-74.020594,9030.512492
2737.809656,842.705048,-148.041188,9252.574275
2737.809985,1762.019645,1554.432478,8290.306550
2737.810313,2068.457845,592.164754,7698.141797
2737.810642,2451.505594,1184.329507,7920.203579
2737.810971,2528.115143,1480.411884,7994.224174
2737.811300,1685.410096,-148.041188,6883.915261
2737.811629,2145.067394,-148.041188,8734.430116
2737.811958,-306.438199,-814.226536,9770.718434
2737.812287,-536.266849,-1702.473667,9770.718434
2737.812616,-689.485948,-2368.659014,9844.739029
2737.812944,-536.266849,-1628.453072,9918.759623
2737.813273,-536.266849,-1406.391290,9474.636058
2737.813602,1685.410096,-888.247130,9696.697840
2737.813931,842.705048,-444.123565,9992.780217
2737.814260,1838.629195,-0.000000,9178.553681
2737.814589,2834.553343,-296.082377,9252.574275
2737.814918,3294.210641,2368.659014,8290.306550
2737.815247,2757.943793,1258.350101,8068.244768
2737.815576,2451.505594,2220.617826,8882.471304
2737.815904,2757.943793,-222.061783,8586.388927
2737.816233,2221.676944,814.226536,8216.285956
2737.816562,919.314598,-518.144159,9548.656652
2737.816891,-229.828649,-296.082377,9696.697840
2737.817220,-1838.629195,-740.205942,8586.388927
2737.817549,-612.876398,-222.061783,10807.006753
2737.817878,-1149.143247,-1406.391290,9474.636058
2737.818207,-1149.143247,-1776.494261,9400.615463
2737.818536,-1302.362347,-888.247130,9992.780217
2737.818864,-1149.143247,-370.102971,9400.615463
2737.819193,-1915.238745,370.102971,8734.430116
2737.819522,-995.924147,518.144159,9474.636058
2737.819851,-689.485948,-222.061783,9992.780217
2737.820180,-842.705048,-74.020594,9178.553681
2737.820509,-229.828649,-148.041188,9474.636058
2737.820838,536.266849,-962.267725,9030.512492
2737.821167,0.000000,-296.082377,7031.956449
2737.821495,842.705048,-148.041188,8586.388927
2737.821824,1072.533697,-74.020594,8734.430116
2737.822153,766.095498,888.247130,7994.224174
2737.822482,1532.190996,-0.000000,9326.594869
2737.822811,1149.143247,888.247130,8734.430116
2737.823140,612.876398,1776.494261,6957.935855
2737.823469,153.219100,592.164754,9474.636058
2737.823798,-612.876398,-148.041188,10436.903782
2737.824127,-536.266849,-0.000000,9178.553681
2737.824455,-766.095498,-222.061783,9326.594869
2737.824784,-612.876398,-1406.391290,10362.883188
2737.825113,-1302.362347,-888.247130,8956.491898
2737.825442,-383.047749,-518.144159,9326.594869
2737.825771,-306.438199,-888.247130,10066.800811
2737.826100,-229.828649,-1110.308913,8956.491898
2737.826429,229.828649,370.102971,9178.553681
2737.826758,1225.752797,-592.164754,10214.842000
2737.827087,1302.362347,-0.000000,7105.977043
2737.827415,1378.971896,814.226536,7031.956449
2737.827744,1378.971896,666.185348,8808.450710
2737.828073,766.095498,518.144159,7994.224174
2737.828402,919.314598,-0.000000,8512.368333
2737.828731,1072.533697,-518.144159,8586.388927
2737.829060,-229.828649,-592.164754,8512.368333
2737.829389,0.000000,-1036.288319,9474.636058
2737.829718,-1225.752797,-1110.308913,9252.574275
2737.830047,-842.705048,-1332.370696,10066.800811
2737.830375,0.000000,-1850.514855,8586.388927
2737.830704,-919.314598,-1480.411884,10140.821405
2737.831033,0.000000,-1406.391290,9844.739029
2737.831362,0.000000,-518.144159,7772.162391
2737.831691,766.095498,-814.226536,10140.821405
2737.832020,1532.190996,518.144159,8808.450710
2737.832349,2068.457845,592.164754,7476.080014
2737.832678,2298.286494,-0.000000,10140.821405
2737.833006,1915.238745,666.185348,8216.285956
2737.833335,1302.362347,1036.288319,7624.121203
2737.833664,2145.067394,-222.061783,9992.780217
2737.833993,1072.533697,518.144159,9104.533087
2737.834322,689.485948,-0.000000,8364.327145
2737.834651,1149.143247,-0.000000,9252.574275
2737.834980,383.047749,-444.123565,8364.327145
2737.835309,-229.828649,-1184.329507,9474.636058
2737.835638,-229.828649,-814.226536,9696.697840
2737.835966,-612.876398,-1110.308913,10436.903782
2737.836295,-1608.800546,-1406.391290,9104.533087
2737.836624,-153.219100,-592.164754,9918.759623
2737.836953,76.609550,-222.061783,10140.821405
2737.837282,0.000000,666.185348,7476.080014
2737.837611,1072.533697,-74.020594,10436.903782
2737.837940,1378.971896,296.082377,9622.677246
2737.838269,1302.362347,1924.535449,7624.121203
2737.838598,2298.286494,-0.000000,9770.718434
2737.838926,1915.238745,740.205942,7846.182985
2737.839255,1149.143247,1258.350101,7846.182985
2737.839584,1072.533697,-666.185348,9400.615463
2737.839913,0.000000,-0.000000,9030.512492
2737.840242,-306.438199,-740.205942,9474.636058
2737.840571,-459.657299,-444.123565,9178.553681
2737.840900,-1072.533697,-1184.329507,10288.862594
2737.841229,-1532.190996,-962.267725,8882.471304
2737.841557,-612.876398,-592.164754,9326.594869
2737.841886,0.000000,-814.226536,9622.677246
2737.842215,-612.876398,-444.123565,9770.718434
2737.842544,459.657299,-814.226536,9474.636058
2737.842873,919.314598,-0.000000,8660.409521
2737.843202,1302.362347,814.226536,7031.956449
2737.843531,1302.362347,592.164754,8364.327145
2737.843860,1685.410096,518.144159,9178.553681
2737.844189,1302.362347,666.185348,6735.874072
2737.844517,1302.362347,370.102971,9252.574275
2737.844846,0.000000,-0.000000,9030.512492
2737.845175,0.000000,-444.123565,7994.224174
2737.845504,-842.705048,-888.247130,9548.656652
2737.845833,-995.924147,-444.123565,9178.553681
2737.846162,-1915.238745,-1628.453072,9030.512492
2737.846491,-1608.800546,-1258.350101,10510.924376
2737.846820,-995.924147,-74.020594,10881.027347
2737.847149,-1225.752797,-740.205942,9400.615463
2737.847477,-1762.019645,-444.123565,9696.697840
2737.847806,-842.705048,518.144159,10510.924376
2737.848135,-612.876398,148.041188,9252.574275
2737.848464,-306.438199,370.102971,9770.718434
2737.848793,842.705048,-0.000000,10288.862594
2737.849122,842.705048,888.247130,8364.327145
2737.849451,766.095498,-0.000000,8956.491898
2737.849780,1302.362347,-0.000000,9178.553681
2737.850108,766.095498,666.185348,8290.306550
2737.850437,689.485948,-222.061783,8808.450710
2737.850766,1762.019645,-962.267725,8660.409521
2737.851095,0.000000,-0.000000,7476.080014
2737.851424,-76.609550,-1184.329507,8956.491898
2737.851753,0.000000,-0.000000,9326.594869
2737.852082,-383.047749,-444.123565,9622.677246
2737.852411,536.266849,-148.041188,9474.636058
2737.852740,383.047749,-888.247130,10658.965565
2737.853068,919.314598,-222.061783,8142.265362
2737.853397,995.924147,-370.102971,9104.533087
2737.853726,1991.848295,296.082377,9548.656652
2737.854055,1762.019645,148.041188,7698.141797
2737.854384,2374.896044,-0.000000,8808.450710
2737.854713,2221.676944,222.061783,8216.285956
2737.855042,1838.629195,370.102971,6809.894666
2737.855371,1991.848295,-740.205942,8290.306550
2737.855700,0.000000,148.041188,9252.574275
2737.856028,536.266849,-1406.391290,10214.842000
2737.856357,-306.438199,-74.020594,7328.038826
2737.856686,-1838.629195,-1036.288319,10955.047942
2737.857015,-842.705048,-1850.514855,9770.718434
2737.857344,-995.924147,222.061783,8808.450710
2737.857673,-1378.971896,-74.020594,9178.553681
2737.858002,459.657299,-148.041188,10584.944971
2737.858331,995.924147,-814.226536,8660.409521
2737.858660,1149.143247,1332.370696,9474.636058
2737.858988,1915.238745,296.082377,8290.306550
2737.859317,229.828649,1850.514855,7698.141797
2737.859646,689.485948,-370.102971,9326.594869
2737.859975,459.657299,1036.288319,8734.430116
2737.860304,0.000000,-1184.329507,7994.224174
2737.860633,-459.657299,-0.000000,9770.718434
2737.860962,-842.705048,-1776.494261,10066.800811
2737.861291,-1302.362347,-1702.473667,8364.327145
2737.861619,-689.485948,-666.185348,9030.512492
2737.861948,-612.876398,-740.205942,10214.842000
2737.862277,-612.876398,-1036.288319,8808.450710
2737.862606,459.657299,-518.144159,10732.986159
2737.862935,1685.410096,444.123565,7994.224174
2737.863264,1532.190996,222.061783,8956.491898
2737.863593,1149.143247,888.247130,8956.491898
2737.863922,2068.457845,1110.308913,8216.285956
2737.864251,1532.190996,444.123565,7772.162391
2737.864579,2068.457845,666.185348,8734.430116
2737.864908,1532.190996,370.102971,8438.347739
2737.865237,689.485948,-962.267725,8142.265362
2737.865566,0.000000,-592.164754,9622.677246
2737.865895,-229.828649,-296.082377,9696.697840
2737.866224,-842.705048,-592.164754,9104.533087
2737.866553,-306.438199,-1110.308913,10214.842000
2737.866882,-689.485948,444.123565,9622.677246
2737.867211,-229.828649,-0.000000,9474.636058
2737.867539,-306.438199,-888.247130,9548.656652
2737.867868,-383.047749,444.123565,10436.903782
2737.868197,0.000000,-74.020594,8882.471304
2737.868526,1072.533697,-148.041188,9474.636058
2737.868855,842.705048,222.061783,9104.533087
2737.869184,1532.190996,592.164754,7920.203579
2737.869513,1149.143247,-0.000000,8956.491898
2737.869842,1532.190996,148.041188,9104.533087
2737.870170,459.657299,-444.123565,8438.347739
2737.870499,1072.533697,-592.164754,9400.615463
2737.870828,536.266849,-222.061783,8438.347739
2737.871157,0.000000,-148.041188,9030.512492
2737.871486,-459.657299,-1332.370696,9252.574275
2737.871815,842.705048,-740.205942,10658.965565
2737.872144,0.000000,-518.144159,8512.368333
2737.872473,536.266849,-0.000000,9030.512492
2737.872802,229.828649,-1110.308913,11547.212695
2737.873130,153.219100,222.061783,7698.141797
2737.873459,1149.143247,-0.000000,9326.594869
2737.873788,1685.410096,518.144159,9696.697840
2737.874117,1838.629195,296.082377,7994.224174
2737.874446,2911.162892,296.082377,9474.636058
2737.874775,2221.676944,1406.391290,8808.450710
2737.875104,1991.848295,-0.000000,6883.915261
2737.875433,1225.752797,-74.020594,8142.265362
2737.875762,766.095498,222.061783,9104.533087
2737.876090,0.000000,-740.205942,8882.471304
2737.876419,-612.876398,-666.185348,9474.636058
2737.876748,-459.657299,-814.226536,10214.842000
2737.877077,-1072.533697,-444.123565,8882.471304
2737.877406,-1149.143247,-148.041188,9844.739029
2737.877735,-766.095498,-814.226536,9770.718434
2737.878064,-1302.362347,296.082377,9622.677246
2737.878393,-995.924147,-148.041188,9030.512492
2737.878722,76.609550,-1406.391290,9992.780217
2737.879050,-153.219100,-296.082377,7920.203579
2737.879379,766.095498,-0.000000,8438.347739
2737.879708,383.047749,-0.000000,9252.574275
2737.880037,-766.095498,148.041188,8290.306550
2737.880366,1378.971896,-666.185348,8956.491898
2737.880695,0.000000,-888.247130,8216.285956
2737.881024,-153.219100,-370.102971,8956.491898
2737.881353,0.000000,-1554.432478,9252.574275
2737.881681,-536.266849,-296.082377,10288.862594
2737.882010,-612.876398,-0.000000,7994.224174
2737.882339,766.095498,148.041188,9326.594869
2737.882668,0.000000,-740.205942,9622.677246
2737.882997,995.924147,1850.514855,7994.224174
2737.883326,1378.971896,-740.205942,8364.327145
2737.883655,459.657299,666.185348,9104.533087
2737.883984,1149.143247,-888.247130,9252.574275
2737.884313,229.828649,814.226536,7846.182985
2737.884641,153.219100,-1332.370696,10510.924376
2737.884970,229.828649,814.226536,8512.368333
2737.885299,-306.438199,-592.164754,8882.471304
2737.885628,0.000000,-1554.432478,10584.944971
2737.885957,229.828649,-0.000000,8808.450710
2737.886286,76.609550,-1480.411884,9474.636058
2737.886615,153.219100,-518.144159,8808.450710
2737.886944,1149.143247,1110.308913,9326.594869
2737.887273,0.000000,518.144159,8882.471304
2737.887601,689.485948,-0.000000,9400.615463
2737.887930,919.314598,740.205942,8290.306550
2737.888259,1302.362347,-0.000000,8586.388927
2737.888588,536.266849,-0.000000,9326.594869
2737.888917,766.095498,-222.061783,8808.450710
2737.889246,0.000000,444.123565,8364.327145
2737.889575,0.000000,-592.164754,9474.636058
2737.889904,0.000000,-1628.453072,9918.759623
2737.890233,-536.266849,-1628.453072,8808.450710
2737.890562,383.047749,-962.267725,10584.944971
2737.890891,459.657299,-444.123565,9548.656652
2737.891220,76.609550,-0.000000,7994.224174
2737.891549,842.705048,-0.000000,9992.780217
2737.891878,995.924147,444.123565,9400.615463
2737.892207,1149.143247,666.185348,7624.121203
2737.892536,1685.410096,444.123565,8364.327145
2737.892865,1915.238745,592.164754,8956.491898
2737.893194,1149.143247,-0.000000,7994.224174
2737.893523,1149.143247,-0.000000,9400.615463
2737.893852,1072.533697,-444.123565,9104.533087
2737.894181,689.485948,-74.020594,8438.347739
2737.894510,842.705048,-444.123565,9474.636058
2737.894839,0.000000,-148.041188,9326.594869
2737.895168,-536.266849,296.082377,8512.368333
2737.895497,0.000000,-444.123565,9474.636058
2737.895826,-689.485948,-296.082377,9400.615463
2737.896155,-689.485948,-148.041188,8586.388927
2737.896484,0.000000,-222.061783,9992.780217
2737.896813,-383.047749,-592.164754,9474.636058
2737.897142,383.047749,-0.000000,7698.141797
2737.897471,153.219100,-222.061783,9474.636058
2737.897800,-612.876398,-148.041188,9474.636058
2737.898129,459.657299,-0.000000,8956.491898
2737.898458,919.314598,-222.061783,8586.388927
2737.898787,306.438199,444.123565,8734.430116
2737.899116,536.266849,518.144159,8438.347739
2737.899444,383.047749,-814.226536,8808.450710
2737.899773,-383.047749,370.102971,9548.656652
2737.900102,229.828649,-74.020594,8882.471304
2737.900431,0.000000,-740.205942,9252.574275
2737.900760,0.000000,-814.226536,9474.636058
2737.901089,76.609550,444.123565,8586.388927
2737.901418,-306.438199,-1406.391290,9326.594869
2737.901747,0.000000,-962.267725,10584.944971
2737.902076,153.219100,-666.185348,9326.594869
2737.902405,766.095498,-74.020594,9178.553681
2737.902734,842.705048,-148.041188,9622.677246
2737.903063,842.705048,1184.329507,7994.224174
2737.903392,689.485948,296.082377,9548.656652
2737.903721,919.314598,592.164754,9992.780217
2737.904050,612.876398,1036.288319,8364.327145
2737.904379,383.047749,-814.226536,9918.759623
2737.904708,306.438199,-444.123565,9548.656652
2737.905037,0.000000,-740.205942,8956.491898
2737.905366,-1072.533697,-1702.473667,9548.656652
2737.905695,-689.485948,-444.123565,9918.759623
2737.906024,-766.095498,-1110.308913,9104.533087
2737.906353,-229.828649,-444.123565,9178.553681
2737.906682,612.876398,-148.041188,10140.821405
2737.907011,0.000000,-148.041188,7772.162391
2737.907340,383.047749,148.041188,8734.430116
2737.907669,612.876398,370.102971,9400.615463
2737.907998,536.266849,592.164754,7698.141797
2737.908327,306.438199,370.102971,8660.409521
2737.908656,919.314598,-1036.288319,9622.677246
2737.908985,689.485948,-370.102971,7846.182985
2737.909314,919.314598,-518.144159,7994.224174
2737.909643,306.438199,-74.020594,9104.533087
2737.909972,0.000000,-74.020594,8364.327145
2737.910301,0.000000,-888.247130,8808.450710
2737.910630,919.314598,296.082377,7698.141797
2737.910959,-1149.143247,-518.144159,8142.265362
2737.911288,306.438199,-1110.308913,10436.903782
2737.911617,1149.143247,-1184.329507,9474.636058
2737.911946,-306.438199,814.226536,9992.780217
2737.912275,1378.971896,-1258.350101,9252.574275
2737.912604,995.924147,-74.020594,8956.491898
2737.912933,1762.019645,1332.370696,9104.533087
2737.913262,1685.410096,1184.329507,7328.038826
2737.913590,2604.724693,-222.061783,9400.615463
2737.913919,1838.629195,-222.061783,8586.388927
2737.914248,2298.286494,592.164754,7772.162391
2737.914577,1225.752797,-222.061783,9030.512492
2737.914906,229.828649,-518.144159,9178.553681
2737.915235,-306.438199,370.102971,8290.306550
2737.915564,-1225.752797,-1406.391290,10510.924376
2737.915893,0.000000,-1406.391290,10288.862594
2737.916222,-536.266849,-74.020594,9474.636058
2737.916551,-1302.362347,-2368.659014,11473.192101
2737.916880,-919.314598,-370.102971,8586.388927
2737.917209,0.000000,-0.000000,9400.615463
2737.917538,0.000000,-0.000000,9992.780217
2737.917867,1302.362347,740.205942,9326.594869
2737.918196,1685.410096,592.164754,8364.327145
2737.918525,2145.067394,1184.329507,8882.471304
2737.918854,2068.457845,888.247130,8364.327145
2737.919183,383.047749,1332.370696,6735.874072
2737.919512,306.438199,222.061783,8586.388927
2737.919841,-153.219100,814.226536,8956.491898
2737.920170,-1072.533697,-740.205942,8290.306550
2737.920499,-919.314598,-1554.432478,9770.718434
2737.920828,-919.314598,-1628.453072,9622.677246
2737.921157,-1455.581446,-1110.308913,9178.553681
2737.921486,-1225.752797,-518.144159,9326.594869
2737.921815,-995.924147,-814.226536,10214.842000
2737.922144,-919.314598,-444.123565,9474.636058
2737.922473,229.828649,-0.000000,9622.677246
2737.922802,1072.533697,74.020594,8734.430116
2737.923131,1302.362347,1332.370696,7328.038826
2737.923460,1838.629195,888.247130,8290.306550
2737.923789,1302.362347,-0.000000,8882.471304
2737.924118,1225.752797,962.267725,7698.141797
2737.924447,1608.800546,-222.061783,8438.347739
2737.924776,1302.362347,444.123565,9770.718434
2737.925105,-459.657299,-444.123565,7550.100608
2737.925434,-612.876398,-1332.370696,9548.656652
2737.925763,-1532.190996,-1258.350101,10881.027347
2737.926092,-995.924147,-814.226536,9992.780217
2737.926421,-1072.533697,-1406.391290,9770.718434
2737.926750,-1149.143247,-1184.329507,10362.883188
2737.927079,-1685.410096,222.061783,9030.512492
2737.927408,-689.485948,-296.082377,9252.574275
2737.927737,-306.438199,-518.144159,10362.883188
2737.928065,153.219100,1184.329507,8216.285956
2737.928394,306.438199,518.144159,9252.574275
2737.928723,919.314598,-0.000000,9622.677246
2737.929052,1225.752797,222.061783,7994.224174
2737.929381,1225.752797,444.123565,8956.491898
2737.929710,1685.410096,-148.041188,9400.615463
2737.930039,995.924147,666.185348,8660.409521
2737.930368,995.924147,-0.000000,8882.471304
2737.930697,1838.629195,444.123565,8956.491898
2737.931026,766.095498,-222.061783,7846.182985
2737.931355,536.266849,-518.144159,9178.553681
2737.931684,689.485948,-518.144159,8586.388927
2737.932013,612.876398,-444.123565,9178.553681
2737.932342,0.000000,-814.226536,9548.656652
2737.932671,689.485948,-888.247130,10436.903782
2737.933000,383.047749,-592.164754,9622.677246
2737.933329,1149.143247,962.267725,8142.265362
2737.933658,2298.286494,-740.205942,10362.883188
2737.933987,1225.752797,296.082377,9400.615463
2737.934316,2374.896044,-0.000000,8142.265362
2737.934645,2911.162892,-148.041188,9474.636058
2737.934974,2145.067394,1184.329507,7402.059420
2737.935303,2298.286494,-0.000000,8438.347739
2737.935632,1455.581446,296.082377,9326.594869
2737.935961,689.485948,370.102971,7920.203579
2737.936290,-383.047749,-1850.514855,9030.512492
2737.936619,612.876398,-1776.494261,11547.212695
2737.936948,-1532.190996,-1184.329507,9400.615463
2737.937277,-1072.533697,-1480.411884,9400.615463
2737.937606,-919.314598,-666.185348,10584.944971
2737.937935,-995.924147,148.041188,10066.800811
2737.938264,306.438199,74.020594,8512.368333
2737.938593,1762.019645,-0.000000,9474.636058
2737.938922,1149.143247,518.144159,7846.182985
2737.939251,1915.238745,1332.370696,7031.956449
2737.939580,1455.581446,-74.020594,8216.285956
2737.939909,1072.533697,814.226536,7624.121203
2737.940238,919.314598,740.205942,7846.182985
2737.940567,229.828649,-74.020594,8808.450710
2737.940896,-766.095498,-888.247130,9696.697840
2737.941225,-1685.410096,-222.061783,9622.677246
2737.941554,-1685.410096,-370.102971,9400.615463
2737.941883,-766.095498,-814.226536,10140.821405
2737.942212,-1378.971896,-666.185348,9326.594869
2737.942540,-1302.362347,-0.000000,11399.171507
2737.942869,-1302.362347,-1184.329507,10288.862594
2737.943198,-1149.143247,-0.000000,7920.203579
2737.943527,383.047749,-296.082377,9474.636058
2737.943856,919.314598,1110.308913,9030.512492
2737.944185,612.876398,-0.000000,7846.182985
2737.944514,1302.362347,370.102971,8808.450710
2737.944843,1685.410096,370.102971,8216.285956
2737.945172,766.095498,962.267725,7772.162391
2737.945501,766.095498,-592.164754,9474.636058
2737.945830,383.047749,-0.000000,9474.636058
2737.946159,306.438199,-888.247130,8956.491898
2737.946488,-689.485948,-592.164754,10288.862594
2737.946817,-1225.752797,-1184.329507,11399.171507
2737.947146,-1455.581446,-666.185348,8364.327145
2737.947475,-995.924147,-74.020594,9326.594869
2737.947804,-1608.800546,-444.123565,10288.862594
2737.948133,-919.314598,-888.247130,10732.986159
2737.948462,0.000000,-1184.329507,9474.636058
2737.948791,229.828649,-74.020594,9030.512492
2737.949120,536.266849,-0.000000,8660.409521
2737.949449,995.924147,-592.164754,8068.244768
2737.949778,1532.190996,-0.000000,8956.491898
2737.950107,1072.533697,370.102971,8068.244768
2737.950436,2374.896044,-222.061783,7328.038826
2737.950765,1838.629195,296.082377,8512.368333
2737.951094,919.314598,888.247130,7624.121203
2737.951423,995.924147,222.061783,8882.471304
2737.951752,-383.047749,-296.082377,9104.533087
2737.952081,-689.485948,-148.041188,9918.759623
2737.952410,0.000000,-888.247130,10807.006753
2737.952739,-842.705048,-2072.576638,10214.842000
2737.953068,-766.095498,-444.123565,8290.306550
2737.953397,306.438199,-148.041188,9696.697840
2737.953726,919.314598,-518.144159,8956.491898
2737.954055,1532.190996,814.226536,7698.141797
2737.954384,2757.943793,518.144159,7772.162391
2737.954713,3064.381992,740.205942,7624.121203
2737.955042,3217.601092,1628.453072,6661.853478
2737.955371,2757.943793,740.205942,8068.244768
2737.955700,1225.752797,962.267725,9400.615463
2737.956029,0.000000,-74.020594,9474.636058
2737.956358,-842.705048,-1332.370696,10732.986159
2737.956687,-995.924147,-1776.494261,10807.006753
2737.957015,-612.876398,-518.144159,10066.800811
2737.957344,-1072.533697,-962.267725,9696.697840
2737.957673,-919.314598,-666.185348,9696.697840
2737.958002,153.219100,-74.020594,9474.636058
2737.958331,612.876398,148.041188,9178.553681
2737.958660,1532.190996,-0.000000,9770.718434
2737.958989,1838.629195,1036.288319,8438.347739
2737.959318,766.095498,1480.411884,6957.935855
2737.959647,1225.752797,518.144159,9696.697840
2737.959976,1072.533697,740.205942,9178.553681
2737.960305,229.828649,-518.144159,8512.368333
2737.960634,0.000000,-666.185348,10066.800811
2737.960963,-536.266849,-962.267725,9474.636058
2737.961292,-1838.629195,-1776.494261,9622.677246
2737.961621,-1072.533697,-1406.391290,10881.027347
2737.961950,-1378.971896,-962.267725,10140.821405
2737.962279,-1378.971896,-2072.576638,10362.883188
2737.962608,612.876398,-444.123565,9178.553681
2737.962937,919.314598,370.102971,7698.141797
2737.963266,995.924147,592.164754,7698.141797
2737.963595,1991.848295,962.267725,7994.224174
2737.963924,1915.238745,962.267725,7254.018232
2737.964253,1608.800546,888.247130,7476.080014
2737.964582,1915.238745,740.205942,7476.080014
2737.964911,612.876398,-0.000000,8290.306550
2737.965240,0.000000,296.082377,8512.368333
2737.965569,0.000000,444.123565,8882.471304
2737.965898,-995.924147,-888.247130,9992.780217
2737.966227,-612.876398,-1406.391290,9474.636058
2737.966556,-536.266849,-888.247130,11177.109724
2737.966885,-995.924147,-1776.494261,10658.965565
2737.967214,-1149.143247,-592.164754,8290.306550
2737.967543,153.219100,-370.102971,9844.739029
2737.967872,-229.828649,592.164754,9104.533087
2737.968201,612.876398,666.185348,8438.347739
2737.968530,1455.581446,-296.082377,9474.636058
2737.968859,1455.581446,518.144159,8068.244768
2737.969188,2068.457845,962.267725,7846.182985
2737.969517,1608.800546,-296.082377,9104.533087
2737.969846,536.266849,370.102971,8586.388927
2737.970175,919.314598,-296.082377,8808.450710
2737.970504,383.047749,-296.082377,9696.697840
2737.970833,1225.752797,-1184.329507,9992.780217
2737.971161,0.000000,-0.000000,9474.636058
2737.971490,-612.876398,-592.164754,9918.759623
2737.971819,-306.438199,-888.247130,10214.842000
2737.972148,-1302.362347,-740.205942,9474.636058
2737.972477,0.000000,296.082377,9918.759623
2737.972806,383.047749,666.185348,9918.759623
2737.973135,306.438199,-148.041188,8142.265362
2737.973464,1302.362347,-740.205942,9474.636058
2737.973793,1915.238745,-518.144159,9326.594869
2737.974122,1378.971896,-0.000000,8438.347739
2737.974451,2374.896044,-0.000000,8290.306550
2737.974780,1991.848295,962.267725,7846.182985
2737.975109,1378.971896,1480.411884,7550.100608
2737.975438,1149.143247,-592.164754,8364.327145
2737.975767,612.876398,518.144159,8956.491898
2737.976096,-766.095498,-518.144159,9844.739029
2737.976425,-842.705048,-1776.494261,10584.944971
2737.976754,-1991.848295,-1332.370696,9770.718434
2737.977083,-2298.286494,-1406.391290,10436.903782
2737.977412,-2068.457845,-962.267725,9770.718434
2737.977741,-842.705048,-518.144159,10214.842000
2737.978070,-1149.143247,-814.226536,8586.388927
2737.978399,1838.629195,-0.000000,9104.533087
2737.978728,1072.533697,-1036.288319,8882.471304
2737.979057,1762.019645,370.102971,7031.956449
2737.979386,1991.848295,370.102971,8068.244768
2737.979715,1072.533697,148.041188,8512.368333
2737.980044,842.705048,-444.123565,7994.224174
2737.980373,995.924147,-1480.411884,9252.574275
2737.980702,1072.533697,-1110.308913,8808.450710
2737.981031,76.609550,-592.164754,7920.203579
2737.981360,-689.485948,-1258.350101,9104.533087
2737.981689,-842.705048,-518.144159,9844.739029
2737.982018,-1225.752797,-962.267725,9474.636058
2737.982347,-459.657299,-740.205942,8882.471304
2737.982676,612.876398,-0.000000,9474.636058
2737.983005,76.609550,-0.000000,9548.656652
2737.983334,689.485948,-0.000000,8956.491898
2737.983663,1455.581446,1480.411884,8364.327145
2737.983992,766.095498,1554.432478,8142.265362
2737.984321,1302.362347,592.164754,8956.491898
2737.984650,2374.896044,1110.308913,9326.594869
2737.984979,1762.019645,962.267725,7994.224174
2737.985308,995.924147,-0.000000,7994.224174
2737.985636,612.876398,592.164754,9326.594869
2737.985965,76.609550,-888.247130,10288.862594
2737.986294,0.000000,-1110.308913,9696.697840
2737.986623,612.876398,962.267725,9622.677246
2737.986952,306.438199,-1924.535449,8808.450710
2737.987281,-689.485948,740.205942,8216.285956
2737.987610,383.047749,-148.041188,11029.068536
2737.987939,-306.438199,-0.000000,9252.574275
2737.988268,842.705048,-518.144159,9474.636058
2737.988597,536.266849,-222.061783,9918.759623
2737.988926,0.000000,-296.082377,8734.430116
2737.989255,229.828649,-444.123565,8660.409521
2737.989584,995.924147,-888.247130,9844.739029
2737.989913,766.095498,-148.041188,8734.430116
2737.990242,1302.362347,-1036.288319,9474.636058
2737.990571,612.876398,-1258.350101,9178.553681
2737.990900,229.828649,-0.000000,8734.430116
2737.991229,-536.266849,-0.000000,8882.471304
2737.991558,1225.752797,-962.267725,9548.656652
2737.991887,0.000000,-592.164754,7846.182985
2737.992216,-2068.457845,-0.000000,10214.842000
2737.992545,306.438199,-2220.617826,10807.006753
2737.992874,-306.438199,-592.164754,8364.327145
2737.993203,0.000000,-222.061783,8808.450710
2737.993532,536.266849,370.102971,9474.636058
2737.993861,306.438199,-814.226536,9104.533087
2737.994190,1685.410096,296.082377,7698.141797
2737.994519,1838.629195,296.082377,9400.615463
2737.994848,995.924147,592.164754,7920.203579
2737.995177,1225.752797,518.144159,6809.894666
2737.995506,1149.143247,962.267725,8290.306550
2737.995835,0.000000,740.205942,8142.265362
2737.996165,-842.705048,-74.020594,9178.553681
2737.996494,0.000000,-814.226536,10140.821405
2737.996823,-459.657299,-814.226536,8956.491898
2737.997152,-2221.676944,-518.144159,10066.800811
2737.997481,-1072.533697,-1184.329507,9622.677246
2737.997810,-1532.190996,-1110.308913,10066.800811
2737.998139,-1378.971896,-518.144159,9326.594869
2737.998468,-612.876398,296.082377,8808.450710
2737.998797,0.000000,-888.247130,10140.821405
2737.999126,842.705048,-0.000000,7624.121203
2737.999455,1302.362347,888.247130,8438.347739
2737.999784,919.314598,-148.041188,9326.594869
2738.000113,1302.362347,-0.000000,7846.182985
2738.000442,689.485948,740.205942,9400.615463
2738.000771,689.485948,-148.041188,9178.553681
2738.001100,0.000000,-666.185348,9326.594869
2738.001429,0.000000,-1258.350101,10066.800811
2738.001758,153.219100,-0.000000,9548.656652
2738.002087,306.438199,-962.267725,9844.739029
2738.002416,383.047749,-1184.329507,9992.780217
2738.002745,995.924147,148.041188,9770.718434
2738.003074,842.705048,296.082377,8438.347739
2738.003403,1302.362347,1036.288319,9104.533087
2738.003732,919.314598,-0.000000,8882.471304
2738.004061,306.438199,-370.102971,8882.471304
2738.004390,842.705048,-222.061783,9474.636058
2738.004719,0.000000,-1258.350101,9326.594869
2738.005048,-383.047749,-592.164754,10807.006753
2738.005377,0.000000,-74.020594,8290.306550
2738.005706,1608.800546,-0.000000,9918.759623
2738.006035,995.924147,444.123565,7772.162391
2738.006364,2451.505594,444.123565,8734.430116
2738.006693,1685.410096,962.267725,8512.368333
2738.007022,919.314598,1702.473667,8142.265362
2738.007351,1455.581446,444.123565,7920.203579
2738.007680,1915.238745,2072.576638,8586.388927
2738.008009,842.705048,-222.061783,8882.471304
2738.008338,153.219100,370.102971,9030.512492
2738.008667,2298.286494,-444.123565,9474.636058
2738.008996,-229.828649,-148.041188,8142.265362
2738.009325,-995.924147,148.041188,8882.471304
2738.009654,153.219100,-1110.308913,9400.615463
2738.009983,-1302.362347,-1332.370696,9844.739029
2738.010312,-383.047749,-148.041188,9474.636058
2738.010641,-153.219100,-888.247130,8882.471304
2738.010970,-612.876398,-1628.453072,10214.842000
2738.011299,-1302.362347,-1036.288319,9474.636058
2738.011628,689.485948,-444.123565,9326.594869
2738.011957,-689.485948,-1554.432478,9030.512492
2738.012286,612.876398,-296.082377,9178.553681
2738.012615,1838.629195,-1406.391290,9548.656652
2738.012944,536.266849,-0.000000,7920.203579
2738.013273,536.266849,444.123565,7550.100608
2738.013602,919.314598,-296.082377,9030.512492
2738.013931,76.609550,-518.144159,8512.368333
2738.014260,459.657299,370.102971,7624.121203
2738.014589,536.266849,-296.082377,8660.409521
2738.014918,0.000000,-0.000000,8660.409521
2738.015248,-1225.752797,-296.082377,8512.368333
2738.015577,-1149.143247,-0.000000,9770.718434
2738.015906,-2681.334243,-222.061783,9548.656652
2738.016235,-1915.238745,-1332.370696,9400.615463
2738.016564,-536.266849,-74.020594,9474.636058
2738.016893,-1532.190996,-962.267725,9622.677246
2738.017222,-919.314598,-444.123565,9326.594869
2738.017551,306.438199,-0.000000,10066.800811
2738.017880,153.219100,444.123565,9474.636058
2738.018209,1762.019645,1480.411884,8438.347739
2738.018538,2145.067394,444.123565,9104.533087
2738.018867,1608.800546,1776.494261,7328.038826
2738.019196,2451.505594,1110.308913,7254.018232
2738.019525,1608.800546,1332.370696,8290.306550
2738.019854,383.047749,-74.020594,8734.430116
2738.020183,0.000000,-814.226536,9548.656652
2738.020512,-306.438199,-2146.597232,9400.615463
2738.020841,-1378.971896,-1406.391290,10066.800811
2738.021170,-1915.238745,-1998.556043,9918.759623
2738.021499,-1378.971896,-1702.473667,11029.068536
2738.021828,-1225.752797,-1184.329507,10362.883188
2738.022157,-536.266849,-592.164754,9474.636058
2738.022486,1302.362347,-1036.288319,11177.109724
2738.022815,1532.190996,-74.020594,9474.636058
2738.023144,2911.162892,1332.370696,7476.080014
2738.023473,3294.210641,740.205942,8438.347739
2738.023802,3600.648841,1554.432478,8290.306550
2738.024131,2757.943793,888.247130,7994.224174
2738.024460,3294.210641,1776.494261,7846.182985
2738.024789,2604.724693,-74.020594,7846.182985
2738.025118,995.924147,592.164754,8290.306550
2738.025447,229.828649,-592.164754,9696.697840
2738.025776,-306.438199,-74.020594,10436.903782
2738.026105,-1608.800546,-1850.514855,9918.759623
2738.026434,-1072.533697,-814.226536,10732.986159
2738.026763,-1608.800546,-1480.411884,9770.718434
2738.027092,-1225.752797,-296.082377,9400.615463
2738.027421,-459.657299,-148.041188,9696.697840
2738.027750,0.000000,-370.102971,9326.594869
2738.028079,76.609550,740.205942,8956.491898
2738.028408,1991.848295,666.185348,8216.285956
2738.028737,1762.019645,-74.020594,8290.306550
2738.029066,1225.752797,444.123565,7698.141797
2738.029395,2145.067394,-0.000000,7179.997637
2738.029724,1072.533697,-444.123565,7772.162391
2738.030053,153.219100,-1036.288319,8142.265362
2738.030382,536.266849,-1110.308913,8808.450710
2738.030711,-459.657299,-1110.308913,9326.594869
2738.031040,-1915.238745,-666.185348,8882.471304
2738.031369,-1915.238745,-1702.473667,9178.553681
2738.031698,-1225.752797,-1184.329507,9474.636058
2738.032027,-995.924147,-1776.494261,9400.615463
2738.032356,-919.314598,-1036.288319,9622.677246
2738.032685,0.000000,-1110.308913,9696.697840
2738.033014,229.828649,-0.000000,8216.285956
2738.033343,1378.971896,666.185348,8290.306550
2738.033672,2681.334243,740.205942,8216.285956
2738.034001,2221.676944,1110.308913,7624.121203
2738.034330,2834.553343,1184.329507,7105.977043
2738.034660,2681.334243,740.205942,8734.430116
2738.034989,1915.238745,-0.000000,7920.203579
2738.035318,1149.143247,-0.000000,8216.285956
2738.035647,-1455.581446,-1036.288319,10214.842000
2738.035976,-1455.581446,-1776.494261,11547.212695
2738.036305,-1685.410096,-1406.391290,9696.697840
2738.036634,-2221.676944,-1258.350101,10955.047942
2738.036963,-1302.362347,-1628.453072,12287.418637
2738.037292,-766.095498,-1332.370696,9992.780217
2738.037621,-459.657299,-0.000000,8882.471304
2738.037950,842.705048,444.123565,9770.718434
2738.038279,1455.581446,296.082377,8290.306550
2738.038608,2451.505594,2072.576638,7994.224174
2738.038937,2451.505594,888.247130,7105.977043
2738.039266,2145.067394,2664.741391,6069.688724
2738.039595,2145.067394,1036.288319,9030.512492
2738.039924,-306.438199,1702.473667,7179.997637
2738.040253,-229.828649,-0.000000,10362.883188
2738.040582,-1838.629195,-222.061783,9104.533087
2738.040911,-2681.334243,-1036.288319,9104.533087
2738.041240,-3140.991542,-592.164754,10584.944971
2738.041569,-3447.429741,-1406.391290,8142.265362
2738.041898,-4290.134789,1036.288319,8290.306550
2738.042227,-4749.792088,-592.164754,9770.718434
2738.042556,-2604.724693,-370.102971,11029.068536
2738.042885,-3983.696590,-666.185348,9326.594869
2738.043214,-5132.839837,-1110.308913,8734.430116
2738.043543,-2834.553343,-1924.535449,10732.986159
2738.043872,-3064.381992,-296.082377,9622.677246
2738.044201,-2911.162892,-74.020594,8364.327145
2738.044530,-1532.190996,-74.020594,10066.800811
2738.044859,-2451.505594,-1332.370696,8586.388927
2738.045188,-1149.143247,2072.576638,8660.409521
2738.045517,-306.438199,-74.020594,7846.182985
2738.045846,-1685.410096,666.185348,7328.038826
2738.046175,-1072.533697,370.102971,7698.141797
2738.046504,-995.924147,888.247130,8586.388927
2738.046833,-2451.505594,-74.020594,9474.636058
2738.047162,-1685.410096,-0.000000,7994.224174
2738.047491,-2298.286494,-444.123565,8512.368333
2738.047820,-3677.258390,-592.164754,10288.862594
2738.048149,-3753.867940,-888.247130,9104.533087
2738.048478,-3447.429741,-1332.370696,9770.718434
2738.048807,-3370.820191,-2294.638420,10732.986159
2738.049136,-3447.429741,-1036.288319,9400.615463
2738.049465,-3140.991542,-1332.370696,9844.739029
2738.049794,-2604.724693,-814.226536,9326.594869
2738.050123,-2451.505594,74.020594,9548.656652
2738.050452,-2604.724693,370.102971,8956.491898
2738.050781,-1991.848295,-296.082377,7698.141797
2738.051110,-1455.581446,592.164754,9178.553681
2738.051439,-306.438199,1480.411884,7994.224174
2738.051768,-383.047749,518.144159,6661.853478
2738.052097,-2604.724693,592.164754,7476.080014
2738.052426,-2757.943793,444.123565,8586.388927
2738.052755,-3447.429741,222.061783,7772.162391
2738.053084,-3294.210641,-1258.350101,8808.450710
2738.053413,-4979.620737,-1406.391290,9030.512492
2738.053742,-4366.744339,-2590.720797,10140.821405
2738.054072,-5132.839837,-2516.700203,10362.883188
2738.054401,-4749.792088,-2516.700203,11325.150913
2738.054730,-4519.963438,-1554.432478,10881.027347
2738.055059,-2604.724693,-518.144159,8734.430116
2738.055388,-1915.238745,888.247130,8512.368333
2738.055717,-1225.752797,1406.391290,9030.512492
2738.056046,-153.219100,444.123565,10510.924376
2738.056375,229.828649,888.247130,7402.059420
2738.056704,1378.971896,2146.597232,7179.997637
2738.057033,0.000000,2516.700203,6587.832884
2738.057362,-842.705048,1850.514855,7105.977043
2738.057691,-1608.800546,1258.350101,8290.306550
2738.058020,-2374.896044,-740.205942,8882.471304
2738.058349,-2068.457845,-1184.329507,10658.965565
2738.058678,-3370.820191,-2590.720797,9770.718434
2738.059007,-4060.306139,-1554.432478,9770.718434
2738.059336,-4519.963438,-2294.638420,10732.986159
2738.059665,-4060.306139,-1110.308913,10362.883188
2738.059994,-3447.429741,-444.123565,10881.027347
2738.060323,-2451.505594,444.123565,9918.759623
2738.060652,-1838.629195,814.226536,8660.409521
2738.060981,-1378.971896,962.267725,8142.265362
2738.061310,-2757.943793,222.061783,9770.718434
2738.061639,-2298.286494,1110.308913,9474.636058
2738.061968,-1378.971896,1480.411884,6513.812290
2738.062297,-1838.629195,1110.308913,7254.018232
2738.062626,-2528.115143,592.164754,8290.306550
2738.062955,-2911.162892,-592.164754,8586.388927
2738.063284,-2911.162892,-740.205942,7994.224174
2738.063613,-3447.429741,-1184.329507,8216.285956
2738.063942,-4826.401637,-2368.659014,10436.903782
2738.064271,-5822.325785,-3034.844362,11251.130318
2738.064600,-6435.202183,-2368.659014,11177.109724
2738.064929,-4979.620737,-1258.350101,10732.986159
2738.065258,-2757.943793,-2294.638420,10362.883188
2738.065587,-2528.115143,-592.164754,10066.800811
2738.065916,-1991.848295,1110.308913,9696.697840
2738.066245,-919.314598,2220.617826,8290.306550
2738.066574,-689.485948,1184.329507,7550.100608
2738.066903,0.000000,296.082377,8660.409521
2738.067232,0.000000,-74.020594,6883.915261
2738.067561,229.828649,740.205942,6587.832884
2738.067890,-612.876398,1036.288319,5995.668130
2738.068219,-1072.533697,-370.102971,7624.121203
2738.068548,-2604.724693,-1628.453072,10066.800811
2738.068877,-2987.772442,-1406.391290,9178.553681
2738.069206,-2451.505594,-1850.514855,9030.512492
2738.069535,-2681.334243,-740.205942,8882.471304
2738.069864,-3447.429741,-592.164754,9178.553681
2738.070193,-3447.429741,-1850.514855,11251.130318
2738.070522,-3217.601092,-1036.288319,11399.171507
2738.070851,-2298.286494,-296.082377,9992.780217
2738.071180,-2068.457845,666.185348,8660.409521
2738.071509,-1838.629195,2146.597232,7994.224174
2738.071838,-1991.848295,666.185348,8808.450710
2738.072167,-2604.724693,444.123565,8586.388927
2738.072496,-2068.457845,-0.000000,8586.388927
2738.072825,-1378.971896,296.082377,7772.162391
2738.073155,-1838.629195,888.247130,7031.956449
2738.073484,-2451.505594,-148.041188,7328.038826
2738.073813,-2604.724693,-1554.432478,8882.471304
2738.074142,-3217.601092,-1998.556043,9548.656652
2738.074471,-3600.648841,-1850.514855,9770.718434
2738.074800,-3753.867940,444.123565,9474.636058
2738.075129,-4290.134789,888.247130,9326.594869
2738.075458,-4596.572988,-74.020594,9844.739029
2738.075787,-4366.744339,-666.185348,10881.027347
2738.076116,-3753.867940,-296.082377,10362.883188
2738.076445,-2757.943793,-74.020594,9696.697840
2738.076774,-2374.896044,518.144159,8290.306550
2738.077103,-1915.238745,-0.000000,8956.491898
2738.077432,-1532.190996,-666.185348,8512.368333
2738.077761,-1991.848295,-370.102971,8068.244768
2738.078090,-1838.629195,-1036.288319,8512.368333
2738.078419,-2298.286494,-296.082377,8068.244768
2738.078748,-2298.286494,370.102971,9030.512492
2738.079077,-2298.286494,-0.000000,8882.471304
2738.079406,-2451.505594,-74.020594,8068.244768
2738.079735,-3064.381992,370.102971,9326.594869
2738.080064,-2987.772442,814.226536,9474.636058
2738.080393,-2834.553343,-0.000000,9918.759623
2738.080722,-3064.381992,-444.123565,9992.780217
2738.081051,-3677.258390,-740.205942,10288.862594
2738.081380,-3830.477490,-888.247130,10584.944971
2738.081709,-3064.381992,-814.226536,9622.677246
2738.082038,-2068.457845,296.082377,8364.327145
2738.082367,-1225.752797,444.123565,7920.203579
2738.082696,-1302.362347,-74.020594,7920.203579
2738.083025,-1915.238745,-666.185348,8808.450710
2738.083354,-2451.505594,-1258.350101,8438.347739
2738.083683,-2681.334243,-148.041188,9030.512492
2738.084012,-2987.772442,-0.000000,8956.491898
2738.084341,-3294.210641,-0.000000,9178.553681
2738.084670,-3217.601092,740.205942,9326.594869
2738.084999,-3830.477490,888.247130,9252.574275
2738.085328,-3447.429741,518.144159,9400.615463
2738.085657,-3217.601092,-666.185348,9844.739029
2738.085986,-2757.943793,-1110.308913,9622.677246
2738.086315,-2374.896044,-1110.308913,9548.656652
2738.086644,-1838.629195,-814.226536,8808.450710
2738.086973,-1302.362347,592.164754,7179.997637
2738.087302,-919.314598,444.123565,7772.162391
2738.087631,-1072.533697,148.041188,7994.224174
2738.087960,-919.314598,222.061783,8142.265362
2738.088289,-919.314598,-0.000000,7920.203579
2738.088618,-1685.410096,-222.061783,7624.121203
2738.088948,-2451.505594,-888.247130,8364.327145
2738.089277,-1991.848295,-888.247130,10140.821405
2738.089606,-2911.162892,-962.267725,9696.697840
2738.089935,-2834.553343,-1184.329507,9992.780217
2738.090264,-3370.820191,-1110.308913,9770.718434
2738.090594,-3600.648841,-740.205942,9918.759623
2738.090923,-3600.648841,-666.185348,10732.986159
2738.091252,-3064.381992,-370.102971,9696.697840
2738.091581,-2451.505594,-148.041188,9548.656652
2738.091910,-1685.410096,222.061783,8882.471304
2738.092240,-1532.190996,962.267725,7550.100608
2738.092569,-1762.019645,-0.000000,8290.306550
2738.092898,-1532.190996,-1036.288319,8734.430116
2738.093227,-919.314598,-1110.308913,9030.512492
2738.093557,-1149.143247,-1184.329507,8660.409521
2738.093886,-1225.752797,-444.123565,8882.471304
2738.094215,-1915.238745,-666.185348,8660.409521
2738.094544,-1915.238745,148.041188,9400.615463
2738.094873,-1915.238745,592.164754,9400.615463
2738.095203,-1762.019645,296.082377,9696.697840
2738.095532,-1991.848295,740.205942,9474.636058
2738.095861,-2451.505594,1110.308913,9104.533087
2738.096190,-2987.772442,962.267725,8364.327145
2738.096520,-2757.943793,1036.288319,7624.121203
2738.096849,-2757.943793,148.041188,8142.265362
2738.097178,-2757.943793,-74.020594,7772.162391
2738.097507,-3217.601092,-740.205942,8216.285956
2738.097836,-3830.477490,-2590.720797,8882.471304
2738.098166,-5209.449386,-2590.720797,9326.594869
2738.098495,-4443.353888,-2072.576638,9992.780217
2738.098824,-5132.839837,-2368.659014,10288.862594
2738.099153,-5132.839837,-1924.535449,11029.068536
2738.099483,-4903.011187,-1110.308913,10881.027347
2738.099812,-3907.087040,-0.000000,10288.862594
2738.100141,-3677.258390,962.267725,9696.697840
2738.100470,-1915.238745,1480.411884,9030.512492
2738.100799,-689.485948,2368.659014,8142.265362
2738.101129,-1149.143247,3404.947333,6957.935855
2738.101458,-2145.067394,2442.679609,7698.141797
2738.101787,-1991.848295,1184.329507,7772.162391
2738.102116,-1378.971896,740.205942,7476.080014
2738.102445,-1532.190996,370.102971,7105.977043
2738.102775,-1685.410096,-0.000000,6957.935855
2738.103104,-2221.676944,-518.144159,8512.368333
2738.103433,-3600.648841,370.102971,8808.450710
2738.103762,-3217.601092,888.247130,9918.759623
2738.104092,-3600.648841,962.267725,9548.656652
2738.104421,-3064.381992,1184.329507,10288.862594
2738.104750,-3600.648841,1998.556043,10140.821405
2738.105079,-3217.601092,296.082377,11621.233289
2738.105408,-3370.820191,222.061783,12065.356855
2738.105738,-1762.019645,518.144159,11251.130318
2738.106067,-919.314598,1110.308913,9918.759623
2738.106396,-842.705048,1998.556043,8216.285956
2738.106725,-919.314598,962.267725,9474.636058
2738.107055,1532.190996,-0.000000,11917.315666
2738.107384,2451.505594,4293.194464,3627.009116
2738.107713,5592.497135,2664.741391,8660.409521
2738.108042,2604.724693,3997.112087,5403.503377
2738.108371,3830.477490,5181.441594,6883.915261
2738.108701,2374.896044,3923.091493,7772.162391
2738.109030,1991.848295,4737.318029,6809.894666
2738.109359,1608.800546,1924.535449,10436.903782
2738.109688,-995.924147,3182.885551,10140.821405
2738.110017,-1838.629195,1184.329507,11547.212695
2738.110347,-2987.772442,518.144159,11473.192101
2738.110676,-1378.971896,1332.370696,9548.656652
2738.111005,-1762.019645,1776.494261,11621.233289
2738.111334,306.438199,2294.638420,10658.965565
2738.111664,306.438199,4737.318029,7476.080014
2738.111993,2221.676944,1924.535449,8216.285956
2738.112322,3217.601092,5255.462188,5773.606348
2738.112651,2681.334243,4663.297435,4959.379811
2738.112980,2298.286494,3923.091493,7476.080014
2738.113310,612.876398,4811.338623,7105.977043
2738.113639,-153.219100,3182.885551,9400.615463
2738.113968,-2451.505594,1924.535449,9770.718434
2738.114297,-2911.162892,1184.329507,11325.150913
2738.114627,-3370.820191,296.082377,12509.480420
2738.114956,-3830.477490,2886.803174,9622.677246
2738.115285,-3600.648841,2738.761985,10436.903782
2738.115614,-3600.648841,1924.535449,11843.295072
2738.115943,-3217.601092,3108.864956,11029.068536
2738.116273,-1838.629195,2146.597232,9992.780217
2738.116602,-766.095498,2590.720797,7254.018232
2738.116931,-919.314598,2960.823768,8364.327145
2738.117260,-612.876398,962.267725,10881.027347
2738.117590,1762.019645,2516.700203,7994.224174
2738.117919,2834.553343,4515.256246,6587.832884
2738.118248,4060.306139,4071.132681,6883.915261
2738.118577,2834.553343,5107.421000,6143.709319
2738.118906,2757.943793,6291.750507,9326.594869
2738.119236,2681.334243,6291.750507,6587.832884
2738.119565,2374.896044,7031.956449,7031.956449
2738.119894,1072.533697,5181.441594,9696.697840
2738.120223,-383.047749,7105.977043,6291.750507
2738.120552,0.000000,2294.638420,12435.459826
2738.120882,-2068.457845,666.185348,12583.501014
2738.121211,-1378.971896,-1776.494261,10214.842000
2738.121540,-2451.505594,1998.556043,11399.171507
2738.121869,-1149.143247,-814.226536,12139.377449
2738.122199,-2451.505594,2738.761985,8660.409521
2738.122528,1072.533697,2146.597232,9696.697840
2738.122857,1302.362347,5403.503377,6957.935855
2738.123186,2911.162892,3997.112087,9326.594869
2738.123515,4060.306139,3923.091493,7105.977043
2738.123845,4136.915689,4737.318029,7031.956449
2738.124174,2451.505594,5773.606348,8216.285956
2738.124503,1532.190996,3997.112087,6291.750507
2738.124832,1072.533697,3404.947333,9622.677246
2738.125162,-1532.190996,2516.700203,11177.109724
2738.125491,-1532.190996,-592.164754,11473.192101
2738.125820,-3294.210641,814.226536,10881.027347
2738.126149,-2221.676944,-2664.741391,11843.295072
2738.126478,-2681.334243,2072.576638,9474.636058
2738.126808,-1762.019645,1258.350101,11547.212695
2738.127137,-1608.800546,1702.473667,9548.656652
2738.127466,1302.362347,740.205942,12731.542202
2738.127795,2757.943793,2368.659014,7105.977043
2738.128125,5515.887586,3404.947333,8734.430116
2738.128454,3217.601092,3627.009116,6809.894666
2738.128783,4443.353888,4737.318029,4367.215058
2738.129112,3294.210641,4737.318029,8586.388927
2738.129441,2757.943793,3849.070898,7476.080014
2738.129771,2451.505594,4885.359217,6883.915261
2738.130100,1072.533697,4811.338623,7402.059420
2738.130429,-2298.286494,888.247130,7698.141797
2738.130758,-3830.477490,-3849.070898,13841.851115
2738.131087,-3983.696590,-296.082377,11547.212695
2738.131417,-3600.648841,-1702.473667,11177.109724
2738.131746,-3753.867940,-740.205942,10288.862594
2738.132075,-2681.334243,2738.761985,11103.089130
2738.132404,153.219100,2072.576638,8438.347739
2738.132734,0.000000,4959.379811,7179.997637
2738.133063,2374.896044,962.267725,12583.501014
2738.133392,2451.505594,1702.473667,7772.162391
2738.133721,4903.011187,4219.173869,8512.368333
2738.134050,4136.915689,7105.977043,1776.494261
2738.134380,4596.572988,4441.235652,5477.523971
2738.134709,3217.601092,4441.235652,7772.162391
2738.135038,3140.991542,5477.523971,7105.977043
2738.135367,2681.334243,4293.194464,7846.182985
2738.135697,-995.924147,6587.832884,6143.709319
2738.136026,-2068.457845,1628.453072,12065.356855
2738.136355,-5745.716235,-3701.029710,15988.448347
2738.136684,-4903.011187,1258.350101,10436.903782
2738.137013,-3753.867940,1406.391290,12583.501014
2738.137343,-3677.258390,-5477.523971,13915.871710
2738.137672,-4443.353888,2886.803174,10362.883188
2738.138001,0.000000,814.226536,9326.594869
2738.138330,-3524.039291,4589.276840,6587.832884
2738.138659,-689.485948,1480.411884,11917.315666
2738.138989,4443.353888,2220.617826,8956.491898
2738.139318,3447.429741,6439.791695,6513.812290
2738.139647,3370.820191,4737.318029,7772.162391
2738.139976,2451.505594,4959.379811,3627.009116
2738.140306,3753.867940,5329.482782,10658.965565
2738.140635,153.219100,5995.668130,7328.038826
2738.140964,1072.533697,6291.750507,9622.677246
2738.141293,-1225.752797,4145.153275,8734.430116
2738.141622,-383.047749,5477.523971,6143.709319
2738.141952,-1072.533697,2812.782580,13323.706956
2738.142281,-4519.963438,-1110.308913,12435.459826
2738.142610,-2068.457845,-592.164754,9844.739029
2738.142939,-2298.286494,296.082377,11621.233289
2738.143269,-2834.553343,-1258.350101,10658.965565
2738.143598,-1991.848295,2812.782580,11547.212695
2738.143927,1072.533697,2516.700203,8142.265362
2738.144256,1455.581446,6883.915261,7328.038826
2738.144585,2451.505594,6143.709319,8216.285956
2738.144915,2221.676944,4737.318029,9326.594869
2738.145244,306.438199,5699.585753,10066.800811
2738.145573,995.924147,6587.832884,9252.574275
2738.145902,995.924147,3775.050304,7031.956449
2738.146232,2681.334243,1702.473667,9844.739029
2738.146561,2834.553343,2368.659014,10140.821405
2738.146890,1685.410096,2072.576638,10436.903782
2738.147219,306.438199,1480.411884,8660.409521
2738.147548,1532.190996,1776.494261,8808.450710
2738.147878,1455.581446,4367.215058,9104.533087
2738.148207,-306.438199,4071.132681,8734.430116
2738.148536,-689.485948,3923.091493,8586.388927
2738.148865,1455.581446,2368.659014,8290.306550
2738.149194,2451.505594,3330.926739,7698.141797
2738.149524,3294.210641,3108.864956,8808.450710
2738.149853,919.314598,666.185348,9474.636058
2738.150182,0.000000,370.102971,9178.553681
2738.150511,-842.705048,1850.514855,9178.553681
2738.150841,-612.876398,2294.638420,9548.656652
2738.151170,-1455.581446,4071.132681,10066.800811
2738.151499,-2068.457845,3923.091493,9326.594869
2738.151828,-1608.800546,1924.535449,9548.656652
2738.152157,-1225.752797,518.144159,9548.656652
2738.152487,-689.485948,518.144159,9696.697840
2738.152816,-1302.362347,1406.391290,9178.553681
2738.153145,-459.657299,1702.473667,9326.594869
2738.153474,1991.848295,1850.514855,7698.141797
2738.153804,2834.553343,3108.864956,6735.874072
2738.154133,1685.410096,4071.132681,8142.265362
2738.154462,842.705048,3552.988522,7920.203579
2738.154791,1455.581446,2664.741391,7254.018232
2738.155120,2681.334243,3108.864956,8734.430116
2738.155450,842.705048,2738.761985,9030.512492
2738.155779,-1378.971896,1924.535449,10214.842000
2738.156108,-1455.581446,-0.000000,11325.150913
2738.156437,-766.095498,-74.020594,10436.903782
2738.156766,-2757.943793,1628.453072,9918.759623
2738.157096,-2987.772442,962.267725,10066.800811
2738.157425,-1608.800546,2072.576638,10066.800811
2738.157754,306.438199,2442.679609,8142.265362
2738.158083,536.266849,2812.782580,6957.935855
2738.158413,919.314598,2590.720797,8216.285956
2738.158742,1915.238745,3034.844362,8216.285956
2738.159071,2145.067394,4071.132681,7031.956449
2738.159400,1225.752797,3849.070898,6587.832884
2738.159729,766.095498,2294.638420,9400.615463
2738.160059,229.828649,1406.391290,11177.109724
2738.160388,-689.485948,2664.741391,10140.821405
2738.160717,-1532.190996,2590.720797,9326.594869
2738.161046,-919.314598,1702.473667,11547.212695
2738.161376,-1608.800546,4441.235652,10732.986159
2738.161705,-1838.629195,3034.844362,10288.862594
2738.162034,-1915.238745,2812.782580,10140.821405
2738.162363,0.000000,1998.556043,9474.636058
2738.162692,689.485948,2960.823768,8364.327145
2738.163022,1532.190996,3034.844362,9252.574275
2738.163351,2374.896044,1110.308913,9104.533087
2738.163680,2068.457845,2738.761985,7550.100608
2738.164009,995.924147,4145.153275,8364.327145
2738.164339,1149.143247,3182.885551,8512.368333
2738.164668,2068.457845,3108.864956,9104.533087
2738.164997,2451.505594,3775.050304,7994.224174
2738.165326,2145.067394,3552.988522,9104.533087
2738.165655,1915.238745,4441.235652,9252.574275
2738.165985,1455.581446,2516.700203,8956.491898
2738.166314,1302.362347,5625.565159,9474.636058
2738.166643,1302.362347,4515.256246,9400.615463
2738.166972,919.314598,2664.741391,9178.553681
2738.167301,842.705048,3108.864956,8956.491898
2738.167631,-306.438199,1110.308913,9178.553681
2738.167960,-842.705048,-740.205942,10510.924376
2738.168289,-1685.410096,666.185348,8956.491898
2738.168618,-1225.752797,296.082377,8956.491898
2738.168948,-2451.505594,1776.494261,8438.347739
2738.169277,-2145.067394,592.164754,11325.150913
2738.169606,-1072.533697,-0.000000,8660.409521
2738.169935,0.000000,1406.391290,8882.471304
2738.170264,536.266849,592.164754,10288.862594
2738.170594,536.266849,1480.411884,9622.677246
2738.170923,1072.533697,2886.803174,8586.388927
2738.171252,1225.752797,2590.720797,8216.285956
2738.171581,919.314598,3034.844362,8808.450710
2738.171911,1685.410096,1998.556043,9326.594869
2738.172240,1838.629195,1406.391290,8364.327145
2738.172569,919.314598,2812.782580,9104.533087
2738.172898,1762.019645,888.247130,8438.347739
2738.173227,-306.438199,-592.164754,8734.430116
2738.173557,-1149.143247,-1332.370696,10658.965565
2738.173886,0.000000,-1258.350101,9474.636058
2738.174215,0.000000,-740.205942,7698.141797
2738.174544,-766.095498,-296.082377,9030.512492
2738.174874,536.266849,740.205942,9696.697840
2738.175203,842.705048,1628.453072,7402.059420
2738.175532,766.095498,592.164754,9178.553681
2738.175861,1685.410096,1110.308913,9696.697840
2738.176190,1378.971896,1258.350101,8364.327145
2738.176520,1225.752797,1184.329507,8660.409521
2738.176849,1378.971896,666.185348,8660.409521
2738.177178,1072.533697,-0.000000,9104.533087
2738.177507,0.000000,1110.308913,8438.347739
2738.177836,689.485948,-962.267725,9474.636058
2738.178166,-306.438199,-1332.370696,9400.615463
2738.178495,-1225.752797,-814.226536,8808.450710
2738.178824,-995.924147,-1480.411884,9622.677246
2738.179153,-1378.971896,-2516.700203,9104.533087
2738.179483,-1225.752797,-2516.700203,9696.697840
2738.179812,-1302.362347,-3182.885551,10584.944971
2738.180141,76.609550,-2220.617826,9918.759623
2738.180470,0.000000,-1184.329507,8512.368333
2738.180799,612.876398,518.144159,8882.471304
2738.181129,1302.362347,1480.411884,8586.388927
2738.181458,1225.752797,296.082377,7994.224174
2738.181787,1455.581446,-0.000000,9178.553681
2738.182116,2374.896044,-222.061783,8586.388927
2738.182446,842.705048,-962.267725,8364.327145
2738.182775,-995.924147,-0.000000,9178.553681
2738.183104,-153.219100,-1776.494261,9474.636058
2738.183433,-1455.581446,-1850.514855,9548.656652
2738.183762,-1225.752797,-1554.432478,9770.718434
2738.184092,-612.876398,-1998.556043,9400.615463
2738.184421,-2451.505594,-1554.432478,9178.553681
2738.184750,-306.438199,962.267725,9030.512492
2738.185079,229.828649,-740.205942,9178.553681
2738.185408,0.000000,-74.020594,8586.388927
2738.185738,842.705048,-74.020594,9326.594869
2738.186067,2451.505594,444.123565,8808.450710
2738.186396,1991.848295,222.061783,7772.162391
2738.186725,1225.752797,666.185348,8882.471304
2738.187055,2298.286494,518.144159,8512.368333
2738.187384,1149.143247,1332.370696,8142.265362
2738.187713,383.047749,1258.350101,9178.553681
2738.188042,689.485948,-0.000000,9400.615463
2738.188371,0.000000,-0.000000,8586.388927
2738.188701,-536.266849,-74.020594,8956.491898
2738.189030,919.314598,-1332.370696,9622.677246
2738.189359,-536.266849,-2442.679609,8882.471304
2738.189688,-459.657299,-1406.391290,10066.800811
2738.190018,995.924147,-0.000000,9696.697840
2738.190347,306.438199,-0.000000,7994.224174
2738.190676,76.609550,1110.308913,9326.594869
2738.191005,1302.362347,1258.350101,9844.739029
2738.191334,1149.143247,-0.000000,8438.347739
2738.191663,536.266849,222.061783,9474.636058
2738.191993,1762.019645,518.144159,9474.636058
2738.192322,689.485948,-0.000000,9030.512492
2738.192651,0.000000,1036.288319,9252.574275
2738.192980,459.657299,-222.061783,9326.594869
2738.193309,0.000000,-518.144159,8438.347739
2738.193638,306.438199,-0.000000,8882.471304
2738.193967,995.924147,-1184.329507,10140.821405
2738.194297,0.000000,-1406.391290,8956.491898
2738.194626,-1225.752797,148.041188,8142.265362
2738.194955,0.000000,-666.185348,9770.718434
2738.195284,-842.705048,-666.185348,8512.368333
2738.195613,-842.705048,-1110.308913,10214.842000
2738.195942,766.095498,222.061783,9696.697840
2738.196272,383.047749,-814.226536,8808.450710
2738.196601,0.000000,-296.082377,9104.533087
2738.196930,459.657299,518.144159,9548.656652
2738.197259,1072.533697,-518.144159,9770.718434
2738.197588,76.609550,1110.308913,7846.182985
2738.197917,1378.971896,1110.308913,8438.347739
2738.198246,1225.752797,-0.000000,8512.368333
2738.198576,0.000000,-0.000000,8808.450710
2738.198905,1149.143247,-888.247130,9770.718434
2738.199234,153.219100,-814.226536,7624.121203
2738.199563,-612.876398,-148.041188,9326.594869
2738.199892,0.000000,-0.000000,9770.718434
2738.200221,306.438199,-2368.659014,10140.821405
2738.200550,-689.485948,370.102971,8882.471304
2738.200880,612.876398,-444.123565,9252.574275
2738.201209,919.314598,-0.000000,8586.388927
2738.201538,383.047749,444.123565,9178.553681
2738.201867,1532.190996,740.205942,9474.636058
2738.202196,1378.971896,-0.000000,8512.368333
2738.202525,0.000000,296.082377,8734.430116
2738.202854,995.924147,-1184.329507,9696.697840
2738.203184,612.876398,-444.123565,9326.594869
2738.203513,229.828649,-1036.288319,9252.574275
2738.203842,306.438199,-518.144159,9770.718434
2738.204171,459.657299,-666.185348,8586.388927
2738.204500,-383.047749,-814.226536,8956.491898
2738.204829,536.266849,296.082377,9104.533087
2738.205159,1072.533697,-740.205942,8364.327145
2738.205488,0.000000,-518.144159,9178.553681
2738.205817,689.485948,1184.329507,8956.491898
2738.206146,1608.800546,222.061783,9104.533087
2738.206475,76.609550,592.164754,8216.285956
2738.206804,0.000000,-370.102971,9474.636058
2738.207133,1072.533697,-148.041188,9400.615463
2738.207463,0.000000,-962.267725,8660.409521
2738.207792,0.000000,-370.102971,9918.759623
2738.208121,0.000000,-296.082377,9030.512492
2738.208450,0.000000,-1332.370696,8512.368333
2738.208779,0.000000,222.061783,9252.574275
2738.209108,1302.362347,-148.041188,8882.471304
2738.209437,766.095498,-1036.288319,7476.080014
2738.209767,842.705048,444.123565,9178.553681
2738.210096,1838.629195,296.082377,7772.162391
2738.210425,76.609550,-370.102971,8808.450710
2738.210754,0.000000,592.164754,9400.615463
2738.211083,459.657299,-1110.308913,9178.553681
2738.211412,-459.657299,222.061783,8586.388927
2738.211742,-383.047749,-888.247130,10066.800811
2738.212071,76.609550,-1036.288319,10510.924376
2738.212400,-536.266849,-1998.556043,8956.491898
2738.212729,-383.047749,-888.247130,9474.636058
2738.213058,459.657299,-370.102971,9918.759623
2738.213387,689.485948,-0.000000,8734.430116
2738.213716,766.095498,592.164754,8512.368333
2738.214046,1838.629195,592.164754,7994.224174
2738.214375,1302.362347,592.164754,8290.306550
2738.214704,1225.752797,74.020594,8956.491898
2738.215033,1685.410096,370.102971,8512.368333
2738.215362,842.705048,-444.123565,8586.388927
2738.215691,-383.047749,-518.144159,10140.821405
2738.216020,0.000000,-74.020594,9326.594869
2738.216350,-536.266849,-1184.329507,9918.759623
2738.216679,-1302.362347,592.164754,9030.512492
2738.217008,-306.438199,-518.144159,9992.780217
2738.217337,-306.438199,222.061783,9178.553681
2738.217666,0.000000,1036.288319,9178.553681
2738.217995,612.876398,814.226536,8882.471304
2738.218324,76.609550,-592.164754,8142.265362
2738.218654,-229.828649,-222.061783,9918.759623
2738.218983,919.314598,-148.041188,9474.636058
2738.219312,536.266849,-1110.308913,7402.059420
2738.219641,0.000000,-370.102971,9326.594869
2738.219970,1072.533697,296.082377,9104.533087
2738.220299,919.314598,-74.020594,8882.471304
2738.220629,-229.828649,222.061783,9178.553681
2738.220958,766.095498,814.226536,9400.615463
2738.221287,536.266849,-222.061783,8512.368333
2738.221616,306.438199,-0.000000,9178.553681
2738.221945,1762.019645,-518.144159,9326.594869
2738.222274,1225.752797,-1110.308913,8216.285956
2738.222603,-459.657299,370.102971,8882.471304
2738.222933,459.657299,1332.370696,9770.718434
2738.223262,76.609550,-592.164754,8808.450710
2738.223591,0.000000,222.061783,9030.512492
2738.223920,689.485948,-814.226536,9622.677246
2738.224249,76.609550,-1332.370696,8882.471304
2738.224578,-612.876398,-370.102971,9696.697840
2738.224907,1149.143247,-444.123565,9696.697840
2738.225237,689.485948,-74.020594,8660.409521
2738.225566,536.266849,296.082377,9622.677246
2738.225895,1608.800546,-74.020594,8290.306550
2738.226224,1532.190996,1110.308913,7772.162391
2738.226553,1302.362347,666.185348,8808.450710
2738.226882,689.485948,296.082377,9400.615463
2738.227212,229.828649,-148.041188,9844.739029
2738.227541,-306.438199,-0.000000,8290.306550
2738.227870,-383.047749,-1184.329507,10510.924376
2738.228199,-612.876398,-296.082377,9252.574275
2738.228528,-1149.143247,-2664.741391,9918.759623
2738.228857,-612.876398,-518.144159,9622.677246
2738.229186,306.438199,-148.041188,9548.656652
2738.229516,-306.438199,-444.123565,8290.306550
2738.229845,459.657299,370.102971,8956.491898
2738.230174,1762.019645,888.247130,8364.327145
2738.230503,766.095498,-0.000000,7698.141797
2738.230832,919.314598,888.247130,9474.636058
2738.231161,1915.238745,592.164754,7402.059420
2738.231490,306.438199,-0.000000,9400.615463
2738.231820,306.438199,-666.185348,10658.965565
2738.232149,229.828649,-1776.494261,8586.388927
2738.232478,-919.314598,-1554.432478,9474.636058
2738.232807,-766.095498,518.144159,9326.594869
2738.233136,383.047749,-962.267725,9918.759623
2738.233465,-612.876398,222.061783,9770.718434
2738.233794,689.485948,-814.226536,9696.697840
2738.234124,1455.581446,296.082377,7994.224174
2738.234453,459.657299,444.123565,8364.327145
2738.234782,995.924147,1110.308913,9474.636058
2738.235111,1378.971896,-0.000000,8734.430116
2738.235440,536.266849,-666.185348,8438.347739
2738.235769,1072.533697,-1036.288319,10658.965565
2738.236099,1225.752797,-370.102971,8956.491898
2738.236428,-689.485948,-962.267725,9548.656652
2738.236757,-766.095498,592.164754,9844.739029
2738.237086,0.000000,-740.205942,9400.615463
2738.237415,-689.485948,-1110.308913,9918.759623
2738.237744,-459.657299,-0.000000,9178.553681
2738.238073,842.705048,-1110.308913,9030.512492
2738.238403,0.000000,888.247130,7772.162391
2738.238732,612.876398,370.102971,9400.615463
2738.239061,766.095498,-592.164754,8956.491898
2738.239390,383.047749,222.061783,7328.038826
2738.239719,306.438199,-148.041188,9252.574275
2738.240048,459.657299,-0.000000,8512.368333
2738.240377,-459.657299,-592.164754,8216.285956
2738.240707,-612.876398,-592.164754,9548.656652
2738.241036,0.000000,-1110.308913,9474.636058
2738.241365,-536.266849,-1258.350101,8956.491898
2738.241694,0.000000,-814.226536,9104.533087
2738.242023,612.876398,444.123565,8586.388927
2738.242352,919.314598,-518.144159,8438.347739
2738.242682,842.705048,370.102971,8438.347739
2738.243011,1302.362347,666.185348,8660.409521
2738.243340,1149.143247,888.247130,8364.327145
2738.243669,766.095498,962.267725,8512.368333
2738.243998,1455.581446,370.102971,9400.615463
2738.244327,766.095498,-592.164754,7550.100608
2738.244656,76.609550,-1036.288319,10214.842000
2738.244986,612.876398,-888.247130,10807.006753
2738.245315,153.219100,-1480.411884,8808.450710
2738.245644,-536.266849,-0.000000,9770.718434
2738.245973,919.314598,148.041188,9252.574275
2738.246302,1072.533697,-0.000000,8808.450710
2738.246631,229.828649,1036.288319,9474.636058
2738.246960,1149.143247,814.226536,8808.450710
2738.247290,1378.971896,666.185348,7624.121203
2738.247619,612.876398,814.226536,10214.842000
2738.247948,459.657299,-518.144159,9252.574275
2738.248277,229.828649,-1184.329507,9326.594869
2738.248606,-689.485948,-0.000000,9400.615463
2738.248935,-536.266849,-740.205942,9770.718434
2738.249264,-842.705048,-148.041188,9548.656652
2738.249594,-995.924147,-814.226536,10436.903782
2738.249923,-995.924147,-74.020594,9474.636058
2738.250252,612.876398,296.082377,8438.347739
2738.250581,-995.924147,-0.000000,8956.491898
2738.250910,229.828649,-296.082377,9622.677246
2738.251239,842.705048,-740.205942,8734.430116
2738.251569,229.828649,-962.267725,9770.718434
2738.251898,536.266849,-518.144159,8512.368333
2738.252227,459.657299,-0.000000,8586.388927
2738.252556,153.219100,148.041188,9474.636058
2738.252885,229.828649,-0.000000,9622.677246
2738.253214,536.266849,-518.144159,8364.327145
2738.253543,0.000000,-518.144159,9400.615463
2738.253873,1149.143247,666.185348,9474.636058
2738.254202,919.314598,-740.205942,7772.162391
2738.254531,229.828649,-814.226536,8364.327145
2738.254860,842.705048,-0.000000,9992.780217
2738.255189,1608.800546,-592.164754,9030.512492
2738.255518,612.876398,370.102971,8586.388927
2738.255847,1225.752797,-148.041188,9178.553681
2738.256177,1608.800546,370.102971,8216.285956
2738.256506,689.485948,222.061783,7846.182985
2738.256835,766.095498,-592.164754,10362.883188
2738.257164,536.266849,814.226536,8290.306550
2738.257493,153.219100,-444.123565,9252.574275
2738.257822,612.876398,-666.185348,9696.697840
2738.258152,1455.581446,-1184.329507,9400.615463
2738.258481,0.000000,-1110.308913,9474.636058
2738.258810,-153.219100,-592.164754,8734.430116
2738.259139,0.000000,-518.144159,9696.697840
2738.259468,76.609550,-0.000000,9104.533087
2738.259797,459.657299,-962.267725,9326.594869
2738.260126,229.828649,-0.000000,7846.182985
2738.260456,0.000000,-888.247130,8438.347739
2738.260785,229.828649,-444.123565,9178.553681
2738.261114,459.657299,222.061783,8660.409521
2738.261443,459.657299,-1554.432478,9104.533087
2738.261772,229.828649,-962.267725,9326.594869
2738.262101,1225.752797,-740.205942,8364.327145
2738.262430,306.438199,-222.061783,8216.285956
2738.262760,-383.047749,962.267725,9770.718434
2738.263089,919.314598,296.082377,9400.615463
2738.263418,76.609550,-74.020594,7920.203579
2738.263747,919.314598,1184.329507,9696.697840
2738.264076,1532.190996,296.082377,8512.368333
2738.264405,0.000000,-222.061783,8364.327145
2738.264734,229.828649,-0.000000,9252.574275
2738.265064,842.705048,-1554.432478,9622.677246
2738.265393,459.657299,-0.000000,9326.594869
2738.265722,229.828649,-0.000000,9400.615463
2738.266051,766.095498,296.082377,8438.347739
2738.266380,153.219100,1332.370696,7698.141797
2738.266709,-153.219100,1480.411884,9400.615463
2738.267039,689.485948,-222.061783,9474.636058
2738.267368,0.000000,444.123565,9474.636058
2738.267697,-383.047749,-0.000000,9622.677246
2738.268026,536.266849,-222.061783,9622.677246
2738.268355,-306.438199,-518.144159,9030.512492
2738.268684,-306.438199,-962.267725,10362.883188
2738.269013,459.657299,222.061783,9326.594869
2738.269343,-153.219100,-296.082377,9548.656652
2738.269672,0.000000,1554.432478,9252.574275
2738.270001,995.924147,1406.391290,8586.388927
2738.270330,306.438199,-148.041188,8068.244768
2738.270659,0.000000,1110.308913,9474.636058
2738.270988,383.047749,-444.123565,9770.718434
2738.271317,0.000000,-1036.288319,8660.409521
2738.271647,-229.828649,518.144159,10140.821405
2738.271976,383.047749,-1628.453072,10140.821405
2738.272305,76.609550,-592.164754,8068.244768
2738.272634,-306.438199,-0.000000,9474.636058
2738.272963,612.876398,-296.082377,9474.636058
2738.273292,536.266849,-0.000000,8512.368333
2738.273622,0.000000,-74.020594,8956.491898
2738.273951,1225.752797,-444.123565,9178.553681
2738.274280,1532.190996,-1036.288319,8512.368333
2738.274609,153.219100,-518.144159,8438.347739
2738.274938,459.657299,-74.020594,8882.471304
2738.275267,383.047749,-222.061783,8956.491898
2738.275596,153.219100,-0.000000,8512.368333
2738.275926,1532.190996,-444.123565,9474.636058
2738.276255,536.266849,-74.020594,7920.203579
2738.276584,-229.828649,-444.123565,8216.285956
2738.276913,0.000000,-0.000000,9326.594869
2738.277242,0.000000,-1554.432478,9178.553681
2738.277571,0.000000,-962.267725,9326.594869
2738.277900,612.876398,-1258.350101,9474.636058
2738.278230,919.314598,-814.226536,7994.224174
2738.278559,-306.438199,-592.164754,9178.553681
2738.278888,1072.533697,-74.020594,9918.759623
2738.279217,1072.533697,222.061783,8142.265362
2738.279546,229.828649,-0.000000,9030.512492
2738.279875,919.314598,518.144159,10066.800811
2738.280204,1225.752797,-592.164754,8142.265362
2738.280534,0.000000,518.144159,9030.512492
2738.280863,536.266849,-222.061783,9770.718434
2738.281192,229.828649,148.041188,9030.512492
2738.281521,-459.657299,-888.247130,10732.986159
2738.281850,536.266849,-0.000000,9548.656652
2738.282179,306.438199,-1110.308913,8512.368333
2738.282509,-536.266849,592.164754,8512.368333
2738.282838,153.219100,-444.123565,10584.944971
2738.283167,459.657299,-592.164754,9622.677246
2738.283496,76.609550,370.102971,8956.491898
2738.283825,919.314598,-0.000000,10066.800811
2738.284154,919.314598,518.144159,8808.450710
2738.284483,459.657299,444.123565,8512.368333
2738.284813,1149.143247,-0.000000,10214.842000
2738.285142,1532.190996,-148.041188,8290.306550
2738.285471,612.876398,-74.020594,9400.615463
2738.285800,919.314598,518.144159,9548.656652
2738.286129,766.095498,296.082377,7994.224174
2738.286458,-229.828649,-148.041188,8734.430116
2738.286787,-383.047749,-222.061783,9326.594869
2738.287117,0.000000,-888.247130,8956.491898
2738.287446,-459.657299,-666.185348,9548.656652
2738.287775,0.000000,-888.247130,9474.636058
2738.288104,306.438199,-444.123565,9474.636058
2738.288433,0.000000,-444.123565,8290.306550
2738.288762,0.000000,-370.102971,8734.430116
2738.289092,766.095498,740.205942,9030.512492
2738.289421,689.485948,296.082377,7994.224174
2738.289750,612.876398,-0.000000,8586.388927
2738.290079,1302.362347,814.226536,8586.388927
2738.290408,536.266849,-222.061783,8364.327145
2738.290737,-383.047749,370.102971,8882.471304
2738.291066,689.485948,-888.247130,9548.656652
2738.291395,-153.219100,-888.247130,9178.553681
2738.291724,-612.876398,-1554.432478,9844.739029
2738.292053,689.485948,-1258.350101,9918.759623
2738.292382,0.000000,-370.102971,7994.224174
2738.292712,229.828649,-74.020594,9696.697840
2738.293041,612.876398,2294.638420,8512.368333
2738.293370,536.266849,-0.000000,8364.327145
2738.293699,306.438199,1258.350101,9992.780217
2738.294028,1915.238745,-0.000000,8660.409521
2738.294357,1225.752797,-74.020594,8808.450710
2738.294686,0.000000,-0.000000,8882.471304
2738.295015,1072.533697,-296.082377,9622.677246
2738.295344,0.000000,-814.226536,9918.759623
2738.295673,0.000000,370.102971,9844.739029
2738.296002,1149.143247,-296.082377,9178.553681
2738.296331,536.266849,592.164754,8216.285956
2738.296661,0.000000,1036.288319,9104.533087
2738.296990,689.485948,-0.000000,9474.636058
2738.297319,0.000000,518.144159,9104.533087
2738.297648,-766.095498,-740.205942,10066.800811
2738.297977,76.609550,-814.226536,9696.697840
2738.298306,0.000000,-1332.370696,8290.306550
2738.298635,-536.266849,-1554.432478,9474.636058
2738.298964,-306.438199,148.041188,10140.821405
2738.299293,0.000000,-592.164754,8882.471304
2738.299622,-306.438199,-740.205942,9548.656652
2738.299951,612.876398,370.102971,9474.636058
2738.300280,689.485948,-296.082377,8660.409521
2738.300610,76.609550,-74.020594,8660.409521
2738.300939,1072.533697,666.185348,9104.533087
2738.301268,1302.362347,-0.000000,8882.471304
2738.301597,229.828649,-370.102971,9326.594869
2738.301926,919.314598,-0.000000,9474.636058
2738.302255,1302.362347,-592.164754,8364.327145
2738.302584,0.000000,-444.123565,8882.471304
2738.302913,-383.047749,-0.000000,8956.491898
2738.303242,-612.876398,-222.061783,9104.533087
2738.303571,-1302.362347,-148.041188,10362.883188
2738.303900,0.000000,-888.247130,9770.718434
2738.304229,1225.752797,-1110.308913,9326.594869
2738.304559,-536.266849,-1406.391290,10066.800811
2738.304888,229.828649,-1036.288319,9548.656652
2738.305217,689.485948,-518.144159,9252.574275
2738.305546,1225.752797,962.267725,8290.306550
2738.305875,1762.019645,962.267725,8734.430116
2738.306204,2298.286494,1776.494261,7920.203579
2738.306533,1532.190996,1628.453072,7402.059420
2738.306862,1608.800546,1554.432478,8882.471304
2738.307191,842.705048,148.041188,8142.265362
2738.307520,-612.876398,-1036.288319,9474.636058
2738.307849,-229.828649,-1776.494261,10658.965565
2738.308179,0.000000,-1480.411884,8512.368333
2738.308508,-689.485948,-1258.350101,9030.512492
2738.308837,-459.657299,-296.082377,9844.739029
2738.309166,-306.438199,-0.000000,8660.409521
2738.309495,-383.047749,-518.144159,9326.594869
2738.309824,919.314598,370.102971,9844.739029
2738.310153,1378.971896,370.102971,7624.121203
2738.310482,153.219100,370.102971,7994.224174
2738.310811,383.047749,592.164754,9030.512492
2738.311140,842.705048,-888.247130,9474.636058
2738.311469,76.609550,-1184.329507,9252.574275
2738.311798,229.828649,-1110.308913,10140.821405
2738.312128,459.657299,-1702.473667,9696.697840
2738.312457,-383.047749,-148.041188,8512.368333
2738.312786,0.000000,-0.000000,10584.944971
2738.313115,306.438199,-0.000000,8512.368333
2738.313444,-689.485948,1332.370696,8882.471304
2738.313773,1302.362347,-74.020594,11029.068536
2738.314102,1762.019645,814.226536,8216.285956
2738.314431,612.876398,-0.000000,8364.327145
2738.314760,689.485948,-0.000000,9030.512492
2738.315089,612.876398,-0.000000,9326.594869
2738.315418,0.000000,-370.102971,10436.903782
2738.315747,-306.438199,-888.247130,9474.636058
2738.316077,689.485948,-370.102971,9474.636058
2738.316406,0.000000,518.144159,9252.574275
2738.316735,153.219100,962.267725,9770.718434
2738.317064,842.705048,740.205942,9622.677246
2738.317393,536.266849,296.082377,8808.450710
2738.317722,919.314598,740.205942,9844.739029
2738.318051,1532.190996,666.185348,9178.553681
2738.318380,919.314598,-370.102971,8512.368333
2738.318709,306.438199,740.205942,8660.409521
2738.319038,153.219100,222.061783,9696.697840
2738.319367,0.000000,-370.102971,9104.533087
2738.319696,-689.485948,-148.041188,9770.718434
2738.320026,0.000000,-1036.288319,9918.759623
2738.320355,-536.266849,-814.226536,8364.327145
2738.320684,-1149.143247,-592.164754,9474.636058
2738.321013,229.828649,-888.247130,9474.636058
2738.321342,0.000000,-1480.411884,9104.533087
2738.321671,76.609550,-148.041188,9548.656652
2738.322000,1608.800546,-0.000000,8512.368333
2738.322329,1072.533697,222.061783,7476.080014
2738.322658,995.924147,740.205942,8142.265362
2738.322987,1455.581446,-296.082377,8734.430116
2738.323316,919.314598,-666.185348,8512.368333
2738.323646,76.609550,-592.164754,8660.409521
2738.323975,766.095498,-296.082377,9252.574275
2738.324304,76.609550,-1776.494261,8956.491898
2738.324633,-612.876398,-814.226536,8808.450710
2738.324962,383.047749,-592.164754,9992.780217
2738.325291,306.438199,-74.020594,8808.450710
2738.325620,0.000000,-888.247130,9918.759623
2738.325949,842.705048,-0.000000,9696.697840
2738.326278,612.876398,-0.000000,7772.162391
2738.326607,459.657299,-0.000000,9178.553681
2738.326936,689.485948,666.185348,8290.306550
2738.327265,766.095498,-592.164754,9326.594869
2738.327595,0.000000,-0.000000,9696.697840
2738.327924,689.485948,-814.226536,9696.697840
2738.328253,612.876398,-1110.308913,9178.553681
2738.328582,-153.219100,296.082377,9178.553681
2738.328911,459.657299,-370.102971,9844.739029
2738.329240,306.438199,-518.144159,8660.409521
2738.329569,766.095498,370.102971,9474.636058
2738.329898,1149.143247,-74.020594,9992.780217
2738.330227,1149.143247,-0.000000,7624.121203
2738.330556,459.657299,518.144159,9400.615463
2738.330885,536.266849,518.144159,8364.327145
2738.331214,229.828649,-0.000000,7994.224174
2738.331544,0.000000,296.082377,10288.862594
2738.331873,153.219100,-1036.288319,9844.739029
2738.332202,-306.438199,-1184.329507,8586.388927
2738.332531,-1378.971896,-962.267725,9400.615463
2738.332860,0.000000,-888.247130,10658.965565
2738.333189,229.828649,518.144159,8956.491898
2738.333518,0.000000,-296.082377,9030.512492
2738.333847,689.485948,814.226536,10066.800811
2738.334176,1915.238745,666.185348,8142.265362
2738.334505,919.314598,-814.226536,8438.347739
2738.334834,766.095498,888.247130,8586.388927
2738.335163,1455.581446,296.082377,8512.368333
2738.335493,0.000000,222.061783,8808.450710
2738.335822,0.000000,-222.061783,10288.862594
2738.336151,536.266849,-888.247130,8956.491898
2738.336480,-766.095498,-1924.535449,8808.450710
2738.336809,-383.047749,-0.000000,9696.697840
2738.337138,0.000000,-1258.350101,8956.491898
2738.337467,-383.047749,-1110.308913,9252.574275
2738.337796,0.000000,-518.144159,10140.821405
2738.338125,766.095498,592.164754,8956.491898
2738.338454,0.000000,-0.000000,8142.265362
2738.338783,612.876398,1258.350101,7920.203579
2738.339113,1455.581446,-0.000000,8808.450710
2738.339442,689.485948,-0.000000,8438.347739
2738.339771,306.438199,-518.144159,9474.636058
2738.340100,459.657299,-444.123565,9104.533087
2738.340429,-842.705048,222.061783,8512.368333
2738.340758,-995.924147,370.102971,8956.491898
2738.341087,0.000000,-1036.288319,9104.533087
2738.341416,-459.657299,-444.123565,8808.450710
2738.341745,0.000000,-518.144159,9992.780217
2738.342074,766.095498,296.082377,8364.327145
2738.342403,612.876398,-0.000000,8068.244768
2738.342732,1149.143247,296.082377,8956.491898
2738.343062,1302.362347,666.185348,8734.430116
2738.343391,612.876398,-518.144159,8512.368333
2738.343720,536.266849,1110.308913,8512.368333
2738.344049,2145.067394,222.061783,8586.388927
2738.344378,1225.752797,-592.164754,9252.574275
2738.344707,612.876398,-0.000000,9622.677246
2738.345036,1302.362347,-518.144159,9622.677246
2738.345365,536.266849,444.123565,7994.224174
2738.345694,0.000000,518.144159,10584.944971
2738.346023,1149.143247,-518.144159,10066.800811
2738.346352,1378.971896,-740.205942,8808.450710
2738.346681,612.876398,666.185348,9326.594869
2738.347011,306.438199,-0.000000,8808.450710
2738.347340,306.438199,-74.020594,9548.656652
2738.347669,-153.219100,-296.082377,9992.780217
2738.347998,842.705048,-222.061783,9548.656652
2738.348327,-383.047749,-592.164754,8512.368333
2738.348656,-766.095498,-888.247130,9400.615463
2738.348985,383.047749,148.041188,9992.780217
2738.349314,612.876398,-2072.576638,8956.491898
2738.349643,-383.047749,-1110.308913,9770.718434
2738.349972,1072.533697,-888.247130,9400.615463
2738.350301,536.266849,148.041188,8290.306550
2738.350630,0.000000,814.226536,8512.368333
2738.350960,842.705048,518.144159,9178.553681
2738.351289,536.266849,-444.123565,8142.265362
2738.351618,536.266849,666.185348,8660.409521
2738.351947,612.876398,-296.082377,9474.636058
2738.352276,0.000000,-1184.329507,8660.409521
2738.352605,-919.314598,-1406.391290,9400.615463
2738.352934,0.000000,-1480.411884,9400.615463
2738.353263,0.000000,-1998.556043,8364.327145
2738.353592,-689.485948,-740.205942,9474.636058
2738.353921,536.266849,-962.267725,9548.656652
2738.354250,459.657299,-296.082377,7772.162391
2738.354580,0.000000,-148.041188,7920.203579
2738.354909,766.095498,-74.020594,9104.533087
2738.355238,536.266849,-740.205942,8734.430116
2738.355567,306.438199,-518.144159,8956.491898
2738.355896,1455.581446,-222.061783,8956.491898
2738.356225,229.828649,-444.123565,8290.306550
2738.356554,0.000000,-0.000000,9178.553681
2738.356883,229.828649,592.164754,8956.491898
2738.357212,612.876398,-0.000000,7994.224174
2738.357541,-459.657299,296.082377,8882.471304
2738.357870,0.000000,-148.041188,9030.512492
2738.358199,229.828649,-2294.638420,8512.368333
2738.358529,-612.876398,-444.123565,7624.121203
2738.358858,-536.266849,-148.041188,9400.615463
2738.359187,-766.095498,-74.020594,9178.553681
2738.359516,-995.924147,-0.000000,8956.491898
2738.359845,229.828649,-0.000000,9474.636058
2738.360174,383.047749,-0.000000,8734.430116
2738.360503,0.000000,-0.000000,9326.594869
2738.360832,306.438199,-0.000000,9696.697840
2738.361161,842.705048,370.102971,8586.388927
2738.361490,0.000000,666.185348,9104.533087
2738.361819,229.828649,-0.000000,9474.636058
2738.362148,995.924147,444.123565,8808.450710
2738.362478,459.657299,-296.082377,9548.656652
2738.362807,76.609550,814.226536,9104.533087
2738.363136,919.314598,-0.000000,8586.388927
2738.363465,0.000000,592.164754,9548.656652
2738.363794,766.095498,-0.000000,9992.780217
2738.364123,689.485948,740.205942,9104.533087
2738.364452,229.828649,-0.000000,8364.327145
2738.364781,689.485948,888.247130,9474.636058
2738.365110,1378.971896,592.164754,9326.594869
2738.365439,766.095498,-2146.597232,9548.656652
2738.365768,1149.143247,-0.000000,10214.842000
2738.366097,1302.362347,370.102971,8808.450710
2738.366427,459.657299,370.102971,9400.615463
2738.366756,229.828649,888.247130,9252.574275
2738.367085,1225.752797,-370.102971,9400.615463
2738.367414,1149.143247,-222.061783,9474.636058
2738.367743,383.047749,1184.329507,9622.677246
2738.368072,995.924147,148.041188,8956.491898
2738.368401,0.000000,-740.205942,9030.512492
2738.368730,0.000000,296.082377,10066.800811
2738.369059,689.485948,-518.144159,9178.553681
2738.369388,0.000000,-518.144159,8364.327145
2738.369717,-153.219100,-222.061783,10288.862594
2738.370047,306.438199,-1110.308913,9474.636058
2738.370376,612.876398,-370.102971,8216.285956
2738.370705,0.000000,-296.082377,8882.471304
2738.371034,153.219100,-0.000000,9548.656652
2738.371363,0.000000,-74.020594,8586.388927
2738.371692,0.000000,-148.041188,8956.491898
2738.372021,1072.533697,-370.102971,8512.368333
2738.372350,76.609550,-592.164754,8438.347739
2738.372679,-536.266849,-74.020594,9252.574275
2738.373008,229.828649,-0.000000,8956.491898
2738.373337,0.000000,-148.041188,8734.430116
2738.373666,-536.266849,1036.288319,8290.306550
2738.373996,536.266849,-1036.288319,9622.677246
2738.374325,229.828649,-296.082377,7920.203579
2738.374654,76.609550,-888.247130,8216.285956
2738.374983,689.485948,518.144159,8808.450710
2738.375312,76.609550,-148.041188,8142.265362
2738.375641,229.828649,370.102971,9252.574275
2738.375970,612.876398,-444.123565,9178.553681
2738.376299,536.266849,-148.041188,8734.430116
2738.376628,459.657299,-370.102971,8660.409521
2738.376957,919.314598,-0.000000,9178.553681
2738.377286,919.314598,-444.123565,9178.553681
2738.377615,229.828649,-0.000000,9104.533087
2738.377945,459.657299,-74.020594,9252.574275
2738.378274,306.438199,-666.185348,8660.409521
2738.378603,-306.438199,-74.020594,9326.594869
2738.378932,612.876398,-888.247130,9696.697840
2738.379261,536.266849,-740.205942,8882.471304
2738.379590,76.609550,-444.123565,9918.759623
2738.379919,689.485948,-962.267725,10436.903782
2738.380248,689.485948,-0.000000,8438.347739
2738.380577,76.609550,-296.082377,9474.636058
2738.380906,612.876398,518.144159,9400.615463
2738.381235,919.314598,-148.041188,8290.306550
2738.381564,612.876398,-666.185348,9992.780217
2738.381894,1378.971896,-0.000000,9474.636058
2738.382223,1149.143247,-740.205942,9030.512492
2738.382552,-306.438199,-296.082377,9178.553681
2738.382881,0.000000,-296.082377,9474.636058
2738.383210,0.000000,-666.185348,9474.636058
2738.383539,-153.219100,-444.123565,9030.512492
2738.383868,306.438199,-74.020594,9474.636058
2738.384197,919.314598,-814.226536,9400.615463
2738.384526,229.828649,222.061783,8734.430116
2738.384855,766.095498,-296.082377,9918.759623
2738.385184,1225.752797,962.267725,7624.121203
2738.385514,536.266849,-444.123565,7772.162391
2738.385843,1149.143247,-592.164754,10732.986159
2738.386172,1915.238745,-370.102971,8512.368333
2738.386501,919.314598,-1258.350101,7846.182985
2738.386830,306.438199,222.061783,8734.430116
2738.387159,766.095498,-296.082377,8586.388927
2738.387488,-229.828649,-592.164754,9104.533087
2738.387817,0.000000,-222.061783,9252.574275
2738.388146,383.047749,-962.267725,8512.368333
2738.388475,-459.657299,-518.144159,8882.471304
2738.388804,383.047749,-592.164754,8882.471304
2738.389133,1149.143247,-1036.288319,7624.121203
2738.389463,153.219100,-0.000000,8068.244768
2738.389792,383.047749,-0.000000,9178.553681
2738.390121,1225.752797,-444.123565,9178.553681
2738.390450,0.000000,-296.082377,7994.224174
2738.390779,229.828649,-0.000000,9474.636058
2738.391108,306.438199,-148.041188,9622.677246
2738.391437,-306.438199,-222.061783,9030.512492
2738.391766,0.000000,296.082377,9918.759623
2738.392095,153.219100,-814.226536,9622.677246
2738.392425,-536.266849,-666.185348,9104.533087
2738.392754,383.047749,-222.061783,9400.615463
2738.393083,995.924147,-222.061783,9104.533087
2738.393412,459.657299,222.061783,8882.471304
2738.393741,612.876398,-592.164754,10066.800811
2738.394070,919.314598,-0.000000,8216.285956
2738.394400,459.657299,-148.041188,8956.491898
2738.394729,153.219100,1406.391290,9770.718434
2738.395058,536.266849,-0.000000,8216.285956
2738.395387,306.438199,-0.000000,9326.594869
2738.395716,383.047749,222.061783,9696.697840
2738.396045,1378.971896,-1184.329507,9992.780217
2738.396375,229.828649,-518.144159,9178.553681
2738.396704,306.438199,-0.000000,8660.409521
2738.397033,766.095498,592.164754,8734.430116
2738.397362,229.828649,222.061783,9178.553681
2738.397691,306.438199,-518.144159,8956.491898
2738.398020,1072.533697,222.061783,8512.368333
2738.398350,153.219100,-148.041188,7698.141797
2738.398679,-459.657299,-0.000000,9770.718434
2738.399008,229.828649,-814.226536,9178.553681
2738.399337,-229.828649,-1332.370696,9252.574275
2738.399666,-383.047749,-1036.288319,9992.780217
2738.399995,153.219100,-888.247130,9770.718434
2738.400325,383.047749,-1406.391290,9252.574275
2738.400654,0.000000,444.123565,8956.491898
2738.400983,1072.533697,888.247130,9104.533087
2738.401312,689.485948,-74.020594,8364.327145
2738.401641,459.657299,-222.061783,9696.697840
2738.401970,1455.581446,-444.123565,9326.594869
2738.402300,383.047749,-3034.844362,8808.450710
2738.402629,-459.657299,-2220.617826,10807.006753
2738.402958,0.000000,-2368.659014,10066.800811
2738.403287,0.000000,-2368.659014,8956.491898
2738.403616,-306.438199,-1628.453072,9918.759623
2738.403946,229.828649,-1184.329507,9474.636058
2738.404275,536.266849,-1258.350101,9252.574275
2738.404604,1762.019645,-1184.329507,9326.594869
2738.404933,1838.629195,-888.247130,8512.368333
2738.405262,1685.410096,-666.185348,8512.368333
2738.405591,1838.629195,-1110.308913,8142.265362
2738.405921,1915.238745,-2294.638420,8882.471304
2738.406250,1991.848295,-1628.453072,8882.471304
2738.406579,1608.800546,-2516.700203,8142.265362
2738.406908,383.047749,-1776.494261,9252.574275
2738.407237,-306.438199,-2220.617826,8956.491898
2738.407566,-689.485948,-3627.009116,9178.553681
2738.407896,-1072.533697,-3478.967927,9992.780217
2738.408225,-766.095498,-3627.009116,9030.512492
2738.408554,-919.314598,-3849.070898,9326.594869
2738.408883,-306.438199,-3849.070898,9548.656652
2738.409212,229.828649,-3627.009116,9104.533087
2738.409541,919.314598,-2516.700203,8216.285956
2738.409871,1378.971896,-2294.638420,8142.265362
2738.410200,2068.457845,-1480.411884,8068.244768
2738.410529,1838.629195,-1480.411884,7105.977043
2738.410858,1838.629195,-2442.679609,8512.368333
2738.411187,1378.971896,-2516.700203,7846.182985
2738.411516,383.047749,-3256.906145,7920.203579
2738.411846,-383.047749,-4071.132681,9992.780217
2738.412175,-766.095498,-5995.668130,10288.862594
2738.412504,-1302.362347,-4737.318029,10066.800811
2738.412833,-1608.800546,-5033.400406,10362.883188
2738.413162,-919.314598,-5329.482782,10955.047942
2738.413491,-383.047749,-3552.988522,9474.636058
2738.413821,153.219100,-2886.803174,8512.368333
2738.414150,766.095498,-2590.720797,9474.636058
2738.414479,1608.800546,-2220.617826,8290.306550
2738.414808,2604.724693,-2442.679609,8364.327145
2738.415137,1915.238745,-1850.514855,7772.162391
2738.415466,1762.019645,-3330.926739,8660.409521
2738.415796,1685.410096,-3108.864956,8660.409521
2738.416125,383.047749,-2664.741391,8290.306550
2738.416454,-459.657299,-4515.256246,9622.677246
2738.416783,0.000000,-4959.379811,9252.574275
2738.417112,-766.095498,-3404.947333,9844.739029
2738.417441,-1378.971896,-4367.215058,10140.821405
2738.417771,-612.876398,-5551.544565,10066.800811
2738.418100,383.047749,-3478.967927,9252.574275
2738.418429,536.266849,-2960.823768,8734.430116
2738.418758,459.657299,-2220.617826,8808.450710
2738.419087,1608.800546,-2516.700203,8512.368333
2738.419417,2681.334243,-1332.370696,6809.894666
2738.419746,1915.238745,-592.164754,7846.182985
2738.420075,919.314598,-2220.617826,8216.285956
2738.420404,1302.362347,-3034.844362,8216.285956
2738.420733,536.266849,-2886.803174,8660.409521
2738.421062,-995.924147,-4293.194464,9178.553681
2738.421392,-1915.238745,-4367.215058,10140.821405
2738.421721,-1378.971896,-4737.318029,10658.965565
2738.422050,-1149.143247,-4071.132681,10140.821405
2738.422379,-1149.143247,-3627.009116,10214.842000
2738.422708,-919.314598,-3849.070898,10362.883188
2738.423037,536.266849,-2664.741391,10288.862594
2738.423367,1915.238745,-1480.411884,9400.615463
2738.423696,1685.410096,-1702.473667,8142.265362
2738.424025,1455.581446,-1184.329507,7846.182985
2738.424354,1915.238745,-1406.391290,8512.368333
2738.424683,2681.334243,-1924.535449,8142.265362
2738.425012,1378.971896,-2886.803174,7476.080014
2738.425342,612.876398,-2738.761985,9104.533087
2738.425671,-766.095498,-4663.297435,9770.718434
2738.426000,-459.657299,-5181.441594,9992.780217
2738.426329,-766.095498,-4145.153275,9548.656652
2738.426658,-1378.971896,-4441.235652,9474.636058
2738.426987,-1915.238745,-2886.803174,10066.800811
2738.427317,-612.876398,-3627.009116,10066.800811
2738.427646,995.924147,-3775.050304,9326.594869
2738.427975,1608.800546,-2072.576638,8808.450710
2738.428304,1915.238745,-2294.638420,8882.471304
2738.428633,1838.629195,-2368.659014,8142.265362
2738.428962,2681.334243,-1480.411884,8512.368333
2738.429292,3370.820191,-888.247130,7179.997637
2738.429621,1991.848295,-518.144159,7105.977043
2738.429950,1149.143247,-1628.453072,7920.203579
2738.430279,1455.581446,-2516.700203,8142.265362
2738.430608,1455.581446,-2812.782580,8660.409521
2738.430937,229.828649,-4515.256246,8660.409521
2738.431267,-1455.581446,-5625.565159,9622.677246
2738.431596,-2681.334243,-5329.482782,10881.027347
2738.431925,-2221.676944,-5625.565159,10955.047942
2738.432254,-1302.362347,-4219.173869,10140.821405
2738.432583,-536.266849,-3627.009116,9622.677246
2738.432912,76.609550,-2886.803174,9918.759623
2738.433242,306.438199,-1406.391290,9400.615463
2738.433571,1149.143247,-962.267725,8734.430116
2738.433900,2145.067394,-1332.370696,7772.162391
2738.434229,2298.286494,-1554.432478,8438.347739
2738.434558,2068.457845,-2812.782580,9400.615463
2738.434887,612.876398,-3627.009116,9178.553681
2738.435217,1072.533697,-3923.091493,8660.409521
2738.435546,689.485948,-3404.947333,8512.368333
2738.435875,-153.219100,-2738.761985,9400.615463
2738.436204,-689.485948,-3330.926739,9844.739029
2738.436533,-766.095498,-2960.823768,9548.656652
2738.436863,-766.095498,-3034.844362,9104.533087
2738.437192,-229.828649,-2812.782580,7846.182985
2738.437521,0.000000,-3627.009116,9030.512492
2738.437850,229.828649,-4367.215058,10362.883188
2738.438179,842.705048,-5107.421000,9622.677246
2738.438508,842.705048,-5181.441594,9030.512492
2738.438838,842.705048,-3552.988522,8142.265362
2738.439167,1302.362347,-1628.453072,8142.265362
2738.439496,0.000000,-1110.308913,8586.388927
2738.439825,0.000000,-2886.803174,8512.368333
2738.440154,612.876398,-3034.844362,8586.388927
2738.440483,766.095498,-3108.864956,8586.388927
2738.440813,306.438199,-3997.112087,8956.491898
2738.441142,-306.438199,-4885.359217,8882.471304
2738.441471,76.609550,-4959.379811,9178.553681
2738.441800,536.266849,-5033.400406,8956.491898
2738.442129,536.266849,-3775.050304,9030.512492
2738.442458,459.657299,-2960.823768,8512.368333
2738.442788,842.705048,-1998.556043,8290.306550
2738.443117,842.705048,-1702.473667,8216.285956
2738.443446,0.000000,-1998.556043,8660.409521
2738.443775,0.000000,-2664.741391,9622.677246
2738.444104,0.000000,-3108.864956,9622.677246
2738.444433,-229.828649,-3256.906145,9474.636058
2738.444763,459.657299,-4219.173869,10066.800811
2738.445092,689.485948,-4219.173869,9548.656652
2738.445421,1302.362347,-3108.864956,9252.574275
2738.445750,1991.848295,-2072.576638,7994.224174
2738.446079,2604.724693,-740.205942,7179.997637
2738.446408,3370.820191,-1110.308913,7328.038826
2738.446738,2681.334243,-1554.432478,7920.203579
2738.447067,1991.848295,-2886.803174,8956.491898
2738.447396,612.876398,-3775.050304,9400.615463
2738.447725,-1072.533697,-4441.235652,10362.883188
2738.448054,-2757.943793,-4663.297435,11325.150913
2738.448383,-3217.601092,-5329.482782,11325.150913
2738.448713,-2528.115143,-4145.153275,11547.212695
2738.449042,-2681.334243,-3256.906145,10881.027347
2738.449371,-1915.238745,-2294.638420,9918.759623
2738.449700,0.000000,-2072.576638,8438.347739
2738.450029,1915.238745,-1776.494261,8438.347739
2738.450358,3524.039291,-1850.514855,7402.059420
2738.450688,4290.134789,-2368.659014,7254.018232
2738.451017,4673.182538,-1628.453072,6735.874072
2738.451346,4673.182538,-1480.411884,6365.771101
2738.451675,4596.572988,-740.205942,6439.791695
2738.452004,3907.087040,-962.267725,6587.832884
2738.452334,3370.820191,-1184.329507,7328.038826
2738.452663,76.609550,-2590.720797,9474.636058
2738.452992,-2068.457845,-5255.462188,10732.986159
2738.453321,-4443.353888,-4959.379811,11325.150913
2738.453650,-4366.744339,-9178.553681,13101.645173
2738.453979,-5286.058936,-7105.977043,11399.171507
2738.454309,-4673.182538,-6143.709319,11473.192101
2738.454638,-3524.039291,-5255.462188,9992.780217
2738.454967,-3217.601092,-2886.803174,9400.615463
2738.455296,-612.876398,-3034.844362,9474.636058
2738.455625,2987.772442,-1998.556043,7994.224174
2738.455954,4519.963438,-222.061783,5773.606348
2738.456284,4596.572988,-1110.308913,6143.709319
2738.456613,4060.306139,-592.164754,5625.565159
2738.456942,5056.230287,666.185348,7105.977043
2738.457271,4519.963438,-666.185348,6883.915261
2738.457600,3677.258390,888.247130,5995.668130
2738.457929,3370.820191,-0.000000,7920.203579
2738.458259,2145.067394,-444.123565,7328.038826
2738.458588,-2604.724693,-5181.441594,12435.459826
2738.458917,-3983.696590,-7772.162391,14285.974681
2738.459246,-3677.258390,-5181.441594,13027.624579
2738.459575,-3907.087040,-9844.739029,13767.830521
2738.459904,-4673.182538,-5107.421000,9178.553681
2738.460234,-2528.115143,-5551.544565,13101.645173
2738.460563,-1225.752797,-6069.688724,12731.542202
2738.460892,1991.848295,-888.247130,7179.997637
2738.461221,5975.544884,-296.082377,6957.935855
2738.461550,6052.154434,888.247130,4959.379811
2738.461879,4290.134789,2220.617826,5773.606348
2738.462209,2911.162892,-0.000000,5181.441594
2738.462538,2298.286494,370.102971,6143.709319
2738.462867,2298.286494,-3701.029710,8734.430116
2738.463196,-1991.848295,-7179.997637,9992.780217
2738.463525,-4903.011187,-4811.338623,11473.192101
2738.463854,-5669.106685,-9548.656652,13989.892304
2738.464184,-4826.401637,-7105.977043,11251.130318
2738.464513,-3907.087040,-3997.112087,11843.295072
2738.464842,-2374.896044,-4071.132681,9770.718434
2738.465171,-2681.334243,-962.267725,8142.265362
2738.465500,-919.314598,-5181.441594,8882.471304
2738.465829,3524.039291,-4219.173869,10140.821405
2738.466159,3600.648841,296.082377,1184.329507
2738.466488,5286.058936,-2664.741391,8438.347739
2738.466817,1225.752797,-962.267725,4663.297435
2738.467146,4596.572988,222.061783,7402.059420
2738.467475,1915.238745,1554.432478,5477.523971
2738.467804,2604.724693,2442.679609,4885.359217
2738.468134,1685.410096,-1258.350101,8364.327145
2738.468463,-3294.210641,-1924.535449,9992.780217
2738.468792,-5592.497135,-7846.182985,13323.706956
2738.469121,-7737.564530,-5403.503377,14211.954086
2738.469450,-5286.058936,-7105.977043,12213.398043
2738.469780,-6971.469032,-3478.967927,9178.553681
2738.470109,-4443.353888,-2664.741391,11917.315666
2738.470438,-3830.477490,-888.247130,8734.430116
2738.470767,-3600.648841,-2146.597232,9252.574275
2738.471096,-2068.457845,2072.576638,6365.771101
2738.471425,-2528.115143,518.144159,8882.471304
2738.471755,-1762.019645,592.164754,11695.253884
2738.472084,-1072.533697,740.205942,4663.297435
2738.472413,0.000000,-1036.288319,9178.553681
2738.472742,-536.266849,-1184.329507,6217.729913
2738.473071,1149.143247,-518.144159,9178.553681
2738.473400,-1302.362347,592.164754,9252.574275
2738.473730,-2374.896044,740.205942,9474.636058
2738.474059,-2451.505594,444.123565,10732.986159
2738.474388,-3677.258390,962.267725,9178.553681
2738.474717,-4366.744339,1258.350101,10732.986159
2738.475046,-3753.867940,-592.164754,10658.965565
2738.475375,-1991.848295,-1258.350101,8956.491898
2738.475705,-1608.800546,-1776.494261,9844.739029
2738.476034,-1225.752797,-1628.453072,9104.533087
2738.476363,-2451.505594,-1036.288319,7994.224174
2738.476692,-2451.505594,-1702.473667,8660.409521
2738.477021,-1149.143247,1406.391290,7624.121203
2738.477350,-1225.752797,1480.411884,8216.285956
2738.477680,-1455.581446,-444.123565,9696.697840
2738.478009,-1762.019645,-1036.288319,9474.636058
2738.478338,-2911.162892,-1406.391290,10066.800811
2738.478667,-4213.525239,-1850.514855,10584.944971
2738.478996,-4060.306139,-1406.391290,11399.171507
2738.479325,-4443.353888,-1480.411884,11843.295072
2738.479655,-3064.381992,222.061783,10066.800811
2738.479984,-2604.724693,1406.391290,8808.450710
2738.480313,-1915.238745,1184.329507,7994.224174
2738.480642,-1225.752797,1480.411884,7179.997637
2738.480971,-1762.019645,1628.453072,7328.038826
2738.481300,-2451.505594,1184.329507,7031.956449
2738.481630,-2451.505594,-296.082377,8216.285956
2738.481959,-3294.210641,-1258.350101,8364.327145
2738.482288,-3983.696590,-1702.473667,8586.388927
2738.482617,-3677.258390,-2368.659014,9030.512492
2738.482946,-3064.381992,-2220.617826,9548.656652
2738.483275,-3140.991542,-814.226536,9030.512492
2738.483605,-3294.210641,-592.164754,10066.800811
2738.483934,-4060.306139,-1036.288319,10881.027347
2738.484263,-3753.867940,-518.144159,11103.089130
2738.484592,-3830.477490,-0.000000,9992.780217
2738.484921,-3370.820191,148.041188,9400.615463
2738.485251,-2451.505594,592.164754,8438.347739
2738.485580,-2604.724693,1110.308913,7920.203579
2738.485909,-3217.601092,222.061783,7846.182985
2738.486238,-2451.505594,-296.082377,7624.121203
2738.486567,-2604.724693,-1258.350101,7624.121203
2738.486896,-1991.848295,-1628.453072,8216.285956
2738.487226,-1762.019645,-2442.679609,7920.203579
2738.487555,-1302.362347,-2072.576638,7920.203579
2738.487884,-612.876398,-2220.617826,8438.347739
2738.488213,-536.266849,-592.164754,8808.450710
2738.488542,-459.657299,222.061783,8364.327145
2738.488871,-766.095498,1702.473667,8808.450710
2738.489201,-459.657299,2146.597232,9326.594869
2738.489530,-612.876398,2368.659014,8956.491898
2738.489859,-1455.581446,2072.576638,8734.430116
2738.490188,-2221.676944,962.267725,8734.430116
2738.490518,-3140.991542,592.164754,8438.347739
2738.490848,-3907.087040,666.185348,8882.471304
2738.491177,-4136.915689,-1036.288319,9252.574275
2738.491506,-4290.134789,-1184.329507,8068.244768
2738.491835,-3753.867940,-1776.494261,9400.615463
2738.492164,-4136.915689,-2294.638420,9030.512492
2738.492493,-4136.915689,-2368.659014,9992.780217
2738.492822,-4060.306139,-2516.700203,10955.047942
2738.493151,-3217.601092,-2664.741391,11769.274478
2738.493480,-2987.772442,-1998.556043,12065.356855
2738.493809,-2987.772442,-222.061783,11843.295072
2738.494138,-3217.601092,592.164754,11399.171507
2738.494467,-2604.724693,1850.514855,11547.212695
2738.494796,-1378.971896,2886.803174,9992.780217
2738.495125,0.000000,3849.070898,7920.203579
2738.495454,459.657299,4589.276840,5625.565159
2738.495783,1532.190996,4515.256246,4959.379811
2738.496112,153.219100,3256.906145,4145.153275
2738.496441,-383.047749,2146.597232,5255.462188
2738.496771,-2451.505594,-518.144159,6809.894666
2738.497100,-3753.867940,-2886.803174,8364.327145
2738.497429,-3830.477490,-4071.132681,10066.800811
2738.497758,-5286.058936,-3552.988522,8586.388927
2738.498087,-5898.935335,-3775.050304,12287.418637
2738.498416,-6588.421283,-4959.379811,17024.736666
2738.498745,-6128.763984,-2664.741391,13249.686362
2738.499074,-4673.182538,-1406.391290,12805.562797
2738.499403,-3447.429741,814.226536,9474.636058
2738.499732,-1378.971896,2368.659014,9104.533087
2738.500061,-2298.286494,4441.235652,8068.244768
2738.500390,0.000000,1702.473667,10955.047942
2738.500719,0.000000,2590.720797,4811.338623
2738.501048,3447.429741,3701.029710,4663.297435
2738.501377,1838.629195,2294.638420,1776.494261
2738.501706,0.000000,814.226536,4441.235652
2738.502035,-2374.896044,-1480.411884,8290.306550
2738.502365,-2987.772442,-4441.235652,8808.450710
2738.502694,-1762.019645,-5921.647536,12361.439231
2738.503023,-3600.648841,-2368.659014,10436.903782
2738.503352,-4673.182538,-2886.803174,10214.842000
2738.503681,-5209.449386,-1776.494261,14211.954086
2738.504010,-3983.696590,666.185348,11621.233289
2738.504339,-2604.724693,296.082377,11991.336260
2738.504668,-3064.381992,1850.514855,10510.924376
2738.504997,-2451.505594,4441.235652,9622.677246
2738.505326,-3064.381992,1332.370696,8660.409521
2738.505655,-3677.258390,2220.617826,7031.956449
2738.505984,-3677.258390,-74.020594,7698.141797
2738.506313,-2834.553343,-2072.576638,7772.162391
2738.506642,-2911.162892,-1184.329507,6957.935855
2738.506971,-2911.162892,-1702.473667,7179.997637
2738.507300,-2834.553343,-1110.308913,7031.956449
2738.507629,-2987.772442,-1998.556043,9030.512492
2738.507958,-2911.162892,-2294.638420,9770.718434
2738.508288,-2681.334243,518.144159,10584.944971
2738.508617,-3140.991542,518.144159,10807.006753
2738.508946,-2834.553343,-592.164754,10807.006753
2738.509275,-2757.943793,-0.000000,11621.233289
2738.509604,-3064.381992,296.082377,11473.192101
2738.509933,-2757.943793,-518.144159,10807.006753
2738.510262,-2221.676944,962.267725,9326.594869
2738.510591,-1378.971896,1628.453072,8142.265362
2738.510920,-1608.800546,2072.576638,5847.626942
2738.511249,-995.924147,222.061783,6291.750507
2738.511578,-842.705048,-666.185348,5625.565159
2738.511907,-689.485948,-518.144159,6291.750507
2738.512236,-2451.505594,-2072.576638,7402.059420
2738.512565,-3524.039291,-2664.741391,8882.471304
2738.512894,-3600.648841,-3034.844362,10510.924376
2738.513223,-3830.477490,-1480.411884,10066.800811
2738.513552,-3217.601092,-592.164754,10436.903782
2738.513882,-3294.210641,-0.000000,11843.295072
2738.514211,-3064.381992,222.061783,11251.130318
2738.514540,-2451.505594,888.247130,10362.883188
2738.514869,-3753.867940,962.267725,9992.780217
2738.515198,-2911.162892,296.082377,9844.739029
2738.515527,-3294.210641,-444.123565,9770.718434
2738.515856,-2451.505594,-1332.370696,9622.677246
2738.516185,-1685.410096,-0.000000,6735.874072
2738.516514,-612.876398,444.123565,6957.935855
2738.516843,-459.657299,888.247130,7105.977043
2738.517172,76.609550,370.102971,7698.141797
2738.517501,-536.266849,-148.041188,8142.265362
2738.517830,-766.095498,-1332.370696,8512.368333
2738.518159,-2068.457845,-1036.288319,10658.965565
2738.518488,-1838.629195,-888.247130,11547.212695
2738.518817,-1608.800546,148.041188,9770.718434
2738.519146,-2374.896044,1554.432478,10510.924376
2738.519475,-1072.533697,740.205942,10881.027347
2738.519805,-153.219100,888.247130,9548.656652
2738.520134,-842.705048,1702.473667,8586.388927
2738.520463,-995.924147,2072.576638,7846.182985
2738.520792,-2451.505594,-888.247130,8438.347739
2738.521121,-2987.772442,-592.164754,8068.244768
2738.521450,-2374.896044,-1776.494261,7698.141797
2738.521779,-3447.429741,-1258.350101,7624.121203
2738.522108,-3983.696590,-2146.597232,8068.244768
2738.522437,-3677.258390,-1332.370696,8142.265362
2738.522766,-3600.648841,-1554.432478,9400.615463
2738.523095,-3753.867940,-888.247130,9178.553681
2738.523424,-4213.525239,-1850.514855,10066.800811
2738.523753,-4903.011187,-666.185348,11399.171507
2738.524082,-4290.134789,518.144159,10214.842000
2738.524411,-4290.134789,222.061783,9326.594869
2738.524740,-3983.696590,592.164754,9918.759623
2738.525069,-2757.943793,814.226536,9326.594869
2738.525399,-2298.286494,-0.000000,9252.574275
2738.525728,-2987.772442,-1110.308913,9474.636058
2738.526057,-3524.039291,-1776.494261,8438.347739
2738.526386,-3600.648841,-740.205942,8142.265362
2738.526715,-3370.820191,-740.205942,8216.285956
2738.527044,-2451.505594,-592.164754,7846.182985
2738.527373,-2451.505594,-814.226536,7772.162391
2738.527702,-2451.505594,-666.185348,7994.224174
2738.528031,-2834.553343,-1776.494261,8956.491898
2738.528360,-2145.067394,-296.082377,9178.553681
2738.528689,-1532.190996,222.061783,9844.739029
2738.529018,-1378.971896,962.267725,8734.430116
2738.529347,-842.705048,814.226536,8956.491898
2738.529676,-612.876398,1702.473667,9104.533087
2738.530005,-306.438199,1332.370696,9326.594869
2738.530334,-153.219100,444.123565,8956.491898
2738.530663,-919.314598,518.144159,8290.306550
2738.530992,-842.705048,518.144159,7846.182985
2738.531322,-2298.286494,296.082377,8142.265362
2738.531651,-2911.162892,-1258.350101,9030.512492
2738.531980,-3217.601092,-1480.411884,9104.533087
2738.532309,-2528.115143,-1258.350101,8586.388927
2738.532638,-2604.724693,-1702.473667,8586.388927
2738.532967,-2987.772442,-1554.432478,10807.006753
2738.533296,-2374.896044,-0.000000,9696.697840
2738.533625,-3217.601092,-888.247130,9770.718434
2738.533954,-2451.505594,-370.102971,11251.130318
2738.534283,-919.314598,296.082377,10807.006753
2738.534612,-1072.533697,-148.041188,10214.842000
2738.534941,459.657299,-0.000000,8882.471304
2738.535270,842.705048,666.185348,9474.636058
2738.535599,612.876398,-222.061783,8660.409521
2738.535928,2987.772442,1184.329507,9326.594869
2738.536257,1532.190996,-222.061783,8290.306550
2738.536586,536.266849,592.164754,8956.491898
2738.536916,995.924147,-666.185348,7994.224174
2738.537245,689.485948,1110.308913,8142.265362
2738.537574,689.485948,-1110.308913,8808.450710
2738.537903,689.485948,-0.000000,9548.656652
2738.538232,0.000000,-2738.761985,10510.924376
2738.538561,0.000000,-0.000000,9844.739029
2738.538890,536.266849,-0.000000,9252.574275
2738.539219,229.828649,-0.000000,10288.862594
2738.539548,766.095498,222.061783,8882.471304
2738.539877,2068.457845,1036.288319,9696.697840
2738.540206,1838.629195,-666.185348,9326.594869
2738.540535,2757.943793,148.041188,8290.306550
