#time,accel_x,accel_y,accel_z
2722.958592,383.047749,-148.041188,9400.615463
2722.958921,536.266849,-148.041188,9104.533087
2722.959250,-306.438199,-0.000000,9548.656652
2722.959580,153.219100,-74.020594,9104.533087
2722.959909,306.438199,-222.061783,9030.512492
2722.960239,306.438199,-0.000000,8808.450710
2722.960568,306.438199,-0.000000,9104.533087
2722.960898,306.438199,-148.041188,9178.553681
2722.961227,229.828649,-222.061783,8956.491898
2722.961556,612.876398,-222.061783,9178.553681
2722.961886,306.438199,-0.000000,9030.512492
2722.962215,383.047749,-0.000000,8808.450710
2722.962545,306.438199,-0.000000,8882.471304
2722.962874,459.657299,148.041188,8734.430116
2722.963203,383.047749,-148.041188,8956.491898
2722.963533,306.438199,-296.082377,9030.512492
2722.963862,229.828649,-296.082377,9030.512492
2722.964192,0.000000,-74.020594,8882.471304
2722.964521,153.219100,-296.082377,9104.533087
2722.964851,0.000000,-444.123565,9252.574275
2722.965180,229.828649,-444.123565,8956.491898
2722.965509,306.438199,-592.164754,9030.512492
2722.965839,153.219100,-444.123565,9178.553681
2722.966168,612.876398,-518.144159,8882.471304
2722.966498,383.047749,-0.000000,9252.574275
2722.966827,536.266849,-74.020594,8956.491898
2722.967157,689.485948,-74.020594,9030.512492
2722.967486,383.047749,-74.020594,9252.574275
2722.967815,306.438199,-592.164754,9326.594869
2722.968145,229.828649,-518.144159,8512.368333
2722.968474,306.438199,-222.061783,9474.636058
2722.968804,153.219100,-444.123565,9104.533087
2722.969133,76.609550,-370.102971,9326.594869
2722.969462,306.438199,-370.102971,9104.533087
2722.969792,536.266849,-222.061783,9104.533087
2722.970121,306.438199,-0.000000,9252.574275
2722.970451,306.438199,370.102971,9030.512492
2722.970780,1072.533697,-0.000000,8512.368333
2722.971110,536.266849,-74.020594,8808.450710
2722.971439,459.657299,-0.000000,8808.450710
2722.971768,229.828649,-74.020594,8882.471304
2722.972098,76.609550,-0.000000,8956.491898
2722.972427,229.828649,-0.000000,9104.533087
2722.972757,229.828649,-0.000000,9104.533087
2722.973086,459.657299,-370.102971,9104.533087
2722.973416,306.438199,-74.020594,9104.533087
2722.973745,76.609550,-0.000000,8956.491898
2722.974074,229.828649,-0.000000,8882.471304
2722.974404,459.657299,-0.000000,8734.430116
2722.974733,766.095498,-0.000000,8956.491898
2722.975063,306.438199,-296.082377,9326.594869
2722.975392,459.657299,-296.082377,8956.491898
2722.975721,76.609550,-74.020594,8956.491898
2722.976051,229.828649,-74.020594,9178.553681
2722.976380,229.828649,-370.102971,9178.553681
2722.976710,229.828649,-518.144159,9178.553681
2722.977039,459.657299,-370.102971,9178.553681
2722.977369,306.438199,518.144159,9326.594869
2722.977698,536.266849,222.061783,9178.553681
2722.978027,306.438199,-74.020594,9400.615463
2722.978357,306.438199,-0.000000,9178.553681
2722.978686,306.438199,-148.041188,9104.533087
2722.979016,383.047749,-0.000000,9178.553681
2722.979345,919.314598,-444.123565,8956.491898
2722.979674,536.266849,-370.102971,9400.615463
2722.980004,919.314598,-518.144159,9252.574275
2722.980333,306.438199,-444.123565,8882.471304
2722.980663,229.828649,-296.082377,9400.615463
2722.980992,306.438199,-148.041188,9030.512492
2722.981322,0.000000,-148.041188,9030.512492
2722.981651,306.438199,-0.000000,9326.594869
2722.981980,536.266849,-0.000000,9326.594869
2722.982310,612.876398,-0.000000,8660.409521
2722.982639,459.657299,-0.000000,9030.512492
2722.982969,229.828649,-148.041188,8882.471304
2722.983298,306.438199,-74.020594,8882.471304
2722.983628,229.828649,-74.020594,8956.491898
2722.983957,0.000000,-222.061783,9030.512492
2722.984286,383.047749,-296.082377,8808.450710
2722.984616,536.266849,-148.041188,8808.450710
2722.984945,229.828649,-0.000000,8734.430116
2722.985275,153.219100,-74.020594,8808.450710
2722.985604,306.438199,-0.000000,9178.553681
2722.985933,306.438199,-74.020594,8882.471304
2722.986263,766.095498,-148.041188,8956.491898
2722.986592,153.219100,-0.000000,8882.471304
2722.986922,689.485948,-518.144159,9178.553681
2722.987251,306.438199,-148.041188,9252.574275
2722.987581,229.828649,-222.061783,9178.553681
2722.987910,536.266849,-296.082377,9178.553681
2722.988239,76.609550,-222.061783,9030.512492
2722.988569,459.657299,-0.000000,9178.553681
2722.988898,306.438199,-888.247130,8956.491898
2722.989228,0.000000,-666.185348,9326.594869
2722.989557,1302.362347,-1110.308913,9696.697840
2722.989887,1378.971896,-888.247130,9474.636058
2722.990216,1532.190996,-592.164754,9548.656652
2722.990545,2221.676944,-444.123565,9326.594869
2722.990875,2451.505594,-296.082377,8882.471304
2722.991204,3294.210641,444.123565,9104.533087
2722.991534,4136.915689,-222.061783,9030.512492
2722.991863,3983.696590,222.061783,8808.450710
2722.992192,3140.991542,370.102971,8734.430116
2722.992522,3217.601092,592.164754,8364.327145
2722.992851,2681.334243,-0.000000,9178.553681
2722.993181,3064.381992,-296.082377,9178.553681
2722.993510,2145.067394,-666.185348,9104.533087
2722.993840,2298.286494,-1554.432478,9918.759623
2722.994169,2528.115143,-1480.411884,9474.636058
2722.994498,2681.334243,-74.020594,9178.553681
2722.994828,2451.505594,-1184.329507,9992.780217
2722.995157,3370.820191,-592.164754,8956.491898
2722.995487,4213.525239,148.041188,9400.615463
2722.995816,5515.887586,666.185348,7994.224174
2722.996146,5132.839837,1184.329507,7624.121203
2722.996475,4673.182538,1480.411884,9178.553681
2722.996804,4979.620737,1184.329507,7624.121203
2722.997134,4213.525239,888.247130,8142.265362
2722.997463,3753.867940,296.082377,8660.409521
2722.997793,2834.553343,-0.000000,8512.368333
2722.998122,2298.286494,-296.082377,9696.697840
2722.998451,1072.533697,-1110.308913,9622.677246
2722.998781,1532.190996,-888.247130,9844.739029
2722.999110,536.266849,-1406.391290,9770.718434
2722.999440,1378.971896,-814.226536,9770.718434
2722.999769,1149.143247,-888.247130,10066.800811
2723.000099,2987.772442,296.082377,8882.471304
2723.000428,3064.381992,-666.185348,8956.491898
2723.000757,4749.792088,1480.411884,9252.574275
2723.001087,4673.182538,444.123565,7994.224174
2723.001416,4749.792088,1184.329507,8142.265362
2723.001746,4903.011187,962.267725,9252.574275
2723.002075,4136.915689,444.123565,8660.409521
2723.002405,3370.820191,-74.020594,8956.491898
2723.002734,2987.772442,-1406.391290,9178.553681
2723.003063,2681.334243,-1332.370696,10436.903782
2723.003393,1762.019645,-1850.514855,9918.759623
2723.003722,1991.848295,-1850.514855,10510.924376
2723.004052,1762.019645,-1406.391290,9770.718434
2723.004381,2451.505594,-148.041188,9844.739029
2723.004710,2681.334243,-444.123565,8734.430116
2723.005040,4060.306139,1036.288319,8956.491898
2723.005369,3830.477490,1998.556043,8142.265362
2723.005699,5056.230287,2368.659014,7105.977043
2723.006028,4366.744339,2590.720797,7328.038826
2723.006358,4366.744339,2072.576638,7550.100608
2723.006687,4290.134789,1628.453072,7476.080014
2723.007016,3140.991542,-148.041188,8808.450710
2723.007346,3677.258390,-1406.391290,9400.615463
2723.007675,3294.210641,-2590.720797,9696.697840
2723.008005,2068.457845,-2886.803174,10510.924376
2723.008334,2298.286494,-2738.761985,10807.006753
2723.008663,2604.724693,-2368.659014,10584.944971
2723.008993,3677.258390,-1036.288319,9918.759623
2723.009322,4979.620737,-0.000000,9326.594869
2723.009652,5669.106685,1332.370696,8956.491898
2723.009981,5286.058936,2146.597232,7772.162391
2723.010311,4903.011187,2960.823768,7698.141797
2723.010640,4673.182538,3182.885551,7105.977043
2723.010969,4213.525239,2812.782580,6957.935855
2723.011299,2987.772442,370.102971,8216.285956
2723.011628,1302.362347,-1628.453072,9474.636058
2723.011958,76.609550,-3034.844362,9918.759623
2723.012287,-1225.752797,-4885.359217,11769.274478
2723.012617,-766.095498,-4737.318029,11399.171507
2723.012946,-612.876398,-3182.885551,11325.150913
2723.013275,229.828649,-1850.514855,10658.965565
2723.013605,1608.800546,-296.082377,10510.924376
2723.013934,3294.210641,518.144159,10066.800811
2723.014264,6435.202183,1850.514855,8512.368333
2723.014593,7507.735880,1628.453072,8512.368333
2723.014922,6358.592633,1776.494261,8142.265362
2723.015252,5745.716235,2590.720797,6883.915261
2723.015581,5975.544884,2516.700203,7179.997637
2723.015911,5439.278036,1850.514855,6439.791695
2723.016240,4290.134789,3478.967927,6809.894666
2723.016570,4749.792088,2146.597232,7105.977043
2723.016899,4060.306139,1480.411884,6291.750507
2723.017228,1838.629195,-2960.823768,8438.347739
2723.017558,0.000000,-7105.977043,12139.377449
2723.017887,-1915.238745,-3552.988522,10584.944971
2723.018217,-1532.190996,-6809.894666,14508.036463
2723.018546,-2068.457845,-4737.318029,10658.965565
2723.018876,306.438199,296.082377,12287.418637
2723.019205,2911.162892,-370.102971,11029.068536
2723.019534,4596.572988,2664.741391,8882.471304
2723.019864,7201.297681,296.082377,9400.615463
2723.020193,7814.174080,1184.329507,9030.512492
2723.020523,7814.174080,4293.194464,6439.791695
2723.020852,7584.345430,3849.070898,6365.771101
2723.021181,7737.564530,1406.391290,5625.565159
2723.021511,7584.345430,3182.885551,4885.359217
2723.021840,7354.516781,1332.370696,6587.832884
2723.022170,4903.011187,1554.432478,6143.709319
2723.022499,4443.353888,1850.514855,5847.626942
2723.022829,3600.648841,-1850.514855,10362.883188
2723.023158,-1455.581446,-5773.606348,13175.665768
2723.023487,-2987.772442,-2738.761985,12509.480420
2723.023817,-1838.629195,-3478.967927,14508.036463
2723.024146,-1838.629195,-5107.421000,11547.212695
2723.024476,-612.876398,1702.473667,11547.212695
2723.024805,1608.800546,-814.226536,10658.965565
2723.025135,-1302.362347,2516.700203,10140.821405
2723.025464,2451.505594,-1998.556043,14359.995275
2723.025793,7431.126331,-0.000000,7920.203579
2723.026123,9499.584175,1184.329507,9178.553681
2723.026452,6741.640382,666.185348,5773.606348
2723.026782,6281.983084,-0.000000,5255.462188
2723.027111,6971.469032,1924.535449,9992.780217
2723.027440,6511.811733,1406.391290,5551.544565
2723.027770,5592.497135,2960.823768,6883.915261
2723.028099,3447.429741,1110.308913,8512.368333
2723.028429,3447.429741,2220.617826,6365.771101
2723.028758,2911.162892,-0.000000,9992.780217
2723.029088,536.266849,-2516.700203,11177.109724
2723.029417,0.000000,-3478.967927,11843.295072
2723.029746,-919.314598,-3701.029710,12139.377449
2723.030076,-689.485948,-4811.338623,11843.295072
2723.030405,-459.657299,-888.247130,9696.697840
2723.030735,1991.848295,-148.041188,10955.047942
2723.031064,2911.162892,1332.370696,7772.162391
2723.031394,3830.477490,2442.679609,7254.018232
2723.031723,5592.497135,1850.514855,7846.182985
2723.032052,5362.668486,2886.803174,7179.997637
2723.032382,4826.401637,1258.350101,7476.080014
2723.032711,4366.744339,-370.102971,6439.791695
2723.033041,3677.258390,-2072.576638,8512.368333
2723.033370,2681.334243,-2590.720797,11843.295072
2723.033699,1838.629195,-1258.350101,9992.780217
2723.034029,612.876398,-962.267725,10807.006753
2723.034358,1378.971896,-666.185348,10214.842000
2723.034687,2221.676944,592.164754,10584.944971
2723.035016,2834.553343,-1110.308913,9622.677246
2723.035346,3600.648841,592.164754,9474.636058
2723.035675,5056.230287,592.164754,8512.368333
2723.036004,5975.544884,962.267725,8512.368333
2723.036333,5439.278036,1702.473667,7920.203579
2723.036662,4749.792088,-0.000000,7920.203579
2723.036991,3983.696590,-222.061783,7920.203579
2723.037320,3600.648841,962.267725,8438.347739
2723.037649,2298.286494,666.185348,9104.533087
2723.037978,1225.752797,-666.185348,10288.862594
2723.038307,459.657299,-1702.473667,10732.986159
2723.038636,689.485948,-1998.556043,11103.089130
2723.038965,1455.581446,-1776.494261,9992.780217
2723.039294,229.828649,-1998.556043,10955.047942
2723.039623,766.095498,-740.205942,11473.192101
2723.039953,3524.039291,370.102971,9918.759623
2723.040282,6435.202183,1036.288319,8512.368333
2723.040611,7048.078582,1258.350101,8068.244768
2723.040940,4903.011187,888.247130,8882.471304
2723.041269,4749.792088,962.267725,7994.224174
2723.041598,5745.716235,1628.453072,6439.791695
2723.041927,5592.497135,814.226536,8142.265362
2723.042256,5286.058936,1036.288319,7920.203579
2723.042585,4749.792088,1184.329507,7920.203579
2723.042914,5209.449386,666.185348,7254.018232
2723.043243,4749.792088,-296.082377,7328.038826
2723.043572,3294.210641,-1480.411884,11251.130318
2723.043901,1685.410096,-222.061783,10140.821405
2723.044230,1762.019645,-370.102971,9474.636058
2723.044560,1455.581446,-3108.864956,10362.883188
2723.044889,306.438199,-296.082377,11177.109724
2723.045218,2298.286494,-1258.350101,12361.439231
2723.045547,2681.334243,370.102971,7920.203579
2723.045876,2528.115143,1628.453072,7624.121203
2723.046205,4366.744339,666.185348,8512.368333
2723.046534,4903.011187,1332.370696,8142.265362
2723.046863,3907.087040,-148.041188,8438.347739
2723.047192,4366.744339,-592.164754,7105.977043
2723.047521,2834.553343,-444.123565,7994.224174
2723.047850,2451.505594,-888.247130,8956.491898
2723.048179,2681.334243,-370.102971,9326.594869
2723.048508,229.828649,-1628.453072,9326.594869
2723.048837,153.219100,-1332.370696,10362.883188
2723.049167,1149.143247,-1776.494261,10362.883188
2723.049496,842.705048,-1554.432478,9844.739029
2723.049825,1532.190996,-518.144159,9474.636058
2723.050154,2757.943793,-74.020594,9992.780217
2723.050483,2834.553343,-0.000000,8808.450710
2723.050812,3524.039291,592.164754,8216.285956
2723.051141,5286.058936,1184.329507,7920.203579
2723.051470,5515.887586,518.144159,7031.956449
2723.051799,6052.154434,1480.411884,7920.203579
2723.052128,4903.011187,1110.308913,7772.162391
2723.052457,4213.525239,518.144159,7846.182985
2723.052786,2681.334243,-518.144159,8290.306550
2723.053115,1225.752797,814.226536,8364.327145
2723.053444,-459.657299,-1332.370696,9622.677246
2723.053774,-919.314598,-1332.370696,10214.842000
2723.054103,-1072.533697,-2368.659014,11473.192101
2723.054432,-1225.752797,-74.020594,10510.924376
2723.054761,-919.314598,-222.061783,9400.615463
2723.055090,-1532.190996,-740.205942,9104.533087
2723.055419,-612.876398,370.102971,10362.883188
2723.055748,689.485948,444.123565,8882.471304
2723.056077,-306.438199,-74.020594,7698.141797
2723.056406,76.609550,-296.082377,9548.656652
2723.056735,1225.752797,-444.123565,9474.636058
2723.057064,842.705048,-0.000000,7476.080014
2723.057393,229.828649,-222.061783,8808.450710
2723.057722,0.000000,296.082377,9326.594869
2723.058051,76.609550,444.123565,9548.656652
2723.058381,-842.705048,-148.041188,9252.574275
2723.058710,-383.047749,-1480.411884,10658.965565
2723.059039,-689.485948,-888.247130,10510.924376
2723.059368,-1302.362347,-962.267725,9844.739029
2723.059697,-1072.533697,-740.205942,9622.677246
2723.060026,-1302.362347,-740.205942,9770.718434
2723.060355,-459.657299,296.082377,8216.285956
2723.060684,1302.362347,-444.123565,9178.553681
2723.061013,2298.286494,-814.226536,9622.677246
2723.061342,3140.991542,-0.000000,7105.977043
2723.061671,2987.772442,1110.308913,6809.894666
2723.062000,3447.429741,-0.000000,8882.471304
2723.062329,3294.210641,1332.370696,7105.977043
2723.062658,3524.039291,222.061783,7698.141797
2723.062988,3907.087040,-0.000000,9622.677246
2723.063317,3294.210641,-0.000000,9474.636058
2723.063646,1838.629195,444.123565,8068.244768
2723.063975,919.314598,-74.020594,9474.636058
2723.064304,459.657299,-592.164754,10066.800811
2723.064633,0.000000,222.061783,8882.471304
2723.064962,-689.485948,-1110.308913,10140.821405
2723.065291,153.219100,-444.123565,10288.862594
2723.065620,-306.438199,666.185348,8808.450710
2723.065949,-1225.752797,-518.144159,8956.491898
2723.066278,-1302.362347,-814.226536,10288.862594
2723.066607,-1378.971896,-592.164754,9178.553681
2723.066936,-766.095498,-1406.391290,9030.512492
2723.067265,-842.705048,-1406.391290,9770.718434
2723.067595,-459.657299,-888.247130,10214.842000
2723.067924,0.000000,-740.205942,9474.636058
2723.068253,459.657299,-0.000000,9326.594869
2723.068582,919.314598,444.123565,9992.780217
2723.068911,1455.581446,1036.288319,8290.306550
2723.069240,842.705048,370.102971,8364.327145
2723.069569,1455.581446,1184.329507,9474.636058
2723.069898,1532.190996,814.226536,7031.956449
2723.070227,-153.219100,1036.288319,7476.080014
2723.070556,-536.266849,-222.061783,9548.656652
2723.070885,-1378.971896,-148.041188,9030.512492
2723.071214,-1991.848295,-1702.473667,10066.800811
2723.071543,-1762.019645,-666.185348,9770.718434
2723.071872,-612.876398,-1184.329507,10140.821405
2723.072202,-1302.362347,-740.205942,9696.697840
2723.072531,-612.876398,-0.000000,9252.574275
2723.072860,-689.485948,-592.164754,9622.677246
2723.073189,-306.438199,-444.123565,9178.553681
2723.073518,459.657299,-370.102971,9696.697840
2723.073847,536.266849,-0.000000,10510.924376
2723.074176,1991.848295,-0.000000,8290.306550
2723.074505,2834.553343,888.247130,6291.750507
2723.074834,3140.991542,2368.659014,7772.162391
2723.075163,3370.820191,1554.432478,6069.688724
2723.075492,2681.334243,1480.411884,6217.729913
2723.075821,1378.971896,592.164754,7994.224174
2723.076150,766.095498,-740.205942,7698.141797
2723.076479,-842.705048,-1702.473667,8808.450710
2723.076809,-2451.505594,-1480.411884,9844.739029
2723.077138,-1838.629195,-1776.494261,10288.862594
2723.077467,-1455.581446,-2146.597232,9622.677246
2723.077796,-919.314598,-2220.617826,10584.944971
2723.078125,0.000000,-592.164754,10362.883188
2723.078454,-995.924147,740.205942,8660.409521
2723.078783,-766.095498,-296.082377,10214.842000
2723.079112,-919.314598,-740.205942,9326.594869
2723.079441,-1685.410096,1036.288319,10288.862594
2723.079770,153.219100,-2072.576638,9844.739029
2723.080099,306.438199,-444.123565,9252.574275
2723.080428,0.000000,-518.144159,8660.409521
2723.080757,1685.410096,-0.000000,7328.038826
2723.081087,1915.238745,-296.082377,8734.430116
2723.081416,1378.971896,518.144159,8142.265362
2723.081745,1378.971896,296.082377,7550.100608
2723.082074,842.705048,-0.000000,9696.697840
2723.082403,229.828649,-370.102971,9178.553681
2723.082732,0.000000,296.082377,9548.656652
2723.083061,0.000000,-814.226536,9622.677246
2723.083390,0.000000,-222.061783,9992.780217
2723.083719,536.266849,-296.082377,9770.718434
2723.084048,306.438199,-888.247130,10584.944971
2723.084377,689.485948,-1258.350101,10584.944971
2723.084706,689.485948,-0.000000,9474.636058
2723.085035,1072.533697,-148.041188,8882.471304
2723.085364,1378.971896,1628.453072,8142.265362
2723.085694,2221.676944,666.185348,7994.224174
2723.086023,1532.190996,666.185348,7328.038826
2723.086352,3294.210641,-0.000000,8808.450710
2723.086681,3370.820191,-0.000000,7624.121203
2723.087010,1838.629195,-222.061783,8068.244768
2723.087339,306.438199,-518.144159,9474.636058
2723.087668,459.657299,-74.020594,9326.594869
2723.087997,-229.828649,-814.226536,8808.450710
2723.088326,-612.876398,-74.020594,9622.677246
2723.088655,-306.438199,-1406.391290,10658.965565
2723.088984,-689.485948,-888.247130,9992.780217
2723.089313,-766.095498,-518.144159,9474.636058
2723.089642,-306.438199,-0.000000,9400.615463
2723.089971,0.000000,-518.144159,9474.636058
2723.090301,0.000000,-0.000000,8882.471304
2723.090630,842.705048,-74.020594,9474.636058
2723.090959,1915.238745,1480.411884,7994.224174
2723.091288,766.095498,-740.205942,7698.141797
2723.091617,153.219100,-0.000000,9474.636058
2723.091946,-536.266849,-0.000000,9104.533087
2723.092275,-229.828649,222.061783,8142.265362
2723.092604,-306.438199,-592.164754,9474.636058
2723.092933,-689.485948,-592.164754,10214.842000
2723.093262,-1225.752797,-1036.288319,9696.697840
2723.093591,0.000000,-888.247130,9400.615463
2723.093920,-229.828649,-370.102971,9326.594869
2723.094249,689.485948,-74.020594,9400.615463
2723.094578,919.314598,888.247130,8364.327145
2723.094908,1302.362347,-74.020594,8808.450710
2723.095237,1302.362347,962.267725,8216.285956
2723.095566,2298.286494,370.102971,5995.668130
2723.095895,766.095498,148.041188,7402.059420
2723.096224,153.219100,296.082377,9104.533087
2723.096553,0.000000,-666.185348,8808.450710
2723.096882,-1302.362347,-1110.308913,9178.553681
2723.097211,-1149.143247,-666.185348,10881.027347
2723.097540,-919.314598,-740.205942,9770.718434
2723.097869,-919.314598,-74.020594,9622.677246
2723.098198,-995.924147,-0.000000,9918.759623
2723.098527,-459.657299,-0.000000,9992.780217
2723.098856,-1072.533697,592.164754,9696.697840
2723.099185,536.266849,-814.226536,11251.130318
2723.099515,842.705048,740.205942,8734.430116
2723.099844,1149.143247,-0.000000,7772.162391
2723.100173,1072.533697,444.123565,7772.162391
2723.100502,1455.581446,1110.308913,8364.327145
2723.100831,689.485948,518.144159,8068.244768
2723.101160,153.219100,-814.226536,8364.327145
2723.101489,842.705048,-592.164754,9548.656652
2723.101818,-995.924147,-1110.308913,8808.450710
2723.102147,-1532.190996,-1628.453072,10066.800811
2723.102476,-689.485948,-1406.391290,10584.944971
2723.102805,-919.314598,-814.226536,9474.636058
2723.103134,-383.047749,-740.205942,9918.759623
2723.103463,229.828649,-1110.308913,9844.739029
2723.103792,1455.581446,222.061783,9770.718434
2723.104122,1225.752797,1110.308913,7105.977043
2723.104451,1915.238745,-0.000000,9400.615463
2723.104780,1991.848295,962.267725,8364.327145
2723.105109,2374.896044,1332.370696,7105.977043
2723.105438,1378.971896,518.144159,7624.121203
2723.105767,1455.581446,-222.061783,9252.574275
2723.106096,995.924147,-592.164754,8660.409521
2723.106425,153.219100,-1406.391290,8660.409521
2723.106754,76.609550,-1332.370696,9030.512492
2723.107083,-612.876398,-592.164754,8660.409521
2723.107412,0.000000,-888.247130,8734.430116
2723.107741,153.219100,-1110.308913,11547.212695
2723.108070,306.438199,-1332.370696,10362.883188
2723.108399,-306.438199,296.082377,8142.265362
2723.108729,0.000000,-518.144159,9030.512492
2723.109058,536.266849,1184.329507,7994.224174
2723.109387,766.095498,962.267725,8512.368333
2723.109716,153.219100,-74.020594,9770.718434
2723.110045,383.047749,148.041188,9474.636058
2723.110374,0.000000,-1554.432478,8882.471304
2723.110703,-689.485948,-74.020594,7772.162391
2723.111032,-612.876398,-1036.288319,9252.574275
2723.111361,-995.924147,-962.267725,9918.759623
2723.111690,-459.657299,-962.267725,9104.533087
2723.112019,536.266849,-592.164754,9474.636058
2723.112348,0.000000,-0.000000,7846.182985
2723.112677,1149.143247,-0.000000,9178.553681
2723.113006,0.000000,-0.000000,8956.491898
2723.113336,-766.095498,1036.288319,9400.615463
2723.113665,229.828649,-814.226536,9326.594869
2723.113994,0.000000,-0.000000,9178.553681
2723.114323,0.000000,-592.164754,10066.800811
2723.114652,76.609550,-370.102971,8956.491898
2723.114981,0.000000,-1036.288319,9326.594869
2723.115310,-229.828649,-518.144159,10288.862594
2723.115639,689.485948,-0.000000,9326.594869
2723.115968,383.047749,-518.144159,9030.512492
2723.116297,1378.971896,-74.020594,9548.656652
2723.116626,2298.286494,888.247130,8660.409521
2723.116955,1915.238745,518.144159,7402.059420
2723.117284,2145.067394,1110.308913,8882.471304
2723.117613,2068.457845,444.123565,8882.471304
2723.117943,1915.238745,666.185348,7846.182985
2723.118272,1225.752797,444.123565,9178.553681
2723.118601,919.314598,-296.082377,9992.780217
2723.118930,383.047749,-814.226536,8512.368333
2723.119259,0.000000,222.061783,9252.574275
2723.119588,383.047749,-814.226536,10362.883188
2723.119917,-536.266849,-666.185348,8216.285956
2723.120246,-383.047749,-592.164754,9178.553681
2723.120575,612.876398,-148.041188,9400.615463
2723.120904,1072.533697,-0.000000,8438.347739
2723.121233,766.095498,-0.000000,7920.203579
2723.121562,536.266849,-148.041188,9178.553681
2723.121891,1225.752797,666.185348,8290.306550
2723.122220,229.828649,370.102971,7920.203579
2723.122550,229.828649,-1258.350101,10436.903782
2723.122879,0.000000,296.082377,9844.739029
2723.123208,383.047749,-1406.391290,9548.656652
2723.123537,-229.828649,-74.020594,9474.636058
2723.123866,-1072.533697,-1184.329507,9844.739029
2723.124195,459.657299,148.041188,8660.409521
2723.124524,-229.828649,-0.000000,9178.553681
2723.124853,459.657299,-296.082377,10140.821405
2723.125182,612.876398,518.144159,7624.121203
2723.125511,383.047749,-0.000000,8808.450710
2723.125840,229.828649,-148.041188,9696.697840
2723.126169,689.485948,222.061783,7698.141797
2723.126498,536.266849,-222.061783,9252.574275
2723.126828,0.000000,-296.082377,9696.697840
2723.127157,842.705048,-444.123565,10140.821405
2723.127486,383.047749,-444.123565,7994.224174
2723.127815,689.485948,-0.000000,9622.677246
2723.128144,536.266849,-1036.288319,9548.656652
2723.128473,1915.238745,296.082377,7920.203579
2723.128802,2145.067394,-296.082377,9030.512492
2723.129131,1838.629195,1406.391290,9252.574275
2723.129460,1762.019645,962.267725,6957.935855
2723.129789,1455.581446,-0.000000,7846.182985
2723.130118,842.705048,1184.329507,9474.636058
2723.130447,766.095498,1110.308913,8290.306550
2723.130776,0.000000,-518.144159,8438.347739
2723.131105,-612.876398,-888.247130,10732.986159
2723.131435,-1302.362347,-444.123565,10510.924376
2723.131764,-1685.410096,-1406.391290,8956.491898
2723.132093,-1455.581446,-814.226536,10362.883188
2723.132422,-612.876398,-592.164754,9474.636058
2723.132751,-612.876398,-666.185348,8364.327145
2723.133080,-383.047749,-888.247130,9696.697840
2723.133409,0.000000,222.061783,9178.553681
2723.133738,-459.657299,-74.020594,8290.306550
2723.134067,1532.190996,-444.123565,8068.244768
2723.134396,919.314598,1036.288319,7994.224174
2723.134725,0.000000,-0.000000,7624.121203
2723.135054,229.828649,-296.082377,9326.594869
2723.135383,0.000000,-370.102971,10807.006753
2723.135712,-766.095498,-962.267725,8882.471304
2723.136042,-1149.143247,-888.247130,9178.553681
2723.136371,-1838.629195,-1628.453072,9474.636058
2723.136700,-1455.581446,-0.000000,9844.739029
2723.137029,-306.438199,-1776.494261,9178.553681
2723.137358,-536.266849,-370.102971,9326.594869
2723.137687,1072.533697,-222.061783,9844.739029
2723.138016,995.924147,296.082377,7846.182985
2723.138345,1532.190996,-74.020594,7920.203579
2723.138675,2451.505594,1332.370696,8586.388927
2723.139004,1532.190996,2146.597232,7402.059420
2723.139333,1455.581446,814.226536,7550.100608
2723.139662,1455.581446,-1184.329507,9770.718434
2723.139991,689.485948,370.102971,9918.759623
2723.140320,76.609550,-1776.494261,9474.636058
2723.140650,-1072.533697,-1258.350101,9696.697840
2723.140979,-766.095498,-740.205942,9548.656652
2723.141308,-459.657299,-814.226536,8808.450710
2723.141637,76.609550,-0.000000,9400.615463
2723.141966,995.924147,-518.144159,10362.883188
2723.142295,0.000000,518.144159,7994.224174
2723.142624,1302.362347,666.185348,9104.533087
2723.142954,919.314598,-0.000000,8142.265362
2723.143283,1149.143247,1184.329507,7994.224174
2723.143612,1378.971896,-0.000000,9030.512492
2723.143941,612.876398,-0.000000,9252.574275
2723.144270,229.828649,-888.247130,9844.739029
2723.144599,612.876398,-814.226536,8734.430116
2723.144928,306.438199,-592.164754,9992.780217
2723.145258,-689.485948,-148.041188,9696.697840
2723.145587,76.609550,-1036.288319,9252.574275
2723.145916,0.000000,-74.020594,10140.821405
2723.146245,842.705048,-0.000000,9030.512492
2723.146574,1455.581446,740.205942,7772.162391
2723.146903,919.314598,-0.000000,8882.471304
2723.147232,1072.533697,518.144159,9400.615463
2723.147562,1225.752797,666.185348,7550.100608
2723.147891,459.657299,-296.082377,9030.512492
2723.148220,0.000000,-0.000000,9474.636058
2723.148549,612.876398,-0.000000,9400.615463
2723.148878,-919.314598,-888.247130,8512.368333
2723.149207,76.609550,-962.267725,10066.800811
2723.149536,76.609550,-740.205942,9548.656652
2723.149866,459.657299,-666.185348,8290.306550
2723.150195,842.705048,222.061783,9992.780217
2723.150524,1072.533697,962.267725,8734.430116
2723.150853,842.705048,592.164754,8068.244768
2723.151182,766.095498,370.102971,8290.306550
2723.151511,1149.143247,2220.617826,8512.368333
2723.151841,-383.047749,592.164754,7550.100608
2723.152170,-306.438199,-1036.288319,8512.368333
2723.152499,459.657299,-0.000000,9474.636058
2723.152828,-842.705048,-888.247130,8512.368333
2723.153157,-1302.362347,-1110.308913,8660.409521
2723.153486,-1685.410096,-1480.411884,10214.842000
2723.153815,-1225.752797,-222.061783,9622.677246
2723.154145,-459.657299,-1850.514855,8438.347739
2723.154474,-689.485948,-518.144159,10732.986159
2723.154803,-229.828649,370.102971,9474.636058
2723.155132,0.000000,148.041188,8882.471304
2723.155461,76.609550,-0.000000,9992.780217
2723.155790,689.485948,740.205942,8068.244768
2723.156119,1608.800546,1036.288319,7328.038826
2723.156449,1072.533697,592.164754,8734.430116
2723.156778,766.095498,814.226536,9844.739029
2723.157107,995.924147,-814.226536,9104.533087
2723.157436,0.000000,-814.226536,9326.594869
2723.157765,-306.438199,-148.041188,9770.718434
2723.158094,-153.219100,-666.185348,9696.697840
2723.158423,-612.876398,-1628.453072,9622.677246
2723.158753,153.219100,-888.247130,10584.944971
2723.159082,842.705048,-518.144159,10066.800811
2723.159411,153.219100,-444.123565,9178.553681
2723.159740,229.828649,-0.000000,9474.636058
2723.160069,1225.752797,592.164754,9844.739029
2723.160398,689.485948,814.226536,7476.080014
2723.160728,1532.190996,-0.000000,9104.533087
2723.161057,2221.676944,592.164754,9178.553681
2723.161386,1072.533697,-148.041188,7994.224174
2723.161715,1378.971896,740.205942,7402.059420
2723.162044,1072.533697,222.061783,8438.347739
2723.162373,0.000000,-296.082377,8660.409521
2723.162702,-229.828649,-444.123565,8512.368333
2723.163032,-229.828649,-1036.288319,9992.780217
2723.163361,0.000000,-444.123565,9474.636058
2723.163690,-229.828649,-592.164754,7624.121203
2723.164019,-229.828649,-888.247130,8956.491898
2723.164348,-459.657299,-0.000000,9326.594869
2723.164677,0.000000,148.041188,8364.327145
2723.165006,459.657299,-666.185348,9400.615463
2723.165336,689.485948,-0.000000,9178.553681
2723.165665,842.705048,-0.000000,8956.491898
2723.165994,459.657299,-0.000000,8586.388927
2723.166323,383.047749,-814.226536,9326.594869
2723.166652,919.314598,-296.082377,8586.388927
2723.166981,536.266849,296.082377,8290.306550
2723.167310,383.047749,-222.061783,9992.780217
2723.167640,0.000000,-666.185348,9474.636058
2723.167969,-229.828649,-0.000000,9400.615463
2723.168298,-689.485948,-518.144159,9326.594869
2723.168627,995.924147,-370.102971,8438.347739
2723.168956,383.047749,-740.205942,7920.203579
2723.169285,-689.485948,-740.205942,11251.130318
2723.169615,1149.143247,-1702.473667,10881.027347
2723.169944,919.314598,-0.000000,7624.121203
2723.170273,1838.629195,222.061783,8142.265362
2723.170602,2451.505594,740.205942,10066.800811
2723.170931,2298.286494,148.041188,7624.121203
2723.171260,2451.505594,1184.329507,7846.182985
2723.171589,2681.334243,370.102971,8512.368333
2723.171919,1149.143247,962.267725,7994.224174
2723.172248,536.266849,-518.144159,8512.368333
2723.172577,-536.266849,-148.041188,10288.862594
2723.172906,-1149.143247,-0.000000,8216.285956
2723.173235,-1072.533697,-1258.350101,9622.677246
2723.173564,-1149.143247,-2664.741391,11029.068536
2723.173893,-1149.143247,-0.000000,10214.842000
2723.174223,-612.876398,-1332.370696,9030.512492
2723.174552,-1532.190996,-1110.308913,9104.533087
2723.174881,0.000000,-74.020594,10955.047942
2723.175210,229.828649,296.082377,7105.977043
2723.175539,919.314598,814.226536,7698.141797
2723.175868,1455.581446,-0.000000,9622.677246
2723.176197,1685.410096,1702.473667,6957.935855
2723.176527,689.485948,518.144159,7994.224174
2723.176856,-229.828649,296.082377,9622.677246
2723.177185,153.219100,962.267725,9178.553681
2723.177514,-689.485948,-518.144159,8290.306550
2723.177843,-1762.019645,-2146.597232,10140.821405
2723.178172,-919.314598,-1406.391290,10584.944971
2723.178501,-1302.362347,-1258.350101,8734.430116
2723.178831,-1838.629195,-1628.453072,9844.739029
2723.179160,-689.485948,-1110.308913,9770.718434
2723.179489,153.219100,-518.144159,8512.368333
2723.179818,459.657299,-518.144159,9844.739029
2723.180147,1838.629195,370.102971,8734.430116
2723.180476,1608.800546,444.123565,7772.162391
2723.180806,1532.190996,1776.494261,7179.997637
2723.181135,2068.457845,1924.535449,8808.450710
2723.181464,1762.019645,888.247130,8290.306550
2723.181793,536.266849,888.247130,7920.203579
2723.182122,459.657299,-296.082377,10362.883188
2723.182451,0.000000,-1184.329507,9474.636058
2723.182780,-1378.971896,-518.144159,9474.636058
2723.183110,-1225.752797,-1850.514855,10807.006753
2723.183439,-689.485948,-370.102971,9770.718434
2723.183768,-612.876398,-888.247130,9400.615463
2723.184097,0.000000,-518.144159,9030.512492
2723.184426,1302.362347,-0.000000,10510.924376
2723.184755,1455.581446,888.247130,7994.224174
2723.185084,919.314598,1480.411884,7105.977043
2723.185414,689.485948,814.226536,9696.697840
2723.185743,536.266849,1184.329507,8882.471304
2723.186072,459.657299,370.102971,8438.347739
2723.186401,-229.828649,-666.185348,9770.718434
2723.186730,-842.705048,-1110.308913,9992.780217
2723.187059,-1149.143247,-2146.597232,9696.697840
2723.187388,-536.266849,-888.247130,9104.533087
2723.187718,-612.876398,-592.164754,9918.759623
2723.188047,-306.438199,-1184.329507,8882.471304
2723.188376,459.657299,-222.061783,9696.697840
2723.188705,2068.457845,-296.082377,9474.636058
2723.189034,1838.629195,1184.329507,6957.935855
2723.189363,1762.019645,-0.000000,7772.162391
2723.189693,1455.581446,370.102971,8586.388927
2723.190022,2145.067394,962.267725,6957.935855
2723.190351,1685.410096,-0.000000,7920.203579
2723.190680,1072.533697,-1480.411884,10140.821405
2723.191009,766.095498,-1406.391290,10436.903782
2723.191338,536.266849,-1406.391290,9622.677246
2723.191667,-306.438199,-740.205942,9474.636058
2723.191997,383.047749,-1036.288319,10584.944971
2723.192326,766.095498,-74.020594,9622.677246
2723.192655,1302.362347,222.061783,9696.697840
2723.192984,2068.457845,888.247130,9104.533087
2723.193313,2528.115143,1480.411884,6365.771101
2723.193642,2451.505594,592.164754,8068.244768
2723.193971,1991.848295,1036.288319,9770.718434
2723.194301,1838.629195,1110.308913,7402.059420
2723.194630,1378.971896,-1406.391290,7328.038826
2723.194959,0.000000,370.102971,9252.574275
2723.195288,689.485948,-222.061783,10066.800811
2723.195617,-1225.752797,-2368.659014,8882.471304
2723.195946,-995.924147,-1554.432478,9992.780217
2723.196275,-1532.190996,-962.267725,9992.780217
2723.196605,-153.219100,-296.082377,8438.347739
2723.196934,0.000000,-592.164754,9844.739029
2723.197263,1072.533697,888.247130,9326.594869
2723.197592,306.438199,814.226536,7772.162391
2723.197921,766.095498,370.102971,8142.265362
2723.198250,766.095498,518.144159,8660.409521
2723.198579,0.000000,1554.432478,8142.265362
2723.198909,76.609550,518.144159,8438.347739
2723.199238,-459.657299,-370.102971,10140.821405
2723.199567,-766.095498,-1850.514855,9844.739029
2723.199896,-1532.190996,-962.267725,8364.327145
2723.200225,-536.266849,-1036.288319,10288.862594
2723.200554,-1762.019645,-1702.473667,9030.512492
2723.200884,-1838.629195,-814.226536,10214.842000
2723.201213,76.609550,-1924.535449,11547.212695
2723.201542,536.266849,666.185348,9400.615463
2723.201871,689.485948,444.123565,8068.244768
2723.202200,1072.533697,1406.391290,8586.388927
2723.202529,612.876398,592.164754,9400.615463
2723.202858,1838.629195,1480.411884,8364.327145
2723.203188,2681.334243,-0.000000,7624.121203
2723.203517,153.219100,-0.000000,10288.862594
2723.203846,612.876398,-518.144159,10066.800811
2723.204175,-612.876398,-814.226536,8438.347739
2723.204504,-995.924147,-1554.432478,9622.677246
2723.204833,-459.657299,-74.020594,9474.636058
2723.205162,-919.314598,-1332.370696,9104.533087
2723.205492,-995.924147,-1036.288319,10140.821405
2723.205821,459.657299,-222.061783,9474.636058
2723.206150,0.000000,444.123565,8216.285956
2723.206479,306.438199,444.123565,8734.430116
2723.206808,306.438199,888.247130,9400.615463
2723.207137,229.828649,740.205942,7624.121203
2723.207466,229.828649,-0.000000,8142.265362
2723.207796,306.438199,-0.000000,8882.471304
2723.208125,-383.047749,-814.226536,9178.553681
2723.208454,-306.438199,-1332.370696,9326.594869
2723.208783,-153.219100,-1332.370696,9622.677246
2723.209112,-306.438199,-0.000000,9104.533087
2723.209441,0.000000,-1110.308913,8216.285956
2723.209771,0.000000,-888.247130,10584.944971
2723.210100,459.657299,-740.205942,9622.677246
2723.210429,1608.800546,518.144159,7994.224174
2723.210758,919.314598,-0.000000,8956.491898
2723.211087,306.438199,888.247130,9252.574275
2723.211416,1302.362347,962.267725,8882.471304
2723.211745,689.485948,148.041188,8586.388927
2723.212075,1225.752797,-296.082377,10362.883188
2723.212404,689.485948,-518.144159,9104.533087
2723.212733,689.485948,-444.123565,9252.574275
2723.213062,383.047749,-740.205942,10288.862594
2723.213391,766.095498,-370.102971,9474.636058
2723.213720,229.828649,-814.226536,8364.327145
2723.214049,1532.190996,-666.185348,11177.109724
2723.214379,1762.019645,-0.000000,8660.409521
2723.214708,1991.848295,444.123565,7550.100608
2723.215037,2145.067394,370.102971,8290.306550
2723.215366,1685.410096,1702.473667,8808.450710
2723.215695,1302.362347,1332.370696,8216.285956
2723.216024,536.266849,-0.000000,8808.450710
2723.216353,459.657299,-148.041188,9548.656652
2723.216683,0.000000,-222.061783,9104.533087
2723.217012,-995.924147,-1036.288319,8438.347739
2723.217341,-1532.190996,-1406.391290,9696.697840
2723.217670,-995.924147,-1036.288319,9474.636058
2723.217999,-766.095498,-888.247130,8512.368333
2723.218328,-229.828649,-1036.288319,10140.821405
2723.218657,0.000000,-666.185348,9104.533087
2723.218987,-383.047749,-518.144159,9104.533087
2723.219316,-536.266849,-0.000000,8438.347739
2723.219645,-229.828649,666.185348,9104.533087
2723.219974,-153.219100,370.102971,8216.285956
2723.220303,0.000000,740.205942,8882.471304
2723.220632,306.438199,-0.000000,10214.842000
2723.220962,-459.657299,-296.082377,8438.347739
2723.221291,0.000000,-740.205942,9178.553681
2723.221620,0.000000,-740.205942,10066.800811
2723.221949,229.828649,-0.000000,9104.533087
2723.222278,459.657299,-444.123565,8512.368333
2723.222607,459.657299,-518.144159,9622.677246
2723.222936,1225.752797,148.041188,9104.533087
2723.223266,1225.752797,-592.164754,7920.203579
2723.223595,995.924147,-222.061783,8142.265362
2723.223924,383.047749,222.061783,8808.450710
2723.224253,1302.362347,-0.000000,8216.285956
2723.224582,0.000000,296.082377,8660.409521
2723.224911,153.219100,-666.185348,10807.006753
2723.225240,0.000000,-148.041188,9178.553681
2723.225570,0.000000,222.061783,8364.327145
2723.225899,0.000000,-962.267725,10140.821405
2723.226228,0.000000,-1036.288319,9992.780217
2723.226557,-306.438199,-0.000000,9252.574275
2723.226886,1838.629195,-1110.308913,9770.718434
2723.227215,1149.143247,592.164754,7624.121203
2723.227544,1378.971896,888.247130,8068.244768
2723.227874,1685.410096,740.205942,8068.244768
2723.228203,2068.457845,1480.411884,8142.265362
2723.228532,919.314598,962.267725,8512.368333
2723.228861,1378.971896,222.061783,8734.430116
2723.229190,383.047749,-962.267725,10066.800811
2723.229519,0.000000,-518.144159,9104.533087
2723.229849,-689.485948,-1554.432478,9474.636058
2723.230178,-1072.533697,-592.164754,10436.903782
2723.230507,-383.047749,-1554.432478,10214.842000
2723.230836,-459.657299,-814.226536,9104.533087
2723.231165,153.219100,-1110.308913,10066.800811
2723.231494,1149.143247,444.123565,9326.594869
2723.231823,1149.143247,814.226536,8882.471304
2723.232153,1762.019645,740.205942,7624.121203
2723.232482,2068.457845,888.247130,8142.265362
2723.232811,1225.752797,-0.000000,7772.162391
2723.233140,1378.971896,-0.000000,9326.594869
2723.233469,1149.143247,-1258.350101,10066.800811
2723.233798,-536.266849,-1406.391290,9474.636058
2723.234127,-612.876398,-1258.350101,9178.553681
2723.234457,-766.095498,-740.205942,10362.883188
2723.234786,-306.438199,-296.082377,9474.636058
2723.235115,76.609550,-1184.329507,10510.924376
2723.235444,-612.876398,-0.000000,9918.759623
2723.235773,1302.362347,148.041188,9030.512492
2723.236102,842.705048,1110.308913,8512.368333
2723.236431,229.828649,370.102971,9178.553681
2723.236761,383.047749,740.205942,9252.574275
2723.237090,0.000000,1110.308913,7402.059420
2723.237419,-153.219100,-666.185348,9770.718434
2723.237748,0.000000,-222.061783,8808.450710
2723.238077,-459.657299,-814.226536,8512.368333
2723.238406,-842.705048,-1258.350101,9178.553681
2723.238735,-1072.533697,-1110.308913,9696.697840
2723.239065,-842.705048,-814.226536,9178.553681
2723.239394,-995.924147,-1036.288319,9104.533087
2723.239723,76.609550,-0.000000,10066.800811
2723.240052,0.000000,-0.000000,8142.265362
2723.240381,1149.143247,592.164754,7920.203579
2723.240710,919.314598,740.205942,8438.347739
2723.241039,842.705048,1258.350101,8216.285956
2723.241368,76.609550,222.061783,8142.265362
2723.241697,995.924147,-518.144159,8586.388927
2723.242027,0.000000,-222.061783,8734.430116
2723.242356,-383.047749,-1554.432478,8882.471304
2723.242685,-536.266849,-1628.453072,8734.430116
2723.243014,-689.485948,-814.226536,9622.677246
2723.243343,-689.485948,-1036.288319,8956.491898
2723.243672,76.609550,-962.267725,9992.780217
2723.244001,1225.752797,148.041188,10214.842000
2723.244330,1685.410096,666.185348,8512.368333
2723.244659,1838.629195,370.102971,8142.265362
2723.244989,1838.629195,1554.432478,8290.306550
2723.245318,3064.381992,2442.679609,8512.368333
2723.245647,2221.676944,1332.370696,7772.162391
2723.245976,766.095498,518.144159,9992.780217
2723.246305,1762.019645,-0.000000,9992.780217
2723.246634,0.000000,148.041188,8882.471304
2723.246963,-995.924147,-1406.391290,10288.862594
2723.247292,-1455.581446,-0.000000,10288.862594
2723.247621,459.657299,-2072.576638,8882.471304
2723.247951,-536.266849,-444.123565,8438.347739
2723.248280,153.219100,-962.267725,11251.130318
2723.248609,1149.143247,-1110.308913,9770.718434
2723.248938,229.828649,740.205942,7994.224174
2723.249267,919.314598,666.185348,8734.430116
2723.249596,1685.410096,740.205942,8660.409521
2723.249925,1455.581446,592.164754,7476.080014
2723.250254,1991.848295,666.185348,9844.739029
2723.250583,1378.971896,-592.164754,9844.739029
2723.250913,229.828649,-0.000000,7994.224174
2723.251242,459.657299,-1036.288319,9400.615463
2723.251571,-306.438199,-518.144159,9622.677246
2723.251900,-1225.752797,-1184.329507,8882.471304
2723.252229,459.657299,-1258.350101,9474.636058
2723.252558,153.219100,-814.226536,9770.718434
2723.252887,-842.705048,-740.205942,7698.141797
2723.253216,-766.095498,-370.102971,8586.388927
2723.253545,459.657299,-814.226536,10066.800811
2723.253875,76.609550,740.205942,7105.977043
2723.254204,536.266849,-444.123565,7920.203579
2723.254533,1302.362347,-518.144159,9104.533087
2723.254862,1762.019645,-222.061783,9992.780217
2723.255191,612.876398,-370.102971,9178.553681
2723.255520,842.705048,148.041188,8808.450710
2723.255849,383.047749,-962.267725,9622.677246
2723.256178,1455.581446,1554.432478,8364.327145
2723.256507,1225.752797,-592.164754,8956.491898
2723.256837,1149.143247,-370.102971,10362.883188
2723.257166,1072.533697,592.164754,8290.306550
2723.257495,383.047749,222.061783,8068.244768
2723.257824,-689.485948,-222.061783,9696.697840
2723.258153,-306.438199,518.144159,8438.347739
2723.258482,-995.924147,-592.164754,9252.574275
2723.258811,-1378.971896,-1110.308913,10584.944971
2723.259140,-842.705048,-1480.411884,10288.862594
2723.259469,-1072.533697,-1702.473667,9326.594869
2723.259799,-1455.581446,-888.247130,10214.842000
2723.260128,-612.876398,-1110.308913,9030.512492
2723.260457,-689.485948,-74.020594,9104.533087
2723.260786,-842.705048,-518.144159,10362.883188
2723.261115,459.657299,-222.061783,8660.409521
2723.261444,612.876398,814.226536,7994.224174
2723.261773,919.314598,-148.041188,8438.347739
2723.262102,153.219100,1258.350101,9474.636058
2723.262431,612.876398,666.185348,9030.512492
2723.262761,0.000000,444.123565,7476.080014
2723.263090,919.314598,370.102971,10214.842000
2723.263419,76.609550,-296.082377,8734.430116
2723.263748,153.219100,-592.164754,8364.327145
2723.264077,153.219100,-962.267725,9548.656652
2723.264406,76.609550,-592.164754,9178.553681
2723.264735,612.876398,-1258.350101,8660.409521
2723.265064,919.314598,370.102971,9918.759623
2723.265393,1608.800546,-0.000000,9622.677246
2723.265723,1991.848295,1110.308913,7624.121203
2723.266052,2451.505594,666.185348,8512.368333
2723.266381,1762.019645,814.226536,9030.512492
2723.266710,2221.676944,222.061783,8660.409521
2723.267039,1532.190996,-370.102971,9178.553681
2723.267368,1532.190996,222.061783,9696.697840
2723.267697,1378.971896,-222.061783,9400.615463
2723.268026,612.876398,-592.164754,9548.656652
2723.268355,536.266849,-370.102971,9770.718434
2723.268685,919.314598,-0.000000,9474.636058
2723.269014,229.828649,-1184.329507,9104.533087
2723.269343,306.438199,-518.144159,9474.636058
2723.269672,1072.533697,-296.082377,10362.883188
2723.270001,689.485948,296.082377,8586.388927
2723.270330,153.219100,-148.041188,7920.203579
2723.270659,383.047749,740.205942,9696.697840
2723.270988,536.266849,-444.123565,8882.471304
2723.271317,-153.219100,-444.123565,8808.450710
2723.271647,229.828649,-962.267725,10881.027347
2723.271976,76.609550,-0.000000,8660.409521
2723.272305,-919.314598,-1258.350101,7920.203579
2723.272634,-1302.362347,296.082377,9844.739029
2723.272963,-1378.971896,-444.123565,9770.718434
2723.273292,-2145.067394,-1184.329507,9252.574275
2723.273621,-689.485948,-1554.432478,10140.821405
2723.273950,-306.438199,-148.041188,8660.409521
2723.274279,0.000000,-148.041188,8290.306550
2723.274609,0.000000,962.267725,7328.038826
2723.274938,612.876398,666.185348,9696.697840
2723.275267,0.000000,740.205942,7105.977043
2723.275596,1302.362347,-296.082377,8068.244768
2723.275925,1302.362347,-444.123565,9696.697840
2723.276254,229.828649,-222.061783,7920.203579
2723.276583,76.609550,-962.267725,8512.368333
2723.276912,-383.047749,-1850.514855,9770.718434
2723.277241,0.000000,-888.247130,9474.636058
2723.277571,76.609550,-148.041188,8660.409521
2723.277900,229.828649,-222.061783,9474.636058
2723.278229,459.657299,-222.061783,10214.842000
2723.278558,1072.533697,-0.000000,8512.368333
2723.278887,536.266849,1184.329507,8216.285956
2723.279216,-383.047749,962.267725,9104.533087
2723.279545,842.705048,-222.061783,8660.409521
2723.279874,-383.047749,148.041188,7550.100608
2723.280204,-536.266849,-592.164754,10658.965565
2723.280533,0.000000,-1554.432478,9474.636058
2723.280862,-459.657299,-888.247130,9400.615463
2723.281191,-995.924147,-1184.329507,10510.924376
2723.281520,229.828649,222.061783,9400.615463
2723.281849,-153.219100,-814.226536,9696.697840
2723.282178,153.219100,-296.082377,10288.862594
2723.282507,1302.362347,222.061783,9474.636058
2723.282836,1149.143247,1184.329507,7920.203579
2723.283166,919.314598,518.144159,9474.636058
2723.283495,995.924147,2368.659014,9474.636058
2723.283824,536.266849,-0.000000,7920.203579
2723.284153,995.924147,296.082377,8956.491898
2723.284482,306.438199,148.041188,9770.718434
2723.284811,76.609550,-444.123565,9400.615463
2723.285140,76.609550,-962.267725,9474.636058
2723.285469,0.000000,-666.185348,9844.739029
2723.285798,-153.219100,-222.061783,9770.718434
2723.286128,459.657299,-518.144159,8808.450710
2723.286457,1378.971896,-740.205942,9400.615463
2723.286786,1455.581446,592.164754,9474.636058
2723.287115,2374.896044,518.144159,8068.244768
2723.287444,2757.943793,814.226536,7772.162391
2723.287773,2911.162892,1480.411884,8438.347739
2723.288102,2068.457845,1110.308913,8734.430116
2723.288431,2451.505594,-0.000000,8586.388927
2723.288760,1838.629195,1258.350101,8660.409521
2723.289090,1762.019645,-0.000000,8882.471304
2723.289419,536.266849,-444.123565,9178.553681
2723.289748,-766.095498,-0.000000,10510.924376
2723.290077,-306.438199,-1924.535449,10140.821405
2723.290406,-306.438199,-296.082377,8216.285956
2723.290735,-306.438199,-1702.473667,10881.027347
2723.291064,-766.095498,-370.102971,8734.430116
2723.291393,-842.705048,-222.061783,9400.615463
2723.291722,-766.095498,-444.123565,9400.615463
2723.292052,0.000000,-222.061783,9030.512492
2723.292381,-459.657299,-592.164754,8956.491898
2723.292710,0.000000,-444.123565,9104.533087
2723.293039,-229.828649,-148.041188,10066.800811
2723.293368,0.000000,-888.247130,8808.450710
2723.293697,0.000000,-222.061783,8660.409521
2723.294026,-306.438199,-888.247130,10066.800811
2723.294355,-459.657299,-592.164754,7846.182985
2723.294684,-153.219100,-814.226536,8512.368333
2723.295014,229.828649,-1036.288319,9400.615463
2723.295343,229.828649,-592.164754,9400.615463
2723.295672,0.000000,-740.205942,7105.977043
2723.296001,-383.047749,-740.205942,8808.450710
2723.296330,-229.828649,-0.000000,7846.182985
2723.296659,-536.266849,-0.000000,8068.244768
2723.296988,229.828649,-1110.308913,9400.615463
2723.297317,0.000000,-0.000000,8808.450710
2723.297646,919.314598,-222.061783,8290.306550
2723.297976,1302.362347,-74.020594,9104.533087
2723.298305,689.485948,740.205942,9326.594869
2723.298634,383.047749,-0.000000,8882.471304
2723.298963,0.000000,-592.164754,9918.759623
2723.299292,-153.219100,-740.205942,10288.862594
2723.299621,459.657299,592.164754,9104.533087
2723.299950,689.485948,-1258.350101,8512.368333
2723.300279,-229.828649,370.102971,9178.553681
2723.300608,0.000000,962.267725,8956.491898
2723.300938,612.876398,962.267725,8068.244768
2723.301267,842.705048,-0.000000,9696.697840
2723.301596,689.485948,-0.000000,9548.656652
2723.301925,1225.752797,-0.000000,9178.553681
2723.302254,536.266849,296.082377,8512.368333
2723.302583,1302.362347,-0.000000,8586.388927
2723.302912,1225.752797,518.144159,8956.491898
2723.303241,612.876398,444.123565,9548.656652
2723.303570,1225.752797,-0.000000,9548.656652
2723.303900,1838.629195,-0.000000,8808.450710
2723.304229,459.657299,-296.082377,9696.697840
2723.304558,0.000000,-0.000000,9992.780217
2723.304887,-153.219100,-74.020594,9844.739029
2723.305216,306.438199,-592.164754,8364.327145
2723.305545,-459.657299,-888.247130,8734.430116
2723.305874,-536.266849,-444.123565,10510.924376
2723.306203,229.828649,-2294.638420,8142.265362
2723.306532,-536.266849,-370.102971,7624.121203
2723.306862,1149.143247,-0.000000,7920.203579
2723.307191,1455.581446,296.082377,8586.388927
2723.307520,1225.752797,-0.000000,9030.512492
2723.307849,1685.410096,1332.370696,9400.615463
2723.308178,1532.190996,888.247130,7920.203579
2723.308507,1455.581446,592.164754,7254.018232
2723.308836,995.924147,1480.411884,8586.388927
2723.309165,0.000000,814.226536,8660.409521
2723.309494,-536.266849,222.061783,8068.244768
2723.309824,-536.266849,-296.082377,9474.636058
2723.310153,-1762.019645,-592.164754,9474.636058
2723.310482,-2528.115143,-814.226536,9104.533087
2723.310811,-3064.381992,-1036.288319,9030.512492
2723.311140,-3677.258390,-1258.350101,9844.739029
2723.311469,-3447.429741,-888.247130,9400.615463
2723.311798,-3677.258390,-222.061783,9548.656652
2723.312127,-3370.820191,-370.102971,9696.697840
2723.312456,-3140.991542,-518.144159,9474.636058
2723.312786,-3830.477490,370.102971,8290.306550
2723.313115,-4366.744339,-962.267725,9622.677246
2723.313444,-4060.306139,-814.226536,9400.615463
2723.313773,-3600.648841,-222.061783,8808.450710
2723.314102,-3830.477490,-1628.453072,9992.780217
2723.314431,-3600.648841,-962.267725,10510.924376
2723.314760,-2681.334243,-1924.535449,9474.636058
2723.315089,-3830.477490,-1702.473667,8512.368333
2723.315418,-3600.648841,-222.061783,9844.739029
2723.315748,-2987.772442,-666.185348,7920.203579
2723.316077,-3447.429741,-296.082377,8364.327145
2723.316406,-3294.210641,-518.144159,9548.656652
2723.316735,-2681.334243,-0.000000,8364.327145
2723.317064,-2757.943793,-814.226536,8068.244768
2723.317393,-2681.334243,-444.123565,8586.388927
2723.317722,-2681.334243,296.082377,8956.491898
2723.318051,-2221.676944,-0.000000,9104.533087
2723.318380,-1915.238745,-296.082377,8142.265362
2723.318710,-2451.505594,-370.102971,10066.800811
2723.319039,-1915.238745,-592.164754,9252.574275
2723.319368,-1149.143247,-518.144159,8808.450710
2723.319697,-919.314598,444.123565,8882.471304
2723.320026,-689.485948,1184.329507,8290.306550
2723.320355,-383.047749,1332.370696,8068.244768
2723.320684,-383.047749,1332.370696,7550.100608
2723.321013,-459.657299,1850.514855,8216.285956
2723.321342,-842.705048,370.102971,8216.285956
2723.321672,-1608.800546,148.041188,8142.265362
2723.322001,-3064.381992,-888.247130,9326.594869
2723.322330,-3830.477490,-1258.350101,10362.883188
2723.322659,-3830.477490,-1332.370696,9104.533087
2723.322988,-3600.648841,-370.102971,9252.574275
2723.323317,-3524.039291,-1184.329507,10658.965565
2723.323646,-4213.525239,-1628.453072,10658.965565
2723.323975,-4519.963438,-2072.576638,10955.047942
2723.324304,-3753.867940,-1406.391290,11251.130318
2723.324634,-3064.381992,-888.247130,10066.800811
2723.324963,-2451.505594,-74.020594,9770.718434
2723.325292,-2451.505594,592.164754,10288.862594
2723.325621,-1532.190996,1184.329507,9030.512492
2723.325950,-383.047749,1332.370696,7698.141797
2723.326279,-536.266849,592.164754,8364.327145
2723.326608,-995.924147,518.144159,8956.491898
2723.326937,-766.095498,1110.308913,7105.977043
2723.327266,-1532.190996,814.226536,7105.977043
2723.327596,-2145.067394,-74.020594,7994.224174
2723.327925,-3064.381992,-296.082377,9474.636058
2723.328254,-3217.601092,-222.061783,9474.636058
2723.328583,-2604.724693,-0.000000,7624.121203
2723.328912,-2834.553343,-962.267725,8586.388927
2723.329241,-4673.182538,-2220.617826,9696.697840
2723.329570,-4290.134789,-2294.638420,11251.130318
2723.329899,-4060.306139,-1036.288319,10436.903782
2723.330228,-3217.601092,-0.000000,8142.265362
2723.330558,-2451.505594,-0.000000,9474.636058
2723.330887,-2298.286494,444.123565,9548.656652
2723.331216,-2374.896044,962.267725,7994.224174
2723.331545,-2068.457845,666.185348,8142.265362
2723.331874,-1072.533697,888.247130,7624.121203
2723.332203,-1608.800546,-666.185348,7624.121203
2723.332532,-2757.943793,-1110.308913,9474.636058
2723.332861,-2451.505594,-0.000000,7550.100608
2723.333190,-2221.676944,-666.185348,8142.265362
2723.333520,-2528.115143,-666.185348,8586.388927
2723.333849,-2374.896044,-296.082377,9178.553681
2723.334178,-2911.162892,-814.226536,9992.780217
2723.334507,-3064.381992,-370.102971,8660.409521
2723.334836,-2681.334243,-296.082377,9252.574275
2723.335165,-3064.381992,-222.061783,10881.027347
2723.335494,-2374.896044,-888.247130,9770.718434
2723.335823,-2451.505594,-1332.370696,10362.883188
2723.336152,-2298.286494,-814.226536,9474.636058
2723.336482,-2221.676944,-370.102971,8586.388927
2723.336811,-1915.238745,222.061783,8660.409521
2723.337140,-1532.190996,1036.288319,8512.368333
2723.337469,-1532.190996,-740.205942,8734.430116
2723.337798,-1915.238745,-962.267725,8364.327145
2723.338127,-1991.848295,518.144159,8882.471304
2723.338456,-2145.067394,814.226536,8216.285956
2723.338786,-2068.457845,740.205942,8142.265362
2723.339115,-2068.457845,-0.000000,8660.409521
2723.339444,-2374.896044,-1332.370696,9474.636058
2723.339773,-3140.991542,-666.185348,9622.677246
2723.340102,-3447.429741,518.144159,9178.553681
2723.340431,-3677.258390,1110.308913,8216.285956
2723.340760,-3600.648841,518.144159,8808.450710
2723.341090,-4366.744339,-814.226536,9622.677246
2723.341419,-5209.449386,-814.226536,10658.965565
2723.341748,-4443.353888,-888.247130,10436.903782
2723.342077,-3983.696590,-370.102971,8956.491898
2723.342406,-2911.162892,-666.185348,8882.471304
2723.342735,-2298.286494,-74.020594,9252.574275
2723.343065,-1991.848295,-370.102971,8660.409521
2723.343394,-1685.410096,148.041188,8142.265362
2723.343723,-1455.581446,-0.000000,8586.388927
2723.344052,-2221.676944,370.102971,9030.512492
2723.344381,-1838.629195,222.061783,9548.656652
2723.344710,-2145.067394,-0.000000,8734.430116
2723.345040,-2374.896044,222.061783,8956.491898
2723.345369,-2145.067394,-0.000000,9400.615463
2723.345698,-2221.676944,296.082377,9400.615463
2723.346027,-2145.067394,-0.000000,9252.574275
2723.346356,-2068.457845,-296.082377,8808.450710
2723.346685,-1991.848295,-0.000000,9104.533087
2723.347014,-2451.505594,-0.000000,9326.594869
2723.347344,-2145.067394,-0.000000,8808.450710
2723.347673,-2145.067394,-74.020594,8512.368333
2723.348002,-1762.019645,-444.123565,8586.388927
2723.348331,-2451.505594,-814.226536,9400.615463
2723.348660,-3294.210641,-962.267725,9548.656652
2723.348989,-2987.772442,-1184.329507,9474.636058
2723.349319,-3447.429741,-518.144159,9770.718434
2723.349648,-4366.744339,-0.000000,9918.759623
2723.349977,-4290.134789,-74.020594,10140.821405
2723.350306,-4366.744339,-0.000000,9992.780217
2723.350635,-4213.525239,-444.123565,9918.759623
2723.350964,-2834.553343,-1036.288319,9178.553681
2723.351293,-1762.019645,-1924.535449,9178.553681
2723.351623,-1072.533697,-1258.350101,8734.430116
2723.351952,-1149.143247,222.061783,7105.977043
2723.352281,-919.314598,-0.000000,9030.512492
2723.352610,229.828649,592.164754,7994.224174
2723.352939,842.705048,2664.741391,5551.544565
2723.353268,1302.362347,1554.432478,7624.121203
2723.353598,-536.266849,2294.638420,6661.853478
2723.353927,-842.705048,222.061783,8660.409521
2723.354256,-3064.381992,-0.000000,9030.512492
2723.354585,-3370.820191,-1628.453072,10214.842000
2723.354914,-4290.134789,-2220.617826,9844.739029
2723.355243,-5592.497135,-1702.473667,9992.780217
2723.355572,-7048.078582,-2886.803174,11843.295072
2723.355902,-7048.078582,-2294.638420,11769.274478
2723.356231,-4903.011187,-1628.453072,11769.274478
2723.356560,-3753.867940,-962.267725,9918.759623
2723.356889,-1378.971896,962.267725,8512.368333
2723.357218,-689.485948,2146.597232,7105.977043
2723.357547,-1532.190996,1258.350101,6809.894666
2723.357877,2221.676944,296.082377,12065.356855
2723.358206,1838.629195,2442.679609,4071.132681
2723.358535,3753.867940,1554.432478,7402.059420
2723.358864,383.047749,1184.329507,5625.565159
2723.359193,536.266849,888.247130,8068.244768
2723.359522,-2451.505594,-1184.329507,10066.800811
2723.359852,-2834.553343,-1036.288319,9696.697840
2723.360181,-2068.457845,-2442.679609,11843.295072
2723.360510,-4979.620737,-74.020594,8808.450710
2723.360839,-4673.182538,-1776.494261,11177.109724
2723.361168,-6971.469032,-1776.494261,11177.109724
2723.361497,-4366.744339,-296.082377,10066.800811
2723.361826,-4749.792088,-814.226536,9918.759623
2723.362156,-3370.820191,-0.000000,8512.368333
2723.362485,-3064.381992,740.205942,8364.327145
2723.362814,-3217.601092,-2072.576638,7254.018232
2723.363143,-2681.334243,-592.164754,8438.347739
2723.363472,-2757.943793,-666.185348,8364.327145
2723.363801,-1378.971896,-962.267725,8290.306550
2723.364131,-2757.943793,-296.082377,9030.512492
2723.364460,-2987.772442,-0.000000,9400.615463
2723.364789,-3753.867940,-814.226536,9252.574275
2723.365118,-3064.381992,-592.164754,9548.656652
2723.365447,-2834.553343,444.123565,9770.718434
2723.365776,-2911.162892,814.226536,8882.471304
2723.366105,-2834.553343,1406.391290,8882.471304
2723.366435,-2374.896044,1406.391290,8068.244768
2723.366764,-2681.334243,2072.576638,8068.244768
2723.367093,-1915.238745,1480.411884,7179.997637
2723.367422,-1532.190996,1110.308913,6735.874072
2723.367751,-1762.019645,518.144159,7550.100608
2723.368080,-2528.115143,-0.000000,7846.182985
2723.368410,-3064.381992,-0.000000,8512.368333
2723.368739,-3447.429741,296.082377,8364.327145
2723.369068,-2757.943793,666.185348,9030.512492
2723.369397,-2987.772442,1110.308913,9918.759623
2723.369726,-3217.601092,1110.308913,10066.800811
2723.370055,-2911.162892,1406.391290,10066.800811
2723.370384,-4060.306139,740.205942,11325.150913
2723.370714,-3524.039291,1184.329507,11177.109724
2723.371043,-2374.896044,518.144159,10807.006753
2723.371372,-1532.190996,1036.288319,9918.759623
2723.371701,-459.657299,1184.329507,8882.471304
2723.372030,-1225.752797,1184.329507,9622.677246
2723.372359,0.000000,-0.000000,11695.253884
2723.372689,2145.067394,2886.803174,7031.956449
2723.373018,4213.525239,2738.761985,7105.977043
2723.373347,3753.867940,3775.050304,5181.441594
2723.373676,3370.820191,4663.297435,6513.812290
2723.374005,3217.601092,4293.194464,8808.450710
2723.374334,1991.848295,4441.235652,6957.935855
2723.374664,2604.724693,2442.679609,10066.800811
2723.374993,0.000000,2146.597232,9918.759623
2723.375322,-1455.581446,1776.494261,10658.965565
2723.375651,-1991.848295,666.185348,11769.274478
2723.375980,-1608.800546,2072.576638,9992.780217
2723.376309,-1608.800546,1184.329507,11547.212695
2723.376638,842.705048,2072.576638,9918.759623
2723.376968,995.924147,3923.091493,7994.224174
2723.377297,1608.800546,2072.576638,7476.080014
2723.377626,2451.505594,3923.091493,7105.977043
2723.377955,2374.896044,4959.379811,5699.585753
2723.378284,2604.724693,4145.153275,7328.038826
2723.378613,1608.800546,4293.194464,7698.141797
2723.378943,-153.219100,2886.803174,8882.471304
2723.379272,-2451.505594,3108.864956,9918.759623
2723.379601,-3830.477490,1702.473667,10584.944971
2723.379930,-3524.039291,888.247130,12213.398043
2723.380259,-3907.087040,2664.741391,9696.697840
2723.380588,-3140.991542,2738.761985,10510.924376
2723.380917,-3753.867940,2368.659014,11251.130318
2723.381247,-2681.334243,1776.494261,11029.068536
2723.381576,-2911.162892,1998.556043,10510.924376
2723.381905,-995.924147,2960.823768,9548.656652
2723.382234,-919.314598,3256.906145,7994.224174
2723.382563,-689.485948,2590.720797,9326.594869
2723.382892,-689.485948,1628.453072,11029.068536
2723.383222,1838.629195,2812.782580,7846.182985
2723.383551,5515.887586,4441.235652,7031.956449
2723.383880,4366.744339,5181.441594,4811.338623
2723.384209,3217.601092,5181.441594,6883.915261
2723.384538,2374.896044,6661.853478,8438.347739
2723.384867,1838.629195,6291.750507,7254.018232
2723.385197,1991.848295,5107.421000,7994.224174
2723.385526,0.000000,5699.585753,8216.285956
2723.385855,76.609550,5847.626942,7402.059420
2723.386184,-689.485948,2146.597232,10510.924376
2723.386513,-2374.896044,-296.082377,11251.130318
2723.386842,-2068.457845,148.041188,10362.883188
2723.387171,-1838.629195,740.205942,10510.924376
2723.387501,-1685.410096,-74.020594,10436.903782
2723.387830,-1072.533697,2886.803174,10658.965565
2723.388159,1532.190996,2664.741391,8364.327145
2723.388488,1762.019645,4959.379811,7846.182985
2723.388817,3294.210641,3404.947333,8290.306550
2723.389146,3830.477490,4293.194464,7994.224174
2723.389476,2145.067394,5107.421000,7105.977043
2723.389805,1991.848295,4885.359217,7328.038826
2723.390134,306.438199,3849.070898,7105.977043
2723.390463,-383.047749,2146.597232,10214.842000
2723.390792,-2374.896044,-148.041188,11325.150913
2723.391121,-2451.505594,1332.370696,11325.150913
2723.391450,-2528.115143,-74.020594,11029.068536
2723.391780,-2221.676944,-74.020594,9992.780217
2723.392109,-2451.505594,3182.885551,11251.130318
2723.392438,-766.095498,1184.329507,9326.594869
2723.392767,-1378.971896,2664.741391,9326.594869
2723.393096,2604.724693,1184.329507,10807.006753
2723.393425,3907.087040,3849.070898,5033.400406
2723.393755,4443.353888,2664.741391,9992.780217
2723.394084,1991.848295,3478.967927,6217.729913
2723.394413,4290.134789,4515.256246,6587.832884
2723.394742,2911.162892,4367.215058,7994.224174
2723.395071,2374.896044,5033.400406,5551.544565
2723.395400,1762.019645,5329.482782,9104.533087
2723.395729,995.924147,2516.700203,7994.224174
2723.396059,-2834.553343,-740.205942,14063.912898
2723.396388,-4749.792088,-3775.050304,13101.645173
2723.396717,-2834.553343,296.082377,11695.253884
2723.397046,-3753.867940,-2664.741391,11991.336260
2723.397375,-3217.601092,1406.391290,8142.265362
2723.397704,-919.314598,1924.535449,10436.903782
2723.398034,306.438199,2368.659014,8068.244768
2723.398363,919.314598,2220.617826,11029.068536
2723.398692,3907.087040,592.164754,8586.388927
2723.399021,4366.744339,3775.050304,6735.874072
2723.399350,3753.867940,6291.750507,3849.070898
2723.399679,3600.648841,4737.318029,4885.359217
2723.400009,3600.648841,2960.823768,8734.430116
2723.400338,2145.067394,4737.318029,6661.853478
2723.400667,3983.696590,3182.885551,6069.688724
2723.400996,-383.047749,5773.606348,7698.141797
2723.401325,-1915.238745,2146.597232,10436.903782
2723.401654,-5515.887586,-3256.906145,16654.633695
2723.401983,-5592.497135,740.205942,10362.883188
2723.402313,-3294.210641,1998.556043,12213.398043
2723.402642,-3830.477490,-5033.400406,14434.015869
2723.402971,-4903.011187,1850.514855,10214.842000
2723.403300,-919.314598,1184.329507,10658.965565
2723.403629,-2834.553343,3997.112087,7105.977043
2723.403958,-1838.629195,3849.070898,9918.759623
2723.404288,4903.011187,1480.411884,11473.192101
2723.404617,3600.648841,6957.935855,3108.864956
2723.404946,3983.696590,4071.132681,11473.192101
2723.405275,2528.115143,5403.503377,3997.112087
2723.405604,4749.792088,6735.874072,7920.203579
2723.405933,536.266849,5033.400406,7624.121203
2723.406262,306.438199,8734.430116,6217.729913
2723.406592,-536.266849,3552.988522,11325.150913
2723.406921,-766.095498,5181.441594,6513.812290
2723.407250,306.438199,3330.926739,10362.883188
2723.407579,-4519.963438,-888.247130,12731.542202
2723.407908,-1378.971896,-2738.761985,11843.295072
2723.408237,-2145.067394,1406.391290,10066.800811
2723.408567,-766.095498,-3627.009116,11177.109724
2723.408896,-3217.601092,4663.297435,7031.956449
2723.409225,612.876398,2220.617826,12657.521608
2723.409554,1915.238745,5995.668130,7772.162391
2723.409883,2068.457845,6217.729913,7476.080014
2723.410212,3217.601092,4145.153275,8068.244768
2723.410541,1225.752797,4663.297435,10140.821405
2723.410871,459.657299,5107.421000,9992.780217
2723.411200,1302.362347,4145.153275,5847.626942
2723.411529,1915.238745,888.247130,9918.759623
2723.411858,919.314598,592.164754,12287.418637
2723.412187,76.609550,1554.432478,10362.883188
2723.412516,-689.485948,2294.638420,9770.718434
2723.412846,383.047749,-296.082377,9622.677246
2723.413175,766.095498,4737.318029,8512.368333
2723.413504,919.314598,4737.318029,8734.430116
2723.413833,-536.266849,3627.009116,8142.265362
2723.414162,1302.362347,3404.947333,9178.553681
2723.414491,3524.039291,2368.659014,6957.935855
2723.414821,3217.601092,4293.194464,8808.450710
2723.415150,1838.629195,4145.153275,7846.182985
2723.415479,995.924147,2590.720797,7624.121203
2723.415808,919.314598,2886.803174,8586.388927
2723.416137,0.000000,3775.050304,8660.409521
2723.416466,-766.095498,2886.803174,10510.924376
2723.416795,-2604.724693,4885.359217,9844.739029
2723.417125,-2451.505594,1628.453072,10510.924376
2723.417454,-1915.238745,222.061783,10066.800811
2723.417783,-1762.019645,296.082377,10881.027347
2723.418112,-1378.971896,740.205942,10955.047942
2723.418441,-1532.190996,1850.514855,9474.636058
2723.418770,1225.752797,1184.329507,8216.285956
2723.419100,3140.991542,2886.803174,7031.956449
2723.419429,2145.067394,3478.967927,7846.182985
2723.419758,1072.533697,2516.700203,8512.368333
2723.420087,1532.190996,2886.803174,6957.935855
2723.420416,3370.820191,3923.091493,8290.306550
2723.420745,2528.115143,3256.906145,8364.327145
2723.421074,1072.533697,4589.276840,7624.121203
2723.421404,995.924147,740.205942,9918.759623
2723.421733,-229.828649,740.205942,10214.842000
2723.422062,-919.314598,666.185348,10510.924376
2723.422391,-2451.505594,1554.432478,11029.068536
2723.422720,-2451.505594,-666.185348,11251.130318
2723.423049,-2221.676944,1850.514855,9474.636058
2723.423379,-1302.362347,1554.432478,9030.512492
2723.423708,-1378.971896,1776.494261,8290.306550
2723.424037,-229.828649,1850.514855,9030.512492
2723.424366,1532.190996,3330.926739,7105.977043
2723.424695,1072.533697,3478.967927,6735.874072
2723.425024,1225.752797,2368.659014,8660.409521
2723.425354,1302.362347,2072.576638,8438.347739
2723.425683,0.000000,2220.617826,9696.697840
2723.426012,-612.876398,2664.741391,9548.656652
2723.426341,-383.047749,2664.741391,9548.656652
2723.426670,-689.485948,2812.782580,10732.986159
2723.426999,-1378.971896,3330.926739,10214.842000
2723.427328,-1838.629195,2072.576638,10288.862594
2723.427658,-536.266849,1406.391290,10066.800811
2723.427987,612.876398,2886.803174,9770.718434
2723.428316,919.314598,2886.803174,9030.512492
2723.428645,1532.190996,1036.288319,9474.636058
2723.428974,2374.896044,1998.556043,7846.182985
2723.429303,1762.019645,3552.988522,7105.977043
2723.429633,1149.143247,2812.782580,8142.265362
2723.429962,2298.286494,2294.638420,8512.368333
2723.430291,2757.943793,3182.885551,8512.368333
2723.430620,2451.505594,3923.091493,8142.265362
2723.430949,2834.553343,2294.638420,8882.471304
2723.431278,2911.162892,2442.679609,9326.594869
2723.431607,1455.581446,3034.844362,9030.512492
2723.431937,-383.047749,2368.659014,10881.027347
2723.432266,0.000000,-222.061783,11103.089130
2723.432595,-766.095498,-0.000000,10362.883188
2723.432924,-1302.362347,-444.123565,11251.130318
2723.433253,-1762.019645,-1998.556043,9918.759623
2723.433582,-995.924147,-518.144159,8808.450710
2723.433912,-1225.752797,222.061783,8512.368333
2723.434241,-995.924147,1258.350101,8142.265362
2723.434570,-229.828649,-74.020594,8512.368333
2723.434899,459.657299,-222.061783,8142.265362
2723.435228,689.485948,-222.061783,8438.347739
2723.435557,536.266849,-296.082377,8364.327145
2723.435886,153.219100,-814.226536,9992.780217
2723.436216,-383.047749,740.205942,9030.512492
2723.436545,-229.828649,1258.350101,8956.491898
2723.436874,-306.438199,1406.391290,8882.471304
2723.437203,-229.828649,-0.000000,9326.594869
2723.437532,0.000000,222.061783,9474.636058
2723.437861,229.828649,-370.102971,9104.533087
2723.438191,-766.095498,296.082377,9104.533087
2723.438520,-995.924147,-0.000000,8512.368333
2723.438849,306.438199,-1332.370696,9400.615463
2723.439178,612.876398,-1110.308913,8216.285956
2723.439507,1225.752797,296.082377,6365.771101
2723.439836,1838.629195,-1628.453072,7698.141797
2723.440165,1838.629195,-0.000000,9104.533087
2723.440494,2145.067394,1776.494261,7920.203579
2723.440823,1302.362347,592.164754,7254.018232
2723.441152,689.485948,1480.411884,8956.491898
2723.441481,689.485948,1332.370696,9622.677246
2723.441810,153.219100,-148.041188,9770.718434
2723.442139,0.000000,-1258.350101,9844.739029
2723.442468,229.828649,-592.164754,9400.615463
2723.442797,-306.438199,-666.185348,8956.491898
2723.443126,-383.047749,-1036.288319,9696.697840
2723.443455,0.000000,-962.267725,9770.718434
2723.443784,842.705048,962.267725,8438.347739
2723.444113,766.095498,888.247130,7254.018232
2723.444442,306.438199,-518.144159,9030.512492
2723.444771,689.485948,74.020594,9326.594869
2723.445100,536.266849,-2072.576638,8438.347739
2723.445429,-306.438199,-1850.514855,9474.636058
2723.445758,-766.095498,-1332.370696,10362.883188
2723.446087,-459.657299,-1776.494261,10510.924376
2723.446416,-689.485948,-518.144159,9918.759623
2723.446745,-536.266849,740.205942,10436.903782
2723.447074,-536.266849,444.123565,9104.533087
2723.447403,0.000000,-370.102971,9474.636058
2723.447732,-612.876398,-222.061783,10436.903782
2723.448061,0.000000,-962.267725,8586.388927
2723.448390,-229.828649,-1036.288319,8290.306550
2723.448719,-612.876398,-1406.391290,9696.697840
2723.449048,0.000000,-814.226536,9770.718434
2723.449377,0.000000,-1110.308913,8290.306550
2723.449706,459.657299,-1184.329507,8068.244768
2723.450035,1072.533697,-296.082377,9178.553681
2723.450364,1149.143247,-518.144159,9696.697840
2723.450693,919.314598,-74.020594,8512.368333
2723.451022,1072.533697,1110.308913,9030.512492
2723.451351,919.314598,962.267725,8882.471304
2723.451680,459.657299,666.185348,7550.100608
2723.452009,919.314598,370.102971,10288.862594
2723.452338,459.657299,666.185348,9104.533087
2723.452667,229.828649,-0.000000,7920.203579
2723.452996,0.000000,-0.000000,9548.656652
2723.453325,-306.438199,-1110.308913,9178.553681
2723.453654,0.000000,-888.247130,8216.285956
2723.453983,536.266849,-666.185348,9326.594869
2723.454312,459.657299,-814.226536,8882.471304
2723.454641,842.705048,444.123565,8438.347739
2723.454970,1685.410096,-888.247130,8512.368333
2723.455300,1302.362347,962.267725,7846.182985
2723.455629,1149.143247,962.267725,8438.347739
2723.455958,1149.143247,1036.288319,8512.368333
2723.456287,995.924147,444.123565,9252.574275
2723.456616,1762.019645,1332.370696,9178.553681
2723.456945,689.485948,-666.185348,7994.224174
2723.457274,-612.876398,-1332.370696,9992.780217
2723.457603,-1149.143247,-296.082377,9770.718434
2723.457932,-1225.752797,-1850.514855,9474.636058
2723.458261,-1838.629195,-592.164754,9252.574275
2723.458590,-995.924147,-2072.576638,9918.759623
2723.458919,-1455.581446,-2368.659014,9400.615463
2723.459248,0.000000,-1184.329507,8882.471304
2723.459577,689.485948,-148.041188,8882.471304
2723.459906,536.266849,-0.000000,7031.956449
2723.460235,919.314598,296.082377,9030.512492
2723.460564,1685.410096,-0.000000,8956.491898
2723.460893,1455.581446,-74.020594,7846.182985
2723.461222,1225.752797,-222.061783,9104.533087
2723.461551,612.876398,-0.000000,9178.553681
2723.461880,0.000000,444.123565,9252.574275
2723.462209,-995.924147,-0.000000,9474.636058
2723.462538,-536.266849,-0.000000,9474.636058
2723.462867,-1225.752797,-518.144159,10362.883188
2723.463196,-1149.143247,-1332.370696,10066.800811
2723.463525,-459.657299,-1850.514855,10140.821405
2723.463854,0.000000,-888.247130,9104.533087
2723.464183,76.609550,-296.082377,8364.327145
2723.464512,459.657299,-518.144159,9104.533087
2723.464841,1225.752797,740.205942,9178.553681
2723.465170,1608.800546,1406.391290,8142.265362
2723.465499,1915.238745,518.144159,8512.368333
2723.465828,1608.800546,1332.370696,8660.409521
2723.466157,2298.286494,1924.535449,9104.533087
2723.466486,1608.800546,888.247130,8438.347739
2723.466815,306.438199,-666.185348,10362.883188
2723.467144,536.266849,-962.267725,10362.883188
2723.467473,459.657299,-1036.288319,9770.718434
2723.467802,0.000000,-666.185348,9400.615463
2723.468131,0.000000,-814.226536,9992.780217
2723.468460,-229.828649,-592.164754,8808.450710
2723.468789,0.000000,-962.267725,9474.636058
2723.469118,612.876398,666.185348,8808.450710
2723.469447,689.485948,-74.020594,7920.203579
2723.469776,536.266849,-296.082377,7698.141797
2723.470105,459.657299,-740.205942,9030.512492
2723.470434,689.485948,-1110.308913,8808.450710
2723.470763,536.266849,-1332.370696,8882.471304
2723.471092,383.047749,-962.267725,9400.615463
2723.471421,306.438199,592.164754,9326.594869
2723.471750,306.438199,296.082377,8956.491898
2723.472079,842.705048,-222.061783,8956.491898
2723.472408,919.314598,814.226536,7920.203579
2723.472737,459.657299,888.247130,8290.306550
2723.473066,306.438199,-296.082377,9030.512492
2723.473395,1072.533697,-444.123565,9474.636058
2723.473724,842.705048,-148.041188,7254.018232
2723.474053,229.828649,-370.102971,7994.224174
2723.474382,-919.314598,-74.020594,9252.574275
2723.474711,-536.266849,-1184.329507,8882.471304
2723.475040,-689.485948,-1184.329507,8438.347739
2723.475369,-459.657299,-1258.350101,9474.636058
2723.475698,-612.876398,-518.144159,9178.553681
2723.476027,-306.438199,-666.185348,8956.491898
2723.476356,536.266849,-74.020594,9548.656652
2723.476685,689.485948,1258.350101,8216.285956
2723.477014,689.485948,518.144159,8512.368333
2723.477343,1149.143247,962.267725,9474.636058
2723.477672,1685.410096,370.102971,8660.409521
2723.478001,1225.752797,2072.576638,7624.121203
2723.478330,229.828649,444.123565,8660.409521
2723.478659,-459.657299,370.102971,9992.780217
2723.478988,-459.657299,-518.144159,9548.656652
2723.479317,-536.266849,-740.205942,8808.450710
2723.479646,-1378.971896,-1628.453072,11103.089130
2723.479975,-1455.581446,-1776.494261,11399.171507
2723.480304,-1149.143247,-2220.617826,10066.800811
2723.480633,0.000000,-370.102971,10362.883188
2723.480962,306.438199,888.247130,8438.347739
2723.481291,689.485948,1036.288319,9178.553681
2723.481620,2834.553343,1998.556043,9696.697840
2723.481949,3600.648841,1110.308913,8512.368333
2723.482278,2834.553343,1776.494261,7698.141797
2723.482607,2068.457845,2146.597232,8068.244768
2723.482936,1455.581446,444.123565,9474.636058
2723.483265,306.438199,740.205942,8882.471304
2723.483594,0.000000,-962.267725,9326.594869
2723.483923,-842.705048,-2146.597232,10658.965565
2723.484252,-1608.800546,-2368.659014,10510.924376
2723.484581,-1302.362347,-3034.844362,10288.862594
2723.484910,-1762.019645,-1776.494261,9992.780217
2723.485239,-919.314598,-370.102971,9474.636058
2723.485568,-306.438199,-296.082377,8586.388927
2723.485897,766.095498,962.267725,8660.409521
2723.486226,2298.286494,1258.350101,8660.409521
2723.486555,2757.943793,888.247130,7254.018232
2723.486884,2298.286494,666.185348,7179.997637
2723.487213,1838.629195,-0.000000,7698.141797
2723.487542,1378.971896,1036.288319,8068.244768
2723.487871,0.000000,-666.185348,8438.347739
2723.488200,-919.314598,-1628.453072,9548.656652
2723.488529,-995.924147,-1776.494261,9696.697840
2723.488858,-1149.143247,-2442.679609,9770.718434
2723.489187,-1225.752797,-1924.535449,10436.903782
2723.489516,-1838.629195,-1110.308913,9178.553681
2723.489845,-1072.533697,-1258.350101,8512.368333
2723.490174,0.000000,-74.020594,9474.636058
2723.490503,1225.752797,-444.123565,9474.636058
2723.490833,1455.581446,-0.000000,7254.018232
2723.491162,1532.190996,222.061783,7920.203579
2723.491491,1991.848295,1480.411884,7772.162391
2723.491820,1302.362347,962.267725,8364.327145
2723.492149,1149.143247,148.041188,8734.430116
2723.492478,536.266849,518.144159,9326.594869
2723.492807,76.609550,-444.123565,9918.759623
2723.493136,689.485948,-1702.473667,9770.718434
2723.493465,-153.219100,-1258.350101,10807.006753
2723.493794,0.000000,-1850.514855,8956.491898
2723.494123,76.609550,-296.082377,9252.574275
2723.494452,229.828649,-0.000000,9474.636058
2723.494781,1225.752797,740.205942,8808.450710
2723.495110,1455.581446,1110.308913,8216.285956
2723.495439,1685.410096,666.185348,8586.388927
2723.495768,1072.533697,1924.535449,7772.162391
2723.496097,383.047749,962.267725,8438.347739
2723.496426,0.000000,-814.226536,8956.491898
2723.496755,-766.095498,-592.164754,10658.965565
2723.497084,-919.314598,-1110.308913,10510.924376
2723.497413,-1072.533697,-1850.514855,9696.697840
2723.497742,-1149.143247,-222.061783,10140.821405
2723.498071,-842.705048,-1110.308913,10140.821405
2723.498400,0.000000,-1036.288319,9326.594869
2723.498729,919.314598,-74.020594,9474.636058
2723.499058,1838.629195,1036.288319,8586.388927
2723.499387,1608.800546,1258.350101,8290.306550
2723.499716,1149.143247,1776.494261,8882.471304
2723.500045,1532.190996,1036.288319,7846.182985
2723.500374,1072.533697,1480.411884,7920.203579
2723.500703,0.000000,-592.164754,9474.636058
2723.501032,-1532.190996,-1554.432478,10362.883188
2723.501361,-1378.971896,-1776.494261,9400.615463
2723.501690,-995.924147,-2368.659014,10066.800811
2723.502019,-1532.190996,-740.205942,9992.780217
2723.502348,-1072.533697,-1110.308913,10140.821405
2723.502677,-306.438199,-444.123565,10066.800811
2723.503006,919.314598,-888.247130,8956.491898
2723.503335,2528.115143,1480.411884,8660.409521
2723.503664,2451.505594,592.164754,8512.368333
2723.503993,2681.334243,1480.411884,7328.038826
2723.504322,2528.115143,1554.432478,7179.997637
2723.504651,2298.286494,1258.350101,7698.141797
2723.504980,1072.533697,296.082377,8068.244768
2723.505309,459.657299,-74.020594,9104.533087
2723.505638,-536.266849,-518.144159,9252.574275
2723.505967,-842.705048,-1258.350101,9474.636058
2723.506296,-1149.143247,-2146.597232,10807.006753
2723.506625,-2298.286494,-1554.432478,9030.512492
2723.506954,-1225.752797,-1184.329507,10436.903782
2723.507283,-306.438199,-592.164754,10140.821405
2723.507612,689.485948,-296.082377,7994.224174
2723.507941,1302.362347,1258.350101,7920.203579
2723.508270,2068.457845,592.164754,9104.533087
2723.508599,2374.896044,1924.535449,7105.977043
2723.508928,1991.848295,2146.597232,7328.038826
2723.509257,1302.362347,1036.288319,8142.265362
2723.509586,383.047749,222.061783,8956.491898
2723.509915,229.828649,-1554.432478,9548.656652
2723.510244,-689.485948,-2220.617826,10066.800811
2723.510573,-459.657299,-1776.494261,10510.924376
2723.510902,-1608.800546,-1184.329507,9178.553681
2723.511231,-1915.238745,-2664.741391,10436.903782
2723.511560,-1072.533697,-370.102971,10510.924376
2723.511889,459.657299,592.164754,8438.347739
2723.512218,919.314598,814.226536,7994.224174
2723.512547,0.000000,1110.308913,9548.656652
2723.512876,2298.286494,1480.411884,8216.285956
2723.513205,1608.800546,1184.329507,7994.224174
2723.513534,1532.190996,666.185348,9030.512492
2723.513863,1762.019645,296.082377,9400.615463
2723.514192,612.876398,-0.000000,9252.574275
2723.514521,306.438199,-222.061783,9770.718434
2723.514850,536.266849,-222.061783,9770.718434
2723.515179,-459.657299,-962.267725,9548.656652
2723.515508,-612.876398,-518.144159,10066.800811
2723.515837,153.219100,-0.000000,9548.656652
2723.516166,0.000000,-222.061783,9622.677246
2723.516495,383.047749,296.082377,8512.368333
2723.516824,229.828649,-0.000000,9400.615463
2723.517153,919.314598,444.123565,9030.512492
2723.517482,766.095498,740.205942,7994.224174
2723.517811,76.609550,370.102971,9326.594869
2723.518140,153.219100,592.164754,9548.656652
2723.518469,229.828649,-444.123565,8956.491898
2723.518798,0.000000,-1480.411884,9548.656652
2723.519127,0.000000,-444.123565,9252.574275
2723.519456,0.000000,-296.082377,9252.574275
2723.519785,-536.266849,-1776.494261,9400.615463
2723.520114,842.705048,-1110.308913,9400.615463
2723.520443,612.876398,-518.144159,8882.471304
2723.520772,383.047749,-370.102971,8882.471304
2723.521101,229.828649,518.144159,7476.080014
2723.521430,0.000000,-0.000000,8438.347739
2723.521759,306.438199,-0.000000,7772.162391
2723.522088,0.000000,-1480.411884,8956.491898
2723.522417,-536.266849,-666.185348,9030.512492
2723.522746,-612.876398,-1998.556043,9474.636058
2723.523075,-612.876398,-1110.308913,9696.697840
2723.523404,-306.438199,-814.226536,8734.430116
2723.523733,-306.438199,-666.185348,9104.533087
2723.524062,1072.533697,-1628.453072,9844.739029
2723.524391,1838.629195,370.102971,8216.285956
2723.524720,2145.067394,592.164754,8956.491898
2723.525049,2298.286494,1554.432478,8512.368333
2723.525378,1991.848295,888.247130,8808.450710
2723.525707,2068.457845,1332.370696,8142.265362
2723.526036,1455.581446,962.267725,7846.182985
2723.526366,1685.410096,148.041188,9548.656652
2723.526695,306.438199,-518.144159,9696.697840
2723.527024,0.000000,-1036.288319,9474.636058
2723.527353,-766.095498,-1110.308913,10066.800811
2723.527682,-1149.143247,-592.164754,9474.636058
2723.528011,-1455.581446,-0.000000,8290.306550
2723.528340,-995.924147,-814.226536,11103.089130
2723.528669,0.000000,-0.000000,9844.739029
2723.528998,536.266849,-1036.288319,9326.594869
2723.529327,536.266849,296.082377,8216.285956
2723.529656,1225.752797,444.123565,8882.471304
2723.529985,1302.362347,1332.370696,8290.306550
2723.530314,919.314598,-0.000000,7994.224174
2723.530643,1378.971896,-222.061783,9400.615463
2723.530972,1532.190996,-0.000000,8956.491898
2723.531301,229.828649,222.061783,8660.409521
2723.531630,536.266849,-444.123565,9918.759623
2723.531959,-689.485948,-296.082377,8956.491898
2723.532288,-995.924147,-1036.288319,8808.450710
2723.532617,-995.924147,-814.226536,9474.636058
2723.532946,-1072.533697,-1036.288319,10140.821405
2723.533275,-766.095498,-814.226536,9548.656652
2723.533604,306.438199,-888.247130,8512.368333
2723.533933,153.219100,-962.267725,9400.615463
2723.534262,459.657299,370.102971,8216.285956
2723.534591,995.924147,-222.061783,9030.512492
2723.534920,1225.752797,1258.350101,8216.285956
2723.535249,1838.629195,1406.391290,8808.450710
2723.535578,1838.629195,740.205942,8956.491898
2723.535907,995.924147,-592.164754,9030.512492
2723.536236,1378.971896,-0.000000,9030.512492
2723.536565,383.047749,518.144159,8216.285956
2723.536894,-229.828649,-962.267725,9844.739029
2723.537223,-229.828649,-0.000000,10066.800811
2723.537552,-153.219100,-1110.308913,8660.409521
2723.537881,-689.485948,-1258.350101,9622.677246
2723.538210,-995.924147,-444.123565,9770.718434
2723.538539,-459.657299,-444.123565,8290.306550
2723.538868,-229.828649,740.205942,8290.306550
2723.539197,306.438199,592.164754,9474.636058
2723.539526,306.438199,-296.082377,8882.471304
2723.539855,0.000000,148.041188,8882.471304
2723.540184,1072.533697,-148.041188,9400.615463
2723.540513,1149.143247,518.144159,8290.306550
2723.540842,612.876398,740.205942,9918.759623
2723.541171,766.095498,-74.020594,9474.636058
2723.541499,383.047749,-222.061783,9400.615463
2723.541828,689.485948,-296.082377,9104.533087
2723.542157,76.609550,-962.267725,8882.471304
2723.542486,-383.047749,-296.082377,10066.800811
2723.542815,-1072.533697,-0.000000,8216.285956
2723.543144,-612.876398,-1554.432478,9770.718434
2723.543473,-1302.362347,-888.247130,9548.656652
2723.543802,-383.047749,-1258.350101,9326.594869
2723.544131,-459.657299,-1776.494261,9992.780217
2723.544460,-536.266849,-888.247130,8808.450710
2723.544789,459.657299,-370.102971,9030.512492
2723.545117,689.485948,-444.123565,8808.450710
2723.545446,1302.362347,-444.123565,9622.677246
2723.545775,2298.286494,444.123565,8734.430116
2723.546104,1762.019645,592.164754,7698.141797
2723.546433,1225.752797,740.205942,8586.388927
2723.546762,995.924147,296.082377,8956.491898
2723.547091,1072.533697,370.102971,8438.347739
2723.547420,459.657299,-1036.288319,8808.450710
2723.547749,306.438199,-814.226536,9696.697840
2723.548078,0.000000,-370.102971,9030.512492
2723.548407,-306.438199,-1776.494261,9918.759623
2723.548736,-766.095498,-592.164754,9918.759623
2723.549065,-306.438199,-592.164754,8438.347739
2723.549394,-153.219100,-74.020594,8068.244768
2723.549723,0.000000,444.123565,9918.759623
2723.550052,995.924147,-0.000000,9030.512492
2723.550381,995.924147,814.226536,8364.327145
2723.550710,919.314598,148.041188,9474.636058
2723.551039,995.924147,222.061783,9030.512492
2723.551368,689.485948,-0.000000,8290.306550
2723.551697,689.485948,148.041188,8734.430116
2723.552026,612.876398,-0.000000,9548.656652
2723.552355,459.657299,-74.020594,8808.450710
2723.552684,842.705048,-962.267725,9400.615463
2723.553013,-153.219100,518.144159,8734.430116
2723.553342,-536.266849,444.123565,7846.182985
2723.553671,-536.266849,1184.329507,9104.533087
2723.554000,0.000000,-74.020594,9918.759623
2723.554328,153.219100,-222.061783,9400.615463
2723.554657,306.438199,-444.123565,7994.224174
2723.554986,-689.485948,-1036.288319,9918.759623
2723.555315,-995.924147,-1110.308913,10140.821405
2723.555644,0.000000,-666.185348,8142.265362
2723.555973,0.000000,-666.185348,9252.574275
2723.556302,76.609550,-0.000000,9696.697840
2723.556631,612.876398,-0.000000,9178.553681
2723.556960,995.924147,-518.144159,9326.594869
2723.557289,1455.581446,296.082377,8512.368333
2723.557618,1455.581446,1036.288319,9030.512492
2723.557947,1072.533697,-0.000000,9400.615463
2723.558276,1225.752797,814.226536,8882.471304
2723.558605,1302.362347,-0.000000,9474.636058
2723.558934,842.705048,1258.350101,7698.141797
2723.559263,-229.828649,-74.020594,9326.594869
2723.559592,0.000000,-148.041188,9770.718434
2723.559921,0.000000,-814.226536,9178.553681
2723.560250,-306.438199,-1628.453072,10658.965565
2723.560579,-766.095498,-962.267725,9918.759623
2723.560908,-306.438199,-740.205942,9622.677246
2723.561237,0.000000,-1184.329507,9992.780217
2723.561566,689.485948,222.061783,8882.471304
2723.561895,766.095498,-370.102971,8586.388927
2723.562224,1608.800546,1110.308913,8364.327145
2723.562553,1762.019645,2220.617826,8734.430116
2723.562882,1455.581446,1036.288319,9252.574275
2723.563210,1149.143247,1702.473667,7254.018232
2723.563539,536.266849,222.061783,9030.512492
2723.563868,153.219100,-148.041188,9252.574275
2723.564197,-383.047749,-666.185348,8808.450710
2723.564526,-1072.533697,-1924.535449,10510.924376
2723.564855,-1302.362347,-814.226536,9252.574275
2723.565184,-536.266849,-1036.288319,9770.718434
2723.565513,-383.047749,-518.144159,9548.656652
2723.565842,76.609550,-222.061783,9178.553681
2723.566171,153.219100,592.164754,8142.265362
2723.566500,1225.752797,-370.102971,8660.409521
2723.566829,1762.019645,444.123565,9178.553681
2723.567158,1915.238745,-74.020594,8142.265362
2723.567487,1762.019645,-0.000000,8290.306550
2723.567816,1302.362347,-444.123565,9400.615463
2723.568145,459.657299,-0.000000,8512.368333
2723.568474,76.609550,-0.000000,8586.388927
2723.568803,153.219100,-666.185348,9918.759623
2723.569132,-536.266849,-1628.453072,9992.780217
2723.569461,153.219100,-222.061783,9252.574275
2723.569790,-383.047749,-74.020594,9178.553681
2723.570119,-383.047749,-370.102971,9474.636058
2723.570448,-229.828649,296.082377,8512.368333
2723.570777,306.438199,-444.123565,8438.347739
2723.571106,536.266849,-74.020594,9326.594869
2723.571435,689.485948,-74.020594,8512.368333
2723.571764,689.485948,-592.164754,8660.409521
2723.572092,0.000000,-962.267725,9918.759623
2723.572421,153.219100,-0.000000,8882.471304
2723.572750,0.000000,-296.082377,7920.203579
2723.573079,-459.657299,-296.082377,10140.821405
2723.573408,0.000000,222.061783,10066.800811
2723.573737,-459.657299,-1110.308913,9622.677246
2723.574066,919.314598,-0.000000,9178.553681
2723.574395,612.876398,222.061783,9104.533087
2723.574724,153.219100,222.061783,8364.327145
2723.575053,153.219100,-222.061783,8808.450710
2723.575382,766.095498,-148.041188,9252.574275
2723.575711,766.095498,-0.000000,8290.306550
2723.576040,612.876398,-148.041188,8216.285956
2723.576369,229.828649,-0.000000,8956.491898
2723.576698,0.000000,-0.000000,8660.409521
2723.577027,-766.095498,148.041188,8734.430116
2723.577356,-383.047749,-370.102971,9844.739029
2723.577685,-229.828649,-1406.391290,10955.047942
2723.578014,76.609550,-962.267725,9622.677246
2723.578343,1072.533697,-1184.329507,9474.636058
2723.578672,1225.752797,-148.041188,9844.739029
2723.579001,1149.143247,592.164754,8068.244768
2723.579330,1991.848295,666.185348,8808.450710
2723.579659,1915.238745,1554.432478,8660.409521
2723.579988,2221.676944,1998.556043,8142.265362
2723.580317,1838.629195,1480.411884,8216.285956
2723.580646,1302.362347,592.164754,9104.533087
2723.580975,153.219100,-0.000000,9326.594869
2723.581303,-766.095498,-1332.370696,9992.780217
2723.581632,-1608.800546,-1924.535449,10658.965565
2723.581961,-1378.971896,-2368.659014,11177.109724
2723.582290,-766.095498,-1332.370696,9844.739029
2723.582619,-995.924147,-1628.453072,10066.800811
2723.582948,-459.657299,-740.205942,9918.759623
2723.583277,229.828649,1036.288319,7920.203579
2723.583606,1991.848295,1406.391290,8734.430116
2723.583935,2068.457845,1628.453072,8734.430116
2723.584264,2298.286494,2072.576638,6883.915261
2723.584593,1762.019645,666.185348,8512.368333
2723.584922,1378.971896,-0.000000,8512.368333
2723.585251,459.657299,-592.164754,8882.471304
2723.585580,-536.266849,-666.185348,9178.553681
2723.585909,-1838.629195,-962.267725,9474.636058
2723.586238,-1302.362347,-1628.453072,10584.944971
2723.586567,-1149.143247,-1850.514855,9696.697840
2723.586896,-995.924147,-1628.453072,9770.718434
2723.587225,-229.828649,-74.020594,9178.553681
2723.587554,459.657299,-592.164754,8734.430116
2723.587883,1072.533697,-0.000000,9252.574275
2723.588212,2604.724693,814.226536,8216.285956
2723.588541,2528.115143,1406.391290,7624.121203
2723.588870,2528.115143,1110.308913,7846.182985
2723.589199,2068.457845,1554.432478,7846.182985
2723.589528,1838.629195,296.082377,7920.203579
2723.589857,1072.533697,-148.041188,8438.347739
2723.590185,-612.876398,-962.267725,9474.636058
2723.590514,-766.095498,-1110.308913,10362.883188
2723.590843,-1225.752797,-1184.329507,9770.718434
2723.591172,-1149.143247,-1850.514855,10584.944971
2723.591501,-1608.800546,-592.164754,10658.965565
2723.591830,-459.657299,-1332.370696,8882.471304
2723.592159,-766.095498,-0.000000,9696.697840
2723.592488,766.095498,-0.000000,9770.718434
2723.592817,1149.143247,740.205942,7994.224174
2723.593146,1302.362347,592.164754,8216.285956
2723.593475,1149.143247,962.267725,8364.327145
2723.593804,1149.143247,1110.308913,7772.162391
2723.594133,689.485948,592.164754,8438.347739
2723.594462,459.657299,-0.000000,10140.821405
2723.594791,76.609550,-1258.350101,10584.944971
2723.595120,-766.095498,-1850.514855,9178.553681
2723.595449,-689.485948,-1776.494261,10140.821405
2723.595778,-842.705048,-1036.288319,10214.842000
2723.596107,-612.876398,-814.226536,8734.430116
2723.596436,0.000000,-222.061783,8882.471304
2723.596765,1532.190996,-0.000000,9400.615463
2723.597094,1455.581446,1258.350101,7994.224174
2723.597423,1455.581446,518.144159,7994.224174
2723.597752,842.705048,1036.288319,8364.327145
2723.598081,842.705048,-0.000000,8364.327145
2723.598410,306.438199,-74.020594,8660.409521
2723.598739,0.000000,-1776.494261,10658.965565
2723.599067,306.438199,-962.267725,10288.862594
2723.599396,0.000000,-1850.514855,9548.656652
2723.599725,0.000000,-888.247130,9474.636058
2723.600054,306.438199,-148.041188,9696.697840
2723.600383,689.485948,444.123565,9104.533087
2723.600712,919.314598,518.144159,8956.491898
2723.601041,2145.067394,370.102971,8734.430116
2723.601370,2221.676944,666.185348,7698.141797
2723.601699,1991.848295,-148.041188,8734.430116
2723.602028,766.095498,444.123565,8364.327145
2723.602357,153.219100,-222.061783,8808.450710
2723.602686,-612.876398,-518.144159,8808.450710
2723.603015,-1225.752797,-1406.391290,9844.739029
2723.603344,-1072.533697,-1628.453072,10584.944971
2723.603673,-1838.629195,-1998.556043,9622.677246
2723.604002,-1378.971896,-1480.411884,10362.883188
2723.604331,-1225.752797,-666.185348,9400.615463
2723.604660,0.000000,-740.205942,9696.697840
2723.604989,766.095498,-74.020594,8586.388927
2723.605318,1915.238745,-0.000000,8586.388927
2723.605647,1991.848295,1258.350101,7254.018232
2723.605976,2757.943793,592.164754,7994.224174
2723.606305,2451.505594,1850.514855,7179.997637
2723.606634,1838.629195,1184.329507,7179.997637
2723.606963,842.705048,1628.453072,7994.224174
2723.607292,0.000000,-0.000000,8660.409521
2723.607621,-612.876398,-1332.370696,9844.739029
2723.607950,-1455.581446,-2220.617826,9474.636058
2723.608278,-1762.019645,-2738.761985,10362.883188
2723.608607,-2374.896044,-1850.514855,10436.903782
2723.608936,-2298.286494,-2590.720797,10584.944971
2723.609265,-1225.752797,-814.226536,10140.821405
2723.609594,459.657299,-444.123565,9474.636058
2723.609923,1532.190996,740.205942,7846.182985
2723.610252,2987.772442,1554.432478,7994.224174
2723.610581,2604.724693,1776.494261,8586.388927
2723.610910,1838.629195,2146.597232,7105.977043
2723.611239,1915.238745,1998.556043,8290.306550
2723.611568,1685.410096,1480.411884,8660.409521
2723.611897,995.924147,370.102971,8512.368333
2723.612226,0.000000,-1480.411884,9770.718434
2723.612555,-766.095498,-1258.350101,10510.924376
2723.612884,-1455.581446,-1628.453072,10140.821405
2723.613213,-1915.238745,-1924.535449,9992.780217
2723.613542,-1225.752797,-962.267725,11029.068536
2723.613871,-766.095498,-444.123565,10362.883188
2723.614200,-229.828649,1036.288319,8512.368333
2723.614529,612.876398,518.144159,8512.368333
2723.614858,919.314598,1332.370696,8586.388927
2723.615187,1072.533697,1332.370696,8438.347739
2723.615516,1149.143247,1258.350101,8586.388927
2723.615845,-153.219100,296.082377,9326.594869
2723.616174,306.438199,-0.000000,9178.553681
2723.616503,153.219100,-1036.288319,9030.512492
2723.616832,-229.828649,-518.144159,9622.677246
2723.617160,0.000000,-222.061783,8882.471304
2723.617489,0.000000,-296.082377,9400.615463
2723.617818,-919.314598,-444.123565,9992.780217
2723.618147,459.657299,-666.185348,9326.594869
2723.618476,842.705048,296.082377,7920.203579
2723.618805,995.924147,444.123565,8734.430116
2723.619134,1302.362347,518.144159,8364.327145
2723.619463,995.924147,592.164754,8142.265362
2723.619792,1225.752797,-592.164754,9326.594869
2723.620121,689.485948,-370.102971,8882.471304
2723.620450,459.657299,-296.082377,9474.636058
2723.620779,153.219100,-1036.288319,9548.656652
2723.621108,0.000000,-222.061783,9844.739029
2723.621437,76.609550,-1406.391290,9178.553681
2723.621766,153.219100,-1110.308913,9326.594869
2723.622095,1685.410096,-518.144159,9696.697840
2723.622424,1378.971896,-518.144159,8808.450710
2723.622753,1991.848295,1110.308913,8068.244768
2723.623082,2145.067394,592.164754,8956.491898
2723.623411,1149.143247,1036.288319,7698.141797
2723.623740,1149.143247,1184.329507,8290.306550
2723.624069,1532.190996,-222.061783,8364.327145
2723.624398,459.657299,-1036.288319,9474.636058
2723.624727,-919.314598,-296.082377,9696.697840
2723.625056,-689.485948,-3034.844362,10881.027347
2723.625385,-1532.190996,-1406.391290,10584.944971
2723.625714,-1608.800546,-1702.473667,9696.697840
2723.626042,-995.924147,-1036.288319,9696.697840
2723.626371,0.000000,-444.123565,10214.842000
2723.626700,1225.752797,-518.144159,9548.656652
2723.627029,2451.505594,-444.123565,7920.203579
2723.627358,2068.457845,888.247130,7772.162391
2723.627687,1685.410096,370.102971,8512.368333
2723.628016,1225.752797,1258.350101,7254.018232
2723.628345,1302.362347,-0.000000,8290.306550
2723.628674,459.657299,-444.123565,8142.265362
2723.629003,-153.219100,-592.164754,8142.265362
2723.629332,-306.438199,-2146.597232,10140.821405
2723.629661,-1072.533697,-1406.391290,9030.512492
2723.629990,-1532.190996,-1332.370696,8808.450710
2723.630319,-1225.752797,-1628.453072,10288.862594
2723.630648,-995.924147,-2146.597232,9696.697840
2723.630977,153.219100,-666.185348,9326.594869
2723.631306,995.924147,-814.226536,7920.203579
2723.631635,1685.410096,740.205942,7772.162391
2723.631964,1991.848295,1850.514855,8586.388927
2723.632293,1302.362347,1480.411884,7846.182985
2723.632622,1532.190996,296.082377,8512.368333
2723.632951,1455.581446,1110.308913,8660.409521
2723.633280,995.924147,-370.102971,7846.182985
2723.633609,0.000000,-592.164754,9474.636058
2723.633938,-536.266849,-296.082377,9992.780217
2723.634267,-612.876398,-888.247130,9030.512492
2723.634596,-1455.581446,-296.082377,10510.924376
2723.634924,-1225.752797,-666.185348,10362.883188
2723.635253,-995.924147,-0.000000,9474.636058
2723.635582,0.000000,148.041188,9696.697840
2723.635911,0.000000,370.102971,9326.594869
2723.636240,-306.438199,370.102971,9030.512492
2723.636569,229.828649,1036.288319,9104.533087
2723.636898,689.485948,666.185348,9548.656652
2723.637227,306.438199,1480.411884,8586.388927
2723.637556,536.266849,1184.329507,8216.285956
2723.637885,459.657299,296.082377,9622.677246
2723.638214,0.000000,592.164754,9770.718434
2723.638543,-153.219100,-296.082377,8660.409521
2723.638872,-229.828649,-592.164754,10066.800811
2723.639201,-536.266849,-814.226536,10288.862594
2723.639530,-766.095498,-222.061783,9252.574275
2723.639859,0.000000,-1406.391290,9622.677246
2723.640188,229.828649,-0.000000,9104.533087
2723.640517,689.485948,1258.350101,8364.327145
2723.640846,995.924147,1184.329507,8438.347739
2723.641175,1302.362347,1332.370696,9326.594869
2723.641504,1532.190996,1776.494261,8660.409521
2723.641833,1762.019645,-0.000000,8438.347739
2723.642162,1685.410096,148.041188,9252.574275
2723.642491,919.314598,370.102971,8512.368333
2723.642820,766.095498,-740.205942,8882.471304
2723.643149,459.657299,-296.082377,9400.615463
2723.643478,919.314598,-962.267725,9844.739029
2723.643807,306.438199,-1258.350101,9030.512492
2723.644136,0.000000,-1184.329507,9104.533087
2723.644465,0.000000,-592.164754,9622.677246
2723.644794,0.000000,222.061783,8512.368333
2723.645123,229.828649,592.164754,9252.574275
2723.645451,689.485948,-222.061783,9326.594869
2723.645780,689.485948,-592.164754,9326.594869
2723.646109,842.705048,-666.185348,9178.553681
2723.646438,919.314598,-1332.370696,9474.636058
2723.646767,612.876398,222.061783,8660.409521
2723.647096,842.705048,-592.164754,8734.430116
2723.647425,766.095498,-74.020594,9104.533087
2723.647754,612.876398,-518.144159,9474.636058
2723.648083,1149.143247,-296.082377,9252.574275
2723.648412,612.876398,-296.082377,8808.450710
2723.648741,229.828649,-0.000000,9770.718434
2723.649070,-536.266849,222.061783,8142.265362
2723.649399,-383.047749,-1110.308913,10066.800811
2723.649728,-229.828649,-666.185348,9696.697840
2723.650057,0.000000,-1554.432478,9326.594869
2723.650386,0.000000,-296.082377,9104.533087
2723.650715,0.000000,-814.226536,9030.512492
2723.651044,0.000000,370.102971,9030.512492
2723.651373,229.828649,222.061783,8290.306550
2723.651702,689.485948,222.061783,9252.574275
2723.652031,766.095498,-0.000000,8808.450710
2723.652360,1225.752797,-222.061783,7402.059420
2723.652689,842.705048,-0.000000,8882.471304
2723.653018,459.657299,-1332.370696,9548.656652
2723.653347,0.000000,-74.020594,8660.409521
2723.653676,153.219100,-370.102971,9326.594869
2723.654005,0.000000,-0.000000,9400.615463
2723.654334,0.000000,-0.000000,9030.512492
2723.654663,76.609550,-74.020594,9400.615463
2723.654992,153.219100,-666.185348,8882.471304
2723.655321,153.219100,-148.041188,9178.553681
2723.655650,-229.828649,-444.123565,8734.430116
2723.655979,76.609550,-148.041188,9696.697840
2723.656308,76.609550,444.123565,9770.718434
2723.656637,689.485948,-592.164754,8660.409521
2723.656965,383.047749,-0.000000,8734.430116
2723.657294,383.047749,-666.185348,9474.636058
2723.657623,0.000000,222.061783,8216.285956
2723.657952,-153.219100,-222.061783,9474.636058
2723.658281,919.314598,-296.082377,9548.656652
2723.658610,229.828649,-148.041188,8882.471304
2723.658939,306.438199,-592.164754,9622.677246
2723.659268,306.438199,-740.205942,9696.697840
2723.659597,383.047749,-0.000000,9030.512492
2723.659926,766.095498,296.082377,8512.368333
2723.660255,1072.533697,296.082377,9178.553681
2723.660584,536.266849,444.123565,9252.574275
2723.660913,689.485948,296.082377,8882.471304
2723.661242,689.485948,370.102971,8586.388927
2723.661571,0.000000,-0.000000,8808.450710
2723.661900,0.000000,-74.020594,9104.533087
2723.662229,0.000000,-666.185348,9030.512492
2723.662558,229.828649,-1702.473667,10881.027347
2723.662887,0.000000,-592.164754,9030.512492
2723.663216,459.657299,-1628.453072,9030.512492
2723.663545,229.828649,-0.000000,9326.594869
2723.663874,995.924147,592.164754,8068.244768
2723.664203,1149.143247,1184.329507,8512.368333
2723.664532,1915.238745,1036.288319,8660.409521
2723.664861,2221.676944,-74.020594,8660.409521
2723.665190,1838.629195,222.061783,8142.265362
2723.665519,1378.971896,-74.020594,8808.450710
2723.665848,766.095498,-296.082377,8882.471304
2723.666177,0.000000,-444.123565,8586.388927
2723.666506,0.000000,-296.082377,9104.533087
2723.666835,-153.219100,-888.247130,10140.821405
2723.667164,-689.485948,592.164754,9696.697840
2723.667493,0.000000,-1258.350101,9992.780217
2723.667822,0.000000,-0.000000,8956.491898
2723.668151,0.000000,-222.061783,9104.533087
2723.668480,383.047749,-666.185348,9326.594869
2723.668808,0.000000,-592.164754,8882.471304
2723.669137,995.924147,-1036.288319,9104.533087
2723.669466,1072.533697,-148.041188,7994.224174
2723.669795,842.705048,-74.020594,9104.533087
2723.670124,0.000000,296.082377,8586.388927
2723.670453,-459.657299,370.102971,8512.368333
2723.670782,-306.438199,962.267725,9622.677246
2723.671111,-536.266849,-518.144159,9400.615463
2723.671440,-689.485948,-740.205942,10214.842000
2723.671769,-612.876398,-2072.576638,10214.842000
2723.672098,-383.047749,-1850.514855,9474.636058
2723.672427,-229.828649,-592.164754,9030.512492
2723.672756,229.828649,-592.164754,8956.491898
2723.673085,153.219100,814.226536,9252.574275
2723.673414,1455.581446,888.247130,8808.450710
2723.673743,766.095498,1406.391290,7476.080014
2723.674072,1225.752797,444.123565,8956.491898
2723.674401,919.314598,666.185348,8660.409521
2723.674730,76.609550,-296.082377,8512.368333
2723.675059,-229.828649,-0.000000,9400.615463
2723.675388,0.000000,-1110.308913,9844.739029
2723.675717,0.000000,-518.144159,9326.594869
2723.676046,0.000000,-1406.391290,10140.821405
2723.676375,536.266849,-1258.350101,9696.697840
2723.676704,76.609550,1110.308913,7846.182985
2723.677033,459.657299,518.144159,8660.409521
2723.677362,766.095498,1258.350101,8586.388927
2723.677691,842.705048,296.082377,8660.409521
2723.678020,1072.533697,-518.144159,8142.265362
2723.678349,536.266849,-962.267725,8660.409521
2723.678678,0.000000,-74.020594,9400.615463
2723.679007,0.000000,-148.041188,7476.080014
2723.679336,-536.266849,-296.082377,9622.677246
2723.679665,-995.924147,-666.185348,10362.883188
2723.679994,-459.657299,-888.247130,9178.553681
2723.680323,-306.438199,-444.123565,9844.739029
2723.680651,0.000000,148.041188,9548.656652
2723.680980,383.047749,370.102971,7994.224174
2723.681309,766.095498,148.041188,9326.594869
2723.681638,1302.362347,222.061783,9400.615463
2723.681967,1762.019645,-0.000000,8586.388927
2723.682296,1225.752797,888.247130,7846.182985
2723.682625,1225.752797,1036.288319,9104.533087
2723.682954,1149.143247,962.267725,8512.368333
2723.683283,153.219100,888.247130,7994.224174
2723.683612,-153.219100,-1258.350101,10066.800811
2723.683941,-153.219100,-962.267725,10510.924376
2723.684270,0.000000,-814.226536,9474.636058
2723.684599,0.000000,-1998.556043,9622.677246
2723.684928,0.000000,-814.226536,10288.862594
2723.685257,689.485948,-1406.391290,9030.512492
2723.685586,1225.752797,-962.267725,9326.594869
2723.685915,2068.457845,-444.123565,9474.636058
2723.686244,2451.505594,-222.061783,8512.368333
2723.686573,2145.067394,370.102971,7772.162391
2723.686902,2145.067394,-666.185348,8956.491898
2723.687231,1072.533697,-370.102971,8438.347739
2723.687560,689.485948,-962.267725,8290.306550
2723.687889,0.000000,-2812.782580,9696.697840
2723.688218,-689.485948,-2220.617826,9844.739029
2723.688547,-995.924147,-3108.864956,9474.636058
2723.688876,-1072.533697,-4145.153275,10362.883188
2723.689205,-1072.533697,-3552.988522,10140.821405
2723.689534,-766.095498,-3552.988522,9548.656652
2723.689863,-536.266849,-2220.617826,8882.471304
2723.690192,689.485948,-2294.638420,8068.244768
2723.690521,1532.190996,-1184.329507,8512.368333
2723.690850,1378.971896,-1406.391290,7772.162391
2723.691179,1378.971896,-2960.823768,9178.553681
2723.691508,1149.143247,-1406.391290,8290.306550
2723.691837,229.828649,-1628.453072,7179.997637
2723.692166,-1762.019645,-2590.720797,9400.615463
2723.692494,-459.657299,-4145.153275,10362.883188
2723.692823,-459.657299,-3775.050304,9326.594869
2723.693152,-1225.752797,-4367.215058,9844.739029
2723.693481,-612.876398,-4367.215058,9400.615463
2723.693810,-536.266849,-2738.761985,8364.327145
2723.694139,0.000000,-1258.350101,8734.430116
2723.694468,459.657299,-2294.638420,8660.409521
2723.694797,1532.190996,-1332.370696,8290.306550
2723.695126,1915.238745,-1406.391290,7772.162391
2723.695455,1455.581446,-2072.576638,7846.182985
2723.695784,1455.581446,-3627.009116,8882.471304
2723.696113,842.705048,-3182.885551,8290.306550
2723.696442,-153.219100,-2738.761985,8142.265362
2723.696771,-766.095498,-4737.318029,9696.697840
2723.697100,-306.438199,-4959.379811,10288.862594
2723.697429,-459.657299,-4589.276840,9770.718434
2723.697758,-612.876398,-4885.359217,9548.656652
2723.698087,-153.219100,-4737.318029,9622.677246
2723.698416,1072.533697,-3997.112087,9918.759623
2723.698745,1302.362347,-1850.514855,7994.224174
2723.699074,1225.752797,-2220.617826,8734.430116
2723.699403,2528.115143,-2146.597232,7920.203579
2723.699732,3370.820191,-1924.535449,6809.894666
2723.700061,2911.162892,-1628.453072,7476.080014
2723.700390,1685.410096,-3330.926739,8068.244768
2723.700719,689.485948,-4071.132681,9178.553681
2723.701048,0.000000,-3701.029710,9326.594869
2723.701377,-995.924147,-3775.050304,9178.553681
2723.701706,-2451.505594,-4441.235652,10584.944971
2723.702035,-1608.800546,-5329.482782,11325.150913
2723.702364,-1532.190996,-4885.359217,10436.903782
2723.702693,-1149.143247,-3923.091493,9400.615463
2723.703022,-995.924147,-3478.967927,9992.780217
2723.703351,153.219100,-3552.988522,10955.047942
2723.703680,1762.019645,-1480.411884,8808.450710
2723.704009,2451.505594,-1406.391290,6809.894666
2723.704337,2757.943793,-1036.288319,7179.997637
2723.704666,2911.162892,-1480.411884,8142.265362
2723.704995,3447.429741,-1924.535449,8068.244768
2723.705324,2374.896044,-2072.576638,6957.935855
2723.705653,383.047749,-2886.803174,8216.285956
2723.705982,-1149.143247,-3849.070898,10362.883188
2723.706311,-1608.800546,-5255.462188,11547.212695
2723.706640,-842.705048,-4811.338623,9918.759623
2723.706969,-1915.238745,-4589.276840,10288.862594
2723.707298,-2528.115143,-3849.070898,11251.130318
2723.707627,-2068.457845,-4145.153275,10955.047942
2723.707956,-229.828649,-3701.029710,10140.821405
2723.708285,1455.581446,-2738.761985,9104.533087
2723.708614,1455.581446,-1998.556043,8586.388927
2723.708943,1532.190996,-1258.350101,8438.347739
2723.709272,3294.210641,-962.267725,7772.162391
2723.709601,4290.134789,-962.267725,7402.059420
2723.709930,3370.820191,-370.102971,6365.771101
2723.710259,1762.019645,-1036.288319,7105.977043
2723.710588,1378.971896,-2368.659014,8956.491898
2723.710917,1762.019645,-2664.741391,8142.265362
2723.711246,153.219100,-4219.173869,9474.636058
2723.711575,-2068.457845,-5181.441594,9696.697840
2723.711904,-2757.943793,-4959.379811,11473.192101
2723.712233,-2834.553343,-4663.297435,10732.986159
2723.712562,-2145.067394,-3701.029710,9548.656652
2723.712891,-1225.752797,-2812.782580,10214.842000
2723.713220,-1762.019645,-2664.741391,10288.862594
2723.713549,-229.828649,-1480.411884,9548.656652
2723.713878,1225.752797,-2072.576638,8438.347739
2723.714207,2528.115143,-740.205942,6883.915261
2723.714536,3217.601092,-1554.432478,7772.162391
2723.714865,2987.772442,-2590.720797,8438.347739
2723.715194,2298.286494,-3478.967927,8734.430116
2723.715523,1762.019645,-3552.988522,8290.306550
2723.715852,995.924147,-2368.659014,7920.203579
2723.716180,229.828649,-2442.679609,9992.780217
2723.716509,-383.047749,-3108.864956,9844.739029
2723.716838,-1072.533697,-3404.947333,10288.862594
2723.717167,-1378.971896,-2960.823768,9548.656652
2723.717496,-1149.143247,-3404.947333,9104.533087
2723.717825,-536.266849,-3775.050304,9992.780217
2723.718154,-229.828649,-4219.173869,10066.800811
2723.718483,76.609550,-4959.379811,10140.821405
2723.718812,383.047749,-4589.276840,8586.388927
2723.719141,536.266849,-3182.885551,7846.182985
2723.719470,536.266849,-1924.535449,8142.265362
2723.719799,995.924147,-1110.308913,7994.224174
2723.720128,842.705048,-2220.617826,8660.409521
2723.720457,995.924147,-2516.700203,8438.347739
2723.720786,919.314598,-3182.885551,9178.553681
2723.721115,153.219100,-3552.988522,9252.574275
2723.721444,229.828649,-3849.070898,8956.491898
2723.721773,459.657299,-3997.112087,9326.594869
2723.722102,689.485948,-3404.947333,9030.512492
2723.722431,229.828649,-3182.885551,9992.780217
2723.722760,995.924147,-3552.988522,9326.594869
2723.723089,612.876398,-2960.823768,8290.306550
2723.723418,612.876398,-2812.782580,8956.491898
2723.723747,-306.438199,-2812.782580,9030.512492
2723.724076,-919.314598,-2812.782580,9548.656652
2723.724405,-842.705048,-3330.926739,9548.656652
2723.724734,0.000000,-4145.153275,9474.636058
2723.725063,306.438199,-3997.112087,10214.842000
2723.725392,995.924147,-3997.112087,9622.677246
2723.725721,1455.581446,-3182.885551,8808.450710
2723.726050,2298.286494,-2442.679609,8364.327145
2723.726379,3140.991542,-1480.411884,7254.018232
2723.726708,4136.915689,-814.226536,7328.038826
2723.727037,3217.601092,-1036.288319,7402.059420
2723.727366,2757.943793,-1702.473667,7550.100608
2723.727695,1455.581446,-3108.864956,8290.306550
2723.728023,-383.047749,-3997.112087,9178.553681
2723.728352,-2298.286494,-4737.318029,10214.842000
2723.728681,-3600.648841,-5329.482782,10732.986159
2723.729010,-4136.915689,-5329.482782,10658.965565
2723.729339,-3677.258390,-4589.276840,10807.006753
2723.729668,-2528.115143,-4071.132681,9178.553681
2723.729997,-1532.190996,-3701.029710,8882.471304
2723.730326,0.000000,-3627.009116,9326.594869
2723.730655,1915.238745,-3478.967927,8438.347739
2723.730984,3294.210641,-3256.906145,7624.121203
2723.731313,4596.572988,-2738.761985,7105.977043
2723.731642,4749.792088,-1850.514855,6883.915261
2723.731971,4826.401637,-1258.350101,7031.956449
2723.732300,4366.744339,-518.144159,7179.997637
2723.732629,3524.039291,-0.000000,7254.018232
2723.732958,2681.334243,-1184.329507,8216.285956
2723.733287,-612.876398,-2072.576638,9252.574275
2723.733616,-3294.210641,-5107.421000,11547.212695
2723.733945,-4903.011187,-5107.421000,11917.315666
2723.734274,-4596.572988,-8512.368333,13323.706956
2723.734603,-4979.620737,-5921.647536,10362.883188
2723.734932,-3753.867940,-5403.503377,11103.089130
2723.735261,-3140.991542,-5033.400406,9622.677246
2723.735590,-2528.115143,-2886.803174,9252.574275
2723.735919,-842.705048,-2960.823768,9770.718434
2723.736248,3447.429741,-2368.659014,10658.965565
2723.736577,3907.087040,740.205942,3923.091493
2723.736906,5592.497135,-888.247130,8290.306550
2723.737235,3524.039291,-518.144159,6291.750507
2723.737564,5822.325785,962.267725,7328.038826
2723.737893,4213.525239,-0.000000,7179.997637
2723.738222,3447.429741,1036.288319,5847.626942
2723.738551,2987.772442,222.061783,8290.306550
2723.738880,1838.629195,148.041188,6735.874072
2723.739209,-2604.724693,-4219.173869,9770.718434
2723.739537,-3983.696590,-7698.141797,13175.665768
2723.739866,-2757.943793,-4441.235652,11103.089130
2723.740195,-3140.991542,-9696.697840,11695.253884
2723.740524,-4290.134789,-7031.956449,9400.615463
2723.740853,-2757.943793,-6439.791695,12361.439231
2723.741182,306.438199,-7476.080014,10881.027347
2723.741511,2757.943793,-962.267725,6365.771101
2723.741840,5056.230287,-296.082377,5995.668130
2723.742169,4903.011187,1332.370696,5625.565159
2723.742499,3140.991542,1850.514855,7031.956449
2723.742828,2911.162892,296.082377,5699.585753
2723.743157,2221.676944,-370.102971,6439.791695
2723.743486,153.219100,-4515.256246,8956.491898
2723.743815,-1762.019645,-7550.100608,11843.295072
2723.744144,-4290.134789,-4441.235652,11769.274478
2723.744473,-4903.011187,-9770.718434,12509.480420
2723.744802,-4673.182538,-5773.606348,9622.677246
2723.745131,-2681.334243,-3627.009116,10955.047942
2723.745461,-1532.190996,-3256.906145,9548.656652
2723.745790,-2451.505594,-1406.391290,7772.162391
2723.746119,1685.410096,-4441.235652,11103.089130
2723.746448,3983.696590,-1480.411884,5329.482782
2723.746777,4979.620737,-148.041188,6661.853478
2723.747106,3294.210641,-1258.350101,5403.503377
2723.747435,4596.572988,-296.082377,6587.832884
2723.747764,2451.505594,1406.391290,7328.038826
2723.748094,1685.410096,2442.679609,5625.565159
2723.748423,1762.019645,-0.000000,8364.327145
2723.748752,-3217.601092,-1406.391290,10140.821405
2723.749081,-4213.525239,-5699.585753,11917.315666
2723.749410,-6128.763984,-4145.153275,11473.192101
2723.749739,-5362.668486,-6513.812290,11695.253884
2723.750068,-6435.202183,-3256.906145,11029.068536
2723.750397,-4443.353888,-4071.132681,11621.233289
2723.750726,-3983.696590,-1480.411884,9400.615463
2723.751056,-3140.991542,-1406.391290,8882.471304
2723.751385,-2145.067394,296.082377,7105.977043
2723.751714,-2604.724693,740.205942,8438.347739
2723.752043,-2987.772442,1036.288319,10658.965565
2723.752372,-1378.971896,-0.000000,6957.935855
2723.752701,-612.876398,518.144159,7402.059420
2723.753030,459.657299,-222.061783,6143.709319
2723.753359,153.219100,-1406.391290,7772.162391
2723.753689,-1149.143247,-148.041188,9622.677246
2723.754018,-1991.848295,-222.061783,9326.594869
2723.754347,-2451.505594,-296.082377,9918.759623
2723.754676,-3830.477490,-518.144159,9622.677246
2723.755005,-3983.696590,518.144159,9474.636058
2723.755334,-3600.648841,-740.205942,10436.903782
2723.755663,-3064.381992,-814.226536,9326.594869
2723.755992,-2374.896044,-2960.823768,9622.677246
2723.756321,-2298.286494,-2812.782580,10362.883188
2723.756651,-2374.896044,-1850.514855,9474.636058
2723.756980,-2757.943793,-1998.556043,9030.512492
2723.757309,-1762.019645,-0.000000,7994.224174
2723.757638,-153.219100,1998.556043,7624.121203
2723.757967,-1149.143247,444.123565,8882.471304
2723.758296,-689.485948,444.123565,9252.574275
2723.758625,-1685.410096,-444.123565,9326.594869
2723.758954,-3370.820191,-1628.453072,9474.636058
2723.759284,-4290.134789,-2146.597232,10510.924376
2723.759613,-4979.620737,-1924.535449,11991.336260
2723.759942,-4290.134789,-370.102971,10658.965565
2723.760271,-3140.991542,-0.000000,9030.512492
2723.760600,-2987.772442,296.082377,8216.285956
2723.760929,-1838.629195,740.205942,8512.368333
2723.761258,-2221.676944,888.247130,7624.121203
2723.761587,-2451.505594,1036.288319,7105.977043
2723.761916,-1991.848295,1110.308913,7105.977043
2723.762246,-1991.848295,-0.000000,7846.182985
2723.762575,-2757.943793,-222.061783,8216.285956
2723.762904,-3140.991542,-666.185348,8438.347739
2723.763233,-3064.381992,-1628.453072,9178.553681
2723.763562,-3370.820191,-1628.453072,9474.636058
2723.763891,-3677.258390,-1406.391290,9770.718434
2723.764220,-3830.477490,-1406.391290,10510.924376
2723.764549,-4749.792088,-666.185348,10288.862594
2723.764879,-4596.572988,148.041188,9992.780217
2723.765208,-3294.210641,-0.000000,9696.697840
2723.765537,-3370.820191,1110.308913,8512.368333
2723.765866,-2145.067394,370.102971,8808.450710
2723.766195,-2451.505594,-444.123565,8290.306550
2723.766524,-3140.991542,-0.000000,8438.347739
2723.766853,-3064.381992,-962.267725,8734.430116
2723.767182,-2374.896044,-1628.453072,8216.285956
2723.767511,-1685.410096,-1702.473667,8512.368333
2723.767841,-612.876398,-1628.453072,8142.265362
2723.768170,0.000000,-888.247130,8438.347739
2723.768499,0.000000,-444.123565,8882.471304
2723.768828,-919.314598,814.226536,9178.553681
2723.769157,-612.876398,1776.494261,9030.512492
2723.769486,-842.705048,1776.494261,9178.553681
2723.769815,-1302.362347,1924.535449,9104.533087
2723.770144,-2298.286494,1480.411884,9104.533087
2723.770474,-3140.991542,518.144159,9252.574275
2723.770803,-3600.648841,-0.000000,8808.450710
2723.771132,-3600.648841,-370.102971,8512.368333
2723.771461,-4060.306139,-888.247130,8660.409521
2723.771790,-4213.525239,-888.247130,8586.388927
2723.772119,-4136.915689,-1406.391290,8808.450710
2723.772448,-4060.306139,-2220.617826,9918.759623
2723.772777,-3983.696590,-1850.514855,9844.739029
2723.773106,-3753.867940,-2146.597232,10807.006753
2723.773436,-3294.210641,-2664.741391,10807.006753
2723.773765,-2757.943793,-2072.576638,11769.274478
2723.774094,-2604.724693,-0.000000,11399.171507
2723.774423,-2834.553343,1036.288319,10288.862594
2723.774752,-2298.286494,1554.432478,10732.986159
2723.775081,-536.266849,2368.659014,9992.780217
2723.775410,919.314598,3849.070898,6365.771101
2723.775739,995.924147,3627.009116,6513.812290
2723.776069,306.438199,3923.091493,4293.194464
2723.776398,-612.876398,3552.988522,5181.441594
2723.776727,-1455.581446,1628.453072,6143.709319
2723.777056,-2911.162892,-740.205942,7254.018232
2723.777385,-3677.258390,-3627.009116,10140.821405
2723.777714,-4136.915689,-4219.173869,8956.491898
2723.778043,-5515.887586,-3849.070898,9770.718434
2723.778372,-6665.030833,-4811.338623,12583.501014
2723.778701,-6052.154434,-5255.462188,14730.098246
2723.779031,-5592.497135,-2960.823768,13989.892304
2723.779360,-4826.401637,-1110.308913,12065.356855
2723.779689,-2681.334243,666.185348,10362.883188
2723.780018,-1762.019645,2516.700203,8216.285956
2723.780347,-1608.800546,4515.256246,8808.450710
2723.780676,0.000000,2220.617826,10436.903782
2723.781005,459.657299,3478.967927,3552.988522
2723.781334,3524.039291,3849.070898,5773.606348
2723.781664,1378.971896,2442.679609,1850.514855
2723.781993,153.219100,1554.432478,4737.318029
2723.782322,-2528.115143,-2146.597232,8216.285956
2723.782651,-2451.505594,-4663.297435,9030.512492
2723.782980,-2911.162892,-5477.523971,13027.624579
2723.783309,-3524.039291,-3034.844362,10140.821405
2723.783638,-5286.058936,-3330.926739,10881.027347
2723.783967,-5822.325785,-1628.453072,14137.933492
2723.784296,-3983.696590,740.205942,10807.006753
2723.784626,-2911.162892,888.247130,12435.459826
2723.784955,-3370.820191,2072.576638,10140.821405
2723.785284,-2528.115143,4441.235652,9178.553681
2723.785613,-2987.772442,1258.350101,8438.347739
2723.785942,-3830.477490,2368.659014,6587.832884
2723.786271,-3370.820191,-296.082377,7624.121203
2723.786600,-3140.991542,-888.247130,7328.038826
