#time,accel_x,accel_y,accel_z
2727.976007,383.047749,-0.000000,8956.491898
2727.976336,383.047749,-222.061783,9030.512492
2727.976665,306.438199,-222.061783,9030.512492
2727.976994,76.609550,-74.020594,9104.533087
2727.977323,842.705048,-444.123565,9104.533087
2727.977653,766.095498,-296.082377,9474.636058
2727.977982,459.657299,-370.102971,9178.553681
2727.978311,306.438199,-222.061783,9104.533087
2727.978640,306.438199,-296.082377,9326.594869
2727.978969,383.047749,-222.061783,9252.574275
2727.979298,459.657299,-74.020594,8882.471304
2727.979627,612.876398,-222.061783,9104.533087
2727.979957,689.485948,-370.102971,9400.615463
2727.980286,1072.533697,-518.144159,9400.615463
2727.980615,153.219100,-296.082377,9178.553681
2727.980944,459.657299,-148.041188,9104.533087
2727.981273,459.657299,-74.020594,9030.512492
2727.981602,459.657299,-148.041188,9030.512492
2727.981932,536.266849,-518.144159,9178.553681
2727.982261,229.828649,-296.082377,8512.368333
2727.982590,919.314598,-222.061783,8808.450710
2727.982919,153.219100,222.061783,9104.533087
2727.983248,383.047749,-0.000000,8956.491898
2727.983577,76.609550,-0.000000,8956.491898
2727.983906,306.438199,-0.000000,8808.450710
2727.984236,536.266849,-0.000000,9104.533087
2727.984565,842.705048,-0.000000,8734.430116
2727.984894,383.047749,-0.000000,8882.471304
2727.985223,229.828649,-0.000000,9178.553681
2727.985552,383.047749,-0.000000,8882.471304
2727.985881,306.438199,-222.061783,8882.471304
2727.986210,306.438199,-74.020594,8956.491898
2727.986540,0.000000,-0.000000,9178.553681
2727.986869,612.876398,-444.123565,9178.553681
2727.987198,689.485948,-666.185348,9104.533087
2727.987527,306.438199,-74.020594,9252.574275
2727.987856,459.657299,-222.061783,8882.471304
2727.988185,536.266849,-296.082377,9030.512492
2727.988514,229.828649,-74.020594,9030.512492
2727.988844,229.828649,-370.102971,9104.533087
2727.989173,536.266849,-518.144159,8512.368333
2727.989502,612.876398,-222.061783,8734.430116
2727.989831,383.047749,-370.102971,9178.553681
2727.990160,383.047749,-296.082377,9104.533087
2727.990489,306.438199,-148.041188,9178.553681
2727.990818,229.828649,-148.041188,9178.553681
2727.991148,229.828649,-370.102971,8956.491898
2727.991477,919.314598,-888.247130,8660.409521
2727.991806,459.657299,-74.020594,9326.594869
2727.992135,383.047749,-74.020594,9178.553681
2727.992464,536.266849,-0.000000,9030.512492
2727.992793,153.219100,-74.020594,9030.512492
2727.993123,383.047749,-0.000000,9178.553681
2727.993452,689.485948,-296.082377,9178.553681
2727.993781,153.219100,-296.082377,8956.491898
2727.994110,383.047749,-74.020594,9252.574275
2727.994439,306.438199,-222.061783,8956.491898
2727.994768,153.219100,-0.000000,8808.450710
2727.995097,0.000000,-0.000000,8882.471304
2727.995427,459.657299,-0.000000,9104.533087
2727.995756,0.000000,-0.000000,9326.594869
2727.996085,842.705048,-0.000000,8808.450710
2727.996414,995.924147,-370.102971,8956.491898
2727.996743,306.438199,-74.020594,8956.491898
2727.997072,153.219100,-0.000000,8956.491898
2727.997401,459.657299,-0.000000,9104.533087
2727.997731,383.047749,-0.000000,8956.491898
2727.998060,459.657299,-370.102971,9252.574275
2727.998389,306.438199,-148.041188,9104.533087
2727.998718,306.438199,-222.061783,8882.471304
2727.999047,383.047749,-74.020594,8956.491898
2727.999376,153.219100,-148.041188,9178.553681
2727.999705,459.657299,-370.102971,9178.553681
2728.000035,229.828649,-296.082377,9030.512492
2728.000364,536.266849,-222.061783,9326.594869
2728.000693,536.266849,-296.082377,9400.615463
2728.001022,536.266849,-222.061783,8956.491898
2728.001351,383.047749,-814.226536,8956.491898
2728.001680,459.657299,-296.082377,9178.553681
2728.002010,459.657299,-222.061783,9178.553681
2728.002339,383.047749,-222.061783,9030.512492
2728.002668,383.047749,-296.082377,9252.574275
2728.002997,76.609550,-740.205942,9252.574275
2728.003326,459.657299,-592.164754,9326.594869
2728.003655,536.266849,-148.041188,9178.553681
2728.003984,153.219100,-296.082377,9104.533087
2728.004314,229.828649,-74.020594,8956.491898
2728.004643,229.828649,-0.000000,8956.491898
2728.004972,459.657299,-148.041188,8956.491898
2728.005301,-306.438199,-0.000000,9326.594869
2728.005630,76.609550,-0.000000,9030.512492
2728.005959,689.485948,-296.082377,8956.491898
2728.006288,766.095498,-370.102971,9474.636058
2728.006618,1302.362347,-1110.308913,9326.594869
2728.006947,1302.362347,-592.164754,9252.574275
2728.007276,1915.238745,-592.164754,9474.636058
2728.007605,1762.019645,-518.144159,8734.430116
2728.007934,2757.943793,296.082377,8734.430116
2728.008263,3600.648841,-148.041188,8660.409521
2728.008592,3907.087040,-0.000000,8438.347739
2728.008922,3294.210641,444.123565,8364.327145
2728.009251,2987.772442,740.205942,8290.306550
2728.009580,3140.991542,-296.082377,9030.512492
2728.009909,3677.258390,-296.082377,9326.594869
2728.010238,2374.896044,-518.144159,8660.409521
2728.010567,1762.019645,-962.267725,9992.780217
2728.010896,2221.676944,-1924.535449,9696.697840
2728.011226,2834.553343,-666.185348,9326.594869
2728.011555,2374.896044,-444.123565,9844.739029
2728.011884,3370.820191,-1332.370696,10066.800811
2728.012213,2911.162892,-74.020594,9326.594869
2728.012542,3983.696590,962.267725,9696.697840
2728.012871,4979.620737,444.123565,7550.100608
2728.013201,3907.087040,1184.329507,9326.594869
2728.013530,4979.620737,740.205942,8882.471304
2728.013859,4519.963438,1184.329507,7179.997637
2728.014188,3907.087040,518.144159,9400.615463
2728.014517,3677.258390,-0.000000,8956.491898
2728.014846,2681.334243,370.102971,9474.636058
2728.015175,1532.190996,-888.247130,9844.739029
2728.015505,1838.629195,-592.164754,9548.656652
2728.015834,1378.971896,-1036.288319,9696.697840
2728.016163,689.485948,-814.226536,9918.759623
2728.016492,1685.410096,-814.226536,9770.718434
2728.016821,2298.286494,-0.000000,9844.739029
2728.017150,2298.286494,-0.000000,7920.203579
2728.017479,3907.087040,296.082377,9918.759623
2728.017809,3753.867940,888.247130,7994.224174
2728.018138,4136.915689,592.164754,8142.265362
2728.018467,4366.744339,814.226536,8734.430116
2728.018796,4060.306139,296.082377,8660.409521
2728.019125,3830.477490,-148.041188,8882.471304
2728.019454,2987.772442,-1332.370696,9622.677246
2728.019783,2451.505594,-740.205942,9844.739029
2728.020113,2528.115143,-1776.494261,9548.656652
2728.020442,2374.896044,-1406.391290,9770.718434
2728.020771,2374.896044,-1406.391290,9844.739029
2728.021100,2987.772442,-740.205942,9622.677246
2728.021429,3217.601092,-296.082377,9104.533087
2728.021758,3830.477490,296.082377,8586.388927
2728.022088,3907.087040,1554.432478,8290.306550
2728.022417,4290.134789,2220.617826,7846.182985
2728.022746,3907.087040,2368.659014,7254.018232
2728.023075,3907.087040,1998.556043,7994.224174
2728.023404,3600.648841,1406.391290,8142.265362
2728.023733,3983.696590,-0.000000,8290.306550
2728.024062,3217.601092,-1480.411884,9696.697840
2728.024392,2834.553343,-2294.638420,9918.759623
2728.024721,2068.457845,-2590.720797,10510.924376
2728.025050,2374.896044,-2812.782580,10955.047942
2728.025379,3064.381992,-2368.659014,10955.047942
2728.025708,3983.696590,-1258.350101,10288.862594
2728.026037,4903.011187,222.061783,9326.594869
2728.026366,5745.716235,666.185348,8808.450710
2728.026696,5592.497135,2072.576638,8290.306550
2728.027025,5132.839837,2812.782580,8068.244768
2728.027354,4443.353888,3701.029710,7105.977043
2728.027683,3983.696590,3404.947333,7105.977043
2728.028012,3753.867940,2738.761985,6587.832884
2728.028341,2681.334243,518.144159,7105.977043
2728.028670,995.924147,-2812.782580,9992.780217
2728.029000,-536.266849,-3997.112087,10362.883188
2728.029329,-919.314598,-4663.297435,11917.315666
2728.029658,-995.924147,-4885.359217,11473.192101
2728.029987,-612.876398,-1776.494261,10214.842000
2728.030316,459.657299,-1702.473667,11029.068536
2728.030645,1455.581446,-0.000000,9844.739029
2728.030974,3983.696590,666.185348,10214.842000
2728.031304,6894.859482,1258.350101,8068.244768
2728.031633,7201.297681,1628.453072,7772.162391
2728.031962,5822.325785,814.226536,7476.080014
2728.032291,6128.763984,2886.803174,6069.688724
2728.032620,5822.325785,2664.741391,7476.080014
2728.032949,4749.792088,2368.659014,6069.688724
2728.033279,4673.182538,3182.885551,6735.874072
2728.033608,4366.744339,1406.391290,6439.791695
2728.033937,4596.572988,962.267725,5847.626942
2728.034266,2221.676944,-3627.009116,9474.636058
2728.034595,-306.438199,-8290.306550,12731.542202
2728.034924,-1532.190996,-3478.967927,11251.130318
2728.035253,-1532.190996,-5995.668130,15322.262999
2728.035583,-1225.752797,-4663.297435,11769.274478
2728.035912,766.095498,1110.308913,11843.295072
2728.036241,2911.162892,-0.000000,11251.130318
2728.036570,3830.477490,2220.617826,9622.677246
2728.036899,7124.688131,444.123565,9696.697840
2728.037228,8120.612279,1258.350101,9030.512492
2728.037557,7507.735880,3478.967927,6143.709319
2728.037887,8656.879127,3701.029710,5773.606348
2728.038216,7584.345430,1702.473667,4959.379811
2728.038545,7431.126331,2220.617826,5033.400406
2728.038874,6741.640382,1480.411884,6735.874072
2728.039203,4136.915689,1850.514855,6513.812290
2728.039532,3907.087040,1628.453072,5773.606348
2728.039861,3524.039291,-2220.617826,10436.903782
2728.040191,-1608.800546,-6587.832884,12361.439231
2728.040520,-3907.087040,-2664.741391,11547.212695
2728.040849,-1455.581446,-3404.947333,14582.057057
2728.041178,-1762.019645,-4811.338623,11843.295072
2728.041507,-383.047749,2516.700203,11917.315666
2728.041836,2221.676944,-370.102971,10288.862594
2728.042166,-536.266849,3108.864956,9326.594869
2728.042495,5822.325785,-1628.453072,12583.501014
2728.042824,8044.002729,1850.514855,5403.503377
2728.043153,8120.612279,1184.329507,8882.471304
2728.043482,6205.373534,1332.370696,6661.853478
2728.043811,7507.735880,1036.288319,4737.318029
2728.044140,5515.887586,1184.329507,8956.491898
2728.044470,6128.763984,1036.288319,5181.441594
2728.044799,5515.887586,2516.700203,7846.182985
2728.045128,2757.943793,1332.370696,7402.059420
2728.045457,3907.087040,666.185348,9030.512492
2728.045786,1532.190996,-296.082377,9622.677246
2728.046115,1149.143247,-4293.194464,12805.562797
2728.046444,-383.047749,-148.041188,10288.862594
2728.046774,1149.143247,-5551.544565,13545.768739
2728.047103,-1225.752797,-518.144159,8364.327145
2728.047432,1685.410096,962.267725,11917.315666
2728.047761,2298.286494,1036.288319,9400.615463
2728.048090,3677.258390,1036.288319,8216.285956
2728.048419,4290.134789,-0.000000,7772.162391
2728.048748,4366.744339,444.123565,8290.306550
2728.049078,4290.134789,1850.514855,7476.080014
2728.049407,3370.820191,-814.226536,7550.100608
2728.049736,3294.210641,-1776.494261,7772.162391
2728.050065,2757.943793,-2368.659014,9400.615463
2728.050394,2451.505594,-1998.556043,10288.862594
2728.050723,1915.238745,-518.144159,10066.800811
2728.051052,2068.457845,-74.020594,9844.739029
2728.051382,3677.258390,1332.370696,10288.862594
2728.051711,3524.039291,1110.308913,8956.491898
2728.052040,3907.087040,962.267725,9548.656652
2728.052369,5362.668486,1702.473667,7772.162391
2728.052698,6052.154434,1776.494261,7920.203579
2728.053027,4979.620737,2146.597232,7624.121203
2728.053356,4443.353888,962.267725,7624.121203
2728.053686,3753.867940,-296.082377,8142.265362
2728.054015,3447.429741,-962.267725,7994.224174
2728.054344,1915.238745,-888.247130,9104.533087
2728.054673,76.609550,-1924.535449,10881.027347
2728.055002,0.000000,-2812.782580,10955.047942
2728.055331,-306.438199,-2368.659014,10362.883188
2728.055660,1302.362347,-1332.370696,9992.780217
2728.055989,1455.581446,-1036.288319,9844.739029
2728.056319,1608.800546,-370.102971,10584.944971
2728.056648,3753.867940,962.267725,9696.697840
2728.056977,5975.544884,2220.617826,8364.327145
2728.057306,6358.592633,1332.370696,8438.347739
2728.057635,4903.011187,1480.411884,8512.368333
2728.057964,4673.182538,1184.329507,8586.388927
2728.058293,5056.230287,1110.308913,7254.018232
2728.058622,5669.106685,-222.061783,7846.182985
2728.058952,5286.058936,592.164754,8216.285956
2728.059281,4749.792088,-222.061783,9326.594869
2728.059610,2911.162892,-1628.453072,9326.594869
2728.059939,2987.772442,-962.267725,9178.553681
2728.060268,2068.457845,-1850.514855,10807.006753
2728.060597,1685.410096,-1554.432478,11251.130318
2728.060926,995.924147,370.102971,9844.739029
2728.061255,2681.334243,-0.000000,9770.718434
2728.061585,3294.210641,-222.061783,9104.533087
2728.061914,4443.353888,518.144159,10140.821405
2728.062243,4673.182538,666.185348,8660.409521
2728.062572,4136.915689,2072.576638,7994.224174
2728.062901,4366.744339,1406.391290,7772.162391
2728.063230,3677.258390,1480.411884,7402.059420
2728.063559,4443.353888,-222.061783,8586.388927
2728.063888,2298.286494,-740.205942,7328.038826
2728.064218,1915.238745,-1258.350101,9622.677246
2728.064547,1302.362347,-2738.761985,10510.924376
2728.064876,1455.581446,-1776.494261,9696.697840
2728.065205,536.266849,-1258.350101,9622.677246
2728.065534,0.000000,-666.185348,9696.697840
2728.065863,689.485948,-740.205942,10066.800811
2728.066192,2145.067394,-296.082377,10066.800811
2728.066521,2987.772442,-0.000000,9696.697840
2728.066851,4060.306139,-74.020594,9030.512492
2728.067180,4213.525239,518.144159,8438.347739
2728.067509,4290.134789,1184.329507,7476.080014
2728.067838,4673.182538,370.102971,8512.368333
2728.068167,4979.620737,222.061783,7698.141797
2728.068496,5898.935335,1406.391290,7105.977043
2728.068825,5286.058936,-0.000000,8364.327145
2728.069154,4903.011187,-888.247130,9178.553681
2728.069483,3524.039291,-1036.288319,8512.368333
2728.069813,1915.238745,-296.082377,9326.594869
2728.070142,1072.533697,-888.247130,9548.656652
2728.070471,1072.533697,-518.144159,9178.553681
2728.070800,1762.019645,296.082377,10362.883188
2728.071129,1455.581446,-0.000000,9548.656652
2728.071458,1455.581446,-0.000000,9326.594869
2728.071787,689.485948,-0.000000,8364.327145
2728.072116,766.095498,296.082377,8216.285956
2728.072446,1072.533697,962.267725,9622.677246
2728.072775,-229.828649,-296.082377,6291.750507
2728.073104,-612.876398,-666.185348,8882.471304
2728.073433,0.000000,-2294.638420,11769.274478
2728.073762,-612.876398,444.123565,7254.018232
2728.074091,-1225.752797,-1554.432478,8956.491898
2728.074420,-1838.629195,-444.123565,9400.615463
2728.074749,-1378.971896,-666.185348,10510.924376
2728.075079,-1149.143247,-962.267725,9474.636058
2728.075408,-919.314598,-1480.411884,9622.677246
2728.075737,536.266849,-962.267725,11399.171507
2728.076066,689.485948,222.061783,7476.080014
2728.076395,1149.143247,962.267725,7994.224174
2728.076724,919.314598,444.123565,9030.512492
2728.077053,2681.334243,1554.432478,7402.059420
2728.077382,2451.505594,296.082377,7550.100608
2728.077712,2221.676944,148.041188,9696.697840
2728.078041,1532.190996,-0.000000,8660.409521
2728.078370,995.924147,-740.205942,8734.430116
2728.078699,-383.047749,-740.205942,9696.697840
2728.079028,-306.438199,-518.144159,10436.903782
2728.079357,0.000000,-2072.576638,9918.759623
2728.079686,459.657299,-1036.288319,10584.944971
2728.080015,1225.752797,-1036.288319,10584.944971
2728.080345,1991.848295,-592.164754,9992.780217
2728.080674,1991.848295,-296.082377,9252.574275
2728.081003,3064.381992,962.267725,9548.656652
2728.081332,3524.039291,1258.350101,7624.121203
2728.081661,4060.306139,2368.659014,7328.038826
2728.081990,3370.820191,1406.391290,8290.306550
2728.082319,3217.601092,2738.761985,7772.162391
2728.082648,1149.143247,444.123565,8068.244768
2728.082978,459.657299,296.082377,8734.430116
2728.083307,-1532.190996,-1258.350101,9548.656652
2728.083636,-2451.505594,-2590.720797,10658.965565
2728.083965,-2451.505594,-2960.823768,10436.903782
2728.084294,-1532.190996,-666.185348,9400.615463
2728.084623,-1991.848295,-1702.473667,9030.512492
2728.084952,-1225.752797,-740.205942,10362.883188
2728.085281,-1225.752797,-1036.288319,9844.739029
2728.085610,-1149.143247,-148.041188,9326.594869
2728.085940,-306.438199,-444.123565,9400.615463
2728.086269,-766.095498,-74.020594,9474.636058
2728.086598,-1072.533697,148.041188,8956.491898
2728.086927,383.047749,-296.082377,10066.800811
2728.087256,383.047749,1036.288319,8660.409521
2728.087585,1532.190996,888.247130,6365.771101
2728.087914,2068.457845,814.226536,7179.997637
2728.088243,1532.190996,962.267725,7550.100608
2728.088573,536.266849,-0.000000,7402.059420
2728.088902,0.000000,-1258.350101,8882.471304
2728.089231,0.000000,-370.102971,9178.553681
2728.089560,-995.924147,-1406.391290,9474.636058
2728.089889,-1532.190996,-1406.391290,11029.068536
2728.090218,-766.095498,-1332.370696,10732.986159
2728.090547,229.828649,370.102971,9622.677246
2728.090876,229.828649,-0.000000,9696.697840
2728.091206,0.000000,740.205942,10881.027347
2728.091535,766.095498,1406.391290,9548.656652
2728.091864,1149.143247,1480.411884,8142.265362
2728.092193,1455.581446,518.144159,9104.533087
2728.092522,1991.848295,1036.288319,8364.327145
2728.092851,1762.019645,296.082377,7105.977043
2728.093180,1072.533697,-592.164754,8364.327145
2728.093509,842.705048,-518.144159,8216.285956
2728.093839,459.657299,-1184.329507,7994.224174
2728.094168,-1378.971896,-1332.370696,9030.512492
2728.094497,-306.438199,-888.247130,10214.842000
2728.094826,-1608.800546,-1110.308913,9548.656652
2728.095155,-1149.143247,-740.205942,9548.656652
2728.095484,-995.924147,-222.061783,9992.780217
2728.095813,-612.876398,-0.000000,9178.553681
2728.096142,-842.705048,-222.061783,9770.718434
2728.096472,-459.657299,-296.082377,10362.883188
2728.096801,536.266849,592.164754,8734.430116
2728.097130,-306.438199,1258.350101,7698.141797
2728.097459,1685.410096,-444.123565,9252.574275
2728.097788,459.657299,296.082377,7772.162391
2728.098117,919.314598,-222.061783,8142.265362
2728.098446,1378.971896,-1998.556043,9400.615463
2728.098775,919.314598,-222.061783,7994.224174
2728.099105,689.485948,-74.020594,9030.512492
2728.099434,-459.657299,-592.164754,11029.068536
2728.099763,-766.095498,-1258.350101,9474.636058
2728.100092,153.219100,370.102971,8142.265362
2728.100421,612.876398,-1480.411884,11547.212695
2728.100750,383.047749,1406.391290,8734.430116
2728.101079,1991.848295,-518.144159,9696.697840
2728.101408,3217.601092,370.102971,8956.491898
2728.101738,2757.943793,1702.473667,8586.388927
2728.102067,3217.601092,962.267725,7698.141797
2728.102396,2451.505594,740.205942,7105.977043
2728.102725,2681.334243,222.061783,9326.594869
2728.103054,1915.238745,296.082377,8290.306550
2728.103383,1149.143247,-1110.308913,7624.121203
2728.103712,-459.657299,-1480.411884,10214.842000
2728.104041,-689.485948,-592.164754,9474.636058
2728.104370,-842.705048,-1554.432478,9252.574275
2728.104700,-1378.971896,-1702.473667,10362.883188
2728.105029,0.000000,-962.267725,9770.718434
2728.105358,-919.314598,-148.041188,8808.450710
2728.105687,-689.485948,-1036.288319,9548.656652
2728.106016,536.266849,518.144159,9326.594869
2728.106345,995.924147,370.102971,8216.285956
2728.106674,1455.581446,296.082377,8660.409521
2728.107003,1838.629195,518.144159,7994.224174
2728.107333,2221.676944,2146.597232,7105.977043
2728.107662,1378.971896,148.041188,7772.162391
2728.107991,536.266849,1036.288319,8512.368333
2728.108320,306.438199,-222.061783,8586.388927
2728.108649,-1378.971896,-888.247130,8956.491898
2728.108978,-766.095498,-666.185348,10955.047942
2728.109307,-1608.800546,-962.267725,8808.450710
2728.109636,-1072.533697,-1110.308913,9104.533087
2728.109966,-842.705048,-1036.288319,10436.903782
2728.110295,-536.266849,666.185348,9104.533087
2728.110624,-766.095498,-1480.411884,9474.636058
2728.110953,-536.266849,-1184.329507,10140.821405
2728.111282,0.000000,-0.000000,9548.656652
2728.111611,76.609550,296.082377,8512.368333
2728.111940,459.657299,-0.000000,9104.533087
2728.112269,1149.143247,1110.308913,9474.636058
2728.112599,1225.752797,444.123565,7846.182985
2728.112928,1302.362347,740.205942,8364.327145
2728.113257,612.876398,-370.102971,9178.553681
2728.113586,306.438199,-74.020594,8438.347739
2728.113915,-153.219100,-740.205942,9770.718434
2728.114244,-842.705048,-444.123565,9622.677246
2728.114573,-995.924147,-814.226536,9548.656652
2728.114902,-1991.848295,-74.020594,10066.800811
2728.115232,-306.438199,-148.041188,10584.944971
2728.115561,-306.438199,444.123565,9474.636058
2728.115890,-536.266849,518.144159,8882.471304
2728.116219,0.000000,-0.000000,10214.842000
2728.116548,-536.266849,666.185348,9252.574275
2728.116877,229.828649,-0.000000,9104.533087
2728.117206,383.047749,-444.123565,9918.759623
2728.117535,689.485948,-444.123565,9474.636058
2728.117865,459.657299,-518.144159,8068.244768
2728.118194,612.876398,-1258.350101,8586.388927
2728.118523,995.924147,-296.082377,8956.491898
2728.118852,1455.581446,-74.020594,7328.038826
2728.119181,2145.067394,148.041188,8734.430116
2728.119510,1991.848295,518.144159,8660.409521
2728.119839,1072.533697,814.226536,7920.203579
2728.120168,766.095498,74.020594,9030.512492
2728.120497,1072.533697,-0.000000,8734.430116
2728.120827,76.609550,1406.391290,7031.956449
2728.121156,1072.533697,-1924.535449,9104.533087
2728.121485,229.828649,-888.247130,9474.636058
2728.121814,0.000000,-1332.370696,9474.636058
2728.122143,919.314598,-2738.761985,9474.636058
2728.122472,306.438199,-1110.308913,9992.780217
2728.122801,459.657299,-1036.288319,8142.265362
2728.123130,1608.800546,-222.061783,7846.182985
2728.123460,1532.190996,-1036.288319,9104.533087
2728.123789,2298.286494,1406.391290,8438.347739
2728.124118,2221.676944,1258.350101,7476.080014
2728.124447,536.266849,1184.329507,8956.491898
2728.124776,842.705048,1258.350101,8808.450710
2728.125105,459.657299,518.144159,8882.471304
2728.125434,-919.314598,-1110.308913,9770.718434
2728.125763,0.000000,518.144159,9770.718434
2728.126093,-1608.800546,-518.144159,9474.636058
2728.126422,-2068.457845,-1480.411884,10436.903782
2728.126751,-766.095498,-666.185348,9178.553681
2728.127080,-842.705048,-1036.288319,8956.491898
2728.127409,-1149.143247,-2368.659014,9844.739029
2728.127738,0.000000,-444.123565,9548.656652
2728.128067,0.000000,-0.000000,8438.347739
2728.128396,536.266849,-0.000000,7698.141797
2728.128726,0.000000,-0.000000,8882.471304
2728.129055,383.047749,1184.329507,8734.430116
2728.129384,459.657299,592.164754,8142.265362
2728.129713,383.047749,-0.000000,9770.718434
2728.130042,-229.828649,-0.000000,9918.759623
2728.130371,0.000000,-444.123565,9104.533087
2728.130700,-842.705048,-518.144159,9696.697840
2728.131029,153.219100,-74.020594,9178.553681
2728.131359,-229.828649,-814.226536,9474.636058
2728.131688,919.314598,-1554.432478,10214.842000
2728.132017,1225.752797,-222.061783,8956.491898
2728.132346,1991.848295,222.061783,7920.203579
2728.132675,1302.362347,-148.041188,8216.285956
2728.133004,1685.410096,1332.370696,8438.347739
2728.133333,1991.848295,518.144159,8216.285956
2728.133662,919.314598,962.267725,7994.224174
2728.133992,1149.143247,296.082377,9770.718434
2728.134321,1072.533697,-1036.288319,9474.636058
2728.134650,-306.438199,-888.247130,8956.491898
2728.134979,-689.485948,-148.041188,10436.903782
2728.135308,0.000000,-814.226536,9030.512492
2728.135637,-766.095498,-148.041188,9252.574275
2728.135966,536.266849,-518.144159,10436.903782
2728.136295,689.485948,888.247130,8512.368333
2728.136625,842.705048,-74.020594,8438.347739
2728.136954,1302.362347,592.164754,8956.491898
2728.137283,1302.362347,592.164754,9104.533087
2728.137612,383.047749,-0.000000,8142.265362
2728.137941,536.266849,740.205942,8216.285956
2728.138270,536.266849,-666.185348,10066.800811
2728.138599,919.314598,-666.185348,9030.512492
2728.138928,536.266849,-814.226536,8956.491898
2728.139257,-306.438199,-814.226536,10140.821405
2728.139587,-842.705048,-1036.288319,9030.512492
2728.139916,76.609550,-592.164754,8956.491898
2728.140245,536.266849,-148.041188,9326.594869
2728.140574,229.828649,888.247130,8586.388927
2728.140903,459.657299,592.164754,8438.347739
2728.141232,1225.752797,-0.000000,9252.574275
2728.141561,1455.581446,666.185348,8068.244768
2728.141890,1685.410096,-0.000000,8364.327145
2728.142220,1762.019645,-592.164754,8512.368333
2728.142549,1915.238745,-0.000000,8586.388927
2728.142878,1532.190996,-814.226536,8142.265362
2728.143207,689.485948,-444.123565,9178.553681
2728.143536,995.924147,-888.247130,10436.903782
2728.143865,459.657299,370.102971,8142.265362
2728.144194,459.657299,-296.082377,9844.739029
2728.144523,1149.143247,-0.000000,10732.986159
2728.144853,459.657299,962.267725,8808.450710
2728.145182,459.657299,962.267725,9696.697840
2728.145511,229.828649,74.020594,8882.471304
2728.145840,76.609550,518.144159,9252.574275
2728.146169,306.438199,-518.144159,9918.759623
2728.146498,383.047749,-888.247130,9696.697840
2728.146827,-536.266849,-1036.288319,7920.203579
2728.147156,-536.266849,-1258.350101,9178.553681
2728.147486,-995.924147,-1776.494261,9696.697840
2728.147815,0.000000,-888.247130,8882.471304
2728.148144,-306.438199,-888.247130,8142.265362
2728.148473,0.000000,-518.144159,9770.718434
2728.148802,-689.485948,-74.020594,10214.842000
2728.149131,536.266849,296.082377,8512.368333
2728.149460,-153.219100,296.082377,7920.203579
2728.149789,-995.924147,1258.350101,9474.636058
2728.150119,306.438199,222.061783,8956.491898
2728.150448,-995.924147,444.123565,9918.759623
2728.150777,0.000000,-370.102971,8438.347739
2728.151106,76.609550,296.082377,8882.471304
2728.151435,-536.266849,-2368.659014,9474.636058
2728.151764,-536.266849,592.164754,9252.574275
2728.152093,689.485948,-1036.288319,8660.409521
2728.152422,-383.047749,-148.041188,8216.285956
2728.152751,919.314598,-296.082377,10214.842000
2728.153080,1838.629195,-0.000000,8660.409521
2728.153408,766.095498,1036.288319,7031.956449
2728.153737,1532.190996,370.102971,10510.924376
2728.154066,1302.362347,666.185348,7698.141797
2728.154395,306.438199,962.267725,9252.574275
2728.154724,766.095498,-1332.370696,9918.759623
2728.155053,612.876398,-0.000000,8660.409521
2728.155382,-536.266849,-666.185348,9770.718434
2728.155711,-459.657299,-1480.411884,8956.491898
2728.156040,-612.876398,-1184.329507,9918.759623
2728.156369,-1378.971896,-2442.679609,10140.821405
2728.156698,-612.876398,-740.205942,8808.450710
2728.157026,76.609550,-1554.432478,10807.006753
2728.157355,536.266849,-0.000000,7624.121203
2728.157684,689.485948,888.247130,9252.574275
2728.158013,1378.971896,370.102971,9030.512492
2728.158342,1608.800546,1406.391290,7031.956449
2728.158671,1685.410096,444.123565,9030.512492
2728.159000,1225.752797,370.102971,9400.615463
2728.159329,0.000000,-0.000000,8956.491898
2728.159658,459.657299,-888.247130,9992.780217
2728.159987,-229.828649,-592.164754,9104.533087
2728.160315,0.000000,-148.041188,9622.677246
2728.160644,-536.266849,-1702.473667,8512.368333
2728.160973,536.266849,296.082377,9622.677246
2728.161302,0.000000,-666.185348,9548.656652
2728.161631,153.219100,-74.020594,8068.244768
2728.161960,459.657299,-1184.329507,9548.656652
2728.162289,612.876398,1406.391290,9326.594869
2728.162618,1225.752797,-0.000000,7772.162391
2728.162947,995.924147,444.123565,8660.409521
2728.163276,1762.019645,370.102971,9474.636058
2728.163605,1225.752797,-74.020594,8364.327145
2728.163933,1532.190996,296.082377,8882.471304
2728.164262,1225.752797,444.123565,9474.636058
2728.164591,766.095498,-74.020594,9178.553681
2728.164920,1149.143247,-518.144159,9844.739029
2728.165249,536.266849,148.041188,9030.512492
2728.165578,612.876398,-0.000000,8586.388927
2728.165907,459.657299,-444.123565,8364.327145
2728.166236,536.266849,222.061783,9548.656652
2728.166565,229.828649,-148.041188,8216.285956
2728.166894,0.000000,-666.185348,7550.100608
2728.167223,0.000000,-740.205942,10362.883188
2728.167551,-306.438199,-888.247130,9104.533087
2728.167880,0.000000,-74.020594,7772.162391
2728.168209,-689.485948,-1110.308913,9918.759623
2728.168538,306.438199,-814.226536,9844.739029
2728.168867,-383.047749,-222.061783,8290.306550
2728.169196,689.485948,-592.164754,9770.718434
2728.169525,153.219100,296.082377,9104.533087
2728.169854,0.000000,-370.102971,8956.491898
2728.170183,-306.438199,-0.000000,8216.285956
2728.170512,0.000000,888.247130,8882.471304
2728.170840,229.828649,888.247130,8438.347739
2728.171169,-689.485948,148.041188,9030.512492
2728.171498,-229.828649,-518.144159,11029.068536
2728.171827,-229.828649,-0.000000,8956.491898
2728.172156,-383.047749,-962.267725,9474.636058
2728.172485,-229.828649,148.041188,9326.594869
2728.172814,153.219100,-222.061783,9030.512492
2728.173143,383.047749,-222.061783,9400.615463
2728.173472,1225.752797,-592.164754,9400.615463
2728.173801,1302.362347,814.226536,9770.718434
2728.174130,1072.533697,518.144159,8142.265362
2728.174458,1302.362347,222.061783,10066.800811
2728.174787,1455.581446,-0.000000,8068.244768
2728.175116,689.485948,296.082377,8216.285956
2728.175445,995.924147,-444.123565,9474.636058
2728.175774,1149.143247,-444.123565,9548.656652
2728.176103,306.438199,-148.041188,8438.347739
2728.176432,0.000000,-370.102971,9326.594869
2728.176761,306.438199,-740.205942,9770.718434
2728.177090,-383.047749,-296.082377,8142.265362
2728.177419,536.266849,-592.164754,8956.491898
2728.177748,-383.047749,-222.061783,9992.780217
2728.178076,689.485948,-444.123565,8734.430116
2728.178405,0.000000,-222.061783,8290.306550
2728.178734,459.657299,-0.000000,9918.759623
2728.179063,0.000000,-0.000000,8660.409521
2728.179392,153.219100,-888.247130,8660.409521
2728.179721,306.438199,-0.000000,9326.594869
2728.180050,306.438199,-0.000000,9178.553681
2728.180379,229.828649,-592.164754,8808.450710
2728.180708,383.047749,-0.000000,10214.842000
2728.181037,-306.438199,-0.000000,10066.800811
2728.181365,0.000000,592.164754,7105.977043
2728.181694,995.924147,-148.041188,9474.636058
2728.182023,536.266849,-814.226536,9104.533087
2728.182352,-919.314598,1776.494261,9474.636058
2728.182681,766.095498,-2072.576638,9474.636058
2728.183010,-459.657299,-222.061783,6735.874072
2728.183339,1455.581446,962.267725,8142.265362
2728.183668,153.219100,-1332.370696,9178.553681
2728.183997,1149.143247,-740.205942,9548.656652
2728.184326,1149.143247,-1332.370696,9474.636058
2728.184655,919.314598,-74.020594,7402.059420
2728.184983,689.485948,-518.144159,9104.533087
2728.185312,2068.457845,-148.041188,7328.038826
2728.185641,1762.019645,666.185348,7402.059420
2728.185970,1838.629195,1406.391290,9104.533087
2728.186299,1302.362347,-222.061783,9696.697840
2728.186628,919.314598,-518.144159,8142.265362
2728.186957,-612.876398,-222.061783,9770.718434
2728.187286,-383.047749,-1480.411884,9474.636058
2728.187615,-1532.190996,-1184.329507,7994.224174
2728.187944,-919.314598,-1628.453072,9696.697840
2728.188273,-383.047749,-888.247130,11177.109724
2728.188601,-306.438199,-444.123565,7846.182985
2728.188930,459.657299,-1184.329507,9696.697840
2728.189259,1072.533697,296.082377,9992.780217
2728.189588,1149.143247,814.226536,7698.141797
2728.189917,2221.676944,-222.061783,8142.265362
2728.190246,2221.676944,1480.411884,9104.533087
2728.190575,2374.896044,1776.494261,8290.306550
2728.190904,1225.752797,888.247130,8142.265362
2728.191233,229.828649,518.144159,9326.594869
2728.191562,0.000000,-0.000000,9326.594869
2728.191890,-1302.362347,-740.205942,8290.306550
2728.192219,-1455.581446,-1184.329507,10584.944971
2728.192548,-1762.019645,-888.247130,10140.821405
2728.192877,-1302.362347,-740.205942,9252.574275
2728.193206,-1762.019645,-1554.432478,9696.697840
2728.193535,-1072.533697,-370.102971,9548.656652
2728.193864,-919.314598,-814.226536,9400.615463
2728.194193,536.266849,-814.226536,9326.594869
2728.194522,1608.800546,1110.308913,8660.409521
2728.194851,1302.362347,888.247130,8512.368333
2728.195180,1149.143247,666.185348,8142.265362
2728.195508,1378.971896,1480.411884,8512.368333
2728.195837,1149.143247,666.185348,7920.203579
2728.196166,1225.752797,444.123565,8660.409521
2728.196495,306.438199,-1036.288319,9992.780217
2728.196824,-689.485948,74.020594,9696.697840
2728.197153,-689.485948,-1110.308913,9030.512492
2728.197482,-1149.143247,-518.144159,9326.594869
2728.197811,-995.924147,-370.102971,9622.677246
2728.198140,-842.705048,-518.144159,9178.553681
2728.198469,-383.047749,-740.205942,9696.697840
2728.198798,0.000000,-0.000000,9178.553681
2728.199126,-153.219100,370.102971,7550.100608
2728.199455,0.000000,444.123565,9770.718434
2728.199784,306.438199,370.102971,8956.491898
2728.200113,229.828649,148.041188,8216.285956
2728.200442,459.657299,-0.000000,9252.574275
2728.200771,383.047749,-888.247130,10362.883188
2728.201100,689.485948,-1110.308913,9326.594869
2728.201429,306.438199,-444.123565,9474.636058
2728.201758,536.266849,-518.144159,9252.574275
2728.202087,536.266849,-814.226536,8364.327145
2728.202415,919.314598,-370.102971,8956.491898
2728.202744,919.314598,-592.164754,9178.553681
2728.203073,995.924147,592.164754,8734.430116
2728.203402,-383.047749,-370.102971,8586.388927
2728.203731,76.609550,-296.082377,9326.594869
2728.204060,842.705048,-222.061783,8956.491898
2728.204389,153.219100,-222.061783,9104.533087
2728.204718,536.266849,-888.247130,10658.965565
2728.205047,995.924147,-1184.329507,10214.842000
2728.205376,766.095498,-666.185348,9178.553681
2728.205705,689.485948,-740.205942,11695.253884
2728.206033,1685.410096,296.082377,8956.491898
2728.206362,2221.676944,444.123565,7402.059420
2728.206691,2451.505594,-148.041188,9326.594869
2728.207020,2911.162892,1850.514855,8290.306550
2728.207349,2987.772442,814.226536,7254.018232
2728.207678,1378.971896,962.267725,5625.565159
2728.208007,2068.457845,962.267725,9104.533087
2728.208336,0.000000,-1036.288319,7772.162391
2728.208665,-306.438199,-444.123565,8290.306550
2728.208994,-1149.143247,-1850.514855,10658.965565
2728.209323,-2145.067394,-1998.556043,9918.759623
2728.209651,-2451.505594,-1998.556043,9844.739029
2728.209980,-612.876398,-1628.453072,10362.883188
2728.210309,-766.095498,-222.061783,8734.430116
2728.210638,0.000000,-518.144159,9844.739029
2728.210967,1072.533697,-370.102971,8882.471304
2728.211296,1762.019645,1998.556043,7846.182985
2728.211625,2221.676944,1184.329507,8216.285956
2728.211954,1455.581446,1554.432478,7105.977043
2728.212283,76.609550,1036.288319,9104.533087
2728.212612,919.314598,-0.000000,8586.388927
2728.212940,229.828649,-518.144159,8068.244768
2728.213269,-1608.800546,-1480.411884,10288.862594
2728.213598,-1838.629195,-1998.556043,10362.883188
2728.213927,-1915.238745,-1480.411884,11177.109724
2728.214256,-1608.800546,-2220.617826,9918.759623
2728.214585,-842.705048,-962.267725,9474.636058
2728.214914,-229.828649,-1258.350101,11177.109724
2728.215243,919.314598,1332.370696,9178.553681
2728.215572,2451.505594,740.205942,8364.327145
2728.215901,1455.581446,1628.453072,7402.059420
2728.216230,2221.676944,1332.370696,9252.574275
2728.216558,2374.896044,1998.556043,7698.141797
2728.216887,1685.410096,740.205942,7402.059420
2728.217216,1455.581446,-0.000000,9622.677246
2728.217545,919.314598,-444.123565,8882.471304
2728.217874,-306.438199,-592.164754,9326.594869
2728.218203,-1378.971896,-1332.370696,10881.027347
2728.218532,-995.924147,-666.185348,9696.697840
2728.218861,-1608.800546,-518.144159,8660.409521
2728.219190,-536.266849,-962.267725,10362.883188
2728.219519,-459.657299,-222.061783,9104.533087
2728.219848,-1455.581446,-518.144159,9326.594869
2728.220176,0.000000,-0.000000,9030.512492
2728.220505,536.266849,444.123565,9030.512492
2728.220834,-612.876398,-0.000000,7550.100608
2728.221163,689.485948,-962.267725,9030.512492
2728.221492,1302.362347,-296.082377,9992.780217
2728.221821,0.000000,296.082377,7920.203579
2728.222150,0.000000,-1036.288319,8586.388927
2728.222479,-689.485948,-370.102971,9696.697840
2728.222808,383.047749,-0.000000,8586.388927
2728.223137,459.657299,-0.000000,9474.636058
2728.223465,919.314598,-148.041188,8808.450710
2728.223794,689.485948,-148.041188,9178.553681
2728.224123,0.000000,296.082377,8142.265362
2728.224452,842.705048,814.226536,9548.656652
2728.224781,306.438199,-74.020594,8808.450710
2728.225110,0.000000,-296.082377,8512.368333
2728.225439,-229.828649,-1036.288319,9844.739029
2728.225768,459.657299,-666.185348,10955.047942
2728.226097,995.924147,-1110.308913,8364.327145
2728.226426,995.924147,-1258.350101,10066.800811
2728.226755,1378.971896,-592.164754,9326.594869
2728.227083,2145.067394,296.082377,8734.430116
2728.227412,2681.334243,222.061783,8438.347739
2728.227741,3217.601092,1332.370696,8808.450710
2728.228070,3140.991542,962.267725,8660.409521
2728.228399,1685.410096,888.247130,7846.182985
2728.228728,1072.533697,666.185348,9104.533087
2728.229057,536.266849,-444.123565,8882.471304
2728.229386,-459.657299,-0.000000,8364.327145
2728.229715,-919.314598,-1406.391290,11029.068536
2728.230044,-1532.190996,-740.205942,9178.553681
2728.230373,-1455.581446,-2664.741391,10288.862594
2728.230701,-2068.457845,-2368.659014,10807.006753
2728.231030,-1532.190996,-962.267725,9770.718434
2728.231359,-995.924147,-1332.370696,9622.677246
2728.231688,0.000000,-0.000000,9474.636058
2728.232017,1072.533697,1480.411884,8512.368333
2728.232346,2145.067394,1776.494261,8142.265362
2728.232675,1608.800546,2146.597232,7031.956449
2728.233004,2451.505594,1480.411884,8734.430116
2728.233333,1225.752797,1258.350101,7624.121203
2728.233662,0.000000,-74.020594,9030.512492
2728.233990,-842.705048,-518.144159,10066.800811
2728.234319,-1378.971896,-1332.370696,9844.739029
2728.234648,-2068.457845,-1924.535449,9696.697840
2728.234977,-1915.238745,-1554.432478,10066.800811
2728.235306,-1225.752797,-1480.411884,9696.697840
2728.235635,-766.095498,-2664.741391,9622.677246
2728.235964,459.657299,-740.205942,9030.512492
2728.236293,919.314598,962.267725,8216.285956
2728.236622,1225.752797,888.247130,8142.265362
2728.236951,2528.115143,592.164754,8142.265362
2728.237280,2374.896044,1998.556043,7328.038826
2728.237608,1608.800546,1332.370696,7772.162391
2728.237937,1915.238745,-222.061783,9992.780217
2728.238266,536.266849,-814.226536,9326.594869
2728.238595,0.000000,-222.061783,9548.656652
2728.238924,-306.438199,-1258.350101,10362.883188
2728.239253,-842.705048,-1184.329507,9992.780217
2728.239582,-1225.752797,-1110.308913,10066.800811
2728.239911,0.000000,-74.020594,9474.636058
2728.240240,229.828649,-1258.350101,9696.697840
2728.240569,536.266849,962.267725,8882.471304
2728.240898,919.314598,370.102971,8068.244768
2728.241226,995.924147,1036.288319,8956.491898
2728.241555,1455.581446,1184.329507,7624.121203
2728.241884,1532.190996,740.205942,8512.368333
2728.242213,1915.238745,-148.041188,9548.656652
2728.242542,1225.752797,-0.000000,8956.491898
2728.242871,0.000000,-1480.411884,9474.636058
2728.243200,-306.438199,-1258.350101,10881.027347
2728.243529,-153.219100,-740.205942,9400.615463
2728.243858,0.000000,148.041188,8882.471304
2728.244187,536.266849,-296.082377,10066.800811
2728.244515,766.095498,666.185348,9918.759623
2728.244844,306.438199,814.226536,9178.553681
2728.245173,-306.438199,148.041188,8438.347739
2728.245502,1072.533697,592.164754,8512.368333
2728.245831,383.047749,222.061783,7994.224174
2728.246160,0.000000,-444.123565,9326.594869
2728.246489,536.266849,-1110.308913,10288.862594
2728.246818,76.609550,-888.247130,8808.450710
2728.247147,0.000000,-592.164754,9474.636058
2728.247476,229.828649,-1480.411884,10807.006753
2728.247805,0.000000,-888.247130,8734.430116
2728.248133,229.828649,-1258.350101,8660.409521
2728.248462,1302.362347,444.123565,9474.636058
2728.248791,1762.019645,740.205942,8956.491898
2728.249120,1072.533697,888.247130,7994.224174
2728.249449,1149.143247,1110.308913,8290.306550
2728.249778,766.095498,888.247130,8660.409521
2728.250107,-306.438199,518.144159,8068.244768
2728.250436,0.000000,-370.102971,9030.512492
2728.250765,-995.924147,-444.123565,9400.615463
2728.251094,-1685.410096,-1036.288319,8660.409521
2728.251423,-842.705048,-1702.473667,10510.924376
2728.251751,-1455.581446,-2072.576638,8808.450710
2728.252080,-1149.143247,-1110.308913,9326.594869
2728.252409,-689.485948,-1776.494261,8734.430116
2728.252738,383.047749,-222.061783,9252.574275
2728.253067,459.657299,-0.000000,8216.285956
2728.253396,842.705048,518.144159,8068.244768
2728.253725,919.314598,-148.041188,8586.388927
2728.254054,1302.362347,666.185348,7402.059420
2728.254383,612.876398,222.061783,7476.080014
2728.254712,459.657299,-0.000000,9474.636058
2728.255041,-306.438199,-1036.288319,9326.594869
2728.255370,-1532.190996,-1406.391290,10584.944971
2728.255699,-1378.971896,-1406.391290,9918.759623
2728.256027,-766.095498,-1110.308913,9992.780217
2728.256356,-995.924147,-296.082377,9474.636058
2728.256685,0.000000,-0.000000,10214.842000
2728.257014,1532.190996,888.247130,9548.656652
2728.257343,1838.629195,1184.329507,8290.306550
2728.257672,2681.334243,1332.370696,7846.182985
2728.258001,2757.943793,1184.329507,8290.306550
2728.258330,2528.115143,2072.576638,6217.729913
2728.258659,1378.971896,-518.144159,8882.471304
2728.258988,1455.581446,-296.082377,10066.800811
2728.259317,0.000000,-666.185348,10362.883188
2728.259646,-229.828649,-1036.288319,9326.594869
2728.259975,-229.828649,-1036.288319,10288.862594
2728.260304,-383.047749,-1258.350101,10436.903782
2728.260633,536.266849,-1332.370696,9178.553681
2728.260961,1225.752797,148.041188,9030.512492
2728.261290,919.314598,-296.082377,9622.677246
2728.261619,1378.971896,1480.411884,7476.080014
2728.261948,2604.724693,1258.350101,7624.121203
2728.262277,1302.362347,1036.288319,7846.182985
2728.262606,1225.752797,814.226536,7328.038826
2728.262935,1608.800546,-518.144159,8882.471304
2728.263264,842.705048,-518.144159,9400.615463
2728.263593,0.000000,-962.267725,8660.409521
2728.263922,-612.876398,-1480.411884,9918.759623
2728.264251,-1608.800546,-1332.370696,9474.636058
2728.264580,-612.876398,-222.061783,9104.533087
2728.264909,-995.924147,-1110.308913,8882.471304
2728.265238,-1225.752797,-444.123565,10732.986159
2728.265567,229.828649,-0.000000,11547.212695
2728.265896,459.657299,222.061783,8290.306550
2728.266224,766.095498,592.164754,7920.203579
2728.266553,1225.752797,888.247130,8364.327145
2728.266882,1685.410096,666.185348,7994.224174
2728.267211,1915.238745,-74.020594,9474.636058
2728.267540,1915.238745,222.061783,7772.162391
2728.267869,919.314598,148.041188,8586.388927
2728.268198,536.266849,-888.247130,9696.697840
2728.268527,229.828649,-814.226536,9178.553681
2728.268856,0.000000,-888.247130,9400.615463
2728.269185,229.828649,-1110.308913,9622.677246
2728.269514,0.000000,-74.020594,10140.821405
2728.269843,-536.266849,-0.000000,9992.780217
2728.270172,-383.047749,-74.020594,9844.739029
2728.270501,0.000000,-74.020594,8438.347739
2728.270830,-306.438199,370.102971,8586.388927
2728.271159,-306.438199,-148.041188,9548.656652
2728.271487,-459.657299,-592.164754,9252.574275
2728.271816,-766.095498,-0.000000,8512.368333
2728.272145,-536.266849,-1258.350101,9474.636058
2728.272474,-306.438199,-444.123565,8438.347739
2728.272803,306.438199,-888.247130,8808.450710
2728.273132,-766.095498,-592.164754,8216.285956
2728.273461,612.876398,-814.226536,9400.615463
2728.273790,383.047749,-0.000000,8734.430116
2728.274119,459.657299,740.205942,8882.471304
2728.274448,0.000000,-296.082377,9400.615463
2728.274777,-842.705048,296.082377,8808.450710
2728.275106,612.876398,666.185348,7994.224174
2728.275435,76.609550,-0.000000,9770.718434
2728.275764,459.657299,-444.123565,10140.821405
2728.276093,0.000000,666.185348,8734.430116
2728.276422,0.000000,-444.123565,9104.533087
2728.276750,459.657299,-148.041188,8586.388927
2728.277079,766.095498,-814.226536,8512.368333
2728.277408,459.657299,-592.164754,8512.368333
2728.277737,1532.190996,-0.000000,9252.574275
2728.278066,1608.800546,-148.041188,9178.553681
2728.278395,1378.971896,518.144159,7920.203579
2728.278724,1915.238745,-0.000000,9548.656652
2728.279053,1225.752797,-0.000000,8586.388927
2728.279382,1762.019645,-444.123565,8882.471304
2728.279711,1838.629195,518.144159,10362.883188
2728.280040,766.095498,-518.144159,9992.780217
2728.280369,383.047749,-296.082377,9548.656652
2728.280698,766.095498,-740.205942,9696.697840
2728.281027,612.876398,222.061783,9400.615463
2728.281356,1072.533697,-666.185348,9252.574275
2728.281685,1378.971896,370.102971,9104.533087
2728.282013,1225.752797,370.102971,9474.636058
2728.282342,1072.533697,740.205942,8290.306550
2728.282671,995.924147,-0.000000,8290.306550
2728.283000,153.219100,-0.000000,8438.347739
2728.283329,-383.047749,740.205942,7772.162391
2728.283658,-536.266849,-962.267725,9400.615463
2728.283987,-995.924147,-1184.329507,10584.944971
2728.284316,-1532.190996,-1924.535449,11103.089130
2728.284645,-1991.848295,-1036.288319,9474.636058
2728.284974,-1378.971896,-1406.391290,10140.821405
2728.285303,-306.438199,-888.247130,7772.162391
2728.285632,1149.143247,1110.308913,7476.080014
2728.285961,842.705048,296.082377,8956.491898
2728.286290,995.924147,1850.514855,7624.121203
2728.286619,1072.533697,518.144159,7772.162391
2728.286947,1225.752797,1554.432478,7920.203579
2728.287276,1072.533697,-0.000000,7031.956449
2728.287605,-459.657299,-518.144159,8586.388927
2728.287934,-689.485948,-1776.494261,9104.533087
2728.288263,-306.438199,-1258.350101,9770.718434
2728.288592,-842.705048,-1406.391290,8660.409521
2728.288921,-1072.533697,-1702.473667,9548.656652
2728.289250,-919.314598,-1332.370696,11103.089130
2728.289579,-459.657299,-0.000000,9326.594869
2728.289908,-689.485948,296.082377,8438.347739
2728.290237,766.095498,148.041188,9622.677246
2728.290566,1302.362347,370.102971,7920.203579
2728.290895,689.485948,1406.391290,9178.553681
2728.291224,766.095498,518.144159,8586.388927
2728.291553,306.438199,-74.020594,7772.162391
2728.291882,766.095498,592.164754,9178.553681
2728.292210,459.657299,-666.185348,9992.780217
2728.292539,459.657299,370.102971,8660.409521
2728.292868,-842.705048,-1110.308913,9548.656652
2728.293197,0.000000,-444.123565,10288.862594
2728.293526,76.609550,-592.164754,10066.800811
2728.293855,0.000000,-592.164754,9104.533087
2728.294184,0.000000,-222.061783,9400.615463
2728.294513,306.438199,-0.000000,10436.903782
2728.294842,153.219100,666.185348,8956.491898
2728.295171,306.438199,222.061783,9030.512492
2728.295500,0.000000,592.164754,9474.636058
2728.295829,76.609550,-148.041188,7994.224174
2728.296158,919.314598,-518.144159,8734.430116
2728.296487,0.000000,-0.000000,9178.553681
2728.296816,-153.219100,-296.082377,9918.759623
2728.297145,-153.219100,-1332.370696,9178.553681
2728.297473,612.876398,-1258.350101,9992.780217
2728.297802,842.705048,518.144159,7772.162391
2728.298131,1532.190996,-148.041188,9030.512492
2728.298460,1532.190996,-592.164754,9178.553681
2728.298789,1915.238745,1406.391290,8734.430116
2728.299118,2681.334243,1702.473667,7994.224174
2728.299447,1378.971896,962.267725,8216.285956
2728.299776,1915.238745,592.164754,9252.574275
2728.300105,1608.800546,962.267725,8882.471304
2728.300434,766.095498,-148.041188,10214.842000
2728.300763,689.485948,-666.185348,9474.636058
2728.301092,459.657299,-1110.308913,9548.656652
2728.301421,76.609550,-148.041188,9622.677246
2728.301750,229.828649,-814.226536,8956.491898
2728.302079,-229.828649,-1110.308913,9400.615463
2728.302408,153.219100,-1036.288319,9696.697840
2728.302736,919.314598,-962.267725,9548.656652
2728.303065,383.047749,296.082377,8216.285956
2728.303394,-383.047749,-370.102971,8512.368333
2728.303723,459.657299,-74.020594,9030.512492
2728.304052,306.438199,222.061783,8808.450710
2728.304381,0.000000,148.041188,7994.224174
2728.304710,459.657299,-666.185348,9548.656652
2728.305039,-995.924147,-740.205942,9474.636058
2728.305368,-612.876398,-888.247130,8364.327145
2728.305697,-1915.238745,-1110.308913,9474.636058
2728.306026,-2068.457845,-1776.494261,8956.491898
2728.306355,-995.924147,-888.247130,8660.409521
2728.306684,-459.657299,-814.226536,8808.450710
2728.307013,-229.828649,-962.267725,8512.368333
2728.307342,-153.219100,-370.102971,8142.265362
2728.307670,-459.657299,-1036.288319,8956.491898
2728.307999,459.657299,-0.000000,8216.285956
2728.308328,536.266849,740.205942,7402.059420
2728.308657,766.095498,444.123565,8142.265362
2728.308986,459.657299,-0.000000,10584.944971
2728.309315,76.609550,370.102971,9548.656652
2728.309644,459.657299,222.061783,8734.430116
2728.309973,766.095498,148.041188,9770.718434
2728.310302,612.876398,-0.000000,9474.636058
2728.310631,995.924147,518.144159,9104.533087
2728.310960,689.485948,-222.061783,9178.553681
2728.311289,229.828649,444.123565,8586.388927
2728.311618,919.314598,740.205942,9400.615463
2728.311947,459.657299,-148.041188,10140.821405
2728.312276,-1149.143247,148.041188,9474.636058
2728.312605,612.876398,-0.000000,9400.615463
2728.312933,766.095498,-1036.288319,9400.615463
2728.313262,229.828649,-370.102971,10066.800811
2728.313591,919.314598,-0.000000,9622.677246
2728.313920,612.876398,-518.144159,9178.553681
2728.314249,919.314598,296.082377,10955.047942
2728.314578,1685.410096,592.164754,8216.285956
2728.314907,1378.971896,-296.082377,9326.594869
2728.315236,1225.752797,1110.308913,9992.780217
2728.315565,2374.896044,1258.350101,7994.224174
2728.315894,1302.362347,518.144159,8216.285956
2728.316223,-306.438199,-74.020594,8438.347739
2728.316552,459.657299,-1332.370696,9400.615463
2728.316881,-153.219100,-962.267725,9178.553681
2728.317210,-153.219100,-0.000000,8290.306550
2728.317539,-842.705048,-888.247130,10288.862594
2728.317868,-383.047749,-1776.494261,8438.347739
2728.318196,-995.924147,370.102971,9178.553681
2728.318525,0.000000,-74.020594,9474.636058
2728.318854,-306.438199,-962.267725,7402.059420
2728.319183,1149.143247,1036.288319,9178.553681
2728.319512,459.657299,1628.453072,8808.450710
2728.319841,0.000000,814.226536,8068.244768
2728.320170,-612.876398,296.082377,7698.141797
2728.320499,-842.705048,888.247130,7994.224174
2728.320828,-1991.848295,-222.061783,9474.636058
2728.321157,-3140.991542,-814.226536,9104.533087
2728.321486,-2911.162892,-1628.453072,9622.677246
2728.321815,-2757.943793,-1184.329507,9844.739029
2728.322144,-3907.087040,-518.144159,9326.594869
2728.322473,-3447.429741,-1406.391290,9696.697840
2728.322802,-3524.039291,-222.061783,8882.471304
2728.323131,-3294.210641,-148.041188,8808.450710
2728.323459,-2757.943793,-1332.370696,9474.636058
2728.323788,-2834.553343,296.082377,9030.512492
2728.324117,-2834.553343,-0.000000,9622.677246
2728.324446,-3447.429741,296.082377,8142.265362
2728.324775,-3294.210641,-0.000000,9326.594869
2728.325104,-3677.258390,-296.082377,9326.594869
2728.325433,-3064.381992,-74.020594,8882.471304
2728.325762,-3064.381992,-1776.494261,9770.718434
2728.326091,-2528.115143,-592.164754,9178.553681
2728.326420,-2987.772442,-1258.350101,8808.450710
2728.326749,-3140.991542,-1924.535449,9992.780217
2728.327078,-3217.601092,-814.226536,9252.574275
2728.327407,-2451.505594,-1036.288319,8512.368333
2728.327736,-2528.115143,-1110.308913,9104.533087
2728.328065,-1762.019645,-592.164754,9992.780217
2728.328393,-1532.190996,-148.041188,8882.471304
2728.328722,-1685.410096,222.061783,7994.224174
2728.329051,-1608.800546,962.267725,9104.533087
2728.329380,-1608.800546,1776.494261,7254.018232
2728.329709,-995.924147,1332.370696,7624.121203
2728.330038,-1991.848295,1184.329507,7920.203579
2728.330367,-1762.019645,-0.000000,9104.533087
2728.330696,-2298.286494,-666.185348,8660.409521
2728.331025,-2528.115143,-1702.473667,9400.615463
2728.331354,-4060.306139,-222.061783,8956.491898
2728.331683,-4060.306139,-74.020594,9400.615463
2728.332012,-3907.087040,-1036.288319,8882.471304
2728.332341,-3753.867940,-592.164754,10140.821405
2728.332670,-2911.162892,-814.226536,10510.924376
2728.332999,-1685.410096,-740.205942,9696.697840
2728.333328,-2528.115143,-592.164754,8808.450710
2728.333656,-2987.772442,592.164754,9030.512492
2728.333985,-3140.991542,-74.020594,9178.553681
2728.334314,-2911.162892,1406.391290,8808.450710
2728.334643,-1302.362347,1184.329507,9104.533087
2728.334972,-1685.410096,-0.000000,8882.471304
2728.335301,-1838.629195,-444.123565,8882.471304
2728.335630,-1302.362347,-666.185348,9400.615463
2728.335959,-1532.190996,-296.082377,8808.450710
2728.336288,-1915.238745,-0.000000,9030.512492
2728.336617,-2374.896044,-444.123565,9548.656652
2728.336946,-1685.410096,-0.000000,9696.697840
2728.337275,-1149.143247,296.082377,8586.388927
2728.337604,-766.095498,-0.000000,8512.368333
2728.337933,-2145.067394,-666.185348,9622.677246
2728.338262,-2145.067394,-1036.288319,10140.821405
2728.338591,-2145.067394,814.226536,8512.368333
2728.338919,-2374.896044,888.247130,7846.182985
2728.339248,-2451.505594,-222.061783,8808.450710
2728.339577,-2221.676944,-74.020594,9918.759623
2728.339906,-2834.553343,-518.144159,9326.594869
2728.340235,-2145.067394,-1258.350101,7846.182985
2728.340564,-3370.820191,-1850.514855,8142.265362
2728.340893,-4903.011187,-1554.432478,9622.677246
2728.341222,-3753.867940,-1184.329507,10362.883188
2728.341551,-4060.306139,-666.185348,9326.594869
2728.341880,-3600.648841,-1554.432478,8734.430116
2728.342209,-2451.505594,-592.164754,9252.574275
2728.342538,-2834.553343,-0.000000,10214.842000
2728.342867,-1915.238745,740.205942,9326.594869
2728.343196,-1455.581446,666.185348,7994.224174
2728.343525,-1991.848295,370.102971,8512.368333
2728.343854,-2145.067394,-296.082377,8882.471304
2728.344182,-1762.019645,-0.000000,9326.594869
2728.344511,-1685.410096,962.267725,7328.038826
2728.344840,-536.266849,962.267725,8290.306550
2728.345169,-1991.848295,296.082377,8660.409521
2728.345498,-2374.896044,-222.061783,9548.656652
2728.345827,-2451.505594,-740.205942,8882.471304
2728.346156,-1991.848295,-296.082377,8808.450710
2728.346485,-1991.848295,-740.205942,8586.388927
2728.346814,-2374.896044,-666.185348,9104.533087
2728.347143,-1991.848295,-1628.453072,10214.842000
2728.347472,-2221.676944,-1110.308913,9918.759623
2728.347801,-2068.457845,-148.041188,9474.636058
2728.348130,-2528.115143,444.123565,9548.656652
2728.348459,-1991.848295,1258.350101,8956.491898
2728.348788,-2068.457845,814.226536,9326.594869
2728.349116,-2221.676944,-148.041188,9104.533087
2728.349445,-1455.581446,518.144159,9400.615463
2728.349774,-1608.800546,1110.308913,8512.368333
2728.350103,-2911.162892,592.164754,7550.100608
2728.350432,-2374.896044,-370.102971,8808.450710
2728.350761,-3140.991542,-2072.576638,8882.471304
2728.351090,-4443.353888,-1850.514855,9474.636058
2728.351419,-4519.963438,-1850.514855,10807.006753
2728.351748,-4903.011187,-1184.329507,8734.430116
2728.352077,-4443.353888,-962.267725,9252.574275
2728.352406,-4749.792088,-296.082377,10140.821405
2728.352735,-4136.915689,-1480.411884,10658.965565
2728.353064,-3217.601092,370.102971,9992.780217
2728.353393,-2451.505594,814.226536,8364.327145
2728.353722,-1455.581446,1406.391290,7920.203579
2728.354051,-1302.362347,962.267725,7772.162391
2728.354379,-1149.143247,888.247130,9030.512492
2728.354708,-2068.457845,-592.164754,8882.471304
2728.355037,-1991.848295,-0.000000,8216.285956
2728.355366,-2298.286494,-518.144159,8438.347739
2728.355695,-2451.505594,222.061783,8290.306550
2728.356024,-2987.772442,-0.000000,9104.533087
2728.356353,-2757.943793,-0.000000,8808.450710
2728.356682,-2681.334243,-222.061783,9326.594869
2728.357011,-2604.724693,-0.000000,9474.636058
2728.357340,-2451.505594,-0.000000,9326.594869
2728.357669,-3370.820191,-148.041188,9992.780217
2728.357998,-3677.258390,-370.102971,10140.821405
2728.358327,-3217.601092,-370.102971,9992.780217
2728.358656,-2681.334243,-666.185348,9400.615463
2728.358985,-1762.019645,222.061783,8660.409521
2728.359314,-1302.362347,-74.020594,7994.224174
2728.359643,-1915.238745,-1036.288319,8734.430116
2728.359972,-2374.896044,-1110.308913,9104.533087
2728.360301,-2604.724693,-1036.288319,9030.512492
2728.360630,-3064.381992,-888.247130,9178.553681
2728.360959,-2757.943793,-0.000000,9548.656652
2728.361288,-3294.210641,-444.123565,9104.533087
2728.361617,-3064.381992,-0.000000,9474.636058
2728.361946,-3140.991542,-0.000000,9548.656652
2728.362275,-2681.334243,-666.185348,9400.615463
2728.362604,-2145.067394,-962.267725,9326.594869
2728.362933,-1149.143247,-1184.329507,9030.512492
2728.363262,-1608.800546,-518.144159,8956.491898
2728.363591,-1302.362347,370.102971,8068.244768
2728.363920,-689.485948,-0.000000,8586.388927
2728.364249,-766.095498,296.082377,8068.244768
2728.364578,-383.047749,962.267725,7328.038826
2728.364907,-306.438199,370.102971,7550.100608
2728.365236,-1072.533697,-74.020594,6957.935855
2728.365565,-2451.505594,-0.000000,8586.388927
2728.365894,-3140.991542,-1184.329507,9622.677246
2728.366223,-3370.820191,-1406.391290,9548.656652
2728.366552,-3753.867940,-1258.350101,9474.636058
2728.366881,-4596.572988,-1702.473667,9622.677246
2728.367210,-5515.887586,-1850.514855,11029.068536
2728.367539,-5056.230287,-1406.391290,11177.109724
2728.367868,-3600.648841,-592.164754,10584.944971
2728.368197,-1991.848295,-444.123565,9622.677246
2728.368526,-1072.533697,740.205942,8438.347739
2728.368855,-842.705048,2072.576638,6957.935855
2728.369184,-1149.143247,1406.391290,8216.285956
2728.369513,0.000000,-0.000000,9770.718434
2728.369841,1378.971896,1110.308913,5995.668130
2728.370170,2221.676944,740.205942,7846.182985
2728.370499,-153.219100,-0.000000,6735.874072
2728.370828,-1378.971896,-296.082377,9030.512492
2728.371157,-2681.334243,-740.205942,10214.842000
2728.371486,-2681.334243,-666.185348,9918.759623
2728.371815,-1915.238745,-1184.329507,10436.903782
2728.372144,-3064.381992,-74.020594,9104.533087
2728.372473,-3294.210641,-814.226536,9622.677246
2728.372802,-4903.011187,-666.185348,10362.883188
2728.373131,-3907.087040,-148.041188,9474.636058
2728.373460,-3600.648841,-740.205942,9030.512492
2728.373789,-3064.381992,-370.102971,9030.512492
2728.374118,-3677.258390,-296.082377,8364.327145
2728.374447,-3677.258390,-2146.597232,8512.368333
2728.374776,-3217.601092,-1480.411884,9104.533087
2728.375105,-2911.162892,-1036.288319,8586.388927
2728.375434,-2911.162892,-1776.494261,9326.594869
2728.375763,-3677.258390,-518.144159,9178.553681
2728.376092,-3753.867940,-518.144159,9474.636058
2728.376421,-4366.744339,-222.061783,9400.615463
2728.376750,-3753.867940,-296.082377,9548.656652
2728.377079,-3064.381992,814.226536,9030.512492
2728.377408,-2528.115143,1554.432478,8882.471304
2728.377737,-2145.067394,2146.597232,8438.347739
2728.378066,-2451.505594,1702.473667,7772.162391
2728.378395,-1838.629195,2220.617826,7179.997637
2728.378724,-1455.581446,1184.329507,7476.080014
2728.379053,-1838.629195,1184.329507,7846.182985
2728.379382,-1991.848295,148.041188,7772.162391
2728.379711,-2221.676944,-148.041188,8808.450710
2728.380040,-2834.553343,-0.000000,8586.388927
2728.380369,-3064.381992,1258.350101,9178.553681
2728.380698,-2987.772442,1258.350101,8882.471304
2728.381027,-2834.553343,1406.391290,9548.656652
2728.381356,-3064.381992,1480.411884,10214.842000
2728.381685,-4213.525239,-222.061783,11251.130318
2728.382014,-4519.963438,-0.000000,11473.192101
2728.382343,-2604.724693,-0.000000,11769.274478
2728.382672,-1838.629195,592.164754,9622.677246
2728.383001,-306.438199,444.123565,9696.697840
2728.383330,-842.705048,1924.535449,8734.430116
2728.383659,0.000000,-296.082377,12361.439231
2728.383988,2374.896044,2220.617826,7328.038826
2728.384317,4903.011187,3256.906145,6587.832884
2728.384646,4596.572988,3997.112087,5181.441594
2728.384975,3447.429741,4589.276840,5773.606348
2728.385304,3677.258390,4367.215058,9030.512492
2728.385633,2068.457845,4367.215058,6883.915261
2728.385962,2451.505594,2812.782580,9474.636058
2728.386291,536.266849,1554.432478,9992.780217
2728.386620,-1302.362347,1924.535449,10362.883188
2728.386949,-2298.286494,-148.041188,12435.459826
2728.387278,-1915.238745,1850.514855,10066.800811
2728.387607,-919.314598,1554.432478,10732.986159
2728.387936,-919.314598,1554.432478,10362.883188
2728.388264,0.000000,3701.029710,9844.739029
2728.388593,842.705048,2368.659014,7920.203579
2728.388922,1532.190996,2960.823768,7920.203579
2728.389251,2757.943793,5329.482782,5699.585753
2728.389580,2451.505594,4219.173869,6661.853478
2728.389909,1532.190996,4885.359217,7772.162391
2728.390238,612.876398,4515.256246,7920.203579
2728.390567,-842.705048,2812.782580,9252.574275
2728.390896,-3370.820191,2886.803174,9548.656652
2728.391225,-3140.991542,1184.329507,11251.130318
2728.391554,-3447.429741,1924.535449,10510.924376
2728.391883,-3140.991542,4219.173869,9474.636058
2728.392212,-3830.477490,2220.617826,11177.109724
2728.392541,-4060.306139,2294.638420,11399.171507
2728.392870,-3217.601092,3256.906145,11473.192101
2728.393199,-1838.629195,1924.535449,10436.903782
2728.393528,-383.047749,3182.885551,8956.491898
2728.393857,-842.705048,3701.029710,8364.327145
2728.394186,-689.485948,3552.988522,10288.862594
2728.394515,1072.533697,3034.844362,11917.315666
2728.394844,2681.334243,4737.318029,6439.791695
2728.395173,5056.230287,5033.400406,7920.203579
2728.395502,3830.477490,5329.482782,5107.421000
2728.395831,4290.134789,6587.832884,7550.100608
2728.396160,2911.162892,6883.915261,6957.935855
2728.396489,2451.505594,5847.626942,7920.203579
2728.396818,1685.410096,5477.523971,9326.594869
2728.397147,76.609550,6143.709319,7920.203579
2728.397476,0.000000,4293.194464,8216.285956
2728.397805,-1762.019645,2368.659014,9474.636058
2728.398134,-842.705048,-1850.514855,11325.150913
2728.398463,-1149.143247,1332.370696,10584.944971
2728.398792,-1532.190996,-1036.288319,11473.192101
2728.399121,-1608.800546,1628.453072,9104.533087
2728.399450,-229.828649,1998.556043,11621.233289
2728.399779,1915.238745,3182.885551,7920.203579
2728.400108,1915.238745,4367.215058,7624.121203
2728.400437,3370.820191,4293.194464,7402.059420
2728.400766,3217.601092,4885.359217,7846.182985
2728.401095,2068.457845,5107.421000,7624.121203
2728.401424,1149.143247,3701.029710,6957.935855
2728.401753,-1149.143247,1480.411884,9474.636058
2728.402082,-1991.848295,-740.205942,12509.480420
2728.402411,-2911.162892,740.205942,9622.677246
2728.402740,-1838.629195,296.082377,12657.521608
2728.403069,-3140.991542,-0.000000,8808.450710
2728.403398,-1532.190996,1998.556043,11103.089130
2728.403727,-1455.581446,2368.659014,8438.347739
2728.404056,-919.314598,2664.741391,9104.533087
2728.404385,0.000000,1184.329507,11473.192101
2728.404714,2681.334243,1184.329507,8512.368333
2728.405043,4596.572988,3108.864956,7698.141797
2728.405372,3217.601092,2886.803174,5107.421000
2728.405701,2451.505594,3108.864956,6143.709319
2728.406030,3524.039291,4515.256246,8586.388927
2728.406358,2681.334243,4663.297435,6883.915261
2728.406687,1838.629195,4737.318029,7105.977043
2728.407016,1149.143247,3923.091493,8438.347739
2728.407345,-1608.800546,1480.411884,8512.368333
2728.407674,-2911.162892,-3552.988522,13027.624579
2728.408003,-3447.429741,1332.370696,10362.883188
2728.408332,-2681.334243,-2886.803174,11399.171507
2728.408661,-3600.648841,296.082377,9474.636058
2728.408990,-1532.190996,2960.823768,10881.027347
2728.409319,306.438199,1998.556043,8882.471304
2728.409648,0.000000,1924.535449,9770.718434
2728.409977,3830.477490,2442.679609,8586.388927
2728.410306,4366.744339,3849.070898,7920.203579
2728.410635,3983.696590,5699.585753,5477.523971
2728.410964,3524.039291,6365.771101,4441.235652
2728.411293,4136.915689,2812.782580,9104.533087
2728.411622,2221.676944,5921.647536,6217.729913
2728.411951,3753.867940,2368.659014,7920.203579
2728.412280,995.924147,4885.359217,7402.059420
2728.412609,-612.876398,3775.050304,7920.203579
2728.412938,-4443.353888,-1924.535449,15618.345376
2728.413267,-5209.449386,-962.267725,13101.645173
2728.413596,-3600.648841,1332.370696,10362.883188
2728.413925,-3064.381992,-4293.194464,11029.068536
2728.414254,-4366.744339,740.205942,10140.821405
2728.414583,-1991.848295,592.164754,12731.542202
2728.414912,-1378.971896,2368.659014,9104.533087
2728.415241,-3294.210641,5033.400406,8586.388927
2728.415570,2068.457845,-0.000000,13249.686362
2728.415899,2757.943793,5625.565159,7031.956449
2728.416228,3907.087040,5699.585753,7698.141797
2728.416557,2834.553343,2886.803174,4515.256246
2728.416886,2451.505594,6217.729913,6217.729913
2728.417215,1455.581446,5699.585753,9474.636058
2728.417544,-1149.143247,6217.729913,6957.935855
2728.417873,-383.047749,6661.853478,9622.677246
2728.418202,-689.485948,3108.864956,8364.327145
2728.418531,-1072.533697,3108.864956,10584.944971
2728.418860,-3294.210641,962.267725,12805.562797
2728.419189,-1302.362347,-444.123565,10362.883188
2728.419518,-842.705048,148.041188,11103.089130
2728.419847,0.000000,-962.267725,10807.006753
2728.420176,-1072.533697,4145.153275,7994.224174
2728.420505,229.828649,2516.700203,9474.636058
2728.420834,2145.067394,4737.318029,7920.203579
2728.421163,3140.991542,7328.038826,7846.182985
2728.421492,3830.477490,5107.421000,7698.141797
2728.421821,1455.581446,4737.318029,10066.800811
2728.422150,306.438199,5181.441594,9918.759623
2728.422479,383.047749,4737.318029,6809.894666
2728.422808,1302.362347,3404.947333,8512.368333
2728.423137,2298.286494,1554.432478,10584.944971
2728.423466,612.876398,1406.391290,9770.718434
2728.423795,0.000000,370.102971,10066.800811
2728.424124,0.000000,2220.617826,8734.430116
2728.424452,612.876398,962.267725,10288.862594
2728.424781,229.828649,4663.297435,8512.368333
2728.425110,153.219100,4885.359217,9178.553681
2728.425439,766.095498,3627.009116,8660.409521
2728.425768,1915.238745,3478.967927,8364.327145
2728.426097,3600.648841,4367.215058,7920.203579
2728.426426,2374.896044,3256.906145,8586.388927
2728.426755,689.485948,2590.720797,8438.347739
2728.427084,229.828649,1702.473667,9252.574275
2728.427413,-842.705048,1850.514855,9474.636058
2728.427742,-1378.971896,2368.659014,10955.047942
2728.428071,-1915.238745,1850.514855,9918.759623
2728.428400,-2604.724693,1702.473667,10584.944971
2728.428729,-2298.286494,666.185348,10140.821405
2728.429058,-842.705048,-148.041188,9770.718434
2728.429387,-1608.800546,592.164754,9992.780217
2728.429716,-1225.752797,2220.617826,9918.759623
2728.430045,1838.629195,2294.638420,8364.327145
2728.430374,3370.820191,3108.864956,7328.038826
2728.430703,2681.334243,2664.741391,7402.059420
2728.431032,919.314598,3182.885551,7846.182985
2728.431361,1072.533697,3997.112087,7772.162391
2728.431690,2834.553343,3330.926739,8290.306550
2728.432019,2757.943793,3701.029710,7031.956449
2728.432348,1072.533697,4441.235652,7476.080014
2728.432677,0.000000,1258.350101,10510.924376
2728.433006,-536.266849,-0.000000,10584.944971
2728.433335,-1608.800546,740.205942,9918.759623
2728.433664,-2757.943793,1554.432478,10066.800811
2728.433993,-3370.820191,-0.000000,11769.274478
2728.434322,-2528.115143,1036.288319,10510.924376
2728.434651,-689.485948,1702.473667,8068.244768
2728.434980,-1149.143247,2664.741391,7994.224174
2728.435309,612.876398,3552.988522,8438.347739
2728.435638,1378.971896,4293.194464,7920.203579
2728.435967,1302.362347,5181.441594,6735.874072
2728.436296,689.485948,3552.988522,7402.059420
2728.436625,1149.143247,2368.659014,8364.327145
2728.436954,1455.581446,1924.535449,9400.615463
2728.437283,842.705048,1702.473667,9918.759623
2728.437612,306.438199,2368.659014,9918.759623
2728.437941,-306.438199,2294.638420,10288.862594
2728.438270,-1225.752797,2516.700203,10140.821405
2728.438599,-2374.896044,3034.844362,10658.965565
2728.438928,0.000000,1332.370696,10807.006753
2728.439257,766.095498,2516.700203,8734.430116
2728.439586,1302.362347,3404.947333,9474.636058
2728.439915,1685.410096,1332.370696,9696.697840
2728.440244,2451.505594,1406.391290,8512.368333
2728.440573,1532.190996,2960.823768,7920.203579
2728.440902,842.705048,3256.906145,7698.141797
2728.441231,1072.533697,3108.864956,7994.224174
2728.441560,1762.019645,4071.132681,7920.203579
2728.441889,2528.115143,4071.132681,9400.615463
2728.442218,1608.800546,3701.029710,8142.265362
2728.442546,2604.724693,1480.411884,8882.471304
2728.442875,766.095498,2516.700203,9622.677246
2728.443204,-306.438199,1258.350101,10658.965565
2728.443533,-1072.533697,1332.370696,10732.986159
2728.443862,-612.876398,148.041188,10807.006753
2728.444191,-1608.800546,2146.597232,9844.739029
2728.444520,-1455.581446,1110.308913,10732.986159
2728.444849,-842.705048,1184.329507,8956.491898
2728.445178,-842.705048,2516.700203,8290.306550
2728.445507,0.000000,1258.350101,8290.306550
2728.445836,0.000000,814.226536,8512.368333
2728.446165,383.047749,-0.000000,8956.491898
2728.446494,689.485948,-444.123565,8512.368333
2728.446823,0.000000,444.123565,8882.471304
2728.447152,0.000000,148.041188,8882.471304
2728.447481,-383.047749,1480.411884,9326.594869
2728.447810,229.828649,2072.576638,9400.615463
2728.448139,383.047749,148.041188,8956.491898
2728.448468,383.047749,1110.308913,9178.553681
2728.448797,536.266849,-1036.288319,9400.615463
2728.449126,306.438199,-888.247130,9474.636058
2728.449455,1072.533697,740.205942,9326.594869
2728.449784,766.095498,-0.000000,7179.997637
2728.450113,459.657299,-740.205942,8216.285956
2728.450442,842.705048,518.144159,8882.471304
2728.450771,1378.971896,-296.082377,7402.059420
2728.451100,1378.971896,-0.000000,6809.894666
2728.451429,766.095498,740.205942,8660.409521
2728.451758,76.609550,518.144159,7994.224174
2728.452087,-383.047749,-518.144159,9178.553681
2728.452416,0.000000,-518.144159,8956.491898
2728.452745,0.000000,-1628.453072,9474.636058
2728.453074,-459.657299,-518.144159,9918.759623
2728.453403,0.000000,-1036.288319,10288.862594
2728.453732,306.438199,-0.000000,8882.471304
2728.454061,306.438199,592.164754,8586.388927
2728.454390,306.438199,222.061783,8882.471304
2728.454719,0.000000,296.082377,9622.677246
2728.455048,1149.143247,814.226536,7920.203579
2728.455377,1225.752797,-370.102971,7846.182985
2728.455706,0.000000,-296.082377,9178.553681
2728.456035,-229.828649,-740.205942,9400.615463
2728.456364,-536.266849,-1924.535449,9696.697840
2728.456693,-919.314598,-2072.576638,10362.883188
2728.457023,-689.485948,-1184.329507,9548.656652
2728.457352,-536.266849,-1332.370696,9918.759623
2728.457681,-612.876398,-0.000000,9622.677246
2728.458010,153.219100,-0.000000,9992.780217
2728.458339,229.828649,-74.020594,9622.677246
2728.458668,306.438199,-74.020594,9178.553681
2728.458997,1225.752797,-74.020594,10288.862594
2728.459326,1378.971896,296.082377,8438.347739
2728.459655,1149.143247,-1110.308913,9474.636058
2728.459984,1149.143247,-1184.329507,9696.697840
2728.460313,536.266849,-296.082377,8438.347739
2728.460642,842.705048,-888.247130,8438.347739
2728.460971,766.095498,666.185348,8290.306550
2728.461300,1149.143247,962.267725,8882.471304
2728.461630,689.485948,-296.082377,8438.347739
2728.461959,459.657299,666.185348,8364.327145
2728.462288,459.657299,222.061783,8512.368333
2728.462617,229.828649,-1036.288319,9178.553681
2728.462946,-306.438199,-1036.288319,9622.677246
2728.463275,459.657299,-888.247130,9696.697840
2728.463604,383.047749,-740.205942,7698.141797
2728.463933,0.000000,444.123565,9252.574275
2728.464262,229.828649,-0.000000,9400.615463
2728.464591,612.876398,-370.102971,7550.100608
2728.464920,842.705048,962.267725,8660.409521
2728.465249,1072.533697,-74.020594,8882.471304
2728.465578,842.705048,-1332.370696,7994.224174
2728.465908,459.657299,-1332.370696,8882.471304
2728.466237,919.314598,-814.226536,8586.388927
2728.466566,306.438199,-74.020594,7550.100608
2728.466895,-229.828649,-1110.308913,8956.491898
2728.467224,383.047749,444.123565,9104.533087
2728.467553,766.095498,-0.000000,9104.533087
2728.467882,153.219100,814.226536,8290.306550
2728.468211,-919.314598,-0.000000,9400.615463
2728.468540,-689.485948,-592.164754,10066.800811
2728.468869,0.000000,-1184.329507,9252.574275
2728.469198,76.609550,-1036.288319,9474.636058
2728.469527,-842.705048,-1110.308913,10955.047942
2728.469856,306.438199,-1036.288319,8882.471304
2728.470185,0.000000,148.041188,9400.615463
2728.470515,919.314598,1184.329507,9104.533087
2728.470844,689.485948,1110.308913,7994.224174
2728.471173,1072.533697,1332.370696,8734.430116
2728.471502,1149.143247,592.164754,9474.636058
2728.471831,306.438199,-1110.308913,9474.636058
2728.472160,536.266849,-444.123565,8956.491898
2728.472489,0.000000,-740.205942,9622.677246
2728.472818,-766.095498,-888.247130,10066.800811
2728.473147,-612.876398,-814.226536,9474.636058
2728.473476,-459.657299,-148.041188,9770.718434
2728.473805,0.000000,-222.061783,10066.800811
2728.474134,153.219100,-0.000000,9326.594869
2728.474463,536.266849,-0.000000,10066.800811
2728.474793,612.876398,592.164754,8438.347739
2728.475122,842.705048,740.205942,7772.162391
2728.475451,766.095498,-222.061783,9252.574275
2728.475780,1455.581446,-74.020594,9400.615463
2728.476109,1302.362347,-666.185348,8586.388927
2728.476438,689.485948,-74.020594,8216.285956
2728.476767,0.000000,518.144159,9622.677246
2728.477096,-153.219100,-74.020594,8882.471304
2728.477425,-612.876398,-0.000000,9474.636058
2728.477754,-383.047749,-1332.370696,9918.759623
2728.478083,0.000000,-1406.391290,9548.656652
2728.478412,-229.828649,-740.205942,9178.553681
2728.478741,0.000000,-814.226536,9918.759623
2728.479070,1072.533697,-444.123565,8216.285956
2728.479400,1149.143247,-444.123565,8734.430116
2728.479729,1225.752797,888.247130,9326.594869
2728.480058,1608.800546,518.144159,7920.203579
2728.480387,1072.533697,666.185348,7698.141797
2728.480716,689.485948,518.144159,8808.450710
2728.481045,1072.533697,-0.000000,8364.327145
2728.481374,306.438199,-1184.329507,7920.203579
2728.481703,689.485948,-1110.308913,9918.759623
2728.482032,306.438199,-1406.391290,9400.615463
2728.482361,-459.657299,-2220.617826,9474.636058
2728.482690,0.000000,-296.082377,9474.636058
2728.483019,842.705048,-518.144159,8438.347739
2728.483348,459.657299,592.164754,8068.244768
2728.483678,689.485948,518.144159,8216.285956
2728.484007,1302.362347,888.247130,8734.430116
2728.484336,1608.800546,-0.000000,8734.430116
2728.484665,842.705048,444.123565,7772.162391
2728.484994,0.000000,296.082377,8734.430116
2728.485323,-153.219100,-666.185348,8586.388927
2728.485652,-766.095498,-888.247130,9252.574275
2728.485981,-766.095498,-888.247130,10584.944971
2728.486310,0.000000,-2368.659014,9252.574275
2728.486639,-766.095498,-0.000000,9030.512492
2728.486968,-536.266849,-74.020594,10436.903782
2728.487297,-689.485948,-0.000000,7624.121203
2728.487626,76.609550,-0.000000,9400.615463
2728.487955,689.485948,1776.494261,9400.615463
2728.488285,1149.143247,-0.000000,8142.265362
2728.488614,919.314598,1332.370696,8512.368333
2728.488943,383.047749,370.102971,9178.553681
2728.489272,459.657299,-370.102971,10066.800811
2728.489601,0.000000,-296.082377,8438.347739
2728.489930,-612.876398,-1554.432478,9696.697840
2728.490259,-612.876398,-666.185348,11399.171507
2728.490588,-306.438199,-1184.329507,9992.780217
2728.490917,0.000000,-1406.391290,9770.718434
2728.491246,76.609550,-0.000000,9252.574275
2728.491575,536.266849,1110.308913,8956.491898
2728.491904,1302.362347,1110.308913,9030.512492
2728.492233,2145.067394,1258.350101,9252.574275
2728.492563,2451.505594,1184.329507,8660.409521
2728.492892,1915.238745,1628.453072,7328.038826
2728.493221,1225.752797,444.123565,9992.780217
2728.493550,1072.533697,-222.061783,9696.697840
2728.493879,689.485948,-222.061783,7994.224174
2728.494208,0.000000,-222.061783,9992.780217
2728.494537,0.000000,-962.267725,10510.924376
2728.494866,0.000000,-740.205942,9696.697840
2728.495195,-995.924147,-1110.308913,10140.821405
2728.495524,459.657299,-222.061783,9030.512492
2728.495853,306.438199,444.123565,9252.574275
2728.496182,306.438199,222.061783,9178.553681
2728.496511,1072.533697,-0.000000,9400.615463
2728.496840,1225.752797,-0.000000,7772.162391
2728.497170,612.876398,296.082377,7476.080014
2728.497499,689.485948,888.247130,8216.285956
2728.497828,383.047749,-592.164754,8438.347739
2728.498157,153.219100,-444.123565,7846.182985
2728.498486,153.219100,-1036.288319,9474.636058
2728.498815,-306.438199,-1258.350101,9844.739029
2728.499144,-383.047749,-1924.535449,8808.450710
2728.499473,-536.266849,-592.164754,9030.512492
2728.499802,0.000000,-370.102971,9326.594869
2728.500131,383.047749,-370.102971,8364.327145
2728.500460,0.000000,-444.123565,9178.553681
2728.500789,766.095498,-296.082377,8882.471304
2728.501118,842.705048,518.144159,7624.121203
2728.501447,-229.828649,-370.102971,8734.430116
2728.501777,76.609550,-296.082377,8882.471304
2728.502106,229.828649,-1036.288319,8586.388927
2728.502435,-536.266849,-296.082377,9696.697840
2728.502764,-229.828649,-962.267725,9844.739029
2728.503093,0.000000,-1258.350101,9770.718434
2728.503422,76.609550,-814.226536,9844.739029
2728.503751,459.657299,-0.000000,9548.656652
2728.504080,1072.533697,444.123565,9400.615463
2728.504409,1302.362347,296.082377,9474.636058
2728.504738,1915.238745,1554.432478,9030.512492
2728.505067,1762.019645,814.226536,9178.553681
2728.505396,1149.143247,1184.329507,8882.471304
2728.505725,689.485948,1332.370696,8734.430116
2728.506055,766.095498,444.123565,9326.594869
2728.506384,0.000000,-814.226536,8882.471304
2728.506713,-612.876398,-592.164754,10140.821405
2728.507042,-689.485948,-1332.370696,10436.903782
2728.507371,-1149.143247,-2220.617826,9474.636058
2728.507700,-1608.800546,-888.247130,11473.192101
2728.508029,-536.266849,-370.102971,9918.759623
2728.508358,0.000000,-740.205942,8808.450710
2728.508687,1225.752797,962.267725,8586.388927
2728.509016,2068.457845,740.205942,9770.718434
2728.509345,919.314598,740.205942,8364.327145
2728.509674,1608.800546,1702.473667,8512.368333
2728.510003,1608.800546,1406.391290,7920.203579
2728.510332,1225.752797,740.205942,8512.368333
2728.510662,0.000000,592.164754,8882.471304
2728.510991,-383.047749,-1036.288319,9696.697840
2728.511320,-919.314598,-2664.741391,9992.780217
2728.511649,-1455.581446,-1258.350101,9474.636058
2728.511978,-1378.971896,-1480.411884,11473.192101
2728.512307,-1915.238745,-1554.432478,9844.739029
2728.512636,-536.266849,-1110.308913,9178.553681
2728.512965,536.266849,-444.123565,9252.574275
2728.513294,1302.362347,-0.000000,8882.471304
2728.513623,1762.019645,592.164754,8364.327145
2728.513952,1838.629195,740.205942,7476.080014
2728.514281,1838.629195,2146.597232,7920.203579
2728.514610,2528.115143,222.061783,8142.265362
2728.514940,1378.971896,370.102971,8068.244768
2728.515269,919.314598,222.061783,9548.656652
2728.515598,612.876398,-74.020594,8364.327145
2728.515927,-383.047749,-1406.391290,9104.533087
2728.516256,-536.266849,-1702.473667,10066.800811
2728.516585,-536.266849,-1776.494261,9252.574275
2728.516914,-1225.752797,-444.123565,9474.636058
2728.517243,-766.095498,-0.000000,9474.636058
2728.517572,76.609550,-666.185348,8734.430116
2728.517901,383.047749,-148.041188,8586.388927
2728.518230,1378.971896,888.247130,8290.306550
2728.518559,995.924147,-0.000000,8290.306550
2728.518888,919.314598,370.102971,7105.977043
2728.519217,842.705048,-0.000000,9474.636058
2728.519547,1072.533697,-0.000000,8290.306550
2728.519876,766.095498,-666.185348,8290.306550
2728.520205,-306.438199,296.082377,9400.615463
2728.520534,0.000000,-222.061783,8956.491898
2728.520863,0.000000,-0.000000,9104.533087
2728.521192,-229.828649,-74.020594,9104.533087
2728.521521,76.609550,-0.000000,10214.842000
2728.521850,153.219100,-370.102971,9548.656652
2728.522179,0.000000,-814.226536,9400.615463
2728.522508,229.828649,370.102971,9178.553681
2728.522837,536.266849,-148.041188,8586.388927
2728.523166,306.438199,-0.000000,9178.553681
2728.523495,229.828649,-0.000000,10214.842000
2728.523825,459.657299,-444.123565,9918.759623
2728.524154,-229.828649,-222.061783,8438.347739
2728.524483,229.828649,740.205942,10140.821405
2728.524812,612.876398,-740.205942,10362.883188
2728.525141,536.266849,-370.102971,8586.388927
2728.525470,1149.143247,296.082377,9696.697840
2728.525799,1455.581446,-0.000000,9548.656652
2728.526128,536.266849,888.247130,9326.594869
2728.526457,689.485948,962.267725,9104.533087
2728.526786,536.266849,518.144159,9178.553681
2728.527115,612.876398,1628.453072,7994.224174
2728.527444,536.266849,592.164754,8956.491898
2728.527773,0.000000,-1036.288319,10214.842000
2728.528102,0.000000,-1184.329507,9696.697840
2728.528432,-383.047749,-1702.473667,10214.842000
2728.528761,-612.876398,-370.102971,9474.636058
2728.529090,-383.047749,-148.041188,9474.636058
2728.529419,229.828649,-888.247130,9326.594869
2728.529748,153.219100,296.082377,9178.553681
2728.530077,1302.362347,-0.000000,9178.553681
2728.530406,1378.971896,-0.000000,7105.977043
2728.530735,1225.752797,962.267725,7994.224174
2728.531064,229.828649,-0.000000,8956.491898
2728.531393,919.314598,-0.000000,7624.121203
2728.531722,766.095498,-740.205942,9104.533087
2728.532051,995.924147,-814.226536,8734.430116
2728.532380,229.828649,-1184.329507,8734.430116
2728.532710,153.219100,-1184.329507,9474.636058
2728.533039,76.609550,-518.144159,7772.162391
2728.533368,0.000000,-444.123565,7994.224174
2728.533697,76.609550,-518.144159,9770.718434
2728.534026,0.000000,-1036.288319,9696.697840
2728.534355,229.828649,-592.164754,8290.306550
2728.534684,1149.143247,-666.185348,9104.533087
2728.535013,689.485948,296.082377,8734.430116
2728.535342,612.876398,-0.000000,8068.244768
2728.535671,612.876398,-74.020594,8734.430116
2728.536000,995.924147,222.061783,9400.615463
2728.536329,689.485948,666.185348,9252.574275
2728.536658,612.876398,-666.185348,8290.306550
2728.536987,306.438199,-0.000000,9474.636058
2728.537317,612.876398,444.123565,9178.553681
2728.537646,153.219100,-518.144159,8734.430116
2728.537975,0.000000,-370.102971,10362.883188
2728.538304,229.828649,-296.082377,9696.697840
2728.538633,383.047749,-444.123565,9400.615463
2728.538962,-536.266849,-370.102971,9400.615463
2728.539291,76.609550,-370.102971,9474.636058
2728.539620,0.000000,-962.267725,9104.533087
2728.539949,76.609550,-74.020594,9326.594869
2728.540278,153.219100,-592.164754,10140.821405
2728.540607,459.657299,-592.164754,8882.471304
2728.540936,306.438199,296.082377,9252.574275
2728.541265,919.314598,-888.247130,9770.718434
2728.541595,689.485948,-666.185348,7772.162391
2728.541924,306.438199,-370.102971,9178.553681
2728.542253,536.266849,-74.020594,9696.697840
2728.542582,919.314598,-0.000000,8734.430116
2728.542911,842.705048,592.164754,8660.409521
2728.543240,536.266849,-0.000000,9474.636058
2728.543569,229.828649,1184.329507,8290.306550
2728.543898,153.219100,-0.000000,9178.553681
2728.544227,153.219100,666.185348,9178.553681
2728.544556,536.266849,-666.185348,10066.800811
2728.544885,459.657299,-740.205942,9326.594869
2728.545214,0.000000,-1036.288319,9326.594869
2728.545543,0.000000,962.267725,8956.491898
2728.545872,0.000000,222.061783,9104.533087
2728.546202,153.219100,296.082377,9474.636058
2728.546531,612.876398,-888.247130,10140.821405
2728.546860,919.314598,-592.164754,8956.491898
2728.547189,919.314598,-0.000000,8216.285956
2728.547518,1225.752797,666.185348,8882.471304
2728.547847,612.876398,814.226536,8290.306550
2728.548176,383.047749,-0.000000,8586.388927
2728.548505,459.657299,296.082377,9548.656652
2728.548834,612.876398,-518.144159,8290.306550
2728.549163,153.219100,-0.000000,8956.491898
2728.549492,-383.047749,148.041188,8882.471304
2728.549821,-229.828649,-814.226536,8956.491898
2728.550150,-995.924147,-1332.370696,9474.636058
2728.550480,-153.219100,-370.102971,9400.615463
2728.550809,0.000000,148.041188,9030.512492
2728.551138,0.000000,-814.226536,8808.450710
2728.551467,153.219100,-0.000000,8808.450710
2728.551796,612.876398,-222.061783,9252.574275
2728.552125,229.828649,-296.082377,8216.285956
2728.552454,459.657299,-148.041188,9178.553681
2728.552783,919.314598,-518.144159,9696.697840
2728.553112,689.485948,-74.020594,7624.121203
2728.553441,612.876398,-0.000000,9030.512492
2728.553770,536.266849,-148.041188,8956.491898
2728.554099,536.266849,-148.041188,8586.388927
2728.554428,-229.828649,-222.061783,9548.656652
2728.554757,306.438199,-1110.308913,9548.656652
2728.555087,536.266849,-370.102971,8734.430116
2728.555416,-306.438199,-814.226536,8808.450710
2728.555745,-229.828649,-148.041188,9918.759623
2728.556074,0.000000,-888.247130,8808.450710
2728.556404,0.000000,-1184.329507,9178.553681
2728.556733,153.219100,-370.102971,9622.677246
2728.557063,229.828649,-444.123565,9770.718434
2728.557392,459.657299,-222.061783,8586.388927
2728.557721,919.314598,370.102971,9474.636058
2728.558050,842.705048,444.123565,8808.450710
2728.558379,536.266849,-296.082377,8586.388927
2728.558708,536.266849,-444.123565,9622.677246
2728.559038,1072.533697,-740.205942,8734.430116
2728.559367,612.876398,-222.061783,8808.450710
2728.559696,0.000000,-518.144159,8808.450710
2728.560025,0.000000,-0.000000,8808.450710
2728.560354,-612.876398,-0.000000,9474.636058
2728.560683,-383.047749,-148.041188,9474.636058
2728.561013,0.000000,-814.226536,9696.697840
2728.561342,0.000000,-592.164754,8586.388927
2728.561671,689.485948,-814.226536,9326.594869
2728.562000,0.000000,444.123565,9474.636058
2728.562329,612.876398,296.082377,8956.491898
2728.562658,842.705048,592.164754,8290.306550
2728.562988,1149.143247,370.102971,8512.368333
2728.563317,1072.533697,296.082377,9104.533087
2728.563646,1225.752797,-592.164754,8438.347739
2728.563975,306.438199,-1332.370696,9474.636058
2728.564304,689.485948,-0.000000,9104.533087
2728.564633,459.657299,-444.123565,8438.347739
2728.564963,76.609550,222.061783,9474.636058
2728.565292,612.876398,-0.000000,9400.615463
2728.565621,459.657299,-1036.288319,9030.512492
2728.565950,229.828649,-0.000000,8882.471304
2728.566279,612.876398,148.041188,8882.471304
2728.566608,306.438199,-370.102971,8586.388927
2728.566938,76.609550,740.205942,9400.615463
2728.567267,536.266849,-0.000000,9548.656652
2728.567596,229.828649,-518.144159,8586.388927
2728.567925,0.000000,-222.061783,8734.430116
2728.568254,-306.438199,-518.144159,9400.615463
2728.568583,-229.828649,-222.061783,8882.471304
2728.568913,-306.438199,-518.144159,9178.553681
2728.569242,-153.219100,-1110.308913,10140.821405
2728.569571,0.000000,-222.061783,9622.677246
2728.569900,306.438199,-222.061783,8808.450710
2728.570229,76.609550,814.226536,8956.491898
2728.570558,383.047749,1036.288319,8734.430116
2728.570888,995.924147,148.041188,8364.327145
2728.571217,842.705048,296.082377,9474.636058
2728.571546,459.657299,666.185348,9918.759623
2728.571875,536.266849,-148.041188,7994.224174
2728.572204,0.000000,-0.000000,9030.512492
2728.572533,-229.828649,444.123565,9548.656652
2728.572863,-229.828649,-370.102971,8956.491898
2728.573192,-536.266849,-444.123565,9696.697840
2728.573521,-306.438199,-888.247130,9770.718434
2728.573850,229.828649,-370.102971,9770.718434
2728.574179,383.047749,-74.020594,9104.533087
2728.574509,536.266849,-222.061783,9326.594869
2728.574838,995.924147,74.020594,8586.388927
2728.575167,842.705048,-0.000000,7920.203579
2728.575496,1225.752797,-0.000000,9326.594869
2728.575825,1608.800546,370.102971,8512.368333
2728.576154,1532.190996,-0.000000,8290.306550
2728.576484,612.876398,-0.000000,8290.306550
2728.576813,0.000000,-592.164754,9400.615463
2728.577142,0.000000,-1110.308913,9622.677246
2728.577471,-536.266849,-2072.576638,9696.697840
2728.577800,76.609550,-1110.308913,10214.842000
2728.578129,459.657299,-666.185348,9030.512492
2728.578459,229.828649,-592.164754,8956.491898
2728.578788,-383.047749,296.082377,9918.759623
2728.579117,536.266849,222.061783,8438.347739
2728.579446,383.047749,1184.329507,7402.059420
2728.579775,766.095498,888.247130,9104.533087
2728.580104,1378.971896,-0.000000,8660.409521
2728.580434,306.438199,-1110.308913,9104.533087
2728.580763,0.000000,-296.082377,10140.821405
2728.581092,-612.876398,-888.247130,9474.636058
2728.581421,-1302.362347,-666.185348,9622.677246
2728.581750,-995.924147,-1406.391290,10732.986159
2728.582079,-153.219100,-814.226536,9770.718434
2728.582409,-306.438199,-1036.288319,9400.615463
2728.582738,153.219100,296.082377,9178.553681
2728.583067,1149.143247,-0.000000,8956.491898
2728.583396,1225.752797,1554.432478,8216.285956
2728.583725,1072.533697,1406.391290,8512.368333
2728.584054,1532.190996,1184.329507,8290.306550
2728.584384,1225.752797,592.164754,7476.080014
2728.584713,1532.190996,296.082377,8956.491898
2728.585042,995.924147,370.102971,8808.450710
2728.585371,-76.609550,-740.205942,9252.574275
2728.585700,-612.876398,-296.082377,9474.636058
2728.586029,-383.047749,-1184.329507,10288.862594
2728.586359,-229.828649,-1184.329507,9548.656652
2728.586688,-229.828649,-888.247130,9548.656652
2728.587017,306.438199,-444.123565,9696.697840
2728.587346,1072.533697,-0.000000,8364.327145
2728.587675,2451.505594,888.247130,8808.450710
2728.588004,2298.286494,444.123565,9178.553681
2728.588334,2374.896044,1110.308913,8290.306550
2728.588663,2374.896044,1406.391290,7254.018232
2728.588992,1302.362347,518.144159,8290.306550
2728.589321,1302.362347,370.102971,9400.615463
2728.589650,689.485948,-1184.329507,9104.533087
2728.589979,-919.314598,-1406.391290,9696.697840
2728.590309,-1225.752797,-1554.432478,10436.903782
2728.590638,-919.314598,-1332.370696,9178.553681
2728.590967,-1838.629195,-2220.617826,10140.821405
2728.591296,-1455.581446,-444.123565,10362.883188
2728.591625,-536.266849,-1702.473667,9104.533087
2728.591955,-536.266849,-592.164754,9252.574275
2728.592284,995.924147,-0.000000,9326.594869
2728.592613,1685.410096,-0.000000,8290.306550
2728.592942,919.314598,888.247130,8290.306550
2728.593271,919.314598,888.247130,8364.327145
2728.593600,842.705048,444.123565,7846.182985
2728.593930,459.657299,222.061783,8956.491898
2728.594259,153.219100,-222.061783,9548.656652
2728.594588,0.000000,-1406.391290,9474.636058
2728.594917,-995.924147,-814.226536,9252.574275
2728.595246,-306.438199,-666.185348,9622.677246
2728.595575,-229.828649,-296.082377,9474.636058
2728.595905,-383.047749,-814.226536,9400.615463
2728.596234,612.876398,-0.000000,9400.615463
2728.596563,1762.019645,-0.000000,7994.224174
2728.596892,1991.848295,1110.308913,7846.182985
2728.597221,1608.800546,1332.370696,8438.347739
2728.597550,995.924147,1184.329507,8808.450710
2728.597880,919.314598,444.123565,8364.327145
2728.598209,919.314598,-370.102971,8808.450710
2728.598538,689.485948,-518.144159,10362.883188
2728.598867,306.438199,-814.226536,9104.533087
2728.599196,0.000000,-1036.288319,9770.718434
2728.599525,-612.876398,-814.226536,10584.944971
2728.599855,0.000000,148.041188,8734.430116
2728.600184,229.828649,-0.000000,9400.615463
2728.600513,689.485948,1480.411884,8660.409521
2728.600842,1225.752797,592.164754,8438.347739
2728.601171,1532.190996,-148.041188,8290.306550
2728.601500,689.485948,-148.041188,9030.512492
2728.601830,995.924147,-148.041188,9474.636058
2728.602159,-459.657299,-592.164754,8290.306550
2728.602488,-919.314598,-1258.350101,10214.842000
2728.602817,-536.266849,-1110.308913,10140.821405
2728.603146,-612.876398,-1702.473667,9844.739029
2728.603475,-1149.143247,-666.185348,9104.533087
2728.603805,-919.314598,-74.020594,9622.677246
2728.604134,0.000000,-518.144159,9030.512492
2728.604463,76.609550,-740.205942,9104.533087
2728.604792,995.924147,-814.226536,9252.574275
2728.605121,1225.752797,-444.123565,6809.894666
2728.605450,1149.143247,-444.123565,8586.388927
2728.605780,1149.143247,296.082377,8512.368333
2728.606109,1149.143247,148.041188,7994.224174
2728.606438,153.219100,-296.082377,9252.574275
2728.606767,0.000000,-0.000000,8438.347739
2728.607096,0.000000,-592.164754,9474.636058
2728.607425,-383.047749,-1110.308913,9474.636058
2728.607755,-383.047749,-1332.370696,10140.821405
2728.608084,-306.438199,-962.267725,9474.636058
2728.608413,0.000000,-814.226536,8068.244768
2728.608742,919.314598,666.185348,9400.615463
2728.609071,2145.067394,-0.000000,8808.450710
2728.609401,1608.800546,740.205942,7476.080014
2728.609730,1378.971896,740.205942,8216.285956
2728.610059,1149.143247,1036.288319,8068.244768
2728.610388,842.705048,444.123565,8216.285956
2728.610717,76.609550,-518.144159,9400.615463
2728.611046,-306.438199,-1184.329507,9400.615463
2728.611376,-1225.752797,-1406.391290,9770.718434
2728.611705,-536.266849,-1554.432478,10362.883188
2728.612034,-842.705048,-814.226536,10510.924376
2728.612363,-612.876398,-370.102971,9474.636058
2728.612692,383.047749,-0.000000,9104.533087
2728.613021,612.876398,1480.411884,9104.533087
2728.613351,153.219100,1184.329507,8734.430116
2728.613680,1072.533697,814.226536,8364.327145
2728.614009,536.266849,1406.391290,8586.388927
2728.614338,919.314598,962.267725,9548.656652
2728.614667,229.828649,-444.123565,8290.306550
2728.614996,-766.095498,-814.226536,9844.739029
2728.615326,-536.266849,-1036.288319,10362.883188
2728.615655,0.000000,-1258.350101,9474.636058
2728.615984,-536.266849,-888.247130,10732.986159
2728.616313,-689.485948,-0.000000,9178.553681
2728.616642,-306.438199,-814.226536,9844.739029
2728.616971,76.609550,592.164754,9770.718434
2728.617301,1072.533697,518.144159,8586.388927
2728.617630,1532.190996,296.082377,8512.368333
2728.617959,1225.752797,222.061783,8438.347739
2728.618288,2451.505594,1184.329507,8660.409521
2728.618617,1608.800546,296.082377,8364.327145
2728.618946,459.657299,370.102971,8142.265362
2728.619276,76.609550,296.082377,9474.636058
2728.619605,229.828649,-370.102971,9178.553681
2728.619934,-153.219100,-1110.308913,8216.285956
2728.620263,-459.657299,-1332.370696,10362.883188
2728.620592,-995.924147,-592.164754,9400.615463
2728.620921,-1072.533697,-1480.411884,9992.780217
2728.621251,0.000000,666.185348,9326.594869
2728.621580,766.095498,-518.144159,8660.409521
2728.621909,842.705048,740.205942,8808.450710
2728.622238,842.705048,518.144159,8586.388927
2728.622567,919.314598,962.267725,8956.491898
2728.622896,995.924147,222.061783,7698.141797
2728.623226,536.266849,1036.288319,8512.368333
2728.623555,459.657299,-444.123565,9474.636058
2728.623884,0.000000,-814.226536,8660.409521
2728.624213,-459.657299,-888.247130,9770.718434
2728.624542,-612.876398,-518.144159,9770.718434
2728.624871,-689.485948,-666.185348,9474.636058
2728.625201,-1072.533697,-1036.288319,9178.553681
2728.625530,-766.095498,-962.267725,9918.759623
2728.625859,612.876398,-296.082377,8734.430116
2728.626188,1149.143247,-0.000000,8142.265362
2728.626517,842.705048,148.041188,8216.285956
2728.626847,995.924147,740.205942,8882.471304
2728.627176,1302.362347,1036.288319,8142.265362
2728.627505,1149.143247,-74.020594,8438.347739
2728.627834,1149.143247,740.205942,9474.636058
2728.628163,1302.362347,-222.061783,8734.430116
2728.628492,153.219100,-1406.391290,10436.903782
2728.628822,229.828649,-740.205942,9770.718434
2728.629151,766.095498,-1406.391290,8364.327145
2728.629480,229.828649,-0.000000,9474.636058
2728.629809,995.924147,296.082377,9474.636058
2728.630138,766.095498,-444.123565,9104.533087
2728.630467,306.438199,370.102971,8586.388927
2728.630797,766.095498,444.123565,8808.450710
2728.631126,766.095498,-0.000000,8290.306550
2728.631455,153.219100,444.123565,8364.327145
2728.631784,536.266849,-592.164754,9252.574275
2728.632113,76.609550,-740.205942,9548.656652
2728.632442,-383.047749,-1036.288319,10362.883188
2728.632772,0.000000,-370.102971,9770.718434
2728.633101,0.000000,-444.123565,8956.491898
2728.633430,153.219100,-0.000000,9030.512492
2728.633759,536.266849,-740.205942,10584.944971
2728.634088,1149.143247,-148.041188,9770.718434
2728.634417,1302.362347,-518.144159,8734.430116
2728.634747,689.485948,888.247130,8512.368333
2728.635076,919.314598,296.082377,9548.656652
2728.635405,689.485948,888.247130,8142.265362
2728.635734,536.266849,-296.082377,8660.409521
2728.636063,0.000000,-296.082377,9548.656652
2728.636392,383.047749,-1110.308913,9400.615463
2728.636722,-995.924147,-1258.350101,9622.677246
2728.637051,-306.438199,-1258.350101,9252.574275
2728.637380,0.000000,-518.144159,8808.450710
2728.637709,-229.828649,-814.226536,9474.636058
2728.638038,76.609550,-592.164754,9030.512492
2728.638367,995.924147,-74.020594,8364.327145
2728.638697,689.485948,-296.082377,7994.224174
2728.639026,689.485948,-0.000000,8882.471304
2728.639355,1149.143247,-0.000000,7402.059420
2728.639684,766.095498,-0.000000,8068.244768
2728.640013,766.095498,-148.041188,8808.450710
2728.640342,842.705048,-296.082377,8438.347739
2728.640672,0.000000,-1258.350101,8660.409521
2728.641001,-689.485948,-518.144159,8882.471304
2728.641330,-612.876398,-962.267725,8956.491898
2728.641659,-1149.143247,-444.123565,8734.430116
2728.641988,-995.924147,-666.185348,8734.430116
2728.642318,-689.485948,-1036.288319,9770.718434
2728.642647,-306.438199,-592.164754,8882.471304
2728.642976,0.000000,-0.000000,9178.553681
2728.643305,536.266849,-148.041188,9326.594869
2728.643634,536.266849,592.164754,8216.285956
2728.643963,766.095498,-222.061783,9326.594869
2728.644293,766.095498,888.247130,8956.491898
2728.644622,995.924147,814.226536,9326.594869
2728.644951,536.266849,-0.000000,8808.450710
2728.645280,76.609550,444.123565,9918.759623
2728.645609,612.876398,370.102971,8882.471304
2728.645938,153.219100,-1406.391290,8808.450710
2728.646268,-306.438199,222.061783,10658.965565
2728.646597,0.000000,-222.061783,10510.924376
2728.646926,153.219100,-666.185348,9696.697840
2728.647255,-306.438199,-0.000000,9548.656652
2728.647584,383.047749,-0.000000,9326.594869
2728.647913,995.924147,-0.000000,9696.697840
2728.648243,919.314598,1110.308913,9326.594869
2728.648572,1225.752797,1184.329507,9326.594869
2728.648901,842.705048,1110.308913,9474.636058
2728.649230,1072.533697,1184.329507,9178.553681
2728.649559,1455.581446,-0.000000,9400.615463
2728.649888,1378.971896,518.144159,8956.491898
2728.650218,919.314598,444.123565,8438.347739
2728.650547,1302.362347,296.082377,9622.677246
2728.650876,1225.752797,296.082377,9844.739029
2728.651205,995.924147,-222.061783,8808.450710
2728.651534,383.047749,370.102971,8956.491898
2728.651863,0.000000,370.102971,8808.450710
2728.652193,76.609550,-0.000000,8660.409521
2728.652522,-76.609550,296.082377,8512.368333
2728.652851,76.609550,-518.144159,9696.697840
2728.653180,459.657299,-1628.453072,8956.491898
2728.653509,76.609550,-592.164754,8808.450710
2728.653838,0.000000,296.082377,8438.347739
2728.654168,459.657299,-518.144159,8586.388927
2728.654497,229.828649,-296.082377,9104.533087
2728.654826,842.705048,-666.185348,9844.739029
2728.655155,1149.143247,296.082377,7846.182985
2728.655484,766.095498,-444.123565,8512.368333
2728.655813,229.828649,518.144159,9030.512492
2728.656142,76.609550,-740.205942,8734.430116
2728.656471,0.000000,-592.164754,9400.615463
2728.656800,76.609550,-1480.411884,9400.615463
2728.657129,76.609550,-1406.391290,9178.553681
2728.657458,0.000000,-444.123565,9252.574275
2728.657787,-536.266849,-370.102971,9622.677246
2728.658116,-383.047749,296.082377,8142.265362
2728.658446,-306.438199,-0.000000,8956.491898
2728.658775,153.219100,-296.082377,10066.800811
2728.659104,383.047749,-370.102971,9030.512492
2728.659433,919.314598,-0.000000,9178.553681
2728.659762,842.705048,-518.144159,9326.594869
2728.660091,766.095498,-0.000000,9326.594869
2728.660420,689.485948,-0.000000,8882.471304
2728.660749,842.705048,-74.020594,9030.512492
2728.661078,995.924147,1258.350101,9474.636058
2728.661407,1149.143247,-0.000000,8512.368333
2728.661736,459.657299,148.041188,8956.491898
2728.662065,766.095498,370.102971,9548.656652
2728.662394,0.000000,-370.102971,7994.224174
2728.662723,-919.314598,-1628.453072,9474.636058
2728.663052,-459.657299,-518.144159,10436.903782
2728.663381,0.000000,-1850.514855,9400.615463
2728.663710,-229.828649,-1110.308913,8808.450710
2728.664039,-612.876398,-222.061783,9400.615463
2728.664369,0.000000,-0.000000,9622.677246
2728.664698,229.828649,222.061783,8808.450710
2728.665027,689.485948,148.041188,9474.636058
2728.665356,766.095498,592.164754,9104.533087
2728.665685,919.314598,-296.082377,8364.327145
2728.666014,842.705048,148.041188,8734.430116
2728.666343,919.314598,-370.102971,8734.430116
2728.666672,536.266849,-444.123565,8808.450710
2728.667001,0.000000,-296.082377,9178.553681
2728.667330,153.219100,370.102971,9918.759623
2728.667659,0.000000,-74.020594,8660.409521
2728.667988,-459.657299,-0.000000,8438.347739
2728.668317,-995.924147,-814.226536,10362.883188
2728.668646,-919.314598,-1110.308913,9326.594869
2728.668975,0.000000,-1924.535449,9992.780217
2728.669304,766.095498,-592.164754,9252.574275
2728.669633,1378.971896,-0.000000,9474.636058
2728.669962,1072.533697,518.144159,9622.677246
2728.670291,1455.581446,1406.391290,8586.388927
2728.670621,1991.848295,1850.514855,8290.306550
2728.670950,2451.505594,1702.473667,7476.080014
2728.671279,2145.067394,1924.535449,8956.491898
2728.671608,1915.238745,666.185348,8956.491898
2728.671937,2145.067394,-666.185348,8068.244768
2728.672266,536.266849,-370.102971,8882.471304
2728.672595,0.000000,-888.247130,9252.574275
2728.672924,-383.047749,-1110.308913,9770.718434
2728.673253,-536.266849,-888.247130,9548.656652
2728.673582,-612.876398,-1110.308913,9474.636058
2728.673911,-766.095498,-1406.391290,10066.800811
2728.674240,-306.438199,-1258.350101,9474.636058
2728.674569,0.000000,-518.144159,9104.533087
2728.674898,459.657299,444.123565,8364.327145
2728.675227,689.485948,444.123565,8216.285956
2728.675556,919.314598,-222.061783,8364.327145
2728.675885,1302.362347,-0.000000,8364.327145
2728.676214,766.095498,-0.000000,8290.306550
2728.676543,0.000000,-518.144159,8882.471304
2728.676873,-459.657299,-148.041188,9178.553681
2728.677202,-383.047749,-1406.391290,9104.533087
2728.677531,-1225.752797,-518.144159,9918.759623
2728.677860,-766.095498,-1406.391290,10066.800811
2728.678189,-766.095498,-962.267725,9474.636058
2728.678518,-612.876398,-0.000000,9622.677246
2728.678847,459.657299,-518.144159,9252.574275
2728.679176,306.438199,-222.061783,9104.533087
2728.679505,0.000000,666.185348,9474.636058
2728.679834,689.485948,-148.041188,8956.491898
2728.680163,1072.533697,370.102971,8512.368333
2728.680492,995.924147,1110.308913,7994.224174
2728.680821,689.485948,296.082377,9400.615463
2728.681150,383.047749,518.144159,8956.491898
2728.681479,306.438199,-592.164754,9104.533087
2728.681808,0.000000,-148.041188,9474.636058
2728.682137,-153.219100,-814.226536,9844.739029
2728.682466,-153.219100,-296.082377,9030.512492
2728.682796,229.828649,-0.000000,9992.780217
2728.683125,612.876398,-444.123565,8586.388927
2728.683454,766.095498,-296.082377,8290.306550
2728.683783,842.705048,1258.350101,8512.368333
2728.684112,1608.800546,296.082377,8364.327145
2728.684441,1302.362347,888.247130,8290.306550
2728.684770,689.485948,962.267725,8956.491898
2728.685099,766.095498,-592.164754,8734.430116
2728.685428,0.000000,-518.144159,8808.450710
2728.685757,-766.095498,-592.164754,9474.636058
2728.686086,-383.047749,-1924.535449,9844.739029
2728.686415,-459.657299,-1628.453072,9844.739029
2728.686744,-383.047749,-1036.288319,9770.718434
2728.687073,-383.047749,-0.000000,9104.533087
2728.687402,0.000000,1184.329507,8068.244768
2728.687731,459.657299,-148.041188,9474.636058
2728.688060,842.705048,1628.453072,8734.430116
2728.688389,1455.581446,-0.000000,8068.244768
2728.688718,1608.800546,-222.061783,8142.265362
2728.689048,995.924147,-444.123565,9400.615463
2728.689377,766.095498,-888.247130,9104.533087
2728.689706,0.000000,-1332.370696,8808.450710
2728.690035,0.000000,-1406.391290,10288.862594
2728.690364,0.000000,-1184.329507,9548.656652
2728.690693,0.000000,-1332.370696,9844.739029
2728.691022,536.266849,-1110.308913,9622.677246
2728.691351,536.266849,-962.267725,9104.533087
2728.691680,842.705048,-222.061783,9252.574275
2728.692009,1072.533697,-1406.391290,9992.780217
2728.692338,1608.800546,-888.247130,9548.656652
2728.692667,1455.581446,-1702.473667,8808.450710
2728.692996,1915.238745,-1628.453072,9104.533087
2728.693325,689.485948,-1036.288319,9400.615463
2728.693654,0.000000,-1036.288319,8956.491898
2728.693983,153.219100,-1184.329507,8364.327145
2728.694312,0.000000,-1406.391290,9104.533087
2728.694641,-612.876398,-2072.576638,9400.615463
2728.694971,-153.219100,-2886.803174,9918.759623
2728.695300,76.609550,-3108.864956,9474.636058
2728.695629,-306.438199,-3108.864956,9178.553681
2728.695958,0.000000,-2442.679609,8512.368333
2728.696287,766.095498,-2960.823768,9474.636058
2728.696616,995.924147,-1998.556043,8438.347739
2728.696945,1149.143247,-2146.597232,8290.306550
2728.697274,1532.190996,-2368.659014,8290.306550
2728.697603,1225.752797,-2368.659014,8808.450710
2728.697932,76.609550,-2072.576638,8586.388927
2728.698261,-689.485948,-2590.720797,8364.327145
2728.698590,-919.314598,-3775.050304,9548.656652
2728.698919,-995.924147,-3849.070898,9104.533087
2728.699248,-612.876398,-4737.318029,9474.636058
2728.699577,306.438199,-5625.565159,10140.821405
2728.699906,383.047749,-4737.318029,9252.574275
2728.700235,0.000000,-2886.803174,8290.306550
2728.700564,536.266849,-3552.988522,8438.347739
2728.700893,1838.629195,-2960.823768,8290.306550
2728.701223,2145.067394,-2220.617826,8364.327145
2728.701552,1608.800546,-2294.638420,7550.100608
2728.701881,1378.971896,-3478.967927,9178.553681
2728.702210,766.095498,-3775.050304,9178.553681
2728.702539,-766.095498,-3627.009116,9178.553681
2728.702868,-1532.190996,-4663.297435,10436.903782
2728.703197,-689.485948,-5329.482782,10214.842000
2728.703526,-995.924147,-3849.070898,9474.636058
2728.703855,-1225.752797,-3923.091493,10510.924376
2728.704184,-536.266849,-4515.256246,9400.615463
2728.704513,689.485948,-3478.967927,9252.574275
2728.704842,1762.019645,-1110.308913,8438.347739
2728.705171,1838.629195,-1480.411884,8142.265362
2728.705500,2528.115143,-2294.638420,8808.450710
2728.705829,3677.258390,-1554.432478,6809.894666
2728.706158,3140.991542,-1258.350101,7105.977043
2728.706487,1608.800546,-2442.679609,9104.533087
2728.706816,1225.752797,-3034.844362,8808.450710
2728.707145,76.609550,-3478.967927,9474.636058
2728.707475,-1532.190996,-1924.535449,8882.471304
2728.707804,-2298.286494,-3478.967927,9622.677246
2728.708133,-2757.943793,-5477.523971,11029.068536
2728.708462,-1991.848295,-4293.194464,9696.697840
2728.708791,-1532.190996,-5033.400406,9770.718434
2728.709120,-1608.800546,-5477.523971,10066.800811
2728.709449,-842.705048,-5329.482782,10436.903782
2728.709778,1685.410096,-3849.070898,9178.553681
2728.710107,2604.724693,-1258.350101,6883.915261
2728.710436,3064.381992,-1184.329507,7105.977043
2728.710765,3600.648841,-592.164754,7328.038826
2728.711094,4290.134789,370.102971,8216.285956
2728.711423,3753.867940,-1184.329507,6957.935855
2728.711752,1608.800546,-2368.659014,7920.203579
2728.712081,-919.314598,-3775.050304,10510.924376
2728.712410,-1225.752797,-5477.523971,10807.006753
2728.712739,-1762.019645,-6143.709319,10288.862594
2728.713068,-2911.162892,-5551.544565,9992.780217
2728.713398,-3753.867940,-4737.318029,11621.233289
2728.713727,-2681.334243,-4071.132681,10584.944971
2728.714056,-1378.971896,-3775.050304,9326.594869
2728.714385,0.000000,-2590.720797,8808.450710
2728.714714,842.705048,-2146.597232,8882.471304
2728.715043,1991.848295,-2368.659014,9104.533087
2728.715372,3600.648841,-2220.617826,7846.182985
2728.715701,4903.011187,-1110.308913,7031.956449
2728.716030,4060.306139,-518.144159,7402.059420
2728.716359,2451.505594,-962.267725,7698.141797
2728.716688,2528.115143,-444.123565,7994.224174
2728.717017,3140.991542,-740.205942,7624.121203
2728.717346,1685.410096,-1406.391290,8290.306550
2728.717675,-229.828649,-3627.009116,9844.739029
2728.718004,-2145.067394,-4885.359217,11029.068536
2728.718333,-3064.381992,-5995.668130,11769.274478
2728.718662,-2451.505594,-5329.482782,10881.027347
2728.718991,-1915.238745,-5625.565159,10658.965565
2728.719320,-1991.848295,-4959.379811,10288.862594
2728.719650,-995.924147,-3552.988522,9770.718434
2728.719979,459.657299,-2812.782580,8586.388927
2728.720308,1762.019645,-1628.453072,7105.977043
2728.720637,3140.991542,-1332.370696,7105.977043
2728.720966,3217.601092,-2072.576638,8364.327145
2728.721295,2374.896044,-2738.761985,8734.430116
2728.721624,2451.505594,-3552.988522,8290.306550
2728.721953,1991.848295,-3108.864956,7994.224174
2728.722282,612.876398,-2738.761985,8956.491898
2728.722611,383.047749,-3404.947333,9918.759623
2728.722940,-766.095498,-2812.782580,9548.656652
2728.723269,-1225.752797,-2442.679609,9474.636058
2728.723598,-1685.410096,-2146.597232,8512.368333
2728.723927,-1302.362347,-3627.009116,9326.594869
2728.724256,-1072.533697,-3627.009116,9548.656652
2728.724585,-383.047749,-5255.462188,9178.553681
2728.724914,0.000000,-5255.462188,9252.574275
2728.725243,0.000000,-4737.318029,8660.409521
2728.725573,919.314598,-3478.967927,8290.306550
2728.725902,383.047749,-962.267725,7846.182985
2728.726231,1072.533697,-1110.308913,7920.203579
2728.726560,1532.190996,-1258.350101,8586.388927
2728.726889,1991.848295,-1036.288319,9030.512492
2728.727218,1762.019645,-1850.514855,8734.430116
2728.727547,919.314598,-2886.803174,8734.430116
2728.727876,612.876398,-3627.009116,9696.697840
2728.728205,536.266849,-5033.400406,10214.842000
2728.728534,306.438199,-4441.235652,9844.739029
2728.728863,459.657299,-4515.256246,9178.553681
2728.729192,0.000000,-3478.967927,8586.388927
2728.729521,0.000000,-2368.659014,8882.471304
2728.729850,-1302.362347,-3108.864956,9548.656652
2728.730179,-842.705048,-3034.844362,9400.615463
2728.730508,-1149.143247,-3034.844362,9252.574275
2728.730837,-536.266849,-3775.050304,9474.636058
2728.731166,306.438199,-4441.235652,9770.718434
2728.731495,1149.143247,-5033.400406,10436.903782
2728.731825,2068.457845,-4071.132681,9178.553681
2728.732154,2911.162892,-2516.700203,8438.347739
2728.732483,3217.601092,-962.267725,7550.100608
2728.732812,3983.696590,-0.000000,7476.080014
2728.733141,3907.087040,-0.000000,7179.997637
2728.733470,3064.381992,-1406.391290,7550.100608
2728.733799,1455.581446,-2664.741391,8216.285956
2728.734128,-459.657299,-4515.256246,9918.759623
2728.734457,-2145.067394,-5033.400406,10584.944971
2728.734786,-3064.381992,-6587.832884,11251.130318
2728.735115,-4136.915689,-6513.812290,11399.171507
2728.735444,-3677.258390,-5107.421000,11103.089130
2728.735773,-2604.724693,-4071.132681,9918.759623
2728.736102,-2145.067394,-2960.823768,9178.553681
2728.736431,-383.047749,-2812.782580,9548.656652
2728.736760,1762.019645,-2442.679609,8068.244768
2728.737089,3294.210641,-2294.638420,7994.224174
2728.737418,4826.401637,-2220.617826,7031.956449
2728.737747,5209.449386,-2294.638420,6809.894666
2728.738077,5209.449386,-1480.411884,6883.915261
2728.738406,4903.011187,-74.020594,6587.832884
2728.738735,3983.696590,-370.102971,7328.038826
2728.739064,2757.943793,-296.082377,6439.791695
2728.739393,0.000000,-2220.617826,7994.224174
2728.739722,-2298.286494,-5995.668130,11103.089130
2728.740051,-4366.744339,-5107.421000,10732.986159
2728.740380,-4290.134789,-8586.388927,13027.624579
2728.740709,-4749.792088,-6661.853478,9696.697840
2728.741038,-4213.525239,-5477.523971,11547.212695
2728.741367,-3217.601092,-6069.688724,10066.800811
2728.741696,-1532.190996,-3330.926739,9622.677246
2728.742025,-766.095498,-2368.659014,8364.327145
2728.742354,383.047749,-3627.009116,11399.171507
2728.742683,3447.429741,-1776.494261,8512.368333
2728.743012,5209.449386,-0.000000,5773.606348
2728.743341,4213.525239,-1332.370696,5255.462188
2728.743670,3600.648841,-296.082377,5921.647536
2728.744000,5745.716235,296.082377,8808.450710
2728.744329,3447.429741,222.061783,7105.977043
2728.744658,3370.820191,370.102971,5181.441594
2728.744987,2528.115143,-666.185348,8364.327145
2728.745316,-1532.190996,-2738.761985,7254.018232
2728.745645,-3217.601092,-8512.368333,14434.015869
2728.745974,-3907.087040,-3775.050304,11251.130318
2728.746303,-2221.676944,-9104.533087,12287.418637
2728.746632,-4749.792088,-7846.182985,11177.109724
2728.746961,-2451.505594,-5551.544565,13027.624579
2728.747290,-612.876398,-6883.915261,11103.089130
2728.747619,766.095498,-3034.844362,7402.059420
2728.747948,4366.744339,962.267725,7031.956449
2728.748277,4366.744339,2072.576638,5995.668130
2728.748606,3753.867940,2294.638420,6957.935855
2728.748935,1762.019645,444.123565,5477.523971
2728.749264,1915.238745,-2072.576638,7105.977043
2728.749593,-1685.410096,-4145.153275,10881.027347
2728.749922,-1838.629195,-7476.080014,11325.150913
2728.750252,-4136.915689,-5181.441594,12805.562797
2728.750581,-4673.182538,-8438.347739,13101.645173
2728.750910,-4443.353888,-5107.421000,9474.636058
2728.751239,-2451.505594,-4515.256246,10214.842000
2728.751568,-1072.533697,-2664.741391,9474.636058
2728.751897,-1455.581446,-222.061783,8660.409521
2728.752226,1225.752797,-3404.947333,11621.233289
2728.752555,3370.820191,-1406.391290,5773.606348
2728.752884,5439.278036,-666.185348,6661.853478
2728.753213,3370.820191,-370.102971,3849.070898
2728.753542,4136.915689,-222.061783,5995.668130
2728.753871,3140.991542,666.185348,7105.977043
2728.754200,2145.067394,2738.761985,5477.523971
2728.754529,1608.800546,-222.061783,7550.100608
2728.754858,-2604.724693,-2590.720797,9696.697840
2728.755187,-4290.134789,-6143.709319,11769.274478
2728.755516,-5286.058936,-4959.379811,11177.109724
2728.755845,-5056.230287,-6143.709319,11103.089130
2728.756174,-6665.030833,-3849.070898,10881.027347
2728.756504,-5132.839837,-4737.318029,12435.459826
2728.756833,-4213.525239,-1924.535449,9918.759623
2728.757162,-3447.429741,-1998.556043,9178.553681
2728.757491,-2145.067394,-518.144159,7254.018232
2728.757820,-2528.115143,962.267725,8660.409521
2728.758149,-2911.162892,888.247130,10288.862594
2728.758478,-1838.629195,148.041188,7179.997637
2728.758807,-689.485948,-74.020594,7920.203579
2728.759136,0.000000,-444.123565,6587.832884
2728.759465,153.219100,-1406.391290,7624.121203
2728.759794,-1072.533697,-962.267725,9696.697840
2728.760123,-1915.238745,-592.164754,9252.574275
2728.760452,-2528.115143,-222.061783,10066.800811
2728.760781,-3447.429741,-0.000000,9844.739029
2728.761111,-4903.011187,444.123565,9548.656652
2728.761440,-3677.258390,-0.000000,10955.047942
2728.761769,-2757.943793,222.061783,9178.553681
2728.762098,-2451.505594,-1776.494261,9474.636058
2728.762427,-1608.800546,-1998.556043,9770.718434
2728.762756,-2221.676944,-740.205942,8956.491898
2728.763085,-2298.286494,-1480.411884,9030.512492
2728.763414,-1762.019645,370.102971,7920.203579
2728.763743,-1532.190996,1110.308913,7846.182985
2728.764072,-1838.629195,-0.000000,8660.409521
2728.764401,-1072.533697,-148.041188,9104.533087
2728.764730,-2221.676944,-1332.370696,9252.574275
2728.765059,-2987.772442,-2146.597232,9474.636058
2728.765389,-3600.648841,-1702.473667,10510.924376
2728.765718,-4749.792088,-1480.411884,11399.171507
2728.766047,-4213.525239,-74.020594,9844.739029
2728.766376,-2987.772442,444.123565,9400.615463
2728.766705,-2221.676944,888.247130,8808.450710
2728.767034,-1532.190996,1036.288319,8290.306550
2728.767363,-1532.190996,888.247130,7772.162391
2728.767692,-1762.019645,962.267725,7179.997637
2728.768021,-2374.896044,1110.308913,7105.977043
2728.768350,-1991.848295,-518.144159,8290.306550
2728.768679,-2911.162892,-1036.288319,8512.368333
2728.769008,-3524.039291,-1628.453072,8882.471304
2728.769337,-3370.820191,-2368.659014,9474.636058
2728.769667,-3447.429741,-2368.659014,10066.800811
2728.769996,-3830.477490,-1628.453072,9474.636058
2728.770325,-3830.477490,-1628.453072,10436.903782
2728.770654,-4749.792088,-518.144159,10436.903782
2728.770983,-4213.525239,-0.000000,10510.924376
2728.771312,-3983.696590,-0.000000,9696.697840
2728.771641,-3217.601092,962.267725,8956.491898
2728.771970,-2451.505594,296.082377,9326.594869
2728.772299,-2451.505594,444.123565,7920.203579
2728.772628,-2757.943793,-0.000000,7994.224174
2728.772957,-2757.943793,-444.123565,8438.347739
2728.773286,-2451.505594,-1480.411884,8290.306550
2728.773615,-1455.581446,-1924.535449,8438.347739
2728.773944,-1225.752797,-814.226536,7254.018232
2728.774274,153.219100,-1480.411884,8586.388927
2728.774603,76.609550,-592.164754,7698.141797
2728.774932,689.485948,1554.432478,8290.306550
2728.775261,-383.047749,1184.329507,8438.347739
2728.775590,-383.047749,2368.659014,7994.224174
2728.775919,-995.924147,1776.494261,9104.533087
2728.776248,-1608.800546,2220.617826,8734.430116
2728.776577,-3064.381992,222.061783,9030.512492
2728.776906,-3370.820191,222.061783,9326.594869
2728.777235,-3600.648841,-0.000000,8956.491898
2728.777564,-3600.648841,-518.144159,9030.512492
2728.777893,-4596.572988,-1110.308913,8512.368333
2728.778222,-3983.696590,-1184.329507,9400.615463
2728.778552,-4366.744339,-2664.741391,10066.800811
2728.778881,-3753.867940,-2220.617826,9918.759623
2728.779210,-3677.258390,-2220.617826,11103.089130
2728.779539,-3064.381992,-3182.885551,11473.192101
2728.779868,-2987.772442,-2072.576638,11695.253884
2728.780197,-3064.381992,-592.164754,11177.109724
2728.780526,-2987.772442,-74.020594,11325.150913
2728.780855,-2451.505594,666.185348,11399.171507
2728.781184,-459.657299,2294.638420,9770.718434
2728.781513,536.266849,3701.029710,6291.750507
2728.781842,1302.362347,4589.276840,5847.626942
2728.782171,306.438199,4515.256246,4811.338623
2728.782500,0.000000,3701.029710,5107.421000
2728.782829,-1302.362347,2072.576638,5551.544565
2728.783159,-2604.724693,-444.123565,7254.018232
2728.783488,-4060.306139,-3627.009116,9326.594869
2728.783817,-5515.887586,-3849.070898,9622.677246
2728.784146,-5362.668486,-3923.091493,9918.759623
2728.784475,-6665.030833,-4441.235652,12287.418637
2728.784804,-6435.202183,-5255.462188,15988.448347
2728.785133,-5669.106685,-2886.803174,13027.624579
2728.785462,-5209.449386,-740.205942,11325.150913
2728.785791,-3447.429741,444.123565,10732.986159
2728.786120,-1762.019645,2368.659014,8660.409521
2728.786449,-1915.238745,5181.441594,8364.327145
2728.786778,76.609550,2516.700203,10510.924376
2728.787107,229.828649,4663.297435,3404.947333
2728.787437,3370.820191,3182.885551,5847.626942
2728.787766,1072.533697,3034.844362,1332.370696
2728.788095,459.657299,1332.370696,5255.462188
2728.788424,-2068.457845,-2516.700203,7920.203579
2728.788753,-2604.724693,-4293.194464,8512.368333
2728.789082,-2681.334243,-5625.565159,12509.480420
2728.789411,-3907.087040,-3256.906145,9474.636058
2728.789740,-4519.963438,-3182.885551,11917.315666
2728.790069,-5822.325785,-2146.597232,13471.748144
2728.790398,-3907.087040,666.185348,11917.315666
2728.790727,-2145.067394,-444.123565,13767.830521
2728.791056,-2987.772442,2146.597232,10881.027347
2728.791385,-2528.115143,4293.194464,9474.636058
2728.791714,-3217.601092,1332.370696,9104.533087
2728.792044,-3830.477490,2368.659014,6957.935855
2728.792373,-3370.820191,-444.123565,7994.224174
2728.792702,-2757.943793,-1850.514855,7254.018232
2728.793031,-2451.505594,-1702.473667,7105.977043
2728.793360,-2987.772442,-1332.370696,7031.956449
2728.793689,-2757.943793,-1110.308913,7476.080014
2728.794018,-2911.162892,-1998.556043,8808.450710
2728.794347,-2298.286494,-1702.473667,10214.842000
2728.794676,-2757.943793,592.164754,10584.944971
2728.795005,-2757.943793,518.144159,10140.821405
2728.795334,-3140.991542,666.185348,10881.027347
2728.795663,-2834.553343,1036.288319,11547.212695
2728.795992,-2298.286494,-148.041188,11399.171507
2728.796322,-1608.800546,370.102971,10140.821405
2728.796651,-1149.143247,1184.329507,8438.347739
2728.796980,-919.314598,1924.535449,7254.018232
2728.797309,-1532.190996,2664.741391,5847.626942
2728.797638,-842.705048,370.102971,6513.812290
2728.797967,-1608.800546,-1036.288319,6735.874072
2728.798296,-1455.581446,-1184.329507,6661.853478
2728.798625,-3370.820191,-2590.720797,7402.059420
2728.798954,-4213.525239,-2886.803174,9252.574275
2728.799283,-3677.258390,-2442.679609,10140.821405
2728.799612,-3600.648841,-2294.638420,10288.862594
2728.799941,-3753.867940,-1258.350101,10955.047942
2728.800270,-3140.991542,222.061783,11251.130318
2728.800599,-3447.429741,518.144159,11029.068536
2728.800929,-3064.381992,1406.391290,10510.924376
2728.801258,-2451.505594,592.164754,9918.759623
2728.801587,-2681.334243,740.205942,9474.636058
2728.801916,-3140.991542,-0.000000,9622.677246
2728.802245,-3370.820191,-1776.494261,9918.759623
2728.802574,-1072.533697,-1110.308913,7254.018232
2728.802903,-612.876398,592.164754,5403.503377
2728.803232,0.000000,-0.000000,7105.977043
2728.803561,-995.924147,-148.041188,7105.977043
2728.803890,-383.047749,-592.164754,8290.306550
2728.804219,-1532.190996,-222.061783,8142.265362
2728.804548,-1838.629195,-1184.329507,9474.636058
2728.804877,-1915.238745,-1036.288319,11843.295072
