#time,accel_x,accel_y,accel_z
2541.708210,306.438199,-222.061783,8882.471304
2541.708539,459.657299,-666.185348,9030.512492
2541.708869,306.438199,-296.082377,8956.491898
2541.709198,229.828649,-148.041188,9252.574275
2541.709527,383.047749,-74.020594,8956.491898
2541.709856,153.219100,-222.061783,9252.574275
2541.710185,459.657299,-74.020594,9178.553681
2541.710515,306.438199,-148.041188,8956.491898
2541.710844,153.219100,666.185348,9622.677246
2541.711173,76.609550,-296.082377,9474.636058
2541.711502,229.828649,-444.123565,9252.574275
2541.711831,306.438199,-148.041188,9326.594869
2541.712160,153.219100,-74.020594,9178.553681
2541.712490,229.828649,-148.041188,9178.553681
2541.712819,459.657299,-0.000000,9474.636058
2541.713148,612.876398,-444.123565,9104.533087
2541.713477,536.266849,-148.041188,9104.533087
2541.713806,459.657299,-148.041188,9104.533087
2541.714136,383.047749,-148.041188,9030.512492
2541.714465,306.438199,-74.020594,9178.553681
2541.714794,0.000000,-74.020594,9104.533087
2541.715123,306.438199,-148.041188,8956.491898
2541.715452,459.657299,-370.102971,9252.574275
2541.715781,153.219100,222.061783,9474.636058
2541.716111,0.000000,-0.000000,8956.491898
2541.716440,536.266849,-74.020594,9030.512492
2541.716769,76.609550,-74.020594,8882.471304
2541.717098,306.438199,-148.041188,8882.471304
2541.717427,383.047749,-0.000000,8808.450710
2541.717757,229.828649,814.226536,9252.574275
2541.718086,76.609550,-222.061783,9178.553681
2541.718415,306.438199,-74.020594,8734.430116
2541.718744,306.438199,-74.020594,8808.450710
2541.719073,459.657299,-0.000000,9030.512492
2541.719402,306.438199,-148.041188,8956.491898
2541.719732,842.705048,-0.000000,8808.450710
2541.720061,229.828649,-518.144159,9104.533087
2541.720390,229.828649,-148.041188,9252.574275
2541.720719,229.828649,-74.020594,9326.594869
2541.721048,306.438199,-148.041188,9178.553681
2541.721378,459.657299,-296.082377,9030.512492
2541.721707,229.828649,-296.082377,9104.533087
2541.722036,612.876398,-370.102971,9178.553681
2541.722365,459.657299,-518.144159,9326.594869
2541.722694,689.485948,-444.123565,9030.512492
2541.723023,536.266849,-296.082377,9252.574275
2541.723353,306.438199,-0.000000,9326.594869
2541.723682,536.266849,-222.061783,9104.533087
2541.724011,383.047749,-74.020594,9178.553681
2541.724340,459.657299,148.041188,9474.636058
2541.724669,153.219100,-444.123565,9104.533087
2541.724998,612.876398,-592.164754,9178.553681
2541.725328,383.047749,-74.020594,9178.553681
2541.725657,383.047749,-222.061783,9030.512492
2541.725986,383.047749,-222.061783,9178.553681
2541.726315,229.828649,-74.020594,9104.533087
2541.726644,229.828649,-74.020594,9252.574275
2541.726974,459.657299,296.082377,9030.512492
2541.727303,306.438199,-148.041188,9104.533087
2541.727632,306.438199,-74.020594,9252.574275
2541.727961,383.047749,-0.000000,8956.491898
2541.728290,536.266849,-0.000000,8882.471304
2541.728619,76.609550,-0.000000,8956.491898
2541.728949,76.609550,-222.061783,9030.512492
2541.729278,306.438199,-222.061783,8882.471304
2541.729607,306.438199,-370.102971,9030.512492
2541.729936,76.609550,-222.061783,8882.471304
2541.730265,229.828649,-0.000000,8956.491898
2541.730595,383.047749,-74.020594,8882.471304
2541.730924,229.828649,-74.020594,8882.471304
2541.731253,383.047749,-296.082377,9104.533087
2541.731582,459.657299,-148.041188,8956.491898
2541.731911,306.438199,-222.061783,9474.636058
2541.732240,76.609550,-0.000000,9326.594869
2541.732570,76.609550,-74.020594,9252.574275
2541.732899,459.657299,-74.020594,9252.574275
2541.733228,229.828649,-222.061783,9252.574275
2541.733557,459.657299,-370.102971,9326.594869
2541.733886,-153.219100,-518.144159,9104.533087
2541.734216,612.876398,-444.123565,9104.533087
2541.734545,689.485948,-222.061783,8734.430116
2541.734874,612.876398,-74.020594,9178.553681
2541.735203,383.047749,-148.041188,9252.574275
2541.735532,536.266849,-148.041188,9178.553681
2541.735861,153.219100,-518.144159,9696.697840
2541.736191,1302.362347,-1036.288319,9770.718434
2541.736520,1225.752797,-888.247130,9696.697840
2541.736849,1685.410096,-444.123565,9622.677246
2541.737178,1991.848295,-222.061783,8882.471304
2541.737507,2528.115143,-0.000000,8808.450710
2541.737837,3600.648841,148.041188,9178.553681
2541.738166,4596.572988,-222.061783,8512.368333
2541.738495,3370.820191,222.061783,8438.347739
2541.738824,3217.601092,1036.288319,8512.368333
2541.739153,3447.429741,148.041188,8512.368333
2541.739482,3524.039291,-444.123565,9400.615463
2541.739812,2451.505594,-666.185348,8808.450710
2541.740141,1225.752797,-814.226536,9770.718434
2541.740470,2221.676944,-2072.576638,9548.656652
2541.740799,2604.724693,-1036.288319,9252.574275
2541.741128,2145.067394,-370.102971,9474.636058
2541.741458,3064.381992,-1480.411884,9178.553681
2541.741787,3064.381992,-148.041188,9252.574275
2541.742116,4519.963438,666.185348,9252.574275
2541.742445,5132.839837,888.247130,7105.977043
2541.742774,4213.525239,1406.391290,8956.491898
2541.743103,4979.620737,1332.370696,8956.491898
2541.743433,4519.963438,740.205942,7179.997637
2541.743762,4213.525239,296.082377,8882.471304
2541.744091,3217.601092,-222.061783,8882.471304
2541.744420,2451.505594,222.061783,9474.636058
2541.744749,1302.362347,-1110.308913,9622.677246
2541.745078,1455.581446,-814.226536,9696.697840
2541.745408,1225.752797,-962.267725,9992.780217
2541.745737,919.314598,-1184.329507,9918.759623
2541.746066,1685.410096,-222.061783,9622.677246
2541.746395,2451.505594,-814.226536,9992.780217
2541.746724,3294.210641,-0.000000,7920.203579
2541.747054,3983.696590,444.123565,9696.697840
2541.747383,4060.306139,1110.308913,8364.327145
2541.747712,4290.134789,740.205942,8290.306550
2541.748041,4443.353888,962.267725,8512.368333
2541.748370,3907.087040,518.144159,8956.491898
2541.748699,4136.915689,-222.061783,9252.574275
2541.749029,2834.553343,-1332.370696,9326.594869
2541.749358,2451.505594,-740.205942,9622.677246
2541.749687,2451.505594,-1628.453072,10140.821405
2541.750016,2298.286494,-1628.453072,9622.677246
2541.750345,2451.505594,-1406.391290,9770.718434
2541.750675,3217.601092,-518.144159,9548.656652
2541.751004,3524.039291,222.061783,9252.574275
2541.751333,3830.477490,1258.350101,8512.368333
2541.751662,4213.525239,1924.535449,8142.265362
2541.751991,4673.182538,2442.679609,7698.141797
2541.752320,4213.525239,2590.720797,7328.038826
2541.752650,3677.258390,2220.617826,7772.162391
2541.752979,3830.477490,962.267725,7920.203579
2541.753308,3370.820191,-148.041188,8438.347739
2541.753637,2298.286494,-1258.350101,9622.677246
2541.753966,2298.286494,-2368.659014,9696.697840
2541.754296,1915.238745,-2886.803174,10436.903782
2541.754625,1991.848295,-3034.844362,10807.006753
2541.754954,2681.334243,-2516.700203,10881.027347
2541.755283,3753.867940,-1406.391290,10584.944971
2541.755612,4596.572988,-222.061783,9770.718434
2541.755941,5439.278036,740.205942,9104.533087
2541.756271,6128.763984,2146.597232,8512.368333
2541.756600,5286.058936,2960.823768,8216.285956
2541.756929,4903.011187,3404.947333,7402.059420
2541.757258,4213.525239,3478.967927,7179.997637
2541.757587,3370.820191,1702.473667,7624.121203
2541.757917,2068.457845,592.164754,8586.388927
2541.758246,842.705048,-2886.803174,10140.821405
2541.758575,-689.485948,-3256.906145,10436.903782
2541.758904,-1378.971896,-4737.318029,11621.233289
2541.759233,-1149.143247,-3997.112087,10658.965565
2541.759562,-383.047749,-1628.453072,10362.883188
2541.759892,0.000000,-814.226536,10214.842000
2541.760221,76.609550,740.205942,9104.533087
2541.760550,2987.772442,592.164754,10584.944971
2541.760879,4519.963438,1702.473667,8586.388927
2541.761208,5669.106685,2516.700203,7105.977043
2541.761538,5515.887586,1850.514855,6883.915261
2541.761867,4366.744339,2146.597232,5995.668130
2541.762196,4060.306139,2220.617826,7254.018232
2541.762525,4213.525239,2220.617826,5995.668130
2541.762854,2145.067394,370.102971,7105.977043
2541.763183,-766.095498,-888.247130,8512.368333
2541.763513,-1455.581446,-2368.659014,9326.594869
2541.763842,-2145.067394,-4219.173869,9918.759623
2541.764171,-3064.381992,-4071.132681,9178.553681
2541.764500,-2681.334243,-4219.173869,11769.274478
2541.764829,-3600.648841,-2960.823768,11251.130318
2541.765158,-3064.381992,-1702.473667,10881.027347
2541.765488,-1685.410096,-1036.288319,11103.089130
2541.765817,-689.485948,-0.000000,9622.677246
2541.766146,76.609550,1776.494261,9252.574275
2541.766475,0.000000,2220.617826,8882.471304
2541.766804,766.095498,740.205942,11029.068536
2541.767134,2068.457845,370.102971,9844.739029
2541.767463,6052.154434,1184.329507,6661.853478
2541.767792,5822.325785,962.267725,6143.709319
2541.768121,5822.325785,1258.350101,4959.379811
2541.768450,5515.887586,2368.659014,6735.874072
2541.768779,4749.792088,1480.411884,6661.853478
2541.769109,2604.724693,1110.308913,7254.018232
2541.769438,689.485948,-888.247130,8882.471304
2541.769767,-1072.533697,-2072.576638,10510.924376
2541.770096,-3217.601092,-2664.741391,11843.295072
2541.770425,-2834.553343,-3256.906145,11547.212695
2541.770755,-2834.553343,-2146.597232,10658.965565
2541.771084,-2757.943793,-888.247130,11473.192101
2541.771413,-3370.820191,1332.370696,10288.862594
2541.771742,-2451.505594,1110.308913,10807.006753
2541.772071,-1838.629195,962.267725,10214.842000
2541.772400,459.657299,1480.411884,9326.594869
2541.772730,689.485948,370.102971,8956.491898
2541.773059,229.828649,-0.000000,7624.121203
2541.773388,536.266849,-1702.473667,10955.047942
2541.773717,2451.505594,-1850.514855,9178.553681
2541.774046,4903.011187,592.164754,5995.668130
2541.774376,5515.887586,444.123565,5995.668130
2541.774705,4749.792088,2368.659014,4663.297435
2541.775034,3677.258390,2886.803174,7846.182985
2541.775363,689.485948,1258.350101,7254.018232
2541.775692,-995.924147,370.102971,8660.409521
2541.776021,-1991.848295,-2146.597232,11251.130318
2541.776351,-2221.676944,-1628.453072,9918.759623
2541.776680,-4136.915689,-1628.453072,9104.533087
2541.777009,-4749.792088,-2442.679609,10955.047942
2541.777338,-4519.963438,-2072.576638,11251.130318
2541.777667,-2757.943793,-1406.391290,12583.501014
2541.777997,-1532.190996,-296.082377,10140.821405
2541.778326,229.828649,-814.226536,9474.636058
2541.778655,1608.800546,-888.247130,7920.203579
2541.778984,1302.362347,1184.329507,7846.182985
2541.779313,3753.867940,-1850.514855,13545.768739
2541.779642,5592.497135,2368.659014,4071.132681
2541.779972,9039.926876,2664.741391,7031.956449
2541.780301,6052.154434,3108.864956,2960.823768
2541.780630,5439.278036,4293.194464,4885.359217
2541.780959,1762.019645,1258.350101,8290.306550
2541.781288,-306.438199,-370.102971,8290.306550
2541.781617,-2145.067394,-2812.782580,11991.336260
2541.781946,-3217.601092,-1332.370696,9252.574275
2541.782275,-5898.935335,-3034.844362,8956.491898
2541.782604,-8886.707777,-4515.256246,13989.892304
2541.782933,-7584.345430,-2516.700203,11251.130318
2541.783262,-4596.572988,-3330.926739,14285.974681
2541.783591,-2298.286494,-2442.679609,11251.130318
2541.783921,842.705048,592.164754,9178.553681
2541.784250,1838.629195,-370.102971,8808.450710
2541.784579,306.438199,3108.864956,6069.688724
2541.784908,5132.839837,-740.205942,15026.180623
2541.785237,5898.935335,3627.009116,2294.638420
2541.785566,9959.241474,2886.803174,7031.956449
2541.785895,4979.620737,3552.988522,2220.617826
2541.786224,5669.106685,5699.585753,4441.235652
2541.786553,842.705048,370.102971,9326.594869
2541.786882,-919.314598,-1480.411884,7624.121203
2541.787211,-919.314598,-2886.803174,13841.851115
2541.787540,-3983.696590,-1702.473667,7328.038826
2541.787869,-6205.373534,-4515.256246,11695.253884
2541.788198,-9806.022374,-5625.565159,14211.954086
2541.788528,-5286.058936,-3034.844362,11843.295072
2541.788857,-4290.134789,-3256.906145,14582.057057
2541.789186,-995.924147,-2220.617826,10140.821405
2541.789515,2298.286494,814.226536,9918.759623
2541.789844,1455.581446,1258.350101,6439.791695
2541.790173,2911.162892,296.082377,12805.562797
2541.790502,6511.811733,814.226536,7402.059420
2541.790831,11414.822920,3923.091493,4663.297435
2541.791160,7890.783629,2664.741391,4071.132681
2541.791489,6358.592633,4515.256246,3552.988522
2541.791818,3600.648841,5329.482782,8438.347739
2541.792147,2221.676944,888.247130,5551.544565
2541.792476,306.438199,-222.061783,7698.141797
2541.792805,-2451.505594,-5625.565159,16062.468941
2541.793135,-3600.648841,-1332.370696,5995.668130
2541.793464,-7201.297681,-5773.606348,13619.789333
2541.793793,-8120.612279,-5551.544565,13101.645173
2541.794122,-6971.469032,-1258.350101,11991.336260
2541.794451,-3140.991542,-3997.112087,14804.118840
2541.794780,-2221.676944,1480.411884,9844.739029
2541.795109,2681.334243,-1036.288319,10066.800811
2541.795438,2221.676944,2146.597232,6735.874072
2541.795767,4519.963438,2368.659014,14508.036463
2541.796096,5975.544884,1036.288319,5329.482782
2541.796425,11491.432470,3701.029710,6513.812290
2541.796754,7967.393179,2368.659014,2368.659014
2541.797083,5822.325785,5625.565159,2886.803174
2541.797412,3217.601092,5033.400406,8216.285956
2541.797742,229.828649,-666.185348,5773.606348
2541.798071,-689.485948,-2812.782580,11769.274478
2541.798400,-2068.457845,-2368.659014,11695.253884
2541.798729,-7277.907231,-1554.432478,5477.523971
2541.799058,-9346.365076,-9474.636058,18949.272115
2541.799387,-9499.584175,-2220.617826,10807.006753
2541.799716,-4826.401637,-2368.659014,14211.954086
2541.800045,-4673.182538,-3701.029710,12139.377449
2541.800374,0.000000,-74.020594,9696.697840
2541.800703,2757.943793,-1406.391290,10140.821405
2541.801032,536.266849,4219.173869,4811.338623
2541.801361,5975.544884,1258.350101,16654.633695
2541.801690,5515.887586,3552.988522,888.247130
2541.802019,12487.356617,3997.112087,7772.162391
2541.802348,6511.811733,3701.029710,2442.679609
2541.802678,6128.763984,6291.750507,2590.720797
2541.803007,995.924147,2072.576638,8808.450710
2541.803336,-1225.752797,-1998.556043,7698.141797
2541.803665,-995.924147,-3182.885551,14508.036463
2541.803994,-3370.820191,-444.123565,7698.141797
2541.804323,-6665.030833,-5255.462188,10362.883188
2541.804652,-11797.870669,-6291.750507,14656.077652
2541.804981,-7660.954980,-2812.782580,12731.542202
2541.805310,-5209.449386,-3182.885551,14211.954086
2541.805639,-3753.867940,-962.267725,10140.821405
2541.805968,1455.581446,-0.000000,10732.986159
2541.806297,2145.067394,-370.102971,8142.265362
2541.806626,1225.752797,2960.823768,7105.977043
2541.806955,6971.469032,-148.041188,13027.624579
2541.807285,7890.783629,5329.482782,-2146.597232
2541.807614,10418.898773,3330.926739,7846.182985
2541.807943,4979.620737,3997.112087,2220.617826
2541.808272,5592.497135,6587.832884,4145.153275
2541.808601,842.705048,1110.308913,7328.038826
2541.808930,1378.971896,-74.020594,5329.482782
2541.809259,-1762.019645,-1850.514855,12953.603985
2541.809588,-2145.067394,-3034.844362,9918.759623
2541.809917,-5822.325785,-2812.782580,8808.450710
2541.810246,-7890.783629,-6365.771101,14804.118840
2541.810575,-7354.516781,-2886.803174,10658.965565
2541.810904,-4443.353888,-3627.009116,14582.057057
2541.811233,-3447.429741,-888.247130,12953.603985
2541.811562,-76.609550,-592.164754,10288.862594
2541.811892,2681.334243,-2072.576638,10214.842000
2541.812221,689.485948,4737.318029,5403.503377
2541.812550,4596.572988,-1776.494261,16876.695478
2541.812879,5515.887586,1924.535449,2960.823768
2541.813208,11031.775171,3330.926739,7031.956449
2541.813537,6358.592633,2960.823768,3256.906145
2541.813866,6358.592633,5329.482782,4145.153275
2541.814195,2068.457845,3701.029710,7994.224174
2541.814524,1838.629195,-814.226536,5995.668130
2541.814853,-306.438199,-74.020594,10881.027347
2541.815182,-2451.505594,-5033.400406,12361.439231
2541.815511,-5286.058936,-1332.370696,6587.832884
2541.815840,-7354.516781,-7105.977043,16358.551318
2541.816169,-7277.907231,-2368.659014,9474.636058
2541.816499,-4519.963438,-2368.659014,13175.665768
2541.816828,-3217.601092,-4219.173869,14508.036463
2541.817157,-536.266849,518.144159,9474.636058
2541.817486,2757.943793,-1480.411884,9400.615463
2541.817815,919.314598,2368.659014,5921.647536
2541.818144,4903.011187,1332.370696,14952.160028
2541.818473,6052.154434,2294.638420,2664.741391
2541.818802,10955.165621,3923.091493,6365.771101
2541.819131,6281.983084,2072.576638,3775.050304
2541.819460,5898.935335,5551.544565,3404.947333
2541.819789,2298.286494,3330.926739,7772.162391
2541.820118,1838.629195,-1406.391290,5329.482782
2541.820447,-459.657299,-1480.411884,12509.480420
2541.820776,-2451.505594,-4071.132681,11917.315666
2541.821105,-5439.278036,-1628.453072,7476.080014
2541.821435,-7048.078582,-7105.977043,15470.304188
2541.821764,-6894.859482,-2072.576638,9474.636058
2541.822093,-3677.258390,-1628.453072,12953.603985
2541.822422,-2987.772442,-3849.070898,13249.686362
2541.822751,0.000000,-0.000000,9770.718434
2541.823080,3064.381992,-1702.473667,10066.800811
2541.823409,0.000000,2516.700203,7550.100608
2541.823738,5132.839837,962.267725,14211.954086
2541.824067,6052.154434,2590.720797,1850.514855
2541.824396,11031.775171,2590.720797,7254.018232
2541.824725,5286.058936,3108.864956,2516.700203
2541.825054,5898.935335,4663.297435,4589.276840
2541.825383,1762.019645,2590.720797,7624.121203
2541.825712,-153.219100,-1850.514855,6513.812290
2541.826042,-1149.143247,-3404.947333,13545.768739
2541.826371,-2987.772442,-888.247130,8586.388927
2541.826700,-6052.154434,-4663.297435,9178.553681
2541.827029,-8963.317327,-5403.503377,14211.954086
2541.827358,-6281.983084,-2294.638420,11695.253884
2541.827687,-3907.087040,-2368.659014,13471.748144
2541.828016,-2834.553343,-1184.329507,11991.336260
2541.828345,612.876398,-740.205942,9548.656652
2541.828674,2374.896044,-740.205942,8882.471304
2541.829003,306.438199,3923.091493,7105.977043
2541.829332,3907.087040,-370.102971,14434.015869
2541.829661,5362.668486,2812.782580,3108.864956
2541.829990,10112.460574,3330.926739,6883.915261
2541.830319,5515.887586,2886.803174,1998.556043
2541.830649,5362.668486,5625.565159,4737.318029
2541.830978,995.924147,888.247130,8068.244768
2541.831307,-1302.362347,-1258.350101,7254.018232
2541.831636,-1608.800546,-2590.720797,12731.542202
2541.831965,-2834.553343,-2072.576638,8660.409521
2541.832294,-5669.106685,-3701.029710,9474.636058
2541.832623,-9039.926876,-4515.256246,14211.954086
2541.832952,-6281.983084,-2664.741391,10658.965565
2541.833281,-3907.087040,-2146.597232,13323.706956
2541.833610,-842.705048,-1628.453072,12213.398043
2541.833939,1608.800546,592.164754,10140.821405
2541.834268,1455.581446,-740.205942,8808.450710
2541.834597,536.266849,1702.473667,9030.512492
2541.834926,5286.058936,296.082377,11029.068536
2541.835256,7660.954980,4145.153275,1702.473667
2541.835585,9193.145976,2664.741391,6587.832884
2541.835914,4903.011187,3478.967927,3330.926739
2541.836243,4903.011187,4219.173869,6291.750507
2541.836572,1302.362347,962.267725,7550.100608
2541.836901,-76.609550,-1628.453072,7254.018232
2541.837230,-2221.676944,-3775.050304,13841.851115
2541.837559,-3294.210641,-592.164754,7772.162391
2541.837888,-5822.325785,-4219.173869,11251.130318
2541.838217,-9269.755526,-4737.318029,13471.748144
2541.838546,-6358.592633,-2516.700203,11103.089130
2541.838875,-3217.601092,-2294.638420,13767.830521
2541.839204,-919.314598,-592.164754,10436.903782
2541.839533,1762.019645,518.144159,8734.430116
2541.839863,1915.238745,370.102971,8364.327145
2541.840192,1685.410096,2220.617826,10881.027347
2541.840521,4903.011187,296.082377,7772.162391
2541.840850,8963.317327,3849.070898,4589.276840
2541.841179,7967.393179,2368.659014,4515.256246
2541.841508,5592.497135,3108.864956,4145.153275
2541.841837,3524.039291,4663.297435,7179.997637
2541.842166,1149.143247,296.082377,6513.812290
2541.842495,-766.095498,-1850.514855,9252.574275
2541.842824,-2221.676944,-2368.659014,13249.686362
2541.843153,-3677.258390,-1628.453072,7254.018232
2541.843482,-6358.592633,-5181.441594,12583.501014
2541.843811,-7737.564530,-2960.823768,12731.542202
2541.844140,-5056.230287,-2516.700203,12139.377449
2541.844469,-3370.820191,-2220.617826,13471.748144
2541.844799,0.000000,-370.102971,10584.944971
2541.845128,2757.943793,-518.144159,9696.697840
2541.845457,919.314598,666.185348,7772.162391
2541.845786,3370.820191,740.205942,14063.912898
2541.846115,4749.792088,1554.432478,4959.379811
2541.846444,10189.070123,3701.029710,7179.997637
2541.846773,6894.859482,2294.638420,3108.864956
2541.847102,6358.592633,4589.276840,4737.318029
2541.847431,2604.724693,3701.029710,7402.059420
2541.847760,1838.629195,-370.102971,6143.709319
2541.848089,-995.924147,-2220.617826,10362.883188
2541.848418,-2451.505594,-3256.906145,11843.295072
2541.848747,-4749.792088,-2368.659014,7624.121203
2541.849076,-6894.859482,-6587.832884,14063.912898
2541.849406,-6894.859482,-3182.885551,10807.006753
2541.849735,-5132.839837,-2220.617826,11843.295072
2541.850064,-3370.820191,-2220.617826,12731.542202
2541.850393,0.000000,-148.041188,9622.677246
2541.850722,2911.162892,-1702.473667,9844.739029
2541.851051,919.314598,2368.659014,6883.915261
2541.851380,3983.696590,1258.350101,13619.789333
2541.851709,4903.011187,1110.308913,4737.318029
2541.852038,9576.193725,4071.132681,6809.894666
2541.852367,6281.983084,2368.659014,3478.967927
2541.852696,6128.763984,4737.318029,4737.318029
2541.853025,2911.162892,3849.070898,6957.935855
2541.853354,842.705048,-148.041188,6143.709319
2541.853683,-919.314598,-2072.576638,10732.986159
2541.854013,-2298.286494,-2294.638420,12361.439231
2541.854342,-5056.230287,-2664.741391,6883.915261
2541.854671,-7507.735880,-6809.894666,15026.180623
2541.855000,-7277.907231,-2812.782580,10362.883188
2541.855329,-4060.306139,-2220.617826,12139.377449
2541.855658,-4213.525239,-2886.803174,13027.624579
2541.855987,-919.314598,-518.144159,10362.883188
2541.856316,2451.505594,-1554.432478,11029.068536
2541.856645,229.828649,2664.741391,6069.688724
2541.856974,4519.963438,296.082377,14730.098246
2541.857303,5286.058936,1258.350101,3478.967927
2541.857632,10648.727422,4071.132681,6513.812290
2541.857961,6128.763984,3330.926739,3404.947333
2541.858290,5439.278036,4885.359217,4959.379811
2541.858620,1608.800546,1924.535449,8216.285956
2541.858949,-995.924147,-2072.576638,8068.244768
2541.859278,-1532.190996,-3256.906145,11251.130318
2541.859607,-3294.210641,-1924.535449,11695.253884
2541.859936,-5975.544884,-4737.318029,7698.141797
2541.860265,-8580.269578,-4663.297435,14730.098246
2541.860594,-6511.811733,-3108.864956,10881.027347
2541.860923,-3370.820191,-740.205942,12139.377449
2541.861252,-2451.505594,-1554.432478,11695.253884
2541.861581,1072.533697,666.185348,9252.574275
2541.861910,2221.676944,814.226536,7772.162391
2541.862239,2298.286494,296.082377,12287.418637
2541.862568,4749.792088,1850.514855,7105.977043
2541.862897,9116.536426,3404.947333,6365.771101
2541.863226,8810.098227,3108.864956,3404.947333
2541.863556,6281.983084,4071.132681,3701.029710
2541.863885,4060.306139,5107.421000,7994.224174
2541.864214,2298.286494,1554.432478,5255.462188
2541.864543,459.657299,-888.247130,7254.018232
2541.864872,-2604.724693,-4589.276840,14137.933492
2541.865201,-3600.648841,-814.226536,7772.162391
2541.865530,-6894.859482,-5995.668130,10807.006753
2541.865859,-7507.735880,-4811.338623,14211.954086
2541.866188,-7048.078582,-2442.679609,11843.295072
2541.866517,-4060.306139,-2368.659014,13619.789333
2541.866846,-2528.115143,962.267725,10510.924376
2541.867175,1915.238745,-888.247130,10066.800811
2541.867504,2374.896044,1998.556043,7624.121203
2541.867833,1149.143247,3478.967927,10881.027347
2541.868163,5209.449386,-296.082377,9178.553681
2541.868492,7737.564530,3997.112087,3997.112087
2541.868821,9193.145976,2368.659014,5995.668130
2541.869150,4979.620737,4071.132681,2442.679609
2541.869479,4519.963438,4293.194464,8068.244768
2541.869808,919.314598,222.061783,7031.956449
2541.870137,-612.876398,-2294.638420,9030.512492
2541.870466,-2911.162892,-3849.070898,13767.830521
2541.870795,-4366.744339,-1110.308913,6365.771101
2541.871124,-5209.449386,-6217.729913,12953.603985
2541.871453,-8733.488677,-3404.947333,12731.542202
2541.871782,-5515.887586,-2590.720797,11621.233289
2541.872111,-4290.134789,-2590.720797,13471.748144
2541.872440,-1225.752797,-444.123565,10436.903782
2541.872770,1915.238745,-370.102971,9030.512492
2541.873099,995.924147,1258.350101,7254.018232
2541.873428,2298.286494,1628.453072,12139.377449
2541.873757,5362.668486,-0.000000,7254.018232
2541.874086,9499.584175,3923.091493,3701.029710
2541.874415,7584.345430,1184.329507,4663.297435
2541.874744,5362.668486,3775.050304,2812.782580
2541.875073,3907.087040,3775.050304,7772.162391
2541.875402,2451.505594,814.226536,5995.668130
2541.875731,1838.629195,518.144159,6069.688724
2541.876060,-2528.115143,-3478.967927,12657.521608
2541.876389,-3294.210641,-3034.844362,9622.677246
2541.876718,-5439.278036,-4071.132681,11621.233289
2541.877047,-5056.230287,-3701.029710,12139.377449
2541.877377,-4673.182538,-1406.391290,9992.780217
2541.877706,-2757.943793,-2294.638420,13249.686362
2541.878035,-1915.238745,74.020594,12509.480420
2541.878364,766.095498,-666.185348,10362.883188
2541.878693,1991.848295,-148.041188,9326.594869
2541.879022,459.657299,2664.741391,9326.594869
2541.879351,5286.058936,-962.267725,13841.851115
2541.879680,5822.325785,3108.864956,2146.597232
2541.880009,9499.584175,2072.576638,6513.812290
2541.880338,4673.182538,2368.659014,3034.844362
2541.880667,6052.154434,4367.215058,6439.791695
2541.880996,2145.067394,1998.556043,7031.956449
2541.881325,153.219100,-518.144159,6883.915261
2541.881654,-2298.286494,-3478.967927,12953.603985
2541.881983,-3370.820191,-2072.576638,10362.883188
2541.882313,-6435.202183,-2738.761985,8142.265362
2541.882642,-8427.050478,-4959.379811,15692.365970
2541.882971,-5209.449386,-2072.576638,10288.862594
2541.883300,-3064.381992,-1480.411884,13323.706956
2541.883629,-2298.286494,-2368.659014,12953.603985
2541.883958,536.266849,-0.000000,8438.347739
2541.884288,1302.362347,-0.000000,9474.636058
2541.884617,995.924147,1850.514855,9622.677246
2541.884946,6281.983084,1110.308913,9326.594869
2541.885275,6818.249932,2516.700203,2590.720797
2541.885604,8273.831378,1924.535449,5847.626942
2541.885933,4136.915689,3034.844362,3330.926739
2541.886263,4366.744339,4367.215058,6069.688724
2541.886592,1302.362347,1628.453072,6291.750507
2541.886921,0.000000,-1628.453072,7772.162391
2541.887250,-3064.381992,-3552.988522,14063.912898
2541.887579,-2987.772442,-1628.453072,7031.956449
2541.887908,-6052.154434,-5477.523971,11177.109724
2541.888238,-7660.954980,-4071.132681,13397.727550
2541.888567,-4979.620737,-2294.638420,10510.924376
2541.888896,-2757.943793,-2442.679609,13545.768739
2541.889225,-1072.533697,-222.061783,10807.006753
2541.889554,1455.581446,-0.000000,8734.430116
2541.889883,1302.362347,518.144159,8068.244768
2541.890213,2068.457845,2368.659014,11251.130318
2541.890542,4979.620737,814.226536,6587.832884
2541.890871,8273.831378,3849.070898,5551.544565
2541.891200,7048.078582,2738.761985,3552.988522
2541.891529,4749.792088,4071.132681,4367.215058
2541.891858,995.924147,2368.659014,8882.471304
2541.892188,-1149.143247,-592.164754,7624.121203
2541.892517,-1455.581446,-4811.338623,11991.336260
2541.892846,-2834.553343,-1258.350101,11103.089130
2541.893175,-5975.544884,-2664.741391,6143.709319
2541.893504,-7890.783629,-6143.709319,16580.613101
2541.893833,-8886.707777,-2516.700203,11399.171507
2541.894163,-3753.867940,-2368.659014,12879.583391
2541.894492,-3447.429741,-1998.556043,11029.068536
2541.894821,1072.533697,888.247130,9252.574275
2541.895150,1915.238745,-74.020594,9326.594869
2541.895479,612.876398,2146.597232,7550.100608
2541.895808,4519.963438,666.185348,13027.624579
2541.896138,5822.325785,3478.967927,1924.535449
2541.896467,10342.289223,2738.761985,7624.121203
2541.896796,5132.839837,3404.947333,3182.885551
2541.897125,6435.202183,4885.359217,4441.235652
2541.897454,1991.848295,1924.535449,6883.915261
2541.897783,1302.362347,-888.247130,6365.771101
2541.898112,-1455.581446,-2146.597232,12065.356855
2541.898442,-2451.505594,-2146.597232,11695.253884
2541.898771,-3677.258390,-4811.338623,8882.471304
2541.899100,-6128.763984,-4071.132681,13767.830521
2541.899429,-4903.011187,-2664.741391,11843.295072
2541.899758,-3753.867940,-1998.556043,12435.459826
2541.900087,-2145.067394,-518.144159,13323.706956
2541.900417,536.266849,814.226536,9400.615463
2541.900746,2451.505594,-1406.391290,10510.924376
2541.901075,0.000000,2664.741391,7772.162391
2541.901404,5362.668486,-814.226536,14285.974681
2541.901733,5286.058936,3034.844362,2664.741391
2541.902062,10035.851024,3182.885551,6587.832884
2541.902392,5669.106685,2516.700203,3627.009116
2541.902721,5592.497135,4589.276840,5107.421000
2541.903050,3447.429741,2886.803174,6217.729913
2541.903379,1838.629195,-222.061783,5329.482782
2541.903708,-1225.752797,-2590.720797,11547.212695
2541.904037,-2068.457845,-2368.659014,12065.356855
2541.904367,-4749.792088,-3923.091493,9178.553681
2541.904696,-7354.516781,-4589.276840,13841.851115
2541.905025,-5592.497135,-2442.679609,10881.027347
2541.905354,-4366.744339,-2516.700203,12287.418637
2541.905683,-2757.943793,-2294.638420,13693.809927
2541.906012,-153.219100,-74.020594,9326.594869
2541.906342,2221.676944,-1258.350101,9548.656652
2541.906671,153.219100,4219.173869,5181.441594
2541.907000,4213.525239,-0.000000,13693.809927
2541.907329,4979.620737,1702.473667,4219.173869
2541.907658,10342.289223,3404.947333,5995.668130
2541.907987,5822.325785,2516.700203,3330.926739
2541.908317,5362.668486,3775.050304,4737.318029
2541.908646,2068.457845,2886.803174,7624.121203
2541.908975,-229.828649,-1036.288319,7624.121203
2541.909304,-919.314598,-1998.556043,11251.130318
2541.909633,-2604.724693,-1702.473667,11029.068536
2541.909962,-5209.449386,-3552.988522,7920.203579
2541.910292,-7660.954980,-5107.421000,15100.201217
2541.910621,-7048.078582,-2886.803174,10807.006753
2541.910950,-3524.039291,-2146.597232,12361.439231
2541.911279,-2911.162892,-3108.864956,13027.624579
2541.911608,229.828649,-74.020594,9548.656652
2541.911937,1378.971896,-888.247130,9326.594869
2541.912267,766.095498,2516.700203,7550.100608
2541.912596,3830.477490,-0.000000,13249.686362
2541.912925,6052.154434,3034.844362,4071.132681
2541.913254,9729.412825,3627.009116,6217.729913
2541.913583,5669.106685,3256.906145,3330.926739
2541.913912,5439.278036,5181.441594,4663.297435
2541.914242,919.314598,962.267725,7994.224174
2541.914571,-995.924147,-2146.597232,8142.265362
2541.914900,-1532.190996,-2664.741391,12435.459826
2541.915229,-3677.258390,-1258.350101,8956.491898
2541.915558,-5898.935335,-3997.112087,10140.821405
2541.915887,-8886.707777,-4367.215058,14063.912898
2541.916217,-6281.983084,-2368.659014,11547.212695
2541.916546,-4366.744339,-1554.432478,13249.686362
2541.916875,-2068.457845,-1406.391290,11103.089130
2541.917204,1302.362347,518.144159,9770.718434
2541.917533,1532.190996,-370.102971,7772.162391
2541.917862,536.266849,1998.556043,9474.636058
2541.918192,5209.449386,518.144159,10436.903782
2541.918521,7201.297681,3627.009116,2368.659014
2541.918850,8733.488677,3182.885551,6587.832884
2541.919179,4596.572988,3478.967927,3256.906145
2541.919508,5056.230287,4663.297435,7105.977043
2541.919837,1302.362347,1924.535449,7105.977043
2541.920167,995.924147,-0.000000,6365.771101
2541.920496,-2068.457845,-3256.906145,12361.439231
2541.920825,-2451.505594,-1258.350101,9178.553681
2541.921154,-5209.449386,-4737.318029,10510.924376
2541.921483,-7584.345430,-4737.318029,13175.665768
2541.921812,-4903.011187,-3330.926739,11029.068536
2541.922142,-3140.991542,-2664.741391,12731.542202
2541.922471,-1378.971896,-814.226536,11991.336260
2541.922800,1149.143247,370.102971,8808.450710
2541.923129,2145.067394,-444.123565,8512.368333
2541.923458,842.705048,2368.659014,9548.656652
2541.923787,4979.620737,-148.041188,9844.739029
2541.924117,6741.640382,3552.988522,3182.885551
2541.924446,8197.221829,3034.844362,5995.668130
2541.924775,4826.401637,3256.906145,3552.988522
2541.925104,4826.401637,3034.844362,7550.100608
2541.925433,1072.533697,1998.556043,6513.812290
2541.925762,383.047749,-1628.453072,7328.038826
2541.926092,-2298.286494,-3552.988522,12361.439231
2541.926421,-3370.820191,-888.247130,8142.265362
2541.926750,-5822.325785,-4959.379811,11843.295072
2541.927079,-9882.631924,-3627.009116,12805.562797
2541.927408,-5898.935335,-2664.741391,10955.047942
2541.927737,-3830.477490,-2294.638420,13249.686362
2541.928067,-1225.752797,-962.267725,10732.986159
2541.928396,1838.629195,-666.185348,8956.491898
2541.928725,1455.581446,-148.041188,8734.430116
2541.929054,1838.629195,1332.370696,11325.150913
2541.929383,5209.449386,-0.000000,7920.203579
2541.929712,8886.707777,3330.926739,5329.482782
2541.930042,8120.612279,3108.864956,3404.947333
2541.930371,5515.887586,3404.947333,4293.194464
2541.930700,4213.525239,3552.988522,7624.121203
2541.931029,2298.286494,1110.308913,6957.935855
2541.931358,842.705048,-814.226536,8586.388927
2541.931687,-2451.505594,-3330.926739,12953.603985
2541.932017,-3753.867940,-1406.391290,7698.141797
2541.932346,-5898.935335,-6069.688724,13027.624579
2541.932675,-8044.002729,-3775.050304,12287.418637
2541.933004,-6511.811733,-3256.906145,11103.089130
2541.933333,-3677.258390,-3997.112087,14211.954086
2541.933662,-1991.848295,-222.061783,11177.109724
2541.933992,1532.190996,-2072.576638,9844.739029
2541.934321,1225.752797,1332.370696,7476.080014
2541.934650,2298.286494,1628.453072,13027.624579
2541.934979,5822.325785,148.041188,7920.203579
2541.935308,9729.412825,4515.256246,5477.523971
2541.935637,8427.050478,2590.720797,2960.823768
2541.935967,5592.497135,4293.194464,4145.153275
2541.936296,2911.162892,4219.173869,8808.450710
2541.936625,459.657299,-0.000000,7031.956449
2541.936954,-766.095498,-2072.576638,9992.780217
2541.937283,-3830.477490,-3775.050304,13767.830521
2541.937612,-6052.154434,-1776.494261,7105.977043
2541.937942,-7354.516781,-6809.894666,15100.201217
2541.938271,-9959.241474,-3034.844362,11695.253884
2541.938600,-5592.497135,-2738.761985,12139.377449
2541.938929,-3907.087040,-2220.617826,13175.665768
2541.939258,-229.828649,-0.000000,9622.677246
2541.939587,2374.896044,-0.000000,8586.388927
2541.939916,1302.362347,1554.432478,7550.100608
2541.940246,5592.497135,1480.411884,14137.933492
2541.940575,5975.544884,2738.761985,0.000000
2541.940904,11491.432470,3701.029710,7994.224174
2541.941233,6281.983084,3478.967927,2516.700203
2541.941562,7354.516781,5329.482782,4145.153275
2541.941891,1302.362347,4219.173869,6809.894666
2541.942221,1762.019645,666.185348,5403.503377
2541.942550,-1991.848295,-2368.659014,12953.603985
2541.942879,-3064.381992,-4219.173869,12065.356855
2541.943208,-5669.106685,-1850.514855,7476.080014
2541.943537,-7354.516781,-7328.038826,15544.324782
2541.943866,-6894.859482,-2368.659014,9400.615463
2541.944196,-4519.963438,-2516.700203,13397.727550
2541.944525,-2604.724693,-1702.473667,12065.356855
2541.944854,229.828649,592.164754,9474.636058
2541.945183,2451.505594,-2072.576638,9770.718434
2541.945512,229.828649,3404.947333,6587.832884
2541.945841,4060.306139,-518.144159,17912.983796
2541.946171,4519.963438,2146.597232,1924.535449
2541.946500,11338.213370,3552.988522,7772.162391
2541.946829,6205.373534,1924.535449,3256.906145
2541.947158,6818.249932,5847.626942,3552.988522
2541.947487,1455.581446,4219.173869,7994.224174
2541.947816,1915.238745,-0.000000,5477.523971
2541.948146,-995.924147,296.082377,10955.047942
2541.948475,-3447.429741,-4589.276840,12287.418637
2541.948804,-5439.278036,-1924.535449,8512.368333
2541.949133,-7737.564530,-6069.688724,14508.036463
2541.949462,-6665.030833,-3330.926739,9992.780217
2541.949791,-5898.935335,-2368.659014,12361.439231
2541.950121,-3524.039291,-3478.967927,14434.015869
2541.950450,-1915.238745,296.082377,9696.697840
2541.950779,1762.019645,-2516.700203,10066.800811
2541.951108,766.095498,3330.926739,5995.668130
2541.951437,1455.581446,1036.288319,12287.418637
2541.951766,5362.668486,-666.185348,8734.430116
2541.952096,8580.269578,3849.070898,3330.926739
2541.952425,7737.564530,2294.638420,5847.626942
2541.952754,3753.867940,2738.761985,2812.782580
2541.953083,4060.306139,4737.318029,7994.224174
2541.953412,1225.752797,1036.288319,6587.832884
2541.953741,995.924147,518.144159,8290.306550
2541.954071,-2681.334243,-3627.009116,13101.645173
2541.954400,-2987.772442,-2294.638420,8808.450710
2541.954729,-5132.839837,-5551.544565,12065.356855
2541.955058,-6205.373534,-2812.782580,11325.150913
2541.955387,-3753.867940,-2294.638420,10955.047942
2541.955716,-1991.848295,-3330.926739,13619.789333
2541.956046,-383.047749,-222.061783,11695.253884
2541.956375,1532.190996,-666.185348,9400.615463
2541.956704,612.876398,814.226536,8882.471304
2541.957033,2834.553343,888.247130,14137.933492
2541.957362,5056.230287,1332.370696,5773.606348
2541.957691,9882.631924,3849.070898,6661.853478
2541.958021,7201.297681,2442.679609,3256.906145
2541.958350,5592.497135,4145.153275,5329.482782
2541.958679,2528.115143,3997.112087,8290.306550
2541.959008,1991.848295,222.061783,6143.709319
2541.959337,0.000000,-1702.473667,10436.903782
2541.959666,-3217.601092,-4441.235652,13323.706956
2541.959996,-4596.572988,-1702.473667,8364.327145
2541.960325,-6205.373534,-5107.421000,12065.356855
2541.960654,-6818.249932,-2886.803174,10955.047942
2541.960983,-3753.867940,-2368.659014,11399.171507
2541.961312,-1838.629195,-1406.391290,11991.336260
2541.961641,-1072.533697,-222.061783,10362.883188
2541.961971,1685.410096,-2146.597232,8364.327145
2541.962300,612.876398,2146.597232,7994.224174
2541.962629,2374.896044,1184.329507,13249.686362
2541.962958,4979.620737,1332.370696,5477.523971
2541.963287,8503.660028,2516.700203,6957.935855
2541.963616,7048.078582,2294.638420,2294.638420
2541.963946,4903.011187,3330.926739,4811.338623
2541.964275,1915.238745,3701.029710,7772.162391
2541.964604,229.828649,-370.102971,6439.791695
2541.964933,-612.876398,-2368.659014,11621.233289
2541.965262,-3294.210641,-2516.700203,11843.295072
2541.965591,-4443.353888,-2664.741391,7698.141797
2541.965921,-6435.202183,-5847.626942,13767.830521
2541.966250,-6052.154434,-2442.679609,11325.150913
2541.966579,-3294.210641,-2294.638420,11769.274478
2541.966908,-1685.410096,-2368.659014,13175.665768
2541.967237,766.095498,-0.000000,9400.615463
2541.967566,1455.581446,-0.000000,7994.224174
2541.967896,306.438199,444.123565,10362.883188
2541.968225,4136.915689,1554.432478,10658.965565
2541.968554,6128.763984,3849.070898,2220.617826
2541.968883,9039.926876,3404.947333,7031.956449
2541.969212,5362.668486,3034.844362,3182.885551
2541.969541,5439.278036,4441.235652,6069.688724
2541.969871,1072.533697,1850.514855,6661.853478
2541.970200,153.219100,-1036.288319,6513.812290
2541.970529,-2604.724693,-4737.318029,14211.954086
2541.970858,-3294.210641,-1036.288319,9104.533087
2541.971187,-5669.106685,-3997.112087,9178.553681
2541.971516,-8350.440928,-4663.297435,14063.912898
2541.971846,-6511.811733,-3182.885551,10584.944971
2541.972175,-3294.210641,-1850.514855,13101.645173
2541.972504,-2068.457845,-222.061783,11547.212695
2541.972833,1532.190996,666.185348,8586.388927
2541.973162,1838.629195,-148.041188,8808.450710
2541.973491,0.000000,3108.864956,8956.491898
2541.973821,4596.572988,-74.020594,10732.986159
2541.974150,6281.983084,3627.009116,1776.494261
2541.974479,8580.269578,2368.659014,6143.709319
2541.974808,4443.353888,3552.988522,2442.679609
2541.975137,5056.230287,3849.070898,7105.977043
2541.975466,383.047749,1480.411884,6735.874072
2541.975796,-689.485948,-1702.473667,8142.265362
2541.976125,-2374.896044,-3108.864956,12953.603985
2541.976454,-3140.991542,-1406.391290,7846.182985
2541.976783,-4673.182538,-4663.297435,10881.027347
2541.977112,-7584.345430,-3034.844362,12805.562797
2541.977441,-4443.353888,-3034.844362,10584.944971
2541.977771,-2911.162892,-2220.617826,13989.892304
2541.978100,-766.095498,-444.123565,11399.171507
2541.978429,1532.190996,1036.288319,8808.450710
2541.978758,689.485948,-0.000000,9326.594869
2541.979087,153.219100,2220.617826,9548.656652
2541.979416,4213.525239,-0.000000,11547.212695
2541.979746,6128.763984,4589.276840,3182.885551
2541.980075,8963.317327,2442.679609,6217.729913
2541.980404,4903.011187,3627.009116,2738.761985
2541.980733,4366.744339,3182.885551,6069.688724
2541.981062,459.657299,-222.061783,6957.935855
2541.981391,-766.095498,-1406.391290,8512.368333
2541.981720,-2451.505594,-2960.823768,12583.501014
2541.982050,-3217.601092,-2812.782580,8364.327145
2541.982379,-5898.935335,-3330.926739,10214.842000
2541.982708,-7201.297681,-2886.803174,13027.624579
2541.983037,-4673.182538,-2368.659014,10362.883188
2541.983366,-2987.772442,-1628.453072,13027.624579
2541.983695,-306.438199,-888.247130,10732.986159
2541.984025,1455.581446,370.102971,9400.615463
2541.984354,306.438199,-444.123565,8586.388927
2541.984683,0.000000,1184.329507,9992.780217
2541.985012,4826.401637,-0.000000,9622.677246
2541.985341,7814.174080,3849.070898,3404.947333
2541.985670,8350.440928,2368.659014,4737.318029
2541.985999,5132.839837,3108.864956,4663.297435
2541.986328,4290.134789,3108.864956,7105.977043
2541.986658,1608.800546,1628.453072,6587.832884
2541.986987,842.705048,-1332.370696,7920.203579
2541.987316,-2221.676944,-2664.741391,11769.274478
2541.987645,-2604.724693,-2072.576638,9104.533087
2541.987974,-5286.058936,-4663.297435,11029.068536
2541.988303,-6205.373534,-2960.823768,12065.356855
2541.988632,-4213.525239,-2960.823768,10362.883188
2541.988961,-1608.800546,-1628.453072,12805.562797
2541.989290,153.219100,-74.020594,11177.109724
2541.989619,1685.410096,518.144159,8512.368333
2541.989948,1149.143247,-0.000000,9474.636058
2541.990278,1838.629195,962.267725,12583.501014
2541.990607,4826.401637,1184.329507,6735.874072
2541.990936,8580.269578,3404.947333,6365.771101
2541.991265,7354.516781,2442.679609,2664.741391
2541.991594,5592.497135,3775.050304,5477.523971
2541.991923,2911.162892,2146.597232,7772.162391
2541.992252,536.266849,370.102971,6735.874072
2541.992581,-689.485948,-2960.823768,10881.027347
2541.992910,-2834.553343,-2886.803174,12213.398043
2541.993239,-5056.230287,-2812.782580,7179.997637
2541.993569,-6435.202183,-5107.421000,13693.809927
2541.993898,-7124.688131,-2960.823768,11843.295072
2541.994227,-5209.449386,-1998.556043,12287.418637
2541.994556,-2451.505594,-1850.514855,12953.603985
2541.994885,76.609550,-222.061783,9622.677246
2541.995214,1685.410096,-666.185348,9474.636058
2541.995543,459.657299,2072.576638,8142.265362
2541.995872,2911.162892,962.267725,13101.645173
2541.996201,4596.572988,1924.535449,5329.482782
2541.996530,10265.679673,3923.091493,6291.750507
2541.996860,7124.688131,2960.823768,2590.720797
2541.997189,5286.058936,4515.256246,4663.297435
2541.997518,1915.238745,2442.679609,7105.977043
2541.997847,0.000000,-370.102971,7105.977043
2541.998176,-1225.752797,-1998.556043,11325.150913
2541.998505,-3370.820191,-1554.432478,11177.109724
2541.998834,-5056.230287,-4589.276840,8660.409521
2541.999163,-7201.297681,-5477.523971,14359.995275
2541.999492,-6894.859482,-3182.885551,11917.315666
2541.999821,-4519.963438,-2812.782580,12361.439231
2542.000150,-2604.724693,-2220.617826,12805.562797
2542.000480,459.657299,888.247130,9918.759623
2542.000809,2221.676944,-0.000000,9252.574275
2542.001138,76.609550,2072.576638,7772.162391
2542.001467,5439.278036,740.205942,12139.377449
2542.001796,6435.202183,4293.194464,1110.308913
2542.002125,10725.336972,3997.112087,7031.956449
2542.002454,4979.620737,3701.029710,2664.741391
2542.002783,6052.154434,3997.112087,6143.709319
2542.003112,76.609550,962.267725,8290.306550
2542.003441,-1991.848295,-1480.411884,8586.388927
2542.003771,-2834.553343,-4885.359217,13989.892304
2542.004100,-4826.401637,-962.267725,8142.265362
2542.004429,-6665.030833,-5329.482782,12509.480420
2542.004758,-10495.508323,-4293.194464,13249.686362
2542.005087,-5898.935335,-3478.967927,11695.253884
2542.005416,-4290.134789,-1554.432478,12509.480420
2542.005745,-1532.190996,-0.000000,10066.800811
2542.006074,1685.410096,1924.535449,8660.409521
2542.006403,1072.533697,814.226536,7402.059420
2542.006732,4749.792088,962.267725,14359.995275
2542.007062,4519.963438,2072.576638,3775.050304
2542.007391,10878.556072,3330.926739,7105.977043
2542.007720,7048.078582,2738.761985,2294.638420
2542.008049,7048.078582,5033.400406,5107.421000
2542.008378,2911.162892,3627.009116,7994.224174
2542.008707,1072.533697,-444.123565,7031.956449
2542.009036,-689.485948,-1776.494261,11769.274478
2542.009365,-3140.991542,-3478.967927,12731.542202
2542.009694,-4290.134789,-1776.494261,7328.038826
2542.010023,-5898.935335,-6069.688724,14211.954086
2542.010353,-5669.106685,-3330.926739,10584.944971
2542.010682,-4366.744339,-2886.803174,12065.356855
2542.011011,-2221.676944,-1702.473667,12213.398043
2542.011340,153.219100,962.267725,9030.512492
2542.011669,2528.115143,-888.247130,8956.491898
2542.011998,1072.533697,1702.473667,7476.080014
2542.012327,3907.087040,-0.000000,16062.468941
2542.012656,4749.792088,1554.432478,2590.720797
2542.012985,10878.556072,2220.617826,8216.285956
2542.013314,6741.640382,2220.617826,3923.091493
2542.013643,7584.345430,5255.462188,4663.297435
2542.013973,2221.676944,3627.009116,7846.182985
2542.014302,2298.286494,1998.556043,4885.359217
2542.014631,459.657299,592.164754,9844.739029
2542.014960,-3370.820191,-3330.926739,11843.295072
2542.015289,-4519.963438,-3627.009116,9696.697840
2542.015618,-6894.859482,-5255.462188,12657.521608
2542.015947,-5209.449386,-4959.379811,11251.130318
2542.016276,-6818.249932,-1554.432478,11399.171507
2542.016605,-2451.505594,-2664.741391,13175.665768
2542.016934,-2528.115143,962.267725,9770.718434
2542.017264,1532.190996,-2590.720797,10732.986159
2542.017593,2451.505594,1998.556043,7179.997637
2542.017922,689.485948,1776.494261,9474.636058
2542.018251,6052.154434,-592.164754,11695.253884
2542.018580,5898.935335,3849.070898,962.267725
2542.018909,8427.050478,2220.617826,7920.203579
2542.019238,3064.381992,2812.782580,2738.761985
2542.019567,5592.497135,4515.256246,7254.018232
2542.019896,1685.410096,2516.700203,7031.956449
2542.020225,536.266849,814.226536,5625.565159
2542.020555,-2451.505594,-3330.926739,12509.480420
2542.020884,-3677.258390,-2442.679609,9030.512492
2542.021213,-5898.935335,-5033.400406,10584.944971
2542.021542,-7737.564530,-5033.400406,12731.542202
2542.021871,-5132.839837,-2590.720797,9844.739029
2542.022200,-2757.943793,-3627.009116,13323.706956
2542.022529,-1685.410096,-1258.350101,11695.253884
2542.022858,689.485948,-222.061783,8956.491898
2542.023187,1378.971896,-222.061783,9696.697840
2542.023516,689.485948,2738.761985,8882.471304
2542.023845,5975.544884,592.164754,11251.130318
2542.024175,7048.078582,4219.173869,2146.597232
2542.024504,7814.174080,1850.514855,6735.874072
2542.024833,4136.915689,3034.844362,3627.009116
2542.025162,4749.792088,4737.318029,7105.977043
2542.025491,1149.143247,1406.391290,6661.853478
2542.025820,612.876398,592.164754,6291.750507
2542.026149,-2604.724693,-3627.009116,13619.789333
2542.026478,-3600.648841,-1924.535449,9178.553681
2542.026807,-5515.887586,-3627.009116,10140.821405
2542.027136,-7967.393179,-5255.462188,13249.686362
2542.027466,-4903.011187,-2072.576638,10510.924376
2542.027795,-3140.991542,-2072.576638,12879.583391
2542.028124,-2221.676944,-962.267725,11917.315666
2542.028453,229.828649,-518.144159,9474.636058
2542.028782,2068.457845,-0.000000,8734.430116
2542.029111,766.095498,3775.050304,8438.347739
2542.029440,4826.401637,-0.000000,12805.562797
2542.029769,5745.716235,3775.050304,1998.556043
2542.030098,8580.269578,2368.659014,7105.977043
2542.030427,3753.867940,3330.926739,2960.823768
2542.030757,5209.449386,5477.523971,5847.626942
2542.031086,919.314598,1258.350101,7031.956449
2542.031415,76.609550,-666.185348,7328.038826
2542.031744,-2221.676944,-3034.844362,13249.686362
2542.032073,-2911.162892,-2146.597232,9326.594869
2542.032402,-5669.106685,-4589.276840,9400.615463
2542.032731,-7431.126331,-4589.276840,13915.871710
2542.033060,-4979.620737,-2294.638420,10362.883188
2542.033389,-2451.505594,-2294.638420,13249.686362
2542.033718,-1378.971896,-1332.370696,12361.439231
2542.034048,1378.971896,592.164754,9030.512492
2542.034377,995.924147,-0.000000,9178.553681
2542.034706,612.876398,2516.700203,9992.780217
2542.035035,5286.058936,962.267725,10584.944971
2542.035364,7124.688131,4663.297435,2738.761985
2542.035693,7890.783629,1850.514855,6069.688724
2542.036022,3753.867940,3552.988522,3552.988522
2542.036351,4366.744339,3478.967927,7105.977043
2542.036680,0.000000,518.144159,6735.874072
2542.037009,-766.095498,-2516.700203,8438.347739
2542.037338,-2451.505594,-3627.009116,13693.809927
2542.037668,-3600.648841,-1850.514855,7698.141797
2542.037997,-5439.278036,-4293.194464,11399.171507
2542.038326,-7201.297681,-4145.153275,12805.562797
2542.038655,-3983.696590,-1850.514855,9992.780217
2542.038984,-2298.286494,-1702.473667,13619.789333
2542.039313,76.609550,-296.082377,10288.862594
2542.039642,1378.971896,666.185348,8364.327145
2542.039971,76.609550,-370.102971,9474.636058
2542.040300,1302.362347,1184.329507,12287.418637
2542.040629,4519.963438,1036.288319,6587.832884
2542.040959,9039.926876,3701.029710,5477.523971
2542.041288,7277.907231,1628.453072,3775.050304
2542.041617,4826.401637,3923.091493,4737.318029
2542.041946,3294.210641,2812.782580,7402.059420
2542.042275,536.266849,370.102971,6291.750507
2542.042604,-459.657299,-2516.700203,10658.965565
2542.042933,-2298.286494,-2442.679609,11843.295072
2542.043262,-3753.867940,-2516.700203,7624.121203
2542.043591,-4366.744339,-4811.338623,13323.706956
2542.043920,-5056.230287,-2886.803174,10214.842000
2542.044250,-3140.991542,-2072.576638,11251.130318
2542.044579,-1762.019645,-1332.370696,12879.583391
2542.044908,306.438199,592.164754,9696.697840
2542.045237,1302.362347,-222.061783,8734.430116
2542.045566,0.000000,888.247130,9400.615463
2542.045895,1225.752797,-0.000000,13101.645173
2542.046224,5439.278036,1110.308913,7105.977043
2542.046553,9269.755526,3701.029710,5995.668130
2542.046882,6894.859482,1554.432478,3775.050304
2542.047211,4826.401637,3997.112087,5329.482782
2542.047541,2374.896044,1702.473667,8512.368333
2542.047870,76.609550,-0.000000,6809.894666
2542.048199,-612.876398,-3034.844362,11547.212695
2542.048528,-2145.067394,-1036.288319,11547.212695
2542.048857,-4443.353888,-3478.967927,9030.512492
2542.049186,-5975.544884,-3775.050304,13397.727550
2542.049515,-5362.668486,-2072.576638,10732.986159
2542.049844,-3064.381992,-1480.411884,11843.295072
2542.050173,-1915.238745,-1332.370696,12435.459826
2542.050502,383.047749,148.041188,9474.636058
2542.050831,1532.190996,-962.267725,9474.636058
2542.051161,-383.047749,592.164754,9326.594869
2542.051490,1838.629195,-0.000000,12509.480420
2542.051819,4826.401637,962.267725,7328.038826
2542.052148,8427.050478,3330.926739,6809.894666
2542.052477,5745.716235,2368.659014,3627.009116
2542.052806,5515.887586,3330.926739,5255.462188
2542.053135,2068.457845,2220.617826,6661.853478
2542.053464,0.000000,444.123565,8364.327145
2542.053793,-1378.971896,-2738.761985,11695.253884
2542.054122,-2604.724693,-518.144159,10288.862594
2542.054452,-4749.792088,-3108.864956,8216.285956
2542.054781,-6358.592633,-4293.194464,13397.727550
2542.055110,-6435.202183,-3478.967927,10066.800811
2542.055439,-2834.553343,-1998.556043,11917.315666
2542.055768,-1532.190996,-1554.432478,12287.418637
2542.056097,919.314598,296.082377,9474.636058
2542.056426,1072.533697,-814.226536,9326.594869
2542.056755,-383.047749,1776.494261,8586.388927
2542.057084,3370.820191,-0.000000,13101.645173
2542.057413,5975.544884,2960.823768,3627.009116
2542.057743,9959.241474,3404.947333,6587.832884
2542.058072,5515.887586,2886.803174,3552.988522
2542.058401,4903.011187,4441.235652,5773.606348
2542.058730,459.657299,1258.350101,7550.100608
2542.059059,-995.924147,-1184.329507,7698.141797
2542.059388,-1608.800546,-2146.597232,12065.356855
2542.059717,-2834.553343,-1184.329507,9474.636058
2542.060046,-5515.887586,-4367.215058,10066.800811
2542.060375,-8427.050478,-4811.338623,14137.933492
2542.060704,-6052.154434,-2738.761985,10584.944971
2542.061033,-3447.429741,-2294.638420,13101.645173
2542.061363,-2145.067394,-1332.370696,10732.986159
2542.061692,1225.752797,740.205942,9104.533087
2542.062021,995.924147,-222.061783,9252.574275
2542.062350,229.828649,740.205942,9770.718434
2542.062679,4903.011187,1036.288319,9992.780217
2542.063008,7584.345430,4219.173869,3404.947333
2542.063337,9039.926876,2368.659014,5477.523971
2542.063666,4443.353888,3478.967927,3849.070898
2542.063995,4749.792088,3849.070898,7402.059420
2542.064324,842.705048,518.144159,7772.162391
2542.064654,0.000000,-962.267725,9400.615463
2542.064983,-2451.505594,-2368.659014,11473.192101
2542.065312,-2451.505594,-1258.350101,7994.224174
2542.065641,-5439.278036,-5033.400406,11177.109724
2542.065970,-7737.564530,-3997.112087,12583.501014
2542.066299,-4903.011187,-3478.967927,11399.171507
2542.066628,-2604.724693,-1998.556043,12583.501014
2542.066957,-306.438199,-444.123565,10140.821405
2542.067286,1149.143247,-296.082377,8956.491898
2542.067615,842.705048,-0.000000,7846.182985
2542.067945,3370.820191,1036.288319,14211.954086
2542.068274,4826.401637,2146.597232,4441.235652
2542.068603,10265.679673,3849.070898,7994.224174
2542.068932,7890.783629,2368.659014,3034.844362
2542.069261,8273.831378,4515.256246,5477.523971
2542.069590,2834.553343,2368.659014,7550.100608
2542.069919,1455.581446,1184.329507,6513.812290
2542.070248,-306.438199,-1628.453072,10955.047942
2542.070577,-3370.820191,-2590.720797,11695.253884
2542.070906,-4673.182538,-2590.720797,8734.430116
2542.071236,-7277.907231,-6069.688724,12509.480420
2542.071565,-5898.935335,-3627.009116,10807.006753
2542.071894,-5669.106685,-2368.659014,10881.027347
2542.072223,-2145.067394,-1406.391290,11473.192101
2542.072552,-689.485948,518.144159,9400.615463
2542.072881,1532.190996,-1036.288319,9474.636058
2542.073210,842.705048,1628.453072,7624.121203
2542.073539,3677.258390,814.226536,14137.933492
2542.073868,5056.230287,2960.823768,2516.700203
2542.074197,9806.022374,2960.823768,7994.224174
2542.074526,6281.983084,3108.864956,3404.947333
2542.074856,6205.373534,4811.338623,4885.359217
2542.075185,1915.238745,2960.823768,7328.038826
2542.075514,536.266849,1036.288319,6291.750507
2542.075843,-766.095498,-2442.679609,11695.253884
2542.076172,-3524.039291,-2146.597232,10807.006753
2542.076501,-4443.353888,-4145.153275,8734.430116
2542.076830,-6894.859482,-5773.606348,12657.521608
2542.077159,-4979.620737,-2960.823768,9474.636058
2542.077488,-4519.963438,-2516.700203,12361.439231
2542.077817,-2604.724693,-1850.514855,11769.274478
2542.078147,76.609550,-74.020594,9918.759623
2542.078476,1532.190996,-1480.411884,9474.636058
2542.078805,0.000000,2368.659014,7402.059420
2542.079134,1838.629195,-1332.370696,15100.201217
2542.079463,4213.525239,592.164754,7031.956449
2542.079792,9499.584175,3627.009116,7105.977043
2542.080121,6894.859482,2146.597232,3552.988522
2542.080450,4903.011187,4293.194464,4959.379811
2542.080779,2757.943793,3034.844362,8808.450710
2542.081108,1225.752797,1480.411884,6809.894666
2542.081438,-153.219100,-148.041188,10362.883188
2542.081767,-3524.039291,-2590.720797,11547.212695
2542.082096,-4826.401637,-3034.844362,8956.491898
2542.082425,-7048.078582,-4737.318029,12213.398043
2542.082754,-7048.078582,-3775.050304,11029.068536
2542.083083,-5669.106685,-3404.947333,11473.192101
2542.083412,-1915.238745,-2294.638420,13545.768739
2542.083741,-919.314598,444.123565,10214.842000
2542.084070,1072.533697,-1258.350101,9844.739029
2542.084400,612.876398,1998.556043,7105.977043
2542.084729,3217.601092,1258.350101,13767.830521
2542.085058,5132.839837,1850.514855,6587.832884
2542.085387,9422.974625,3775.050304,6809.894666
2542.085716,7124.688131,2664.741391,3552.988522
2542.086045,5669.106685,4589.276840,4441.235652
2542.086375,2911.162892,3256.906145,7476.080014
2542.086704,1608.800546,1702.473667,6513.812290
2542.087033,459.657299,-0.000000,9104.533087
2542.087362,-3217.601092,-3701.029710,11843.295072
2542.087691,-4443.353888,-2442.679609,8512.368333
2542.088020,-7277.907231,-6513.812290,12657.521608
2542.088350,-6358.592633,-5181.441594,11769.274478
2542.088679,-5898.935335,-2442.679609,11325.150913
2542.089008,-2068.457845,-3478.967927,13471.748144
2542.089337,-1225.752797,592.164754,9992.780217
2542.089666,1455.581446,-666.185348,8808.450710
2542.089995,919.314598,2294.638420,8142.265362
2542.090325,4519.963438,1702.473667,13693.809927
2542.090654,5132.839837,2368.659014,4145.153275
2542.090983,9193.145976,3627.009116,7772.162391
2542.091312,6435.202183,1850.514855,4737.318029
2542.091641,5745.716235,4663.297435,4219.173869
2542.091970,2298.286494,2516.700203,6809.894666
2542.092299,995.924147,592.164754,5847.626942
2542.092629,-766.095498,-1702.473667,11695.253884
2542.092958,-3217.601092,-4071.132681,11769.274478
2542.093287,-5898.935335,-2960.823768,8438.347739
2542.093616,-6971.469032,-7105.977043,13989.892304
2542.093945,-6281.983084,-3034.844362,9252.574275
2542.094274,-5056.230287,-2590.720797,10881.027347
2542.094604,-1762.019645,-1480.411884,12805.562797
2542.094933,-306.438199,518.144159,8882.471304
2542.095262,2374.896044,-1480.411884,8808.450710
2542.095591,1302.362347,2146.597232,9548.656652
2542.095920,5362.668486,1406.391290,11769.274478
2542.096249,6128.763984,3478.967927,1554.432478
2542.096579,8810.098227,2516.700203,7772.162391
2542.096908,4749.792088,2368.659014,3997.112087
2542.097237,6052.154434,4959.379811,5773.606348
2542.097566,1608.800546,3552.988522,6587.832884
2542.097895,2604.724693,962.267725,5107.421000
2542.098224,-995.924147,-1998.556043,12731.542202
2542.098553,-3140.991542,-3627.009116,9844.739029
2542.098883,-4979.620737,-3034.844362,10140.821405
2542.099212,-6971.469032,-6143.709319,13471.748144
2542.099541,-4673.182538,-2664.741391,9178.553681
2542.099870,-3907.087040,-2368.659014,12657.521608
2542.100199,-1991.848295,-1628.453072,12139.377449
2542.100528,-995.924147,740.205942,10066.800811
2542.100858,2451.505594,-962.267725,9622.677246
2542.101187,536.266849,2960.823768,8068.244768
2542.101516,4596.572988,444.123565,13915.871710
2542.101845,5822.325785,3478.967927,2368.659014
2542.102174,9499.584175,1998.556043,7105.977043
2542.102503,5056.230287,3108.864956,3404.947333
2542.102833,5439.278036,3701.029710,5773.606348
2542.103162,1838.629195,2368.659014,7772.162391
2542.103491,383.047749,148.041188,6069.688724
2542.103820,-1455.581446,-3034.844362,12139.377449
2542.104149,-2834.553343,-1776.494261,10510.924376
2542.104478,-5515.887586,-4367.215058,9400.615463
2542.104807,-7660.954980,-5329.482782,13915.871710
2542.105137,-5286.058936,-3256.906145,10584.944971
2542.105466,-3064.381992,-1406.391290,12361.439231
2542.105795,-2068.457845,-1628.453072,12287.418637
2542.106124,-229.828649,370.102971,9030.512492
2542.106453,1225.752797,-814.226536,9252.574275
2542.106782,842.705048,1924.535449,9696.697840
2542.107112,4366.744339,592.164754,9474.636058
2542.107441,6205.373534,3478.967927,4589.276840
2542.107770,8120.612279,2516.700203,5773.606348
2542.108099,4596.572988,3034.844362,3701.029710
2542.108428,4596.572988,3923.091493,6661.853478
2542.108757,2221.676944,2368.659014,6365.771101
2542.109087,689.485948,-1110.308913,7624.121203
2542.109416,-2604.724693,-2442.679609,11917.315666
2542.109745,-3370.820191,-1480.411884,10066.800811
2542.110074,-5898.935335,-5181.441594,10436.903782
2542.110403,-7124.688131,-4663.297435,12953.603985
2542.110732,-5056.230287,-3478.967927,10140.821405
2542.111062,-3600.648841,-2294.638420,11843.295072
2542.111391,-1532.190996,-1184.329507,11473.192101
2542.111720,76.609550,-370.102971,8734.430116
2542.112049,995.924147,-0.000000,8438.347739
2542.112378,612.876398,1776.494261,11473.192101
2542.112707,4519.963438,-0.000000,8734.430116
2542.113036,7354.516781,3330.926739,5477.523971
2542.113366,7890.783629,2738.761985,4811.338623
2542.113695,4519.963438,3108.864956,4737.318029
2542.114024,4060.306139,3627.009116,8364.327145
2542.114353,1149.143247,2220.617826,7105.977043
2542.114682,612.876398,-1258.350101,8734.430116
2542.115011,-2987.772442,-2072.576638,11029.068536
2542.115341,-3677.258390,-1850.514855,9622.677246
2542.115670,-6128.763984,-4959.379811,10584.944971
2542.115999,-7124.688131,-2960.823768,12953.603985
2542.116328,-5286.058936,-3997.112087,10881.027347
2542.116657,-3983.696590,-1702.473667,12509.480420
2542.116986,-1685.410096,-1036.288319,11843.295072
2542.117316,459.657299,-962.267725,8734.430116
2542.117645,1149.143247,740.205942,8808.450710
2542.117974,459.657299,2590.720797,10066.800811
2542.118303,4903.011187,666.185348,10288.862594
2542.118632,6511.811733,4219.173869,4293.194464
2542.118961,8810.098227,2146.597232,6513.812290
2542.119290,4443.353888,2738.761985,3997.112087
2542.119620,5056.230287,4441.235652,7328.038826
2542.119949,2451.505594,2516.700203,6661.853478
2542.120278,995.924147,-0.000000,7031.956449
2542.120607,-2068.457845,-2886.803174,11769.274478
2542.120936,-2987.772442,-1924.535449,9770.718434
2542.121265,-5132.839837,-5551.544565,10214.842000
2542.121595,-6435.202183,-4515.256246,12509.480420
2542.121924,-3983.696590,-3775.050304,9622.677246
2542.122253,-2757.943793,-2294.638420,12213.398043
2542.122582,-1532.190996,-1406.391290,12509.480420
2542.122911,153.219100,-370.102971,9178.553681
2542.123240,995.924147,-0.000000,9622.677246
2542.123570,1762.019645,1702.473667,11251.130318
2542.123899,5209.449386,370.102971,7772.162391
2542.124228,7431.126331,3404.947333,6143.709319
2542.124557,7584.345430,2146.597232,5181.441594
2542.124886,4596.572988,3256.906145,4811.338623
2542.125215,3983.696590,3775.050304,7994.224174
2542.125544,1762.019645,1998.556043,6217.729913
2542.125874,995.924147,-1628.453072,8068.244768
2542.126203,-2987.772442,-3256.906145,11917.315666
2542.126532,-2911.162892,-1776.494261,8882.471304
2542.126861,-6052.154434,-4959.379811,10658.965565
2542.127190,-7354.516781,-4367.215058,13545.768739
2542.127519,-4749.792088,-2886.803174,10807.006753
2542.127849,-2757.943793,-1258.350101,13027.624579
2542.128178,-2068.457845,-740.205942,10658.965565
2542.128507,1532.190996,-0.000000,8882.471304
2542.128836,995.924147,370.102971,8882.471304
2542.129165,3294.210641,2812.782580,12139.377449
2542.129494,5132.839837,1776.494261,6143.709319
2542.129824,9039.926876,2886.803174,6957.935855
2542.130153,7201.297681,2590.720797,2960.823768
2542.130482,6128.763984,4145.153275,4959.379811
2542.130811,2374.896044,3701.029710,6365.771101
2542.131140,1532.190996,1036.288319,6439.791695
2542.131469,229.828649,-518.144159,9252.574275
2542.131798,-2834.553343,-3701.029710,11769.274478
2542.132128,-4673.182538,-2442.679609,8438.347739
2542.132457,-6818.249932,-6735.874072,12805.562797
2542.132786,-7431.126331,-4737.318029,11843.295072
2542.133115,-6281.983084,-2072.576638,12361.439231
2542.133444,-3294.210641,-2590.720797,13841.851115
2542.133773,-1685.410096,518.144159,10140.821405
2542.134103,1685.410096,-0.000000,8512.368333
2542.134432,842.705048,2368.659014,7476.080014
2542.134761,4979.620737,1924.535449,13841.851115
2542.135090,5592.497135,3478.967927,1850.514855
2542.135419,10189.070123,2812.782580,7994.224174
2542.135748,6128.763984,2368.659014,3627.009116
2542.136078,5822.325785,5033.400406,4367.215058
2542.136407,1225.752797,2220.617826,7698.141797
2542.136736,-459.657299,296.082377,5699.585753
2542.137065,-1302.362347,-3478.967927,13471.748144
2542.137394,-3600.648841,-2368.659014,10362.883188
2542.137723,-6818.249932,-3701.029710,7846.182985
2542.138053,-8656.879127,-6883.915261,15544.324782
2542.138382,-6665.030833,-2960.823768,10732.986159
2542.138711,-3907.087040,-2072.576638,11991.336260
2542.139040,-2604.724693,-1184.329507,11843.295072
2542.139369,229.828649,1184.329507,7846.182985
2542.139698,1915.238745,-444.123565,9104.533087
2542.140027,1762.019645,370.102971,10510.924376
2542.140357,4136.915689,1850.514855,8216.285956
2542.140686,8197.221829,1924.535449,5551.544565
2542.141015,7890.783629,3256.906145,3775.050304
2542.141344,5132.839837,3627.009116,4515.256246
2542.141673,3753.867940,4737.318029,8290.306550
2542.142002,1225.752797,1702.473667,6439.791695
2542.142332,1455.581446,-666.185348,6439.791695
2542.142661,-2604.724693,-2590.720797,11917.315666
2542.142990,-3830.477490,-2368.659014,9548.656652
2542.143319,-5439.278036,-4885.359217,11991.336260
2542.143648,-5592.497135,-4737.318029,12509.480420
2542.143977,-4903.011187,-1776.494261,9992.780217
2542.144307,-3140.991542,-1998.556043,12139.377449
2542.144636,-2374.896044,740.205942,10807.006753
2542.144965,306.438199,-592.164754,10362.883188
2542.145294,1915.238745,962.267725,8512.368333
2542.145623,306.438199,2220.617826,9770.718434
2542.145952,4213.525239,-1480.411884,13397.727550
2542.146281,4826.401637,2812.782580,2368.659014
2542.146611,8503.660028,1628.453072,8216.285956
2542.146940,4749.792088,2294.638420,3627.009116
2542.147269,5362.668486,3182.885551,6513.812290
2542.147598,1149.143247,3034.844362,7179.997637
2542.147927,1225.752797,592.164754,6661.853478
2542.148256,-2145.067394,-1998.556043,10807.006753
2542.148586,-3830.477490,-2294.638420,11399.171507
2542.148915,-5439.278036,-4811.338623,10584.944971
2542.149244,-6128.763984,-3775.050304,12361.439231
2542.149573,-3753.867940,-2738.761985,9474.636058
2542.149902,-2757.943793,-1628.453072,11843.295072
2542.150231,-1685.410096,-592.164754,12509.480420
2542.150561,383.047749,-0.000000,8956.491898
2542.150890,1532.190996,-0.000000,8290.306550
2542.151219,306.438199,1332.370696,10436.903782
2542.151548,4673.182538,-74.020594,10362.883188
2542.151877,6052.154434,2960.823768,3256.906145
2542.152206,7354.516781,1850.514855,7402.059420
2542.152535,4290.134789,2072.576638,3923.091493
2542.152865,5132.839837,3775.050304,7105.977043
2542.153194,1455.581446,3256.906145,5847.626942
2542.153523,2987.772442,1480.411884,4737.318029
2542.153852,-1838.629195,-1184.329507,12065.356855
2542.154181,-3447.429741,-3775.050304,11399.171507
2542.154510,-5439.278036,-2886.803174,9918.759623
2542.154840,-5745.716235,-5551.544565,13101.645173
2542.155169,-4673.182538,-2812.782580,7994.224174
2542.155498,-3524.039291,-1702.473667,13249.686362
2542.155827,-1149.143247,-1406.391290,11991.336260
2542.156156,-689.485948,-518.144159,10066.800811
2542.156485,2221.676944,-518.144159,8956.491898
2542.156815,1072.533697,2220.617826,9844.739029
2542.157144,4749.792088,370.102971,11029.068536
2542.157473,6128.763984,2738.761985,2886.803174
2542.157802,7354.516781,2072.576638,6439.791695
2542.158131,3677.258390,2072.576638,4441.235652
2542.158460,4136.915689,3627.009116,7476.080014
2542.158789,1838.629195,2146.597232,7031.956449
2542.159119,383.047749,222.061783,5181.441594
2542.159448,-2451.505594,-3627.009116,13175.665768
2542.159777,-3983.696590,-1998.556043,9326.594869
2542.160106,-6205.373534,-4589.276840,10362.883188
2542.160435,-7660.954980,-4885.359217,14656.077652
2542.160764,-6281.983084,-2812.782580,10214.842000
2542.161094,-2834.553343,-2294.638420,12879.583391
2542.161423,-1149.143247,-814.226536,11399.171507
2542.161752,689.485948,-0.000000,8438.347739
2542.162081,995.924147,148.041188,8956.491898
2542.162410,1608.800546,1924.535449,11769.274478
2542.162739,4826.401637,518.144159,8142.265362
2542.163069,7354.516781,3034.844362,5107.421000
2542.163398,7277.907231,1776.494261,4367.215058
2542.163727,4290.134789,2960.823768,4145.153275
2542.164056,4213.525239,4515.256246,7846.182985
2542.164385,1915.238745,1702.473667,5255.462188
2542.164714,1455.581446,444.123565,6809.894666
2542.165044,-2374.896044,-2590.720797,12805.562797
2542.165373,-3753.867940,-2516.700203,9474.636058
2542.165702,-5975.544884,-4367.215058,11177.109724
2542.166031,-5439.278036,-5847.626942,13323.706956
2542.166360,-4443.353888,-2368.659014,9770.718434
2542.166689,-1685.410096,-2368.659014,13397.727550
2542.167018,-1455.581446,222.061783,10955.047942
2542.167348,459.657299,-296.082377,9474.636058
2542.167677,995.924147,1036.288319,8290.306550
2542.168006,1302.362347,2072.576638,12213.398043
2542.168335,4519.963438,296.082377,9178.553681
2542.168664,7048.078582,2886.803174,5551.544565
2542.168993,7354.516781,1036.288319,5403.503377
2542.169323,3447.429741,3552.988522,3478.967927
2542.169652,3753.867940,3330.926739,8512.368333
2542.169981,306.438199,1776.494261,5847.626942
2542.170310,0.000000,-1554.432478,9326.594869
2542.170639,-3600.648841,-3034.844362,12805.562797
2542.170968,-3600.648841,-1628.453072,7179.997637
2542.171298,-6205.373534,-5033.400406,12657.521608
2542.171627,-7737.564530,-3404.947333,12139.377449
2542.171956,-4903.011187,-2738.761985,10510.924376
2542.172285,-3140.991542,-2146.597232,13767.830521
2542.172614,-1302.362347,-370.102971,9696.697840
2542.172943,1838.629195,-592.164754,9252.574275
2542.173272,0.000000,888.247130,8142.265362
2542.173602,2528.115143,666.185348,14137.933492
2542.173931,4596.572988,1776.494261,6069.688724
2542.174260,9422.974625,3701.029710,7105.977043
2542.174589,6511.811733,1554.432478,2960.823768
2542.174918,4979.620737,4441.235652,4737.318029
2542.175247,2757.943793,3627.009116,7402.059420
2542.175577,2221.676944,592.164754,5699.585753
2542.175906,612.876398,-74.020594,9992.780217
2542.176235,-3447.429741,-3478.967927,11769.274478
2542.176564,-3983.696590,-2960.823768,9474.636058
2542.176893,-6435.202183,-5255.462188,11769.274478
2542.177222,-5592.497135,-4071.132681,11547.212695
2542.177552,-4826.401637,-2368.659014,11399.171507
2542.177881,-1225.752797,-1850.514855,13767.830521
2542.178210,-689.485948,-0.000000,9400.615463
2542.178539,1762.019645,-666.185348,8882.471304
2542.178868,842.705048,1480.411884,8364.327145
2542.179197,3600.648841,962.267725,14582.057057
2542.179526,4673.182538,2072.576638,4071.132681
2542.179856,9346.365076,2664.741391,7846.182985
2542.180185,6052.154434,2072.576638,3923.091493
2542.180514,6281.983084,3849.070898,4737.318029
2542.180843,2374.896044,3330.926739,6957.935855
2542.181172,1915.238745,1554.432478,5181.441594
2542.181501,-229.828649,-1628.453072,11473.192101
2542.181831,-3447.429741,-3775.050304,11547.212695
2542.182160,-4826.401637,-3034.844362,9400.615463
2542.182489,-6511.811733,-5625.565159,12435.459826
2542.182818,-4903.011187,-3701.029710,9770.718434
2542.183147,-4903.011187,-2146.597232,11621.233289
2542.183476,-1072.533697,-1628.453072,13101.645173
2542.183806,-842.705048,518.144159,9622.677246
2542.184135,1762.019645,-1480.411884,9030.512492
2542.184464,689.485948,2812.782580,7772.162391
2542.184793,3064.381992,296.082377,15248.242405
2542.185122,5515.887586,1998.556043,4145.153275
2542.185451,9576.193725,2590.720797,7328.038826
2542.185780,6128.763984,1554.432478,3701.029710
2542.186109,5439.278036,4737.318029,4441.235652
2542.186438,2528.115143,3627.009116,7402.059420
2542.186767,1685.410096,1406.391290,5181.441594
2542.187097,383.047749,-518.144159,11029.068536
2542.187426,-3140.991542,-3182.885551,11251.130318
2542.187755,-4136.915689,-3256.906145,8734.430116
2542.188084,-5898.935335,-5625.565159,12657.521608
2542.188413,-4596.572988,-3552.988522,10214.842000
2542.188742,-4596.572988,-1776.494261,11769.274478
2542.189072,-1072.533697,-2442.679609,13619.789333
2542.189401,-612.876398,740.205942,9474.636058
2542.189730,1455.581446,-1406.391290,9252.574275
2542.190059,229.828649,2368.659014,8808.450710
2542.190388,1991.848295,592.164754,13249.686362
2542.190717,4596.572988,1776.494261,6513.812290
2542.191047,7967.393179,3108.864956,6365.771101
2542.191376,5898.935335,1850.514855,4367.215058
2542.191705,3830.477490,3923.091493,4737.318029
2542.192034,2374.896044,2072.576638,8956.491898
2542.192363,-919.314598,-444.123565,7105.977043
2542.192692,-1225.752797,-2590.720797,11769.274478
2542.193022,-3140.991542,-1184.329507,10436.903782
2542.193351,-5286.058936,-2664.741391,7550.100608
2542.193680,-7354.516781,-4589.276840,14063.912898
2542.194009,-6128.763984,-2886.803174,10066.800811
2542.194338,-3370.820191,-1406.391290,11621.233289
2542.194667,-1991.848295,-2294.638420,12065.356855
2542.194997,383.047749,-0.000000,9178.553681
2542.195326,612.876398,-222.061783,8216.285956
2542.195655,-612.876398,1332.370696,9474.636058
2542.195984,3524.039291,-0.000000,12287.418637
2542.196313,5592.497135,3923.091493,2960.823768
2542.196642,9116.536426,2738.761985,6661.853478
2542.196972,5132.839837,2886.803174,3182.885551
2542.197301,4826.401637,5551.544565,6217.729913
2542.197630,1302.362347,2146.597232,6587.832884
2542.197959,536.266849,-0.000000,6513.812290
2542.198288,-1532.190996,-2960.823768,12065.356855
2542.198617,-4136.915689,-2294.638420,11325.150913
2542.198946,-5822.325785,-4515.256246,10584.944971
2542.199276,-7354.516781,-5329.482782,13841.851115
2542.199605,-5286.058936,-2960.823768,10584.944971
2542.199934,-3140.991542,-1554.432478,12657.521608
2542.200263,-1225.752797,-370.102971,11547.212695
2542.200592,612.876398,1036.288319,8808.450710
2542.200921,1378.971896,296.082377,8364.327145
2542.201251,3524.039291,444.123565,15322.262999
2542.201580,3753.867940,2664.741391,3997.112087
2542.201909,10112.460574,2664.741391,8364.327145
2542.202238,7201.297681,3701.029710,2146.597232
2542.202567,6971.469032,3552.988522,5181.441594
2542.202896,2528.115143,3404.947333,7476.080014
2542.203226,919.314598,1110.308913,6809.894666
2542.203555,-842.705048,-3108.864956,11251.130318
2542.203884,-3907.087040,-3182.885551,11695.253884
2542.204213,-4979.620737,-3108.864956,8660.409521
2542.204542,-7584.345430,-5403.503377,12583.501014
2542.204871,-6818.249932,-3701.029710,11917.315666
2542.205201,-5515.887586,-3627.009116,11325.150913
2542.205530,-1378.971896,-814.226536,11843.295072
2542.205859,153.219100,370.102971,7550.100608
2542.206188,1608.800546,-1036.288319,7328.038826
2542.206517,1608.800546,-0.000000,10881.027347
2542.206846,4673.182538,1554.432478,9030.512492
2542.207176,7048.078582,2368.659014,3775.050304
2542.207505,8886.707777,3034.844362,6217.729913
2542.207834,5132.839837,1850.514855,4441.235652
2542.208163,6665.030833,4145.153275,8216.285956
2542.208492,1838.629195,3404.947333,5847.626942
2542.208821,2681.334243,666.185348,5255.462188
2542.209151,-1838.629195,-1036.288319,12657.521608
2542.209480,-3600.648841,-2960.823768,10066.800811
2542.209809,-4979.620737,-4367.215058,11621.233289
2542.210138,-5592.497135,-5625.565159,12139.377449
2542.210467,-3753.867940,-3775.050304,8586.388927
2542.210796,-4443.353888,-1776.494261,11547.212695
2542.211126,-995.924147,222.061783,11251.130318
2542.211455,-612.876398,-74.020594,9326.594869
2542.211784,2068.457845,-592.164754,9400.615463
2542.212113,536.266849,2960.823768,7920.203579
2542.212442,3370.820191,-1702.473667,15988.448347
2542.212771,4366.744339,1480.411884,4737.318029
2542.213101,8733.488677,2368.659014,7994.224174
2542.213430,5975.544884,2368.659014,4071.132681
2542.213759,5132.839837,3627.009116,5625.565159
2542.214088,2604.724693,3997.112087,8216.285956
2542.214417,1838.629195,2368.659014,6143.709319
2542.214746,842.705048,-444.123565,10288.862594
2542.215076,-3447.429741,-2220.617826,10140.821405
2542.215405,-4903.011187,-4219.173869,10658.965565
2542.215734,-7124.688131,-4737.318029,11769.274478
2542.216063,-5669.106685,-3552.988522,10881.027347
2542.216392,-5822.325785,-3849.070898,11029.068536
2542.216721,-2681.334243,-1776.494261,13693.809927
2542.217050,-1762.019645,-0.000000,10658.965565
2542.217380,919.314598,-2590.720797,9918.759623
2542.217709,612.876398,2516.700203,7402.059420
2542.218038,1532.190996,740.205942,12361.439231
2542.218367,4903.011187,666.185348,9548.656652
2542.218696,7431.126331,2812.782580,4737.318029
2542.219025,7354.516781,2368.659014,5181.441594
2542.219355,3447.429741,3108.864956,4367.215058
2542.219684,4673.182538,4367.215058,8586.388927
2542.220013,1532.190996,2442.679609,5847.626942
2542.220342,2298.286494,1776.494261,6217.729913
2542.220671,-2374.896044,-1258.350101,11769.274478
2542.221000,-3753.867940,-4293.194464,10436.903782
2542.221330,-5592.497135,-4663.297435,11251.130318
2542.221659,-5132.839837,-4959.379811,12657.521608
2542.221988,-3983.696590,-2886.803174,7994.224174
2542.222317,-2528.115143,-3034.844362,13027.624579
2542.222646,-1225.752797,-740.205942,11547.212695
2542.222975,0.000000,444.123565,9696.697840
2542.223305,1072.533697,740.205942,8586.388927
2542.223634,2374.896044,1702.473667,11843.295072
2542.223963,4366.744339,1406.391290,8586.388927
2542.224292,7277.907231,3034.844362,6365.771101
2542.224621,6052.154434,2294.638420,3849.070898
2542.224950,4060.306139,2664.741391,5255.462188
2542.225280,3600.648841,3256.906145,7994.224174
2542.225609,995.924147,1776.494261,6883.915261
2542.225938,-229.828649,-1924.535449,8956.491898
2542.226267,-3677.258390,-3182.885551,12287.418637
2542.226596,-4903.011187,-1924.535449,8734.430116
2542.226925,-7048.078582,-5107.421000,11029.068536
2542.227255,-7354.516781,-3627.009116,12361.439231
2542.227584,-5056.230287,-3256.906145,9992.780217
2542.227913,-2374.896044,-1776.494261,12287.418637
2542.228242,-689.485948,-370.102971,10510.924376
2542.228571,919.314598,-888.247130,8364.327145
2542.228900,-306.438199,1110.308913,9178.553681
2542.229230,3830.477490,1406.391290,14508.036463
2542.229559,4749.792088,2738.761985,3775.050304
2542.229888,9269.755526,3404.947333,7994.224174
2542.230217,5515.887586,1924.535449,2886.803174
2542.230546,5822.325785,4293.194464,5403.503377
2542.230875,2298.286494,3256.906145,7254.018232
2542.231205,1991.848295,1036.288319,5773.606348
2542.231534,0.000000,-1332.370696,11473.192101
2542.231863,-3447.429741,-2812.782580,10955.047942
2542.232192,-4596.572988,-2886.803174,9326.594869
2542.232521,-6511.811733,-5773.606348,12287.418637
2542.232850,-4596.572988,-3034.844362,10732.986159
2542.233179,-4903.011187,-2516.700203,11917.315666
2542.233509,-995.924147,-1628.453072,12287.418637
2542.233838,-229.828649,518.144159,9400.615463
2542.234167,1072.533697,-888.247130,8734.430116
2542.234496,766.095498,1110.308913,10510.924376
2542.234825,4366.744339,1480.411884,10732.986159
2542.235154,6511.811733,2368.659014,4071.132681
2542.235484,7431.126331,2442.679609,7402.059420
2542.235813,4979.620737,1924.535449,4441.235652
2542.236142,5439.278036,4145.153275,7550.100608
2542.236471,1762.019645,3108.864956,6365.771101
2542.236800,2451.505594,1258.350101,4737.318029
2542.237129,-1532.190996,-1850.514855,12435.459826
2542.237459,-3983.696590,-3478.967927,9992.780217
2542.237788,-4826.401637,-3701.029710,11251.130318
2542.238117,-7277.907231,-4737.318029,12065.356855
2542.238446,-4903.011187,-3849.070898,9548.656652
2542.238775,-5362.668486,-2442.679609,12139.377449
2542.239104,-1532.190996,-666.185348,11621.233289
2542.239434,-995.924147,-444.123565,9474.636058
2542.239763,2068.457845,-888.247130,8438.347739
2542.240092,1302.362347,2368.659014,8734.430116
2542.240421,4136.915689,814.226536,11547.212695
2542.240750,6052.154434,2960.823768,2738.761985
2542.241079,8197.221829,1998.556043,6513.812290
2542.241409,4749.792088,2368.659014,3849.070898
2542.241738,5056.230287,4071.132681,5921.647536
2542.242067,1685.410096,3034.844362,7031.956449
2542.242396,1532.190996,1776.494261,5625.565159
2542.242725,-1608.800546,-2368.659014,12879.583391
2542.243054,-3370.820191,-2960.823768,9992.780217
2542.243384,-5592.497135,-3775.050304,10288.862594
2542.243713,-6588.421283,-5255.462188,13397.727550
2542.244042,-4443.353888,-3034.844362,8956.491898
2542.244371,-3447.429741,-2072.576638,11843.295072
2542.244700,-1532.190996,-1702.473667,12065.356855
2542.245029,-383.047749,148.041188,9474.636058
2542.245359,1149.143247,-740.205942,8956.491898
2542.245688,1838.629195,888.247130,11769.274478
2542.246017,4903.011187,1406.391290,9326.594869
2542.246346,7814.174080,2812.782580,5995.668130
2542.246675,7124.688131,2590.720797,3997.112087
2542.247004,5362.668486,2664.741391,5625.565159
2542.247334,4519.963438,3330.926739,8068.244768
2542.247663,1762.019645,2590.720797,7105.977043
2542.247992,612.876398,-296.082377,7994.224174
2542.248321,-3140.991542,-2516.700203,12435.459826
2542.248650,-4443.353888,-2220.617826,10066.800811
2542.248979,-7277.907231,-4737.318029,10807.006753
2542.249309,-6971.469032,-5181.441594,12731.542202
2542.249638,-6128.763984,-3701.029710,10658.965565
2542.249967,-2987.772442,-1850.514855,12361.439231
2542.250296,-2451.505594,-592.164754,11251.130318
2542.250625,229.828649,-1110.308913,9104.533087
2542.250954,1149.143247,888.247130,8438.347739
2542.251283,1149.143247,1184.329507,12287.418637
2542.251613,5056.230287,814.226536,9104.533087
2542.251942,8120.612279,3552.988522,5625.565159
2542.252271,7967.393179,2294.638420,3923.091493
2542.252600,4366.744339,3849.070898,3997.112087
2542.252929,4136.915689,3997.112087,8364.327145
2542.253258,1225.752797,1998.556043,6143.709319
2542.253588,1149.143247,-370.102971,8512.368333
2542.253917,-2681.334243,-2664.741391,12731.542202
2542.254246,-3830.477490,-2812.782580,8512.368333
2542.254575,-5975.544884,-5255.462188,11251.130318
2542.254904,-6818.249932,-4367.215058,12065.356855
2542.255233,-5209.449386,-3182.885551,10066.800811
2542.255563,-2451.505594,-2664.741391,12879.583391
2542.255892,-1302.362347,-962.267725,10658.965565
2542.256221,536.266849,-1036.288319,8882.471304
2542.256550,689.485948,592.164754,8290.306550
2542.256879,2911.162892,1036.288319,13841.851115
2542.257208,4903.011187,2516.700203,6513.812290
2542.257538,9346.365076,3330.926739,7254.018232
2542.257867,7048.078582,2368.659014,3701.029710
2542.258196,6205.373534,4515.256246,5033.400406
2542.258525,3600.648841,2368.659014,7846.182985
2542.258854,1762.019645,2516.700203,5847.626942
2542.259183,1532.190996,-1184.329507,9992.780217
2542.259513,-3600.648841,-3034.844362,11769.274478
2542.259842,-4673.182538,-3404.947333,9844.739029
2542.260171,-7048.078582,-4885.359217,10807.006753
2542.260500,-6052.154434,-5033.400406,12361.439231
2542.260829,-5975.544884,-2516.700203,10584.944971
2542.261158,-1915.238745,-2590.720797,12953.603985
2542.261488,-2451.505594,-148.041188,10510.924376
2542.261817,153.219100,-1554.432478,9326.594869
2542.262146,995.924147,1258.350101,8734.430116
2542.262475,2987.772442,1036.288319,13175.665768
2542.262804,5592.497135,2368.659014,6883.915261
2542.263133,9116.536426,2812.782580,7550.100608
2542.263463,6741.640382,2516.700203,3404.947333
2542.263792,5745.716235,3849.070898,5477.523971
2542.264121,3140.991542,4145.153275,7476.080014
2542.264450,2451.505594,2960.823768,4959.379811
2542.264779,2221.676944,444.123565,8068.244768
2542.265108,-2221.676944,-1258.350101,11029.068536
2542.265438,-4366.744339,-5477.523971,11177.109724
2542.265767,-6205.373534,-4885.359217,12435.459826
2542.266096,-4903.011187,-5181.441594,12435.459826
2542.266425,-5362.668486,-2220.617826,10066.800811
2542.266754,-2298.286494,-2516.700203,13027.624579
2542.267083,-1685.410096,888.247130,10807.006753
2542.267412,229.828649,-1184.329507,10658.965565
2542.267742,1608.800546,592.164754,10584.944971
2542.268071,6588.421283,2960.823768,9770.718434
2542.268400,7277.907231,3552.988522,4145.153275
2542.268729,8656.879127,2812.782580,7105.977043
2542.269058,6281.983084,3256.906145,4959.379811
2542.269387,5439.278036,4071.132681,6513.812290
2542.269717,2221.676944,1998.556043,7179.997637
2542.270046,2221.676944,2664.741391,5255.462188
2542.270375,-1915.238745,-2294.638420,11251.130318
2542.270704,-3830.477490,-6143.709319,12731.542202
2542.271033,-7124.688131,-2442.679609,8290.306550
2542.271362,-7277.907231,-7254.018232,14656.077652
2542.271692,-7507.735880,-5107.421000,9548.656652
2542.272021,-6128.763984,-1554.432478,13249.686362
2542.272350,-1838.629195,-2146.597232,11473.192101
2542.272679,-1532.190996,296.082377,8438.347739
2542.273008,1685.410096,-1554.432478,9474.636058
2542.273337,1685.410096,1776.494261,9548.656652
2542.273667,5822.325785,2146.597232,9622.677246
2542.273996,7431.126331,2442.679609,4219.173869
2542.274325,7431.126331,2812.782580,4071.132681
2542.274654,4979.620737,2738.761985,4959.379811
2542.274983,5056.230287,3997.112087,7328.038826
2542.275312,2145.067394,3404.947333,6661.853478
2542.275642,1762.019645,814.226536,5403.503377
2542.275971,-1762.019645,-2368.659014,13249.686362
2542.276300,-4366.744339,-3478.967927,10362.883188
2542.276629,-5592.497135,-4515.256246,10510.924376
2542.276958,-5822.325785,-6439.791695,12805.562797
2542.277287,-4443.353888,-2886.803174,8068.244768
2542.277617,-3983.696590,-2664.741391,12361.439231
2542.277946,-2145.067394,-1036.288319,10584.944971
2542.278275,-1149.143247,-518.144159,10362.883188
2542.278604,1302.362347,-1184.329507,9844.739029
2542.278933,0.000000,1998.556043,9178.553681
2542.279262,4826.401637,-222.061783,13545.768739
2542.279592,6435.202183,3552.988522,2590.720797
2542.279921,8273.831378,2220.617826,7328.038826
2542.280250,4443.353888,2738.761985,5255.462188
2542.280579,5592.497135,5107.421000,5995.668130
2542.280908,2145.067394,2886.803174,7624.121203
2542.281237,1915.238745,4219.173869,3849.070898
2542.281567,0.000000,888.247130,10362.883188
2542.281896,-4903.011187,-4885.359217,11325.150913
2542.282225,-5592.497135,-4219.173869,10658.965565
2542.282554,-6435.202183,-4441.235652,11399.171507
2542.282883,-4366.744339,-5625.565159,10658.965565
2542.283212,-6435.202183,-888.247130,11473.192101
2542.283541,-1991.848295,-2516.700203,13175.665768
2542.283871,-2681.334243,592.164754,9770.718434
2542.284200,919.314598,-814.226536,10288.862594
2542.284529,1302.362347,2664.741391,7624.121203
2542.284858,2757.943793,740.205942,14137.933492
2542.285187,4979.620737,1776.494261,7402.059420
2542.285516,7584.345430,1628.453072,6661.853478
2542.285846,5822.325785,2072.576638,5107.421000
2542.286175,3524.039291,3552.988522,3478.967927
2542.286504,3600.648841,4663.297435,9326.594869
2542.286833,2145.067394,2516.700203,6143.709319
2542.287162,1455.581446,592.164754,7624.121203
2542.287491,-3064.381992,-3552.988522,11843.295072
2542.287820,-4673.182538,-4515.256246,9844.739029
2542.288150,-5745.716235,-4663.297435,11325.150913
2542.288479,-3907.087040,-4219.173869,12139.377449
2542.288808,-3217.601092,-1480.411884,9844.739029
2542.289137,-383.047749,-2886.803174,12879.583391
2542.289466,-995.924147,740.205942,9770.718434
2542.289795,995.924147,-666.185348,9326.594869
2542.290124,1455.581446,148.041188,11103.089130
2542.290453,6205.373534,2368.659014,9104.533087
2542.290782,5898.935335,3552.988522,3478.967927
2542.291111,6052.154434,1332.370696,7624.121203
2542.291440,4366.744339,1776.494261,5255.462188
2542.291770,4673.182538,4145.153275,7031.956449
2542.292099,2451.505594,1924.535449,6439.791695
2542.292428,1762.019645,2516.700203,4737.318029
2542.292757,-2451.505594,-2960.823768,13175.665768
2542.293086,-4213.525239,-4737.318029,11621.233289
2542.293415,-6358.592633,-2812.782580,8882.471304
2542.293744,-5975.544884,-7402.059420,13989.892304
2542.294073,-4979.620737,-3404.947333,8512.368333
2542.294402,-3600.648841,-1406.391290,12361.439231
2542.294731,-1838.629195,-1776.494261,10658.965565
2542.295060,-919.314598,-444.123565,9326.594869
2542.295390,1762.019645,-888.247130,8882.471304
2542.295719,2911.162892,1480.411884,12361.439231
2542.296048,4290.134789,1702.473667,7254.018232
2542.296377,7890.783629,2368.659014,7624.121203
2542.296706,6128.763984,2294.638420,4737.318029
2542.297035,4903.011187,3701.029710,4885.359217
2542.297364,3983.696590,4219.173869,8364.327145
2542.297693,1378.971896,3256.906145,5847.626942
2542.298022,2374.896044,666.185348,6661.853478
2542.298351,-2604.724693,-1850.514855,12731.542202
2542.298680,-4060.306139,-4663.297435,10510.924376
2542.299010,-6818.249932,-4219.173869,10955.047942
2542.299339,-4826.401637,-6661.853478,14063.912898
2542.299668,-5822.325785,-2442.679609,8364.327145
2542.299997,-2374.896044,-2664.741391,13693.809927
2542.300326,-2145.067394,-0.000000,9844.739029
2542.300655,0.000000,-222.061783,10732.986159
2542.300984,1685.410096,1110.308913,8364.327145
2542.301313,4903.011187,1184.329507,13915.871710
2542.301642,4136.915689,2294.638420,6365.771101
2542.301971,8350.440928,2146.597232,7920.203579
2542.302300,6358.592633,1924.535449,4145.153275
2542.302630,5439.278036,5107.421000,5329.482782
2542.302959,3370.820191,2664.741391,8142.265362
2542.303288,1455.581446,3775.050304,5477.523971
2542.303617,1991.848295,148.041188,8734.430116
2542.303946,-3830.477490,-3182.885551,11695.253884
2542.304275,-4903.011187,-4589.276840,10214.842000
2542.304604,-6971.469032,-4071.132681,10881.027347
2542.304933,-5286.058936,-6291.750507,12731.542202
2542.305262,-6741.640382,-2220.617826,9474.636058
2542.305591,-2145.067394,-2294.638420,13397.727550
2542.305920,-2451.505594,-0.000000,9844.739029
2542.306250,-383.047749,-1480.411884,9992.780217
2542.306579,1072.533697,1924.535449,7179.997637
2542.306908,4213.525239,1406.391290,13915.871710
2542.307237,4443.353888,2664.741391,4885.359217
2542.307566,8044.002729,2590.720797,7624.121203
2542.307895,5745.716235,2294.638420,4145.153275
2542.308224,5515.887586,5033.400406,4663.297435
2542.308553,2911.162892,3552.988522,7179.997637
2542.308882,995.924147,3404.947333,5773.606348
2542.309211,-153.219100,-296.082377,9474.636058
2542.309540,-3600.648841,-3775.050304,12583.501014
2542.309870,-5592.497135,-3404.947333,7920.203579
2542.310199,-5898.935335,-6143.709319,12731.542202
2542.310528,-5669.106685,-3552.988522,10066.800811
2542.310857,-5362.668486,-2442.679609,11029.068536
2542.311186,-1915.238745,-2664.741391,13471.748144
2542.311515,-1991.848295,888.247130,9474.636058
2542.311844,1378.971896,-1554.432478,9696.697840
2542.312173,689.485948,2368.659014,8290.306550
2542.312502,4979.620737,1554.432478,13989.892304
2542.312831,4903.011187,3182.885551,2738.761985
2542.313160,8197.221829,3404.947333,8290.306550
2542.313490,4903.011187,2220.617826,4959.379811
2542.313819,5515.887586,4515.256246,5033.400406
2542.314148,2298.286494,2886.803174,7920.203579
2542.314477,2068.457845,1924.535449,5551.544565
2542.314806,-689.485948,-2368.659014,12139.377449
2542.315135,-4213.525239,-4293.194464,11843.295072
2542.315464,-5515.887586,-4293.194464,9474.636058
2542.315793,-6358.592633,-5551.544565,12139.377449
2542.316122,-4903.011187,-3552.988522,9770.718434
2542.316451,-4979.620737,-2220.617826,11103.089130
2542.316780,-1532.190996,-1702.473667,12435.459826
2542.317110,-1838.629195,370.102971,9400.615463
2542.317439,2681.334243,-1702.473667,9400.615463
2542.317768,842.705048,1554.432478,9178.553681
2542.318097,4673.182538,962.267725,12065.356855
2542.318426,5822.325785,3330.926739,2738.761985
2542.318755,7660.954980,2960.823768,7328.038826
2542.319084,4903.011187,2294.638420,4959.379811
2542.319413,5898.935335,4071.132681,6439.791695
2542.319742,2374.896044,3775.050304,7105.977043
2542.320071,3140.991542,2442.679609,3775.050304
2542.320400,-229.828649,-1036.288319,11769.274478
2542.320730,-4366.744339,-3108.864956,10140.821405
2542.321059,-4673.182538,-4811.338623,11029.068536
2542.321388,-6128.763984,-4589.276840,10584.944971
2542.321717,-3600.648841,-4367.215058,9918.759623
2542.322046,-5209.449386,-1628.453072,11547.212695
2542.322375,-766.095498,-2146.597232,12361.439231
2542.322704,-1685.410096,-0.000000,10510.924376
2542.323033,1532.190996,-1258.350101,9326.594869
2542.323362,1225.752797,2220.617826,9844.739029
2542.323691,5132.839837,1036.288319,10362.883188
2542.324020,6205.373534,3034.844362,3627.009116
2542.324350,7354.516781,1850.514855,6883.915261
2542.324679,4903.011187,2368.659014,4959.379811
2542.325008,4673.182538,3552.988522,6735.874072
2542.325337,2451.505594,2812.782580,7328.038826
2542.325666,2221.676944,2738.761985,4515.256246
2542.325995,-1532.190996,-1998.556043,11103.089130
2542.326324,-4519.963438,-3923.091493,10732.986159
2542.326653,-5669.106685,-4811.338623,10362.883188
2542.326982,-6511.811733,-5329.482782,13101.645173
2542.327311,-5286.058936,-4441.235652,9252.574275
2542.327640,-5439.278036,-1924.535449,12065.356855
2542.327969,-2451.505594,-2368.659014,12805.562797
2542.328299,-1915.238745,-222.061783,9474.636058
2542.328628,1608.800546,-1110.308913,9770.718434
2542.328957,1149.143247,2516.700203,8364.327145
2542.329286,5439.278036,1554.432478,12065.356855
2542.329615,6205.373534,4145.153275,2812.782580
2542.329944,8197.221829,2294.638420,6513.812290
2542.330273,3983.696590,3182.885551,4885.359217
2542.330602,4979.620737,3849.070898,5773.606348
2542.330931,1838.629195,3775.050304,6661.853478
2542.331260,1838.629195,666.185348,6439.791695
2542.331589,-4060.306139,-3552.988522,13027.624579
2542.331919,-4673.182538,-3404.947333,10140.821405
2542.332248,-7584.345430,-4441.235652,9104.533087
2542.332577,-8044.002729,-6883.915261,15396.283594
2542.332906,-6205.373534,-2960.823768,9622.677246
2542.333235,-3294.210641,-2442.679609,12583.501014
2542.333564,-2911.162892,-1332.370696,11695.253884
2542.333893,0.000000,-666.185348,9326.594869
2542.334222,1072.533697,-0.000000,8808.450710
2542.334551,6052.154434,2738.761985,13323.706956
2542.334880,5132.839837,4293.194464,1628.453072
2542.335209,9652.803275,3256.906145,8512.368333
2542.335539,7201.297681,4663.297435,3256.906145
2542.335868,8120.612279,6217.729913,5181.441594
2542.336197,2604.724693,2368.659014,7772.162391
2542.336526,2221.676944,4737.318029,3923.091493
2542.336855,1149.143247,-1998.556043,10881.027347
2542.337184,-4826.401637,-4441.235652,12731.542202
2542.337513,-6128.763984,-4811.338623,10288.862594
2542.337842,-7967.393179,-5773.606348,12139.377449
2542.338171,-5898.935335,-6809.894666,12879.583391
2542.338500,-7124.688131,-2516.700203,10807.006753
2542.338829,-1455.581446,-2368.659014,12509.480420
2542.339159,-1991.848295,1924.535449,8808.450710
2542.339488,1302.362347,-1258.350101,9548.656652
2542.339817,2068.457845,1184.329507,8882.471304
2542.340146,6205.373534,2368.659014,9918.759623
2542.340475,7584.345430,2146.597232,3034.844362
2542.340804,7890.783629,2812.782580,5773.606348
2542.341133,6052.154434,3627.009116,4811.338623
2542.341462,5975.544884,4219.173869,6735.874072
2542.341791,2911.162892,2960.823768,7698.141797
2542.342120,2451.505594,3627.009116,4145.153275
2542.342449,-306.438199,-1258.350101,10288.862594
2542.342779,-4673.182538,-4441.235652,11177.109724
2542.343108,-5822.325785,-5403.503377,10584.944971
2542.343437,-6665.030833,-4441.235652,11621.233289
2542.343766,-4596.572988,-7031.956449,10955.047942
2542.344095,-5898.935335,-1702.473667,10881.027347
2542.344424,-995.924147,-2072.576638,11769.274478
2542.344753,-2451.505594,666.185348,9178.553681
2542.345082,1685.410096,-1850.514855,9918.759623
2542.345411,1225.752797,2442.679609,7476.080014
2542.345740,4903.011187,-148.041188,14359.995275
2542.346069,5362.668486,3404.947333,3552.988522
2542.346399,8044.002729,1850.514855,8142.265362
2542.346728,5439.278036,2220.617826,5551.544565
2542.347057,6052.154434,4737.318029,4145.153275
2542.347386,3677.258390,2442.679609,9030.512492
2542.347715,1608.800546,4737.318029,3775.050304
2542.348044,2528.115143,814.226536,10436.903782
2542.348373,-3447.429741,-1924.535449,11103.089130
2542.348702,-4979.620737,-8734.430116,12583.501014
2542.349031,-7277.907231,-3256.906145,11917.315666
2542.349360,-3753.867940,-6809.894666,11695.253884
2542.349689,-7048.078582,-2294.638420,8882.471304
2542.350019,-3217.601092,-2960.823768,13915.871710
2542.350348,-1991.848295,-0.000000,10807.006753
2542.350677,-306.438199,-1332.370696,11103.089130
2542.351006,2145.067394,2368.659014,6661.853478
2542.351335,2911.162892,370.102971,12657.521608
2542.351664,5132.839837,1776.494261,9474.636058
2542.351993,7354.516781,2368.659014,5403.503377
2542.352322,6665.030833,2368.659014,5255.462188
2542.352651,4213.525239,2590.720797,4071.132681
2542.352980,4903.011187,3849.070898,8512.368333
2542.353309,1455.581446,3627.009116,6365.771101
2542.353639,1991.848295,2072.576638,5699.585753
2542.353968,-2604.724693,-2072.576638,12583.501014
2542.354297,-4903.011187,-5551.544565,10658.965565
2542.354626,-6128.763984,-4589.276840,11547.212695
2542.354955,-5822.325785,-5921.647536,13767.830521
2542.355284,-5286.058936,-3923.091493,8142.265362
2542.355613,-3294.210641,-3552.988522,14137.933492
2542.355942,-1838.629195,-444.123565,11843.295072
2542.356271,-383.047749,-518.144159,9992.780217
2542.356600,1455.581446,1406.391290,8068.244768
2542.356929,4366.744339,2146.597232,13619.789333
2542.357259,4903.011187,2368.659014,7624.121203
2542.357588,8733.488677,2738.761985,8734.430116
2542.357917,5745.716235,1554.432478,3701.029710
2542.358246,5362.668486,4293.194464,4885.359217
2542.358575,3600.648841,3775.050304,7698.141797
2542.358904,2298.286494,3552.988522,5255.462188
2542.359233,1915.238745,814.226536,8734.430116
2542.359562,-2451.505594,-2590.720797,12657.521608
2542.359891,-5056.230287,-5403.503377,9992.780217
2542.360220,-6358.592633,-4441.235652,11843.295072
2542.360549,-5439.278036,-5625.565159,13323.706956
2542.360879,-5592.497135,-2886.803174,9844.739029
2542.361208,-2451.505594,-1998.556043,12583.501014
2542.361537,-1762.019645,222.061783,10288.862594
2542.361866,-306.438199,-814.226536,9622.677246
2542.362195,1838.629195,2738.761985,7550.100608
2542.362524,4903.011187,1702.473667,14582.057057
2542.362853,4366.744339,3849.070898,2738.761985
2542.363182,8427.050478,2812.782580,7994.224174
2542.363511,4673.182538,2368.659014,4885.359217
2542.363840,5745.716235,4885.359217,4885.359217
2542.364169,2834.553343,3404.947333,6883.915261
2542.364499,1915.238745,3182.885551,4145.153275
2542.364828,-383.047749,-1184.329507,10510.924376
2542.365157,-3447.429741,-3923.091493,11695.253884
2542.365486,-5439.278036,-3478.967927,8586.388927
2542.365815,-6971.469032,-6143.709319,12361.439231
2542.366144,-5362.668486,-4145.153275,10955.047942
2542.366473,-5822.325785,-2516.700203,11991.336260
2542.366802,-1378.971896,-1628.453072,13027.624579
2542.367131,-1378.971896,518.144159,9474.636058
2542.367460,919.314598,-1776.494261,9844.739029
2542.367789,383.047749,2590.720797,8438.347739
2542.368119,4903.011187,1480.411884,12731.542202
2542.368448,4673.182538,3997.112087,1924.535449
2542.368777,7584.345430,2146.597232,7772.162391
2542.369106,4060.306139,3108.864956,5921.647536
2542.369435,5286.058936,2960.823768,6513.812290
2542.369764,2528.115143,2442.679609,7031.956449
2542.370093,1225.752797,962.267725,5033.400406
2542.370422,-1991.848295,-3627.009116,12805.562797
2542.370751,-3983.696590,-2516.700203,10732.986159
2542.371080,-6052.154434,-5329.482782,10510.924376
2542.371409,-7201.297681,-4737.318029,13175.665768
2542.371739,-4749.792088,-3478.967927,9770.718434
2542.372068,-3983.696590,-2146.597232,11399.171507
2542.372397,-1762.019645,-1036.288319,11991.336260
2542.372726,-459.657299,-0.000000,8808.450710
2542.373055,1302.362347,-1184.329507,8956.491898
2542.373384,4596.572988,1110.308913,13693.809927
2542.373713,4903.011187,2368.659014,4959.379811
2542.374042,9499.584175,2664.741391,8734.430116
2542.374371,6205.373534,2738.761985,3627.009116
2542.374700,6511.811733,4367.215058,4737.318029
2542.375029,2987.772442,3997.112087,7772.162391
2542.375359,2374.896044,3478.967927,5995.668130
2542.375688,3140.991542,1628.453072,6883.915261
2542.376017,-459.657299,-592.164754,9992.780217
2542.376346,-4903.011187,-6143.709319,11177.109724
2542.376675,-5515.887586,-4515.256246,12583.501014
2542.377004,-4903.011187,-5033.400406,11177.109724
2542.377333,-4903.011187,-4293.194464,10066.800811
2542.377662,-4673.182538,-1998.556043,12139.377449
2542.377991,-1072.533697,-518.144159,10732.986159
2542.378320,-459.657299,-1480.411884,10658.965565
2542.378649,1685.410096,814.226536,8068.244768
2542.378979,4290.134789,740.205942,12953.603985
2542.379308,5132.839837,2442.679609,7254.018232
2542.379637,9039.926876,1628.453072,7550.100608
2542.379966,5975.544884,3182.885551,4145.153275
2542.380295,5898.935335,3627.009116,5847.626942
2542.380624,3677.258390,3923.091493,7179.997637
2542.380953,3217.601092,3775.050304,6439.791695
2542.381282,1915.238745,2294.638420,7031.956449
2542.381611,-1685.410096,-1850.514855,10955.047942
2542.381940,-5286.058936,-6809.894666,11843.295072
2542.382269,-6205.373534,-4219.173869,10584.944971
2542.382598,-5209.449386,-5847.626942,12213.398043
2542.382928,-6511.811733,-4219.173869,8956.491898
2542.383257,-4443.353888,-1776.494261,13323.706956
2542.383586,-1685.410096,-1184.329507,11843.295072
2542.383915,-1455.581446,-1480.411884,9474.636058
2542.384244,2145.067394,1110.308913,8882.471304
2542.384573,2757.943793,1258.350101,11769.274478
2542.384902,5209.449386,2368.659014,9178.553681
2542.385231,7277.907231,3256.906145,5329.482782
2542.385560,6435.202183,2368.659014,4811.338623
2542.385889,5056.230287,3330.926739,5773.606348
2542.386219,5132.839837,3627.009116,6883.915261
2542.386548,2451.505594,3627.009116,6143.709319
2542.386877,689.485948,1406.391290,6291.750507
2542.387206,-2528.115143,-2812.782580,12805.562797
2542.387535,-4596.572988,-3034.844362,9622.677246
2542.387865,-5515.887586,-5255.462188,10362.883188
2542.388194,-6588.421283,-5551.544565,12657.521608
2542.388523,-6281.983084,-3701.029710,9696.697840
2542.388852,-3524.039291,-2886.803174,13619.789333
2542.389181,-2757.943793,-1554.432478,11547.212695
2542.389510,-536.266849,-1184.329507,10436.903782
2542.389840,306.438199,222.061783,9474.636058
2542.390169,3524.039291,1924.535449,12953.603985
2542.390498,5822.325785,2442.679609,7328.038826
2542.390827,8810.098227,3330.926739,7698.141797
2542.391156,6281.983084,2960.823768,3330.926739
2542.391486,6358.592633,4663.297435,5403.503377
2542.391815,3600.648841,4293.194464,7402.059420
2542.392144,1762.019645,3330.926739,5699.585753
2542.392473,2068.457845,518.144159,8216.285956
2542.392802,-3294.210641,-2220.617826,11547.212695
2542.393131,-4443.353888,-5477.523971,10362.883188
2542.393461,-7354.516781,-4219.173869,9992.780217
2542.393790,-5362.668486,-7328.038826,14359.995275
2542.394119,-7048.078582,-2442.679609,9474.636058
2542.394448,-2681.334243,-2442.679609,12805.562797
2542.394777,-3217.601092,-888.247130,9992.780217
2542.395107,-1149.143247,-1110.308913,10881.027347
2542.395436,1608.800546,888.247130,9622.677246
2542.395765,4366.744339,2146.597232,10955.047942
2542.396094,5592.497135,3552.988522,6143.709319
2542.396423,8197.221829,2368.659014,6587.832884
2542.396752,6588.421283,3256.906145,3997.112087
2542.397082,5515.887586,4885.359217,4737.318029
2542.397411,4673.182538,3108.864956,7179.997637
2542.397740,2221.676944,3256.906145,5773.606348
2542.398069,1149.143247,-222.061783,8364.327145
2542.398398,-3217.601092,-3256.906145,11917.315666
2542.398728,-6358.592633,-5995.668130,11399.171507
2542.399057,-7124.688131,-4885.359217,11695.253884
2542.399386,-5439.278036,-6365.771101,13101.645173
2542.399715,-5975.544884,-2220.617826,10362.883188
2542.400044,-2221.676944,-1776.494261,12805.562797
2542.400374,-1608.800546,-222.061783,10288.862594
2542.400703,0.000000,-1332.370696,10436.903782
2542.401032,4596.572988,666.185348,11473.192101
2542.401361,6205.373534,4293.194464,4885.359217
2542.401690,7660.954980,2664.741391,7550.100608
2542.402019,8044.002729,2590.720797,4663.297435
2542.402349,7354.516781,5403.503377,4515.256246
2542.402678,4519.963438,2294.638420,7772.162391
2542.403007,2911.162892,3404.947333,5921.647536
2542.403336,2911.162892,2072.576638,8586.388927
2542.403665,-2911.162892,-2886.803174,10955.047942
2542.403995,-5056.230287,-5625.565159,12657.521608
2542.404324,-7507.735880,-4737.318029,11621.233289
2542.404653,-6128.763984,-7031.956449,13915.871710
2542.404982,-7048.078582,-4293.194464,9548.656652
2542.405311,-4749.792088,-1924.535449,11843.295072
2542.405640,-2757.943793,-296.082377,10140.821405
2542.405970,-689.485948,-74.020594,9622.677246
2542.406299,2374.896044,-888.247130,9548.656652
2542.406628,5132.839837,2812.782580,9548.656652
2542.406957,6281.983084,2442.679609,6069.688724
2542.407286,7967.393179,1776.494261,6587.832884
2542.407616,7354.516781,4219.173869,3627.009116
2542.407945,7124.688131,5329.482782,6217.729913
2542.408274,3830.477490,2886.803174,6513.812290
2542.408603,2987.772442,4959.379811,6365.771101
2542.408932,1991.848295,962.267725,8808.450710
2542.409262,-3370.820191,-1628.453072,10807.006753
2542.409591,-6128.763984,-7624.121203,14137.933492
2542.409920,-7354.516781,-3701.029710,10214.842000
2542.410249,-5822.325785,-7550.100608,14063.912898
2542.410578,-7354.516781,-3478.967927,8734.430116
2542.410907,-4290.134789,-2220.617826,12435.459826
2542.411237,-2528.115143,-1184.329507,11251.130318
2542.411566,-842.705048,-0.000000,9178.553681
2542.411895,2298.286494,1258.350101,9918.759623
2542.412224,4903.011187,1110.308913,11621.233289
2542.412553,6588.421283,2368.659014,7328.038826
2542.412883,8120.612279,2146.597232,6217.729913
2542.413212,7354.516781,3182.885551,3552.988522
2542.413541,5745.716235,5995.668130,5699.585753
2542.413870,3830.477490,2590.720797,7994.224174
2542.414199,1378.971896,5107.421000,6513.812290
2542.414528,2145.067394,1332.370696,8512.368333
2542.414858,-2757.943793,-1332.370696,10510.924376
2542.415187,-6052.154434,-7328.038826,12657.521608
2542.415516,-6358.592633,-3775.050304,10066.800811
2542.415845,-5515.887586,-6661.853478,12435.459826
2542.416174,-6971.469032,-4441.235652,8512.368333
2542.416504,-4443.353888,-2368.659014,13175.665768
2542.416833,-2451.505594,-1998.556043,11029.068536
2542.417162,-1378.971896,-296.082377,9696.697840
2542.417491,2298.286494,518.144159,7920.203579
2542.417820,1915.238745,1332.370696,9918.759623
2542.418150,5669.106685,666.185348,10955.047942
2542.418479,6281.983084,2072.576638,4441.235652
2542.418808,5822.325785,1850.514855,5921.647536
2542.419137,3677.258390,3627.009116,4811.338623
2542.419466,5669.106685,3849.070898,8512.368333
2542.419795,2145.067394,4219.173869,7402.059420
2542.420125,2298.286494,5033.400406,2738.761985
2542.420454,766.095498,-296.082377,10881.027347
2542.420783,-5209.449386,-3330.926739,9992.780217
2542.421112,-4519.963438,-6291.750507,12953.603985
2542.421441,-6128.763984,-2516.700203,9844.739029
2542.421771,-4136.915689,-7105.977043,11695.253884
2542.422100,-7048.078582,-2590.720797,11399.171507
2542.422429,-1455.581446,-2368.659014,12731.542202
2542.422758,-2451.505594,740.205942,9622.677246
2542.423087,1149.143247,-814.226536,10436.903782
2542.423416,2298.286494,2886.803174,7550.100608
2542.423746,5975.544884,1332.370696,13841.851115
2542.424075,4903.011187,3849.070898,3034.844362
2542.424404,6741.640382,370.102971,8438.347739
2542.424733,3983.696590,1850.514855,5847.626942
2542.425062,5286.058936,4441.235652,5033.400406
2542.425392,3370.820191,2664.741391,8290.306550
2542.425721,1149.143247,4145.153275,4145.153275
2542.426050,-153.219100,-1924.535449,11103.089130
2542.426379,-4136.915689,-4515.256246,10955.047942
2542.426708,-5132.839837,-3997.112087,9770.718434
2542.427038,-6741.640382,-5995.668130,12065.356855
2542.427367,-4826.401637,-4293.194464,10658.965565
2542.427696,-5209.449386,-1776.494261,11473.192101
2542.428025,-612.876398,-2516.700203,11917.315666
2542.428354,-1072.533697,592.164754,8808.450710
2542.428683,2068.457845,-814.226536,8882.471304
2542.429013,2987.772442,1036.288319,11177.109724
2542.429342,4903.011187,1702.473667,8216.285956
2542.429671,6818.249932,2812.782580,6587.832884
2542.430000,5745.716235,1480.411884,5181.441594
2542.430329,4749.792088,3404.947333,5329.482782
2542.430659,4213.525239,3478.967927,7846.182985
2542.430988,2604.724693,3108.864956,6291.750507
2542.431317,2757.943793,2960.823768,4663.297435
2542.431646,-459.657299,-1480.411884,11103.089130
2542.431975,-4366.744339,-3997.112087,9696.697840
2542.432304,-4979.620737,-4737.318029,11695.253884
2542.432634,-5209.449386,-4219.173869,10732.986159
2542.432963,-4443.353888,-4737.318029,10362.883188
2542.433292,-4213.525239,-1998.556043,12139.377449
2542.433621,-153.219100,-962.267725,10732.986159
2542.433950,-919.314598,-814.226536,10362.883188
2542.434280,1762.019645,-222.061783,7846.182985
2542.434609,4519.963438,1480.411884,14137.933492
2542.434938,4596.572988,2294.638420,5329.482782
2542.435267,8120.612279,2886.803174,9030.512492
2542.435596,4519.963438,1406.391290,5181.441594
2542.435925,5286.058936,4145.153275,4959.379811
2542.436255,3217.601092,3478.967927,7772.162391
2542.436584,2451.505594,4515.256246,6069.688724
2542.436913,2221.676944,1924.535449,7994.224174
2542.437242,-2451.505594,-2960.823768,13101.645173
2542.437571,-5209.449386,-5699.585753,11473.192101
2542.437901,-6205.373534,-5477.523971,11695.253884
2542.438230,-4826.401637,-5847.626942,12435.459826
2542.438559,-6818.249932,-3034.844362,9474.636058
2542.438888,-3600.648841,-2220.617826,12953.603985
2542.439217,-2221.676944,-370.102971,10584.944971
2542.439547,0.000000,-1702.473667,10140.821405
2542.439876,2298.286494,1110.308913,7624.121203
2542.440205,3907.087040,1702.473667,12879.583391
2542.440534,5592.497135,2368.659014,5625.565159
2542.440863,7431.126331,2590.720797,7254.018232
2542.441192,5439.278036,2442.679609,4737.318029
2542.441522,5132.839837,5551.544565,4811.338623
2542.441851,3600.648841,2442.679609,7920.203579
2542.442180,1685.410096,4515.256246,5107.421000
2542.442509,2221.676944,518.144159,9178.553681
2542.442838,-3294.210641,-3627.009116,12287.418637
2542.443168,-5515.887586,-4145.153275,10140.821405
2542.443497,-6818.249932,-4737.318029,11103.089130
2542.443826,-4903.011187,-6291.750507,13471.748144
2542.444155,-6205.373534,-2146.597232,9400.615463
2542.444484,-1838.629195,-2442.679609,12139.377449
2542.444813,-2221.676944,-74.020594,10288.862594
2542.445143,842.705048,-1406.391290,9918.759623
2542.445472,1991.848295,814.226536,8808.450710
2542.445801,5822.325785,2516.700203,10066.800811
2542.446130,5669.106685,2886.803174,4071.132681
2542.446459,6511.811733,2294.638420,7105.977043
2542.446789,4826.401637,2960.823768,5255.462188
2542.447118,4519.963438,5107.421000,7179.997637
2542.447447,1991.848295,2664.741391,7624.121203
2542.447776,2145.067394,3627.009116,4589.276840
2542.448105,-1378.971896,-3034.844362,12435.459826
2542.448435,-4136.915689,-4441.235652,12361.439231
2542.448764,-6511.811733,-3552.988522,8512.368333
2542.449093,-6205.373534,-7698.141797,14434.015869
2542.449422,-6511.811733,-3627.009116,8364.327145
2542.449751,-5132.839837,-2516.700203,13397.727550
2542.450080,-2451.505594,-1998.556043,11621.233289
2542.450410,-1915.238745,666.185348,8808.450710
2542.450739,2298.286494,-1258.350101,8956.491898
2542.451068,2681.334243,1702.473667,10214.842000
2542.451397,5669.106685,1332.370696,9474.636058
2542.451726,7660.954980,2146.597232,5847.626942
2542.452056,5822.325785,2590.720797,4515.256246
2542.452385,4213.525239,3108.864956,5255.462188
2542.452714,4366.744339,3182.885551,7920.203579
2542.453043,2298.286494,4071.132681,6513.812290
2542.453372,2834.553343,1480.411884,6661.853478
2542.453701,-1378.971896,-2442.679609,13397.727550
2542.454031,-4749.792088,-4959.379811,10436.903782
2542.454360,-4903.011187,-4959.379811,12065.356855
2542.454689,-5209.449386,-4811.338623,11473.192101
2542.455018,-5209.449386,-3404.947333,9326.594869
2542.455347,-3983.696590,-2220.617826,11917.315666
2542.455677,-1378.971896,-740.205942,11103.089130
2542.456006,-689.485948,-1110.308913,9770.718434
2542.456335,1991.848295,-518.144159,8512.368333
2542.456664,2834.553343,888.247130,13545.768739
2542.456993,5132.839837,1184.329507,7994.224174
2542.457323,8197.221829,2072.576638,7328.038826
2542.457652,5745.716235,1924.535449,4959.379811
2542.457981,5439.278036,3478.967927,4885.359217
2542.458310,4826.401637,4293.194464,8216.285956
2542.458639,2451.505594,3552.988522,6957.935855
2542.458968,3064.381992,2664.741391,6069.688724
2542.459298,-1225.752797,-1406.391290,11177.109724
2542.459627,-4979.620737,-4737.318029,10955.047942
2542.459956,-4673.182538,-4959.379811,12139.377449
2542.460285,-4290.134789,-4367.215058,10140.821405
2542.460614,-4290.134789,-4293.194464,9400.615463
2542.460944,-4366.744339,-1702.473667,12139.377449
2542.461273,-2221.676944,-1258.350101,11843.295072
2542.461602,-1915.238745,-888.247130,10214.842000
2542.461931,2604.724693,-0.000000,9030.512492
2542.462260,1762.019645,1628.453072,8882.471304
2542.462589,4903.011187,962.267725,12065.356855
2542.462919,5056.230287,2664.741391,2960.823768
2542.463248,7277.907231,888.247130,7550.100608
2542.463577,3907.087040,2812.782580,5181.441594
2542.463906,5362.668486,4441.235652,6809.894666
2542.464235,2604.724693,3330.926739,7254.018232
2542.464565,1915.238745,3923.091493,4589.276840
2542.464894,-536.266849,-1110.308913,10584.944971
2542.465223,-4596.572988,-3627.009116,10436.903782
2542.465552,-5056.230287,-5403.503377,11769.274478
2542.465881,-6588.421283,-4071.132681,11029.068536
2542.466210,-3983.696590,-4737.318029,10436.903782
2542.466540,-4979.620737,-1998.556043,11473.192101
2542.466869,-842.705048,-2072.576638,11917.315666
2542.467198,-1532.190996,444.123565,9400.615463
2542.467527,1532.190996,-370.102971,8660.409521
2542.467856,4903.011187,1036.288319,12435.459826
2542.468186,4596.572988,3182.885551,6291.750507
2542.468515,7584.345430,2960.823768,7698.141797
2542.468844,5592.497135,2146.597232,3997.112087
2542.469173,5362.668486,4367.215058,5625.565159
2542.469502,2757.943793,3478.967927,7994.224174
2542.469832,2757.943793,2368.659014,8142.265362
2542.470161,-766.095498,-222.061783,9252.574275
2542.470490,-3753.867940,-4663.297435,13175.665768
2542.470819,-5669.106685,-1776.494261,9474.636058
2542.471148,-7354.516781,-7105.977043,11621.233289
2542.471477,-7354.516781,-4367.215058,11991.336260
2542.471807,-5515.887586,-3256.906145,11103.089130
2542.472136,-3140.991542,-1480.411884,10955.047942
2542.472465,-2298.286494,-0.000000,9548.656652
2542.472794,1302.362347,-814.226536,8586.388927
2542.473123,1991.848295,444.123565,9696.697840
2542.473453,5669.106685,2664.741391,9992.780217
2542.473782,6052.154434,2442.679609,3627.009116
2542.474111,7354.516781,2886.803174,8068.244768
2542.474440,5056.230287,3849.070898,4293.194464
2542.474769,6052.154434,3997.112087,7476.080014
2542.475098,1915.238745,3404.947333,7031.956449
2542.475428,3140.991542,3330.926739,4441.235652
2542.475757,-153.219100,-1110.308913,11103.089130
2542.476086,-4826.401637,-2590.720797,10510.924376
2542.476415,-4596.572988,-4959.379811,12287.418637
2542.476744,-6971.469032,-5329.482782,10732.986159
2542.477074,-4060.306139,-5181.441594,10584.944971
2542.477403,-5286.058936,-2368.659014,11547.212695
2542.477732,-1302.362347,-1480.411884,10510.924376
2542.478061,-1532.190996,370.102971,9918.759623
2542.478390,1455.581446,-592.164754,8290.306550
2542.478720,2145.067394,1184.329507,10436.903782
2542.479049,5132.839837,-0.000000,10362.883188
2542.479378,6511.811733,1998.556043,4811.338623
2542.479707,6741.640382,1628.453072,6661.853478
2542.480036,5132.839837,2812.782580,5773.606348
2542.480365,4979.620737,3404.947333,7031.956449
2542.480695,2374.896044,3256.906145,7846.182985
2542.481024,2528.115143,4293.194464,4515.256246
2542.481353,76.609550,-0.000000,9400.615463
2542.481682,-4213.525239,-3923.091493,10436.903782
2542.482011,-5209.449386,-7105.977043,13397.727550
2542.482341,-6588.421283,-2516.700203,9992.780217
2542.482670,-3983.696590,-6513.812290,11029.068536
2542.482999,-6665.030833,-1406.391290,9844.739029
2542.483328,-1991.848295,-1036.288319,12361.439231
2542.483657,-2451.505594,-444.123565,9992.780217
2542.483986,689.485948,-1850.514855,9326.594869
2542.484316,1225.752797,2146.597232,7254.018232
2542.484645,5132.839837,-592.164754,14804.118840
2542.484974,4290.134789,2886.803174,3182.885551
2542.485303,7124.688131,370.102971,8142.265362
2542.485632,5439.278036,2368.659014,4737.318029
2542.485962,5515.887586,4589.276840,4293.194464
2542.486291,4749.792088,1924.535449,9178.553681
2542.486620,766.095498,5551.544565,4367.215058
2542.486949,2834.553343,1036.288319,8438.347739
2542.487278,-2834.553343,-222.061783,8882.471304
2542.487608,-5669.106685,-7550.100608,13027.624579
2542.487937,-6128.763984,-4663.297435,12139.377449
2542.488266,-3064.381992,-4737.318029,10140.821405
2542.488595,-5209.449386,-4071.132681,9844.739029
2542.488924,-3370.820191,-2590.720797,13249.686362
2542.489253,-1149.143247,-0.000000,11251.130318
2542.489582,-459.657299,-962.267725,10288.862594
2542.489911,1762.019645,2294.638420,7550.100608
2542.490240,4060.306139,592.164754,14211.954086
2542.490569,5439.278036,2368.659014,6143.709319
2542.490898,7967.393179,2368.659014,7624.121203
2542.491227,3830.477490,1628.453072,5625.565159
2542.491557,4903.011187,3330.926739,6143.709319
2542.491886,3140.991542,3182.885551,8068.244768
2542.492215,2221.676944,4737.318029,5921.647536
2542.492544,1378.971896,2294.638420,7772.162391
2542.492873,-3064.381992,-3552.988522,11769.274478
2542.493202,-5209.449386,-4811.338623,11843.295072
2542.493531,-5362.668486,-4737.318029,11547.212695
2542.493860,-4519.963438,-4293.194464,11769.274478
2542.494189,-5439.278036,-3034.844362,9696.697840
2542.494518,-2911.162892,-1554.432478,12139.377449
2542.494847,-1685.410096,-296.082377,11547.212695
2542.495176,-306.438199,-888.247130,9696.697840
2542.495505,1991.848295,1554.432478,8142.265362
2542.495834,3753.867940,666.185348,14656.077652
2542.496164,4519.963438,2368.659014,5255.462188
2542.496493,7584.345430,1480.411884,8734.430116
2542.496822,4673.182538,1776.494261,4441.235652
2542.497151,5362.668486,3849.070898,4811.338623
2542.497480,2681.334243,4219.173869,8068.244768
2542.497809,1685.410096,4145.153275,5477.523971
2542.498138,2298.286494,1036.288319,8290.306550
2542.498467,-2451.505594,-1258.350101,10732.986159
2542.498796,-5209.449386,-4737.318029,10584.944971
2542.499125,-5439.278036,-5551.544565,12139.377449
2542.499454,-3907.087040,-3923.091493,10584.944971
2542.499783,-4826.401637,-3404.947333,9770.718434
2542.500112,-2374.896044,-2590.720797,13101.645173
2542.500442,-1149.143247,-0.000000,10955.047942
2542.500771,-306.438199,-962.267725,9178.553681
2542.501100,1302.362347,1776.494261,9104.533087
2542.501429,4596.572988,1332.370696,13249.686362
2542.501758,4673.182538,3701.029710,4367.215058
2542.502087,7431.126331,1850.514855,8734.430116
2542.502416,4290.134789,2516.700203,4885.359217
2542.502745,5669.106685,3478.967927,6069.688724
2542.503074,1915.238745,3108.864956,6365.771101
2542.503403,1991.848295,2738.761985,6735.874072
2542.503732,-1991.848295,-1332.370696,10658.965565
2542.504061,-4290.134789,-4293.194464,12139.377449
2542.504390,-5592.497135,-3256.906145,10140.821405
2542.504719,-7124.688131,-5995.668130,11325.150913
2542.505049,-5286.058936,-3701.029710,11621.233289
2542.505378,-5515.887586,-2812.782580,10807.006753
2542.505707,-2604.724693,-888.247130,12065.356855
2542.506036,-1991.848295,-296.082377,10214.842000
2542.506365,1225.752797,-1480.411884,7846.182985
2542.506694,689.485948,1258.350101,9918.759623
2542.507023,4903.011187,888.247130,11843.295072
2542.507352,5286.058936,3034.844362,2812.782580
2542.507681,6511.811733,2442.679609,8512.368333
2542.508010,4060.306139,2664.741391,4737.318029
2542.508339,5132.839837,3627.009116,6661.853478
2542.508668,1915.238745,3849.070898,6957.935855
2542.508997,2451.505594,1480.411884,5773.606348
2542.509327,-1378.971896,-1998.556043,12213.398043
2542.509656,-3600.648841,-2590.720797,9696.697840
2542.509985,-4596.572988,-4959.379811,11399.171507
2542.510314,-6435.202183,-5107.421000,11473.192101
2542.510643,-3753.867940,-2960.823768,9400.615463
2542.510972,-3217.601092,-2664.741391,11029.068536
2542.511301,-536.266849,-1258.350101,11695.253884
2542.511630,-689.485948,370.102971,8734.430116
2542.511959,1149.143247,-1480.411884,9400.615463
2542.512288,3907.087040,592.164754,12583.501014
2542.512617,5056.230287,2812.782580,4589.276840
2542.512946,8044.002729,1702.473667,8290.306550
2542.513275,4903.011187,2442.679609,4811.338623
2542.513604,7048.078582,3701.029710,6365.771101
2542.513934,2987.772442,2960.823768,7179.997637
2542.514263,2374.896044,3923.091493,6291.750507
2542.514592,2681.334243,1406.391290,7772.162391
2542.514921,-1608.800546,-296.082377,8660.409521
2542.515250,-4903.011187,-5699.585753,11843.295072
2542.515579,-5898.935335,-4811.338623,12731.542202
2542.515908,-4366.744339,-4885.359217,9770.718434
