#time,accel_x,accel_y,accel_z
2480.030529,919.314598,-444.123565,9104.533087
2480.030858,766.095498,-518.144159,9104.533087
2480.031188,153.219100,-296.082377,9104.533087
2480.031517,459.657299,-296.082377,8956.491898
2480.031846,612.876398,-0.000000,9178.553681
2480.032176,459.657299,-0.000000,9178.553681
2480.032505,383.047749,-0.000000,9104.533087
2480.032835,536.266849,-370.102971,9326.594869
2480.033164,229.828649,-222.061783,9178.553681
2480.033494,383.047749,-296.082377,9104.533087
2480.033823,-229.828649,-0.000000,9474.636058
2480.034152,76.609550,-222.061783,9178.553681
2480.034482,153.219100,-74.020594,9030.512492
2480.034811,153.219100,-74.020594,8956.491898
2480.035141,842.705048,-148.041188,9030.512492
2480.035470,536.266849,-444.123565,8808.450710
2480.035799,76.609550,-0.000000,9474.636058
2480.036129,229.828649,-74.020594,9030.512492
2480.036458,383.047749,-0.000000,8882.471304
2480.036788,383.047749,-0.000000,8882.471304
2480.037117,229.828649,-74.020594,8808.450710
2480.037446,229.828649,-74.020594,8882.471304
2480.037776,612.876398,-148.041188,9030.512492
2480.038105,459.657299,-370.102971,9104.533087
2480.038435,459.657299,-518.144159,8734.430116
2480.038764,229.828649,-0.000000,9030.512492
2480.039093,383.047749,-148.041188,8882.471304
2480.039423,229.828649,-148.041188,9030.512492
2480.039752,229.828649,-370.102971,9178.553681
2480.040082,383.047749,-0.000000,9104.533087
2480.040411,459.657299,-444.123565,9474.636058
2480.040740,306.438199,-666.185348,9252.574275
2480.041070,306.438199,-0.000000,9104.533087
2480.041399,0.000000,-0.000000,9252.574275
2480.041729,229.828649,-148.041188,9326.594869
2480.042058,612.876398,-370.102971,9252.574275
2480.042387,536.266849,-148.041188,9326.594869
2480.042717,306.438199,-518.144159,9178.553681
2480.043046,229.828649,-222.061783,9104.533087
2480.043376,229.828649,-74.020594,9252.574275
2480.043705,76.609550,-222.061783,9030.512492
2480.044034,306.438199,-74.020594,9104.533087
2480.044364,306.438199,-370.102971,9326.594869
2480.044693,766.095498,-444.123565,9030.512492
2480.045023,229.828649,-0.000000,9252.574275
2480.045352,0.000000,-74.020594,9178.553681
2480.045681,612.876398,-444.123565,9104.533087
2480.046011,153.219100,-296.082377,8956.491898
2480.046340,76.609550,148.041188,9030.512492
2480.046670,306.438199,-148.041188,8808.450710
2480.046999,229.828649,-0.000000,8882.471304
2480.047328,306.438199,-74.020594,8882.471304
2480.047658,306.438199,-370.102971,8808.450710
2480.047987,0.000000,-370.102971,9252.574275
2480.048317,459.657299,-518.144159,9178.553681
2480.048646,306.438199,-0.000000,9030.512492
2480.048975,153.219100,-148.041188,9030.512492
2480.049305,306.438199,-222.061783,8808.450710
2480.049634,536.266849,-0.000000,9178.553681
2480.049964,689.485948,-0.000000,8882.471304
2480.050293,306.438199,-296.082377,9030.512492
2480.050622,766.095498,-222.061783,9252.574275
2480.050952,306.438199,-222.061783,8808.450710
2480.051281,459.657299,-0.000000,9104.533087
2480.051611,306.438199,-296.082377,9178.553681
2480.051940,306.438199,-296.082377,9400.615463
2480.052269,306.438199,-592.164754,9400.615463
2480.052599,536.266849,-444.123565,9178.553681
2480.052928,459.657299,-888.247130,9326.594869
2480.053258,153.219100,-296.082377,9400.615463
2480.053587,536.266849,-148.041188,9326.594869
2480.053916,383.047749,-0.000000,9104.533087
2480.054246,612.876398,-0.000000,9178.553681
2480.054575,536.266849,-74.020594,8660.409521
2480.054905,76.609550,-148.041188,9326.594869
2480.055234,306.438199,-518.144159,9326.594869
2480.055564,306.438199,-222.061783,9400.615463
2480.055893,1225.752797,-1036.288319,9622.677246
2480.056222,1149.143247,-888.247130,9104.533087
2480.056552,1149.143247,-666.185348,9548.656652
2480.056881,2374.896044,-740.205942,9178.553681
2480.057211,2451.505594,-370.102971,8364.327145
2480.057540,3600.648841,296.082377,8956.491898
2480.057869,4213.525239,-222.061783,8808.450710
2480.058199,3830.477490,296.082377,8216.285956
2480.058528,3294.210641,666.185348,8660.409521
2480.058858,3064.381992,666.185348,8216.285956
2480.059187,3217.601092,-370.102971,9030.512492
2480.059516,2987.772442,-444.123565,8808.450710
2480.059846,1608.800546,-740.205942,9104.533087
2480.060175,1915.238745,-1850.514855,10066.800811
2480.060505,2145.067394,-1628.453072,9400.615463
2480.060834,2528.115143,-0.000000,9178.553681
2480.061163,2374.896044,-1332.370696,9992.780217
2480.061493,2451.505594,-814.226536,9474.636058
2480.061822,3907.087040,370.102971,9918.759623
2480.062152,5439.278036,148.041188,7402.059420
2480.062481,4903.011187,740.205942,7994.224174
2480.062810,4903.011187,1258.350101,9178.553681
2480.063140,5056.230287,1110.308913,7402.059420
2480.063469,4213.525239,1036.288319,8290.306550
2480.063799,3524.039291,592.164754,9030.512492
2480.064128,2987.772442,814.226536,8734.430116
2480.064457,2068.457845,-518.144159,9474.636058
2480.064787,919.314598,-1036.288319,9918.759623
2480.065116,1302.362347,-814.226536,10362.883188
2480.065446,76.609550,-1480.411884,9696.697840
2480.065775,1455.581446,-962.267725,9918.759623
2480.066104,1072.533697,-962.267725,10510.924376
2480.066434,3140.991542,74.020594,8438.347739
2480.066763,3447.429741,-148.041188,9474.636058
2480.067093,4366.744339,1480.411884,9400.615463
2480.067422,4443.353888,888.247130,7994.224174
2480.067751,4903.011187,1554.432478,7920.203579
2480.068081,4826.401637,962.267725,9104.533087
2480.068410,3753.867940,-0.000000,8734.430116
2480.068740,3830.477490,-444.123565,9178.553681
2480.069069,3140.991542,-1036.288319,9400.615463
2480.069398,2681.334243,-1036.288319,10288.862594
2480.069728,1915.238745,-1850.514855,9622.677246
2480.070057,1915.238745,-1850.514855,10066.800811
2480.070387,1915.238745,-888.247130,9548.656652
2480.070716,2528.115143,-296.082377,9474.636058
2480.071045,2757.943793,666.185348,7994.224174
2480.071375,3907.087040,666.185348,8882.471304
2480.071704,3370.820191,2146.597232,7772.162391
2480.072034,3294.210641,2664.741391,7105.977043
2480.072363,2681.334243,2368.659014,7328.038826
2480.072692,2374.896044,1998.556043,7994.224174
2480.073022,1225.752797,1184.329507,8216.285956
2480.073351,-229.828649,-592.164754,9178.553681
2480.073681,-689.485948,-1702.473667,10140.821405
2480.074010,-919.314598,-2738.761985,10510.924376
2480.074339,-995.924147,-2738.761985,10214.842000
2480.074669,-766.095498,-2664.741391,10436.903782
2480.074998,-153.219100,-2072.576638,10510.924376
2480.075328,459.657299,-1110.308913,10362.883188
2480.075657,1455.581446,-888.247130,10436.903782
2480.075986,2221.676944,666.185348,9770.718434
2480.076316,3370.820191,1850.514855,8290.306550
2480.076645,3677.258390,3108.864956,7402.059420
2480.076975,3753.867940,3775.050304,6883.915261
2480.077304,2681.334243,3256.906145,7031.956449
2480.077634,1915.238745,2368.659014,7846.182985
2480.077963,0.000000,518.144159,8142.265362
2480.078292,-1149.143247,-1554.432478,9474.636058
2480.078622,-1915.238745,-3552.988522,10732.986159
2480.078951,-2145.067394,-3478.967927,9622.677246
2480.079281,-1762.019645,-3701.029710,10436.903782
2480.079610,-1608.800546,-2960.823768,9992.780217
2480.079939,-1608.800546,-1998.556043,10584.944971
2480.080269,-995.924147,-1998.556043,11251.130318
2480.080598,0.000000,-0.000000,10066.800811
2480.080928,459.657299,1184.329507,8808.450710
2480.081257,-306.438199,2220.617826,9178.553681
2480.081586,-612.876398,2146.597232,9548.656652
2480.081916,229.828649,1776.494261,9178.553681
2480.082245,2604.724693,1924.535449,7328.038826
2480.082575,3217.601092,2072.576638,5403.503377
2480.082904,3294.210641,1036.288319,6291.750507
2480.083233,2604.724693,-0.000000,6513.812290
2480.083563,2145.067394,-1628.453072,7920.203579
2480.083892,842.705048,-2220.617826,8512.368333
2480.084222,612.876398,-2516.700203,9030.512492
2480.084551,-689.485948,-3330.926739,10436.903782
2480.084880,-1149.143247,-2294.638420,10584.944971
2480.085210,-383.047749,-1702.473667,10881.027347
2480.085539,-383.047749,-666.185348,10436.903782
2480.085869,306.438199,1036.288319,10140.821405
2480.086198,306.438199,2368.659014,9474.636058
2480.086527,459.657299,2812.782580,9030.512492
2480.086857,153.219100,2072.576638,8586.388927
2480.087186,229.828649,666.185348,8290.306550
2480.087516,0.000000,-444.123565,9104.533087
2480.087845,0.000000,-2072.576638,9474.636058
2480.088174,-842.705048,-3034.844362,9474.636058
2480.088504,-766.095498,-2442.679609,9400.615463
2480.088833,-689.485948,-2146.597232,9104.533087
2480.089163,-306.438199,-1628.453072,9474.636058
2480.089492,0.000000,-296.082377,9326.594869
2480.089821,0.000000,1110.308913,9326.594869
2480.090151,0.000000,1998.556043,9770.718434
2480.090480,306.438199,1184.329507,9844.739029
2480.090810,612.876398,1258.350101,9400.615463
2480.091139,2221.676944,1258.350101,8438.347739
2480.091468,2298.286494,1628.453072,7698.141797
2480.091798,3140.991542,888.247130,7920.203579
2480.092127,3140.991542,666.185348,8808.450710
2480.092457,2604.724693,-74.020594,8512.368333
2480.092786,2298.286494,-592.164754,8438.347739
2480.093115,1302.362347,-1702.473667,8734.430116
2480.093445,536.266849,-1332.370696,9104.533087
2480.093774,0.000000,-666.185348,9474.636058
2480.094104,-536.266849,-592.164754,9474.636058
2480.094433,-766.095498,-74.020594,9178.553681
2480.094762,0.000000,-0.000000,9400.615463
2480.095092,0.000000,666.185348,9400.615463
2480.095421,229.828649,-0.000000,9992.780217
2480.095751,-919.314598,-74.020594,9252.574275
2480.096080,-689.485948,-592.164754,9548.656652
2480.096409,-612.876398,-740.205942,9770.718434
2480.096739,-766.095498,-1258.350101,9622.677246
2480.097068,-689.485948,-1332.370696,9326.594869
2480.097398,-306.438199,-1110.308913,9474.636058
2480.097727,-536.266849,-592.164754,8808.450710
2480.098056,306.438199,-222.061783,8438.347739
2480.098386,919.314598,444.123565,8364.327145
2480.098715,1149.143247,888.247130,7846.182985
2480.099045,1378.971896,962.267725,7772.162391
2480.099374,1455.581446,370.102971,8586.388927
2480.099704,536.266849,-0.000000,8734.430116
2480.100033,1072.533697,-444.123565,8956.491898
2480.100362,536.266849,-592.164754,9474.636058
2480.100692,459.657299,-666.185348,9474.636058
2480.101021,153.219100,-814.226536,10140.821405
2480.101350,0.000000,-518.144159,9696.697840
2480.101679,0.000000,-444.123565,9474.636058
2480.102008,76.609550,222.061783,9326.594869
2480.102337,766.095498,592.164754,9104.533087
2480.102666,76.609550,740.205942,8808.450710
2480.102996,0.000000,518.144159,8586.388927
2480.103325,-153.219100,222.061783,8364.327145
2480.103654,0.000000,-592.164754,8512.368333
2480.103983,-306.438199,-1258.350101,8956.491898
2480.104312,0.000000,-1702.473667,9104.533087
2480.104641,-766.095498,-1850.514855,9400.615463
2480.104970,-842.705048,-1554.432478,9548.656652
2480.105299,-459.657299,-1258.350101,9548.656652
2480.105629,-383.047749,-370.102971,9548.656652
2480.105958,-153.219100,-0.000000,9252.574275
2480.106287,229.828649,962.267725,9548.656652
2480.106616,76.609550,740.205942,9252.574275
2480.106945,0.000000,1110.308913,9104.533087
2480.107274,459.657299,740.205942,8734.430116
2480.107603,1149.143247,740.205942,8438.347739
2480.107932,1762.019645,296.082377,7994.224174
2480.108261,1915.238745,-74.020594,8660.409521
2480.108591,1991.848295,-666.185348,9252.574275
2480.108920,2068.457845,-740.205942,8956.491898
2480.109249,1608.800546,-1036.288319,8956.491898
2480.109578,1302.362347,-888.247130,9474.636058
2480.109907,1149.143247,-592.164754,9474.636058
2480.110236,995.924147,-0.000000,9474.636058
2480.110565,459.657299,222.061783,9400.615463
2480.110894,766.095498,1036.288319,9252.574275
2480.111224,229.828649,1110.308913,9252.574275
2480.111553,-383.047749,962.267725,9400.615463
2480.111882,-383.047749,370.102971,8882.471304
2480.112211,-842.705048,-444.123565,8882.471304
2480.112540,-1225.752797,-1184.329507,9178.553681
2480.112869,-536.266849,-1406.391290,9770.718434
2480.113198,-995.924147,-2442.679609,8882.471304
2480.113527,-689.485948,-1332.370696,9622.677246
2480.113857,-536.266849,-1406.391290,9400.615463
2480.114186,-612.876398,-0.000000,8808.450710
2480.114515,0.000000,370.102971,8956.491898
2480.114844,306.438199,1480.411884,8512.368333
2480.115173,0.000000,1258.350101,8734.430116
2480.115502,766.095498,1258.350101,9252.574275
2480.115831,1149.143247,444.123565,8364.327145
2480.116160,1991.848295,-0.000000,8290.306550
2480.116489,1455.581446,-0.000000,8142.265362
2480.116819,1072.533697,-444.123565,8512.368333
2480.117148,919.314598,-962.267725,8734.430116
2480.117477,153.219100,-1332.370696,8586.388927
2480.117806,383.047749,-1554.432478,9400.615463
2480.118135,306.438199,-1702.473667,9326.594869
2480.118464,0.000000,-1406.391290,9474.636058
2480.118793,0.000000,-444.123565,9548.656652
2480.119122,0.000000,-0.000000,9178.553681
2480.119452,229.828649,518.144159,8660.409521
2480.119781,153.219100,296.082377,9104.533087
2480.120110,229.828649,296.082377,9178.553681
2480.120439,0.000000,-0.000000,8586.388927
2480.120768,-612.876398,-962.267725,9104.533087
2480.121097,-1072.533697,-888.247130,9548.656652
2480.121426,-842.705048,-1258.350101,10214.842000
2480.121755,-995.924147,-1406.391290,9696.697840
2480.122084,-459.657299,-814.226536,9696.697840
2480.122414,-229.828649,-888.247130,9474.636058
2480.122743,229.828649,-74.020594,9622.677246
2480.123072,76.609550,370.102971,9030.512492
2480.123401,153.219100,1258.350101,8512.368333
2480.123730,536.266849,1258.350101,8660.409521
2480.124059,842.705048,814.226536,8956.491898
2480.124388,1762.019645,518.144159,8586.388927
2480.124717,2221.676944,148.041188,8290.306550
2480.125047,2528.115143,-0.000000,8068.244768
2480.125376,1991.848295,222.061783,8216.285956
2480.125705,2451.505594,-296.082377,8882.471304
2480.126034,2068.457845,74.020594,8438.347739
2480.126363,1685.410096,-222.061783,8882.471304
2480.126692,1685.410096,-74.020594,9104.533087
2480.127021,1302.362347,-0.000000,9326.594869
2480.127350,306.438199,-74.020594,9326.594869
2480.127680,-459.657299,296.082377,9548.656652
2480.128009,-306.438199,-0.000000,9474.636058
2480.128338,-536.266849,-74.020594,9474.636058
2480.128667,-536.266849,-74.020594,9178.553681
2480.128996,-306.438199,-888.247130,9474.636058
2480.129325,-919.314598,-1850.514855,9548.656652
2480.129654,-689.485948,-1628.453072,9400.615463
2480.129983,-536.266849,-1332.370696,9696.697840
2480.130312,0.000000,-666.185348,9770.718434
2480.130642,229.828649,-888.247130,9696.697840
2480.130971,0.000000,-0.000000,8956.491898
2480.131300,383.047749,592.164754,8956.491898
2480.131629,919.314598,1258.350101,8808.450710
2480.131958,1072.533697,1628.453072,8068.244768
2480.132287,1455.581446,1628.453072,8068.244768
2480.132616,536.266849,1406.391290,8290.306550
2480.132945,1225.752797,296.082377,8586.388927
2480.133275,842.705048,-518.144159,8808.450710
2480.133604,689.485948,-1184.329507,9252.574275
2480.133933,229.828649,-1702.473667,9400.615463
2480.134262,-229.828649,-1850.514855,9770.718434
2480.134591,-306.438199,-1702.473667,9992.780217
2480.134920,-1072.533697,-1110.308913,9770.718434
2480.135249,383.047749,-296.082377,9252.574275
2480.135578,383.047749,370.102971,8956.491898
2480.135908,383.047749,1036.288319,8882.471304
2480.136237,689.485948,1184.329507,8364.327145
2480.136566,229.828649,1184.329507,8290.306550
2480.136895,0.000000,592.164754,8512.368333
2480.137224,0.000000,296.082377,8586.388927
2480.137553,-153.219100,-888.247130,9252.574275
2480.137882,-306.438199,-1628.453072,9474.636058
2480.138211,-1149.143247,-1998.556043,9474.636058
2480.138540,-995.924147,-1998.556043,9548.656652
2480.138870,-536.266849,-1406.391290,9400.615463
2480.139199,-459.657299,-592.164754,9326.594869
2480.139528,0.000000,-0.000000,9326.594869
2480.139857,-153.219100,888.247130,9548.656652
2480.140186,-229.828649,1184.329507,9030.512492
2480.140515,76.609550,1110.308913,8660.409521
2480.140844,689.485948,370.102971,8808.450710
2480.141173,1225.752797,222.061783,8512.368333
2480.141503,2145.067394,-0.000000,8364.327145
2480.141832,2298.286494,-222.061783,8660.409521
2480.142161,2451.505594,-740.205942,8364.327145
2480.142490,2145.067394,-592.164754,9178.553681
2480.142819,1915.238745,-370.102971,9104.533087
2480.143148,1455.581446,-444.123565,9104.533087
2480.143477,1378.971896,-74.020594,9252.574275
2480.143806,766.095498,222.061783,9400.615463
2480.144135,536.266849,222.061783,9696.697840
2480.144465,0.000000,-148.041188,9326.594869
2480.144794,-229.828649,-0.000000,9104.533087
2480.145123,-612.876398,-0.000000,9474.636058
2480.145452,-995.924147,-148.041188,9474.636058
2480.145781,-1149.143247,-1110.308913,9474.636058
2480.146110,-1149.143247,-1184.329507,9474.636058
2480.146439,-766.095498,-1110.308913,9474.636058
2480.146768,-306.438199,-1332.370696,9696.697840
2480.147098,-612.876398,-666.185348,9326.594869
2480.147427,-306.438199,-148.041188,9178.553681
2480.147756,306.438199,-0.000000,8808.450710
2480.148085,689.485948,740.205942,8660.409521
2480.148414,1762.019645,1332.370696,8364.327145
2480.148743,1991.848295,1702.473667,7698.141797
2480.149072,2298.286494,1702.473667,8068.244768
2480.149401,2298.286494,1480.411884,7476.080014
2480.149731,1838.629195,444.123565,8142.265362
2480.150060,1302.362347,-370.102971,8734.430116
2480.150389,766.095498,-1110.308913,8734.430116
2480.150718,-229.828649,-1998.556043,9548.656652
2480.151047,-383.047749,-2072.576638,9844.739029
2480.151376,-383.047749,-1998.556043,9992.780217
2480.151705,-689.485948,-1332.370696,9918.759623
2480.152034,0.000000,-518.144159,9548.656652
2480.152363,76.609550,-0.000000,9326.594869
2480.152693,306.438199,962.267725,9400.615463
2480.153022,536.266849,740.205942,8734.430116
2480.153351,229.828649,1036.288319,8808.450710
2480.153680,459.657299,592.164754,8956.491898
2480.154009,0.000000,-74.020594,8808.450710
2480.154338,-536.266849,-888.247130,9474.636058
2480.154667,-995.924147,-1332.370696,9474.636058
2480.154996,-1302.362347,-1554.432478,9696.697840
2480.155326,-1072.533697,-1332.370696,9622.677246
2480.155655,-1149.143247,-1110.308913,9474.636058
2480.155984,-459.657299,-592.164754,9844.739029
2480.156313,-612.876398,-0.000000,9178.553681
2480.156642,-306.438199,1184.329507,9104.533087
2480.156971,-229.828649,1110.308913,8808.450710
2480.157300,76.609550,1036.288319,8734.430116
2480.157629,689.485948,592.164754,9474.636058
2480.157959,1149.143247,-0.000000,8512.368333
2480.158288,1532.190996,-222.061783,8512.368333
2480.158617,2528.115143,-296.082377,8512.368333
2480.158946,2374.896044,-222.061783,8290.306550
2480.159275,2145.067394,-74.020594,8512.368333
2480.159604,1762.019645,-74.020594,8586.388927
2480.159933,1762.019645,-0.000000,8808.450710
2480.160262,1149.143247,-0.000000,9178.553681
2480.160591,766.095498,518.144159,8956.491898
2480.160921,0.000000,222.061783,8808.450710
2480.161250,-612.876398,-0.000000,9548.656652
2480.161579,-766.095498,-222.061783,9474.636058
2480.161908,-1225.752797,-592.164754,9326.594869
2480.162237,-1685.410096,-888.247130,9548.656652
2480.162566,-1608.800546,-1406.391290,10066.800811
2480.162895,-1302.362347,-1702.473667,9992.780217
2480.163224,-995.924147,-1406.391290,9696.697840
2480.163554,-689.485948,-962.267725,9696.697840
2480.163883,-536.266849,-740.205942,9696.697840
2480.164212,229.828649,-74.020594,9770.718434
2480.164541,1302.362347,518.144159,8512.368333
2480.164870,1685.410096,1184.329507,7994.224174
2480.165199,2528.115143,2294.638420,7772.162391
2480.165528,2681.334243,2368.659014,7402.059420
2480.165857,2528.115143,2072.576638,7624.121203
2480.166187,2145.067394,1184.329507,7920.203579
2480.166516,1302.362347,-0.000000,8438.347739
2480.166845,153.219100,-1332.370696,9474.636058
2480.167174,-842.705048,-1924.535449,9770.718434
2480.167503,-995.924147,-2442.679609,10288.862594
2480.167832,-1378.971896,-2294.638420,10510.924376
2480.168161,-383.047749,-1554.432478,9844.739029
2480.168490,-76.609550,-518.144159,9844.739029
2480.168819,0.000000,592.164754,9770.718434
2480.169149,1225.752797,666.185348,8734.430116
2480.169478,1149.143247,740.205942,8216.285956
2480.169807,1455.581446,1258.350101,8438.347739
2480.170136,1532.190996,1406.391290,8290.306550
2480.170465,919.314598,1184.329507,8068.244768
2480.170794,383.047749,-0.000000,8290.306550
2480.171123,-459.657299,-888.247130,8882.471304
2480.171452,-1149.143247,-2072.576638,9696.697840
2480.171782,-1149.143247,-2368.659014,10362.883188
2480.172111,-1685.410096,-1554.432478,9770.718434
2480.172440,-689.485948,-962.267725,9178.553681
2480.172769,-459.657299,-444.123565,9178.553681
2480.173098,-766.095498,222.061783,9326.594869
2480.173427,-612.876398,888.247130,9252.574275
2480.173756,0.000000,518.144159,8734.430116
2480.174085,0.000000,518.144159,8956.491898
2480.174414,842.705048,-222.061783,9104.533087
2480.174744,1608.800546,-0.000000,8364.327145
2480.175073,2068.457845,-222.061783,8956.491898
2480.175402,2604.724693,-296.082377,8734.430116
2480.175731,2681.334243,-370.102971,7994.224174
2480.176060,2451.505594,-148.041188,8512.368333
2480.176389,1838.629195,-222.061783,8586.388927
2480.176718,1378.971896,-74.020594,8808.450710
2480.177047,842.705048,-222.061783,8586.388927
2480.177377,0.000000,222.061783,9252.574275
2480.177706,-536.266849,-0.000000,9474.636058
2480.178035,-995.924147,-0.000000,9400.615463
2480.178364,-766.095498,-518.144159,9770.718434
2480.178693,-1225.752797,-666.185348,9918.759623
2480.179022,-1608.800546,-1258.350101,9696.697840
2480.179351,-766.095498,-1702.473667,9622.677246
2480.179680,-995.924147,-1184.329507,9844.739029
2480.180010,-766.095498,-888.247130,9474.636058
2480.180339,-229.828649,-740.205942,9696.697840
2480.180668,0.000000,-222.061783,8882.471304
2480.180997,229.828649,-0.000000,8808.450710
2480.181326,459.657299,444.123565,9326.594869
2480.181655,1302.362347,1924.535449,8290.306550
2480.181984,2068.457845,1924.535449,7624.121203
2480.182313,2068.457845,1998.556043,7105.977043
2480.182642,2068.457845,1850.514855,7402.059420
2480.182972,1608.800546,370.102971,7994.224174
2480.183301,995.924147,-518.144159,8142.265362
2480.183630,612.876398,-1110.308913,8882.471304
2480.183959,153.219100,-2146.597232,9178.553681
2480.184288,0.000000,-2368.659014,9844.739029
2480.184617,-612.876398,-2072.576638,10362.883188
2480.184946,0.000000,-1480.411884,9918.759623
2480.185275,229.828649,-592.164754,9992.780217
2480.185605,229.828649,148.041188,9548.656652
2480.185934,919.314598,888.247130,9030.512492
2480.186263,842.705048,1184.329507,8734.430116
2480.186592,842.705048,1332.370696,8512.368333
2480.186921,689.485948,1184.329507,8290.306550
2480.187250,306.438199,296.082377,8734.430116
2480.187579,-612.876398,-592.164754,9474.636058
2480.187908,-1072.533697,-1480.411884,9400.615463
2480.188238,-1225.752797,-2368.659014,9992.780217
2480.188567,-995.924147,-2220.617826,9548.656652
2480.188896,-1302.362347,-1480.411884,9622.677246
2480.189225,-995.924147,-962.267725,9844.739029
2480.189554,-612.876398,-0.000000,9400.615463
2480.189883,76.609550,814.226536,9474.636058
2480.190212,-306.438199,1258.350101,9178.553681
2480.190541,842.705048,740.205942,8882.471304
2480.190870,1455.581446,1258.350101,8586.388927
2480.191200,2145.067394,1036.288319,7994.224174
2480.191529,2987.772442,444.123565,8142.265362
2480.191858,2528.115143,1110.308913,7550.100608
2480.192187,2681.334243,-222.061783,8660.409521
2480.192516,1915.238745,-148.041188,8142.265362
2480.192845,1455.581446,-0.000000,8808.450710
2480.193174,383.047749,-888.247130,9400.615463
2480.193503,306.438199,-222.061783,9178.553681
2480.193833,-383.047749,-666.185348,9844.739029
2480.194162,-766.095498,148.041188,9030.512492
2480.194491,0.000000,-370.102971,9622.677246
2480.194820,-766.095498,-0.000000,9474.636058
2480.195149,-612.876398,-0.000000,9474.636058
2480.195478,-689.485948,-666.185348,9474.636058
2480.195807,-995.924147,-1554.432478,9400.615463
2480.196136,-689.485948,-888.247130,9770.718434
2480.196466,-766.095498,-1554.432478,9696.697840
2480.196795,-383.047749,-814.226536,10214.842000
2480.197124,-1149.143247,-740.205942,9474.636058
2480.197453,459.657299,-0.000000,9178.553681
2480.197782,766.095498,814.226536,9030.512492
2480.198111,1225.752797,1036.288319,7920.203579
2480.198440,1225.752797,1480.411884,7994.224174
2480.198769,1378.971896,1480.411884,7920.203579
2480.199098,919.314598,1036.288319,8068.244768
2480.199428,995.924147,296.082377,8438.347739
2480.199757,689.485948,296.082377,9104.533087
2480.200086,0.000000,-962.267725,9622.677246
2480.200415,0.000000,-1702.473667,9474.636058
2480.200744,0.000000,-2220.617826,9844.739029
2480.201073,383.047749,-1702.473667,9992.780217
2480.201402,306.438199,-1332.370696,9844.739029
2480.201731,995.924147,-666.185348,9770.718434
2480.202061,1455.581446,-74.020594,9030.512492
2480.202390,1532.190996,740.205942,8808.450710
2480.202719,1532.190996,1258.350101,8216.285956
2480.203048,1302.362347,1480.411884,7772.162391
2480.203377,919.314598,962.267725,7920.203579
2480.203706,459.657299,518.144159,8290.306550
2480.204035,-383.047749,-814.226536,8734.430116
2480.204365,-1225.752797,-1702.473667,9474.636058
2480.204694,-1455.581446,-2368.659014,10214.842000
2480.205023,-1378.971896,-2072.576638,9548.656652
2480.205352,-1302.362347,-1998.556043,9918.759623
2480.205681,-1149.143247,-1184.329507,9622.677246
2480.206010,-766.095498,-518.144159,9622.677246
2480.206340,-229.828649,444.123565,10066.800811
2480.206669,153.219100,962.267725,8882.471304
2480.206998,842.705048,592.164754,9104.533087
2480.207327,842.705048,814.226536,9252.574275
2480.207656,2298.286494,1332.370696,8364.327145
2480.207985,3370.820191,518.144159,8290.306550
2480.208314,2911.162892,592.164754,7328.038826
2480.208644,3217.601092,222.061783,8512.368333
2480.208973,2068.457845,-444.123565,8586.388927
2480.209302,1302.362347,-518.144159,8290.306550
2480.209631,612.876398,-1406.391290,9548.656652
2480.209960,229.828649,-814.226536,9770.718434
2480.210289,-383.047749,-444.123565,10140.821405
2480.210619,-689.485948,-370.102971,9548.656652
2480.210948,-536.266849,592.164754,9474.636058
2480.211277,-536.266849,370.102971,9844.739029
2480.211606,76.609550,518.144159,9474.636058
2480.211935,-383.047749,296.082377,9326.594869
2480.212264,-1149.143247,-962.267725,9548.656652
2480.212594,-612.876398,-1036.288319,9400.615463
2480.212923,-459.657299,-1258.350101,9696.697840
2480.213252,-383.047749,-1406.391290,9104.533087
2480.213581,0.000000,-888.247130,9104.533087
2480.213910,153.219100,-888.247130,9474.636058
2480.214239,0.000000,222.061783,8142.265362
2480.214569,919.314598,888.247130,8660.409521
2480.214898,1225.752797,1480.411884,8512.368333
2480.215227,1149.143247,2146.597232,7550.100608
2480.215556,1072.533697,1554.432478,7920.203579
2480.215885,766.095498,962.267725,7994.224174
2480.216214,1072.533697,-296.082377,8586.388927
2480.216543,766.095498,-1258.350101,8734.430116
2480.216873,459.657299,-1258.350101,9178.553681
2480.217202,306.438199,-2146.597232,9770.718434
2480.217531,153.219100,-1850.514855,9696.697840
2480.217860,153.219100,-1480.411884,9548.656652
2480.218189,383.047749,-962.267725,9548.656652
2480.218518,536.266849,-222.061783,9474.636058
2480.218848,1225.752797,-0.000000,9030.512492
2480.219177,1149.143247,814.226536,8734.430116
2480.219506,842.705048,1036.288319,8364.327145
2480.219835,689.485948,1110.308913,8438.347739
2480.220164,459.657299,740.205942,8808.450710
2480.220493,-229.828649,-148.041188,8956.491898
2480.220823,-689.485948,-1258.350101,9326.594869
2480.221152,-1072.533697,-1998.556043,10066.800811
2480.221481,-1302.362347,-1850.514855,10066.800811
2480.221810,-1072.533697,-1628.453072,9770.718434
2480.222139,-995.924147,-1036.288319,9548.656652
2480.222468,-842.705048,-370.102971,9548.656652
2480.222797,-306.438199,296.082377,9992.780217
2480.223127,306.438199,1110.308913,9474.636058
2480.223456,0.000000,1406.391290,9326.594869
2480.223785,229.828649,1628.453072,8882.471304
2480.224114,842.705048,444.123565,9104.533087
2480.224443,995.924147,-0.000000,8512.368333
2480.224772,1838.629195,-0.000000,8364.327145
2480.225102,2145.067394,-444.123565,8512.368333
2480.225431,1991.848295,-518.144159,8068.244768
2480.225760,2681.334243,-222.061783,8364.327145
2480.226089,1762.019645,-370.102971,8364.327145
2480.226418,1762.019645,-666.185348,8808.450710
2480.226747,1532.190996,-0.000000,8882.471304
2480.227077,919.314598,296.082377,8808.450710
2480.227406,0.000000,370.102971,9326.594869
2480.227735,0.000000,296.082377,9104.533087
2480.228064,-842.705048,-74.020594,9548.656652
2480.228393,-689.485948,-296.082377,9474.636058
2480.228722,-1072.533697,-740.205942,9178.553681
2480.229051,-1072.533697,-1258.350101,9400.615463
2480.229381,-1072.533697,-1628.453072,9474.636058
2480.229710,-1225.752797,-1776.494261,9474.636058
2480.230039,-766.095498,-1776.494261,9696.697840
2480.230368,-612.876398,-1480.411884,9992.780217
2480.230697,0.000000,-592.164754,9400.615463
2480.231026,0.000000,296.082377,8808.450710
2480.231356,459.657299,888.247130,8808.450710
2480.231685,995.924147,1332.370696,8734.430116
2480.232014,1302.362347,1554.432478,8216.285956
2480.232343,1455.581446,1628.453072,8438.347739
2480.232672,2068.457845,1332.370696,7994.224174
2480.233001,2145.067394,518.144159,8290.306550
2480.233331,1608.800546,-0.000000,8660.409521
2480.233660,1225.752797,-740.205942,8882.471304
2480.233989,766.095498,-1184.329507,9326.594869
2480.234318,612.876398,-1110.308913,9400.615463
2480.234647,536.266849,-1110.308913,9548.656652
2480.234976,306.438199,-962.267725,9918.759623
2480.235306,229.828649,-370.102971,9918.759623
2480.235635,0.000000,-74.020594,9474.636058
2480.235964,229.828649,814.226536,9252.574275
2480.236293,0.000000,1110.308913,8808.450710
2480.236622,0.000000,814.226536,8660.409521
2480.236951,153.219100,666.185348,8882.471304
2480.237280,-153.219100,-518.144159,8956.491898
2480.237610,-766.095498,-1184.329507,9400.615463
2480.237939,-842.705048,-1776.494261,9474.636058
2480.238268,-1149.143247,-1554.432478,9252.574275
2480.238597,-842.705048,-1850.514855,9696.697840
2480.238926,-995.924147,-1332.370696,9326.594869
2480.239255,-766.095498,-740.205942,9474.636058
2480.239585,-153.219100,222.061783,9178.553681
2480.239914,76.609550,1258.350101,9474.636058
2480.240243,-153.219100,888.247130,9030.512492
2480.240572,459.657299,814.226536,8882.471304
2480.240901,1302.362347,1184.329507,8290.306550
2480.241230,1991.848295,666.185348,8142.265362
2480.241560,1838.629195,222.061783,7994.224174
2480.241889,2221.676944,-444.123565,8660.409521
2480.242218,1455.581446,-740.205942,8956.491898
2480.242547,1072.533697,-814.226536,9104.533087
2480.242876,612.876398,-1110.308913,9474.636058
2480.243205,229.828649,-666.185348,9474.636058
2480.243534,229.828649,-370.102971,9474.636058
2480.243864,76.609550,-444.123565,9696.697840
2480.244193,0.000000,518.144159,9252.574275
2480.244522,-306.438199,222.061783,9178.553681
2480.244851,153.219100,222.061783,9474.636058
2480.245180,0.000000,444.123565,8808.450710
2480.245509,-383.047749,-148.041188,9104.533087
2480.245839,-383.047749,-518.144159,9400.615463
2480.246168,-459.657299,-962.267725,9400.615463
2480.246497,-459.657299,-1184.329507,9474.636058
2480.246826,-153.219100,-1480.411884,9696.697840
2480.247155,76.609550,-962.267725,9474.636058
2480.247484,229.828649,-370.102971,9030.512492
2480.247814,612.876398,370.102971,8808.450710
2480.248143,1302.362347,1110.308913,8216.285956
2480.248472,1455.581446,1850.514855,7994.224174
2480.248801,1838.629195,1554.432478,8142.265362
2480.249130,1455.581446,1184.329507,7624.121203
2480.249459,1302.362347,740.205942,8364.327145
2480.249789,995.924147,-74.020594,8586.388927
2480.250118,766.095498,-814.226536,9104.533087
2480.250447,536.266849,-1628.453072,9400.615463
2480.250776,459.657299,-2072.576638,9474.636058
2480.251105,0.000000,-1628.453072,10214.842000
2480.251434,459.657299,-740.205942,10214.842000
2480.251763,536.266849,-592.164754,9548.656652
2480.252093,1072.533697,370.102971,9326.594869
2480.252422,1685.410096,740.205942,9178.553681
2480.252751,1455.581446,1184.329507,8586.388927
2480.253080,995.924147,962.267725,8364.327145
2480.253409,612.876398,962.267725,8586.388927
2480.253738,0.000000,370.102971,8512.368333
2480.254068,-689.485948,-666.185348,9252.574275
2480.254397,-995.924147,-1258.350101,9770.718434
2480.254726,-1762.019645,-1406.391290,9992.780217
2480.255055,-1455.581446,-2294.638420,9770.718434
2480.255384,-1532.190996,-1554.432478,9844.739029
2480.255713,-1072.533697,-592.164754,9548.656652
2480.256043,-612.876398,-0.000000,9474.636058
2480.256372,-383.047749,444.123565,9178.553681
2480.256701,306.438199,444.123565,9178.553681
2480.257030,1225.752797,1258.350101,8586.388927
2480.257359,1991.848295,1258.350101,7624.121203
2480.257688,2451.505594,1110.308913,7994.224174
2480.258017,2451.505594,592.164754,7550.100608
2480.258347,2451.505594,-0.000000,8142.265362
2480.258676,2068.457845,-444.123565,8586.388927
2480.259005,1378.971896,-888.247130,8956.491898
2480.259334,536.266849,-962.267725,9696.697840
2480.259663,0.000000,-1184.329507,9474.636058
2480.259992,-536.266849,-1036.288319,9548.656652
2480.260322,-689.485948,-518.144159,9474.636058
2480.260651,-536.266849,-0.000000,9326.594869
2480.260980,-612.876398,370.102971,9326.594869
2480.261309,-306.438199,814.226536,9474.636058
2480.261638,-612.876398,296.082377,8956.491898
2480.261967,-612.876398,-222.061783,9030.512492
2480.262297,-536.266849,-444.123565,8882.471304
2480.262626,-612.876398,-1110.308913,9548.656652
2480.262955,-766.095498,-1480.411884,9474.636058
2480.263284,0.000000,-1850.514855,9770.718434
2480.263613,-612.876398,-1332.370696,9918.759623
2480.263942,0.000000,-1480.411884,9622.677246
2480.264272,536.266849,-518.144159,9104.533087
2480.264601,766.095498,740.205942,8734.430116
2480.264930,766.095498,1850.514855,8512.368333
2480.265259,842.705048,1850.514855,8142.265362
2480.265588,689.485948,1554.432478,8068.244768
2480.265917,1149.143247,962.267725,7994.224174
2480.266246,995.924147,-148.041188,8734.430116
2480.266576,459.657299,-444.123565,9178.553681
2480.266905,383.047749,-1184.329507,9474.636058
2480.267234,0.000000,-1332.370696,9474.636058
2480.267563,306.438199,-1406.391290,9918.759623
2480.267892,383.047749,-1480.411884,9844.739029
2480.268221,919.314598,-962.267725,9474.636058
2480.268551,1225.752797,-370.102971,9548.656652
2480.268880,1608.800546,518.144159,8734.430116
2480.269209,1838.629195,1480.411884,8364.327145
2480.269538,1685.410096,1776.494261,8142.265362
2480.269867,1685.410096,1480.411884,8142.265362
2480.270196,536.266849,740.205942,8216.285956
2480.270526,76.609550,-370.102971,8956.491898
2480.270855,-612.876398,-1406.391290,9252.574275
2480.271184,-2528.115143,-2294.638420,10214.842000
2480.271513,-1608.800546,-2442.679609,9918.759623
2480.271842,-1608.800546,-2220.617826,9548.656652
2480.272171,-1225.752797,-1406.391290,9474.636058
2480.272500,-383.047749,-444.123565,9474.636058
2480.272830,-76.609550,296.082377,9696.697840
2480.273159,-306.438199,444.123565,9104.533087
2480.273488,459.657299,592.164754,9548.656652
2480.273817,1455.581446,962.267725,8882.471304
2480.274146,2374.896044,1332.370696,8142.265362
2480.274475,2528.115143,1184.329507,7920.203579
2480.274805,3677.258390,1184.329507,7994.224174
2480.275134,2911.162892,370.102971,8882.471304
2480.275463,2145.067394,-592.164754,8438.347739
2480.275792,1072.533697,-370.102971,9030.512492
2480.276121,153.219100,-1110.308913,9400.615463
2480.276450,-689.485948,-1258.350101,9696.697840
2480.276780,-1149.143247,-1110.308913,9770.718434
2480.277109,-919.314598,-1110.308913,10066.800811
2480.277438,-1072.533697,-518.144159,9918.759623
2480.277767,-1149.143247,-74.020594,9548.656652
2480.278096,-1225.752797,-0.000000,9326.594869
2480.278425,-842.705048,-0.000000,9326.594869
2480.278755,-612.876398,-148.041188,9400.615463
2480.279084,-612.876398,-518.144159,9178.553681
2480.279413,-153.219100,-888.247130,9474.636058
2480.279742,-612.876398,-1258.350101,9622.677246
2480.280071,-383.047749,-1184.329507,9252.574275
2480.280400,76.609550,-1258.350101,7994.224174
2480.280729,306.438199,-518.144159,8512.368333
2480.281059,306.438199,370.102971,8216.285956
2480.281388,383.047749,1110.308913,8438.347739
2480.281717,153.219100,1702.473667,7846.182985
2480.282046,536.266849,1480.411884,7772.162391
2480.282375,536.266849,1184.329507,8808.450710
2480.282704,0.000000,222.061783,8660.409521
2480.283034,383.047749,-296.082377,8660.409521
2480.283363,383.047749,-1110.308913,9104.533087
2480.283692,842.705048,-1332.370696,9400.615463
2480.284021,612.876398,-2072.576638,9622.677246
2480.284350,1302.362347,-1332.370696,9326.594869
2480.284679,1455.581446,-1184.329507,9474.636058
2480.285009,2145.067394,-518.144159,9474.636058
2480.285338,1838.629195,592.164754,8882.471304
2480.285667,1685.410096,1184.329507,8734.430116
2480.285996,1532.190996,1332.370696,8586.388927
2480.286325,1532.190996,1628.453072,7994.224174
2480.286654,766.095498,814.226536,8142.265362
2480.286983,-383.047749,-0.000000,9326.594869
2480.287313,-1225.752797,-962.267725,9696.697840
2480.287642,-1532.190996,-1702.473667,10510.924376
2480.287971,-1302.362347,-2220.617826,9918.759623
2480.288300,-1225.752797,-2146.597232,9548.656652
2480.288629,-1302.362347,-1406.391290,10732.986159
2480.288958,-689.485948,-1110.308913,10140.821405
2480.289288,0.000000,-518.144159,9918.759623
2480.289617,76.609550,370.102971,9622.677246
2480.289946,536.266849,740.205942,9326.594869
2480.290275,1455.581446,1406.391290,9696.697840
2480.290604,2298.286494,2072.576638,7550.100608
2480.290933,3217.601092,1850.514855,7624.121203
2480.291263,3447.429741,1480.411884,7179.997637
2480.291592,3830.477490,1332.370696,7698.141797
2480.291921,1915.238745,444.123565,8364.327145
2480.292250,1532.190996,-370.102971,8142.265362
2480.292579,383.047749,-1406.391290,9104.533087
2480.292908,-612.876398,-1702.473667,9548.656652
2480.293237,-612.876398,-1554.432478,10214.842000
2480.293567,-842.705048,-1480.411884,10214.842000
2480.293896,-612.876398,-888.247130,9474.636058
2480.294225,-383.047749,148.041188,9844.739029
2480.294554,-229.828649,296.082377,9474.636058
2480.294883,0.000000,444.123565,9252.574275
2480.295212,153.219100,-74.020594,8956.491898
2480.295542,459.657299,222.061783,8734.430116
2480.295871,306.438199,-666.185348,8882.471304
2480.296200,153.219100,-1110.308913,9326.594869
2480.296529,-383.047749,-888.247130,9326.594869
2480.296858,-153.219100,-1110.308913,9104.533087
2480.297187,-536.266849,-1184.329507,9104.533087
2480.297517,-536.266849,-666.185348,9178.553681
2480.297846,-536.266849,-74.020594,9030.512492
2480.298175,-612.876398,592.164754,9178.553681
2480.298504,-306.438199,666.185348,8364.327145
2480.298833,0.000000,592.164754,8956.491898
2480.299162,153.219100,666.185348,8808.450710
2480.299492,536.266849,-0.000000,8734.430116
2480.299821,689.485948,-444.123565,9104.533087
2480.300150,1378.971896,-962.267725,8808.450710
2480.300479,1685.410096,-666.185348,9178.553681
2480.300808,1608.800546,-962.267725,9104.533087
2480.301137,2145.067394,-962.267725,9474.636058
2480.301466,1685.410096,-296.082377,9326.594869
2480.301795,1225.752797,148.041188,8734.430116
2480.302124,1225.752797,148.041188,9030.512492
2480.302453,689.485948,-0.000000,8808.450710
2480.302782,306.438199,1036.288319,8734.430116
2480.303111,0.000000,1036.288319,8068.244768
2480.303440,-612.876398,518.144159,9178.553681
2480.303769,-1072.533697,-0.000000,9252.574275
2480.304098,-1302.362347,-888.247130,9474.636058
2480.304427,-1302.362347,-1924.535449,9770.718434
2480.304756,-1455.581446,-1924.535449,10066.800811
2480.305085,-689.485948,-2072.576638,9992.780217
2480.305414,-306.438199,-1332.370696,9696.697840
2480.305743,-306.438199,-222.061783,9622.677246
2480.306072,306.438199,-0.000000,9326.594869
2480.306401,1455.581446,592.164754,9400.615463
2480.306730,2221.676944,1628.453072,8142.265362
2480.307059,2528.115143,1850.514855,7772.162391
2480.307388,2374.896044,1924.535449,7698.141797
2480.307717,2987.772442,1110.308913,7772.162391
2480.308046,2451.505594,518.144159,7624.121203
2480.308375,1685.410096,-296.082377,8438.347739
2480.308704,536.266849,-1258.350101,9474.636058
2480.309033,0.000000,-1924.535449,9622.677246
2480.309362,-536.266849,-2294.638420,9918.759623
2480.309691,-766.095498,-1998.556043,10436.903782
2480.310020,-229.828649,-1110.308913,9844.739029
2480.310349,0.000000,-74.020594,9770.718434
2480.310678,76.609550,296.082377,9178.553681
2480.311007,842.705048,1258.350101,8882.471304
2480.311336,842.705048,1110.308913,8808.450710
2480.311665,995.924147,888.247130,8216.285956
2480.311994,842.705048,592.164754,8216.285956
2480.312323,-995.924147,-0.000000,9104.533087
2480.312652,-153.219100,-1406.391290,9326.594869
2480.312981,-842.705048,-1702.473667,9400.615463
2480.313310,-1378.971896,-2072.576638,9474.636058
2480.313639,-1149.143247,-1850.514855,9548.656652
2480.313968,-1225.752797,-1110.308913,9400.615463
2480.314297,-842.705048,-370.102971,9252.574275
2480.314626,-306.438199,814.226536,8882.471304
2480.314955,-612.876398,2294.638420,8956.491898
2480.315284,383.047749,1406.391290,8512.368333
2480.315613,612.876398,1258.350101,7920.203579
2480.315942,536.266849,1480.411884,8660.409521
2480.316271,2068.457845,-148.041188,8512.368333
2480.316600,1455.581446,-0.000000,7920.203579
2480.316929,1685.410096,-888.247130,8586.388927
2480.317258,1915.238745,-1184.329507,9400.615463
2480.317587,1072.533697,-1554.432478,9400.615463
2480.317916,612.876398,-888.247130,9548.656652
2480.318245,459.657299,-1036.288319,9326.594869
2480.318574,0.000000,-592.164754,9474.636058
2480.318903,-153.219100,-0.000000,9474.636058
2480.319232,76.609550,518.144159,9326.594869
2480.319560,0.000000,814.226536,9326.594869
2480.319889,-306.438199,666.185348,9104.533087
2480.320218,-306.438199,592.164754,8956.491898
2480.320547,-536.266849,-296.082377,9326.594869
2480.320876,-842.705048,-888.247130,9252.574275
2480.321205,-842.705048,-1480.411884,10288.862594
2480.321534,-1225.752797,-2146.597232,9992.780217
2480.321863,-1608.800546,-1554.432478,9770.718434
2480.322192,-383.047749,-888.247130,9696.697840
2480.322521,0.000000,-222.061783,9548.656652
2480.322850,153.219100,666.185348,9400.615463
2480.323179,1149.143247,888.247130,9030.512492
2480.323508,2068.457845,1554.432478,8808.450710
2480.323837,2374.896044,1554.432478,7698.141797
2480.324166,2298.286494,1850.514855,7698.141797
2480.324495,2221.676944,1110.308913,8142.265362
2480.324824,1991.848295,296.082377,8364.327145
2480.325153,1762.019645,-296.082377,8512.368333
2480.325482,1072.533697,-1110.308913,8808.450710
2480.325811,459.657299,-1332.370696,9326.594869
2480.326140,-306.438199,-1628.453072,9474.636058
2480.326469,383.047749,-1110.308913,9844.739029
2480.326798,0.000000,-888.247130,9474.636058
2480.327127,229.828649,-0.000000,9474.636058
2480.327456,306.438199,296.082377,9104.533087
2480.327785,0.000000,888.247130,8808.450710
2480.328114,153.219100,666.185348,8734.430116
2480.328443,459.657299,222.061783,8734.430116
2480.328772,0.000000,-0.000000,8808.450710
2480.329101,-383.047749,-740.205942,9178.553681
2480.329430,-612.876398,-1480.411884,9474.636058
2480.329759,-919.314598,-1702.473667,9548.656652
2480.330088,-766.095498,-1776.494261,9696.697840
2480.330417,-842.705048,-1628.453072,9770.718434
2480.330746,-459.657299,-666.185348,9770.718434
2480.331075,-306.438199,-0.000000,9104.533087
2480.331404,0.000000,1258.350101,9178.553681
2480.331733,536.266849,1554.432478,8660.409521
2480.332062,1072.533697,1554.432478,8142.265362
2480.332391,1225.752797,1628.453072,8142.265362
2480.332720,1532.190996,296.082377,7846.182985
2480.333049,1378.971896,-222.061783,8216.285956
2480.333378,1072.533697,-814.226536,8808.450710
2480.333707,689.485948,-1554.432478,9400.615463
2480.334036,459.657299,-1480.411884,9400.615463
2480.334365,306.438199,-1702.473667,9622.677246
2480.334694,459.657299,-1258.350101,9770.718434
2480.335023,536.266849,-740.205942,9696.697840
2480.335352,995.924147,-222.061783,9326.594869
2480.335681,919.314598,666.185348,9178.553681
2480.336010,1225.752797,962.267725,8734.430116
2480.336339,842.705048,1628.453072,8142.265362
2480.336668,1072.533697,1036.288319,8512.368333
2480.336997,306.438199,592.164754,7920.203579
2480.337326,-536.266849,-222.061783,8438.347739
2480.337655,-229.828649,-1480.411884,9622.677246
2480.337983,-1455.581446,-1702.473667,9178.553681
2480.338312,-1302.362347,-1776.494261,9844.739029
2480.338641,-1378.971896,-1776.494261,9992.780217
2480.338970,-1225.752797,-1332.370696,9696.697840
2480.339299,-995.924147,-222.061783,9474.636058
2480.339628,0.000000,-0.000000,9474.636058
2480.339957,0.000000,222.061783,9400.615463
2480.340286,919.314598,1110.308913,10140.821405
2480.340615,1685.410096,592.164754,8364.327145
2480.340944,2374.896044,1184.329507,8512.368333
2480.341273,2451.505594,814.226536,7994.224174
2480.341602,2451.505594,666.185348,8068.244768
2480.341931,2374.896044,-0.000000,9030.512492
2480.342260,1838.629195,-148.041188,9030.512492
2480.342589,1149.143247,-740.205942,9474.636058
2480.342918,306.438199,-1036.288319,9252.574275
2480.343247,-229.828649,-962.267725,9548.656652
2480.343576,-459.657299,-740.205942,9992.780217
2480.343905,-612.876398,-296.082377,9696.697840
2480.344234,-766.095498,-0.000000,9474.636058
2480.344563,-919.314598,-0.000000,9844.739029
2480.344892,-306.438199,370.102971,9252.574275
2480.345221,-612.876398,-74.020594,9104.533087
2480.345550,-153.219100,-444.123565,9104.533087
2480.345879,0.000000,-814.226536,9622.677246
2480.346208,76.609550,-814.226536,9252.574275
2480.346537,-306.438199,-1776.494261,9400.615463
2480.346866,0.000000,-1554.432478,9178.553681
2480.347195,-306.438199,-592.164754,8808.450710
2480.347524,229.828649,-0.000000,8586.388927
2480.347853,612.876398,962.267725,8512.368333
2480.348182,842.705048,1480.411884,8364.327145
2480.348511,689.485948,1998.556043,7846.182985
2480.348840,1072.533697,1110.308913,8142.265362
2480.349169,383.047749,666.185348,7994.224174
2480.349498,842.705048,-370.102971,8438.347739
2480.349827,383.047749,-1406.391290,9326.594869
2480.350156,383.047749,-1554.432478,9252.574275
2480.350485,459.657299,-1702.473667,9474.636058
2480.350814,536.266849,-1554.432478,9696.697840
2480.351143,766.095498,-1332.370696,9844.739029
2480.351472,919.314598,-1036.288319,9474.636058
2480.351801,1149.143247,-0.000000,9326.594869
2480.352130,1532.190996,740.205942,9474.636058
2480.352459,1608.800546,1184.329507,8734.430116
2480.352788,1455.581446,1776.494261,8216.285956
2480.353117,1225.752797,1480.411884,8290.306550
2480.353446,0.000000,666.185348,8586.388927
2480.353775,-689.485948,-518.144159,8882.471304
2480.354104,-1608.800546,-962.267725,9918.759623
2480.354433,-2451.505594,-1998.556043,10658.965565
2480.354762,-1991.848295,-2294.638420,10584.944971
2480.355091,-1915.238745,-2220.617826,9696.697840
2480.355420,-1532.190996,-1554.432478,9918.759623
2480.355749,-612.876398,-666.185348,9918.759623
2480.356078,306.438199,444.123565,9548.656652
2480.356406,76.609550,666.185348,9326.594869
2480.356735,995.924147,962.267725,9696.697840
2480.357064,2068.457845,2072.576638,7698.141797
2480.357393,3064.381992,1924.535449,7994.224174
2480.357722,2681.334243,1702.473667,7254.018232
2480.358051,3217.601092,1480.411884,7550.100608
2480.358380,2757.943793,444.123565,8290.306550
2480.358709,1915.238745,-296.082377,8364.327145
2480.359038,153.219100,-962.267725,9104.533087
2480.359367,-536.266849,-1036.288319,9178.553681
2480.359696,-995.924147,-1702.473667,9918.759623
2480.360025,-1685.410096,-1258.350101,10288.862594
2480.360354,-1072.533697,-740.205942,10066.800811
2480.360683,-919.314598,-592.164754,9696.697840
2480.361012,-536.266849,-370.102971,9770.718434
2480.361341,-306.438199,-0.000000,8956.491898
2480.361670,0.000000,-0.000000,9178.553681
2480.361999,306.438199,222.061783,9104.533087
2480.362328,459.657299,-222.061783,8734.430116
2480.362657,536.266849,-592.164754,8956.491898
2480.362986,229.828649,-888.247130,9030.512492
2480.363315,-306.438199,-1110.308913,9770.718434
2480.363644,0.000000,-1258.350101,9030.512492
2480.363973,-383.047749,-962.267725,8882.471304
2480.364302,-153.219100,-0.000000,8956.491898
2480.364631,-383.047749,740.205942,9178.553681
2480.364960,0.000000,888.247130,8734.430116
2480.365289,0.000000,814.226536,8808.450710
2480.365618,306.438199,222.061783,8956.491898
2480.365947,76.609550,-0.000000,8364.327145
2480.366276,612.876398,-370.102971,8734.430116
2480.366605,536.266849,-1110.308913,8956.491898
2480.366934,1378.971896,-1184.329507,9326.594869
2480.367263,1072.533697,-1036.288319,9400.615463
2480.367592,1149.143247,-1406.391290,9696.697840
2480.367921,1762.019645,-888.247130,9400.615463
2480.368250,2298.286494,-0.000000,9326.594869
2480.368579,1915.238745,666.185348,9030.512492
2480.368908,1685.410096,962.267725,8512.368333
2480.369237,1302.362347,1628.453072,8438.347739
2480.369566,1072.533697,1628.453072,8290.306550
2480.369895,0.000000,1110.308913,8512.368333
2480.370224,-229.828649,-0.000000,8512.368333
2480.370553,-1149.143247,-740.205942,9178.553681
2480.370882,-1685.410096,-1628.453072,9918.759623
2480.371211,-1608.800546,-2294.638420,9474.636058
2480.371540,-1302.362347,-2294.638420,9622.677246
2480.371869,-995.924147,-2146.597232,9770.718434
2480.372198,-612.876398,-1184.329507,9844.739029
2480.372527,0.000000,-518.144159,9326.594869
2480.372856,306.438199,-0.000000,9252.574275
2480.373185,766.095498,666.185348,9548.656652
2480.373514,1685.410096,1184.329507,9474.636058
2480.373843,2451.505594,1776.494261,7698.141797
2480.374172,3370.820191,1332.370696,7846.182985
2480.374500,3830.477490,1332.370696,7031.956449
2480.374829,3524.039291,1110.308913,7402.059420
2480.375158,2145.067394,296.082377,8142.265362
2480.375487,1378.971896,-518.144159,8364.327145
2480.375816,459.657299,-1332.370696,9474.636058
2480.376145,-306.438199,-1776.494261,9696.697840
2480.376474,-1455.581446,-1850.514855,10288.862594
2480.376803,-1302.362347,-1110.308913,10881.027347
2480.377132,-383.047749,-518.144159,10807.006753
2480.377461,0.000000,-0.000000,10214.842000
2480.377790,76.609550,370.102971,9326.594869
2480.378119,459.657299,740.205942,9030.512492
2480.378448,689.485948,666.185348,8882.471304
2480.378777,229.828649,592.164754,8216.285956
2480.379106,459.657299,222.061783,8438.347739
2480.379435,0.000000,-296.082377,9474.636058
2480.379764,-766.095498,-888.247130,9400.615463
2480.380093,-919.314598,-1332.370696,9178.553681
2480.380422,-1072.533697,-1554.432478,9104.533087
2480.380751,-1149.143247,-1110.308913,9178.553681
2480.381080,-1072.533697,-222.061783,8956.491898
2480.381409,-612.876398,740.205942,8512.368333
2480.381738,-536.266849,1332.370696,8438.347739
2480.382067,0.000000,518.144159,8660.409521
2480.382396,76.609550,740.205942,8586.388927
2480.382725,766.095498,-74.020594,8216.285956
2480.383054,1455.581446,-370.102971,8216.285956
2480.383383,1685.410096,-814.226536,8142.265362
2480.383712,2298.286494,-1036.288319,8956.491898
2480.384041,1685.410096,-1036.288319,9326.594869
2480.384370,689.485948,-666.185348,9400.615463
2480.384699,1149.143247,-666.185348,9400.615463
2480.385028,689.485948,-148.041188,9178.553681
2480.385357,229.828649,-0.000000,9326.594869
2480.385686,76.609550,296.082377,9252.574275
2480.386015,0.000000,148.041188,9252.574275
2480.386344,-612.876398,370.102971,8956.491898
2480.386673,-383.047749,370.102971,8956.491898
2480.387002,-919.314598,-74.020594,9178.553681
2480.387331,-1149.143247,-740.205942,9548.656652
2480.387660,-995.924147,-1628.453072,9622.677246
2480.387989,-1149.143247,-1924.535449,9696.697840
2480.388318,-459.657299,-1850.514855,10140.821405
2480.388647,-612.876398,-1332.370696,10140.821405
2480.388976,76.609550,-962.267725,9918.759623
2480.389305,612.876398,148.041188,9548.656652
2480.389634,1685.410096,1110.308913,8956.491898
2480.389963,2451.505594,1924.535449,8290.306550
2480.390292,2834.553343,2368.659014,7624.121203
2480.390621,2604.724693,2072.576638,7624.121203
2480.390950,2374.896044,1184.329507,7105.977043
2480.391279,1838.629195,814.226536,8216.285956
2480.391608,1072.533697,-148.041188,8438.347739
2480.391937,229.828649,-814.226536,9400.615463
2480.392266,-383.047749,-1998.556043,9918.759623
2480.392595,-766.095498,-2072.576638,9918.759623
2480.392923,0.000000,-1998.556043,10066.800811
2480.393252,306.438199,-962.267725,9844.739029
2480.393581,306.438199,-222.061783,9696.697840
2480.393910,1072.533697,666.185348,9400.615463
2480.394239,1378.971896,1110.308913,8660.409521
2480.394568,1915.238745,1406.391290,8364.327145
2480.394897,1685.410096,1332.370696,7846.182985
2480.395226,1762.019645,962.267725,8290.306550
2480.395555,1225.752797,-0.000000,8660.409521
2480.395884,-306.438199,-1406.391290,9104.533087
2480.396213,-1378.971896,-1850.514855,9844.739029
2480.396542,-1915.238745,-2368.659014,9918.759623
2480.396871,-1991.848295,-2072.576638,9992.780217
2480.397200,-1915.238745,-1628.453072,9474.636058
2480.397529,-612.876398,-518.144159,9400.615463
2480.397858,-689.485948,444.123565,8882.471304
2480.398187,0.000000,962.267725,9178.553681
2480.398516,-306.438199,1332.370696,8808.450710
2480.398845,-229.828649,1036.288319,8586.388927
2480.399174,0.000000,222.061783,8956.491898
2480.399503,612.876398,-222.061783,9178.553681
2480.399832,842.705048,-518.144159,8882.471304
2480.400161,1225.752797,-296.082377,8808.450710
2480.400490,1532.190996,-666.185348,8586.388927
2480.400819,1838.629195,-370.102971,9104.533087
2480.401148,1455.581446,-148.041188,8808.450710
2480.401477,1149.143247,-0.000000,8290.306550
2480.401806,1149.143247,-0.000000,9252.574275
2480.402135,306.438199,518.144159,8956.491898
2480.402464,-229.828649,296.082377,8956.491898
2480.402793,-459.657299,370.102971,9178.553681
2480.403122,-919.314598,296.082377,9030.512492
2480.403451,-1225.752797,-0.000000,9030.512492
2480.403780,-1378.971896,-666.185348,9178.553681
2480.404109,-1532.190996,-1184.329507,9400.615463
2480.404438,-1072.533697,-1776.494261,9622.677246
2480.404767,-1378.971896,-1628.453072,9770.718434
2480.405096,-919.314598,-1850.514855,9622.677246
2480.405425,-689.485948,-1036.288319,9770.718434
2480.405754,-459.657299,-370.102971,9548.656652
2480.406083,229.828649,-222.061783,9474.636058
2480.406412,1225.752797,370.102971,9252.574275
2480.406742,1991.848295,1480.411884,8364.327145
2480.407071,2451.505594,1628.453072,8068.244768
2480.407400,2604.724693,1480.411884,7846.182985
2480.407729,2451.505594,1480.411884,7920.203579
2480.408058,2068.457845,592.164754,7994.224174
2480.408387,1685.410096,-0.000000,8808.450710
2480.408716,1455.581446,-1406.391290,9104.533087
2480.409045,612.876398,-1776.494261,9400.615463
2480.409374,153.219100,-1406.391290,10288.862594
2480.409703,0.000000,-1480.411884,9844.739029
2480.410032,0.000000,-962.267725,10066.800811
2480.410361,306.438199,-222.061783,9622.677246
2480.410690,995.924147,-0.000000,9252.574275
2480.411019,383.047749,518.144159,9030.512492
2480.411348,1072.533697,444.123565,9252.574275
2480.411677,383.047749,666.185348,8512.368333
2480.412006,229.828649,444.123565,8216.285956
2480.412336,153.219100,-222.061783,8660.409521
2480.412665,-306.438199,-1110.308913,9104.533087
2480.412994,-689.485948,-1406.391290,9178.553681
2480.413323,-842.705048,-1628.453072,9474.636058
2480.413652,-1149.143247,-1554.432478,9252.574275
2480.413981,-689.485948,-888.247130,9400.615463
2480.414310,-153.219100,-0.000000,9252.574275
2480.414639,-229.828649,962.267725,8586.388927
2480.414968,536.266849,1332.370696,8438.347739
2480.415297,842.705048,1332.370696,8216.285956
2480.415626,1302.362347,1258.350101,7624.121203
2480.415955,1608.800546,740.205942,7550.100608
2480.416284,1762.019645,-74.020594,7846.182985
2480.416613,1991.848295,-888.247130,8586.388927
2480.416942,1149.143247,-814.226536,8808.450710
2480.417271,995.924147,-1406.391290,9474.636058
2480.417600,306.438199,-1776.494261,9548.656652
2480.417930,0.000000,-1480.411884,9696.697840
2480.418259,-536.266849,-962.267725,9696.697840
2480.418588,76.609550,-444.123565,9918.759623
2480.418917,0.000000,666.185348,9548.656652
2480.419246,536.266849,962.267725,8956.491898
2480.419575,0.000000,1258.350101,8882.471304
2480.419904,0.000000,1332.370696,8956.491898
2480.420233,0.000000,592.164754,8660.409521
2480.420562,-153.219100,-74.020594,9030.512492
2480.420891,-383.047749,-1036.288319,9400.615463
2480.421220,-919.314598,-2072.576638,9252.574275
2480.421549,-1302.362347,-1776.494261,9992.780217
2480.421878,-995.924147,-1554.432478,9992.780217
2480.422207,-536.266849,-962.267725,9622.677246
2480.422536,-306.438199,-518.144159,9474.636058
2480.422865,76.609550,296.082377,9696.697840
2480.423194,995.924147,814.226536,9622.677246
2480.423523,1532.190996,1258.350101,8586.388927
2480.423853,2068.457845,1850.514855,7698.141797
2480.424182,2374.896044,1776.494261,7846.182985
2480.424511,2374.896044,1554.432478,7624.121203
2480.424840,2298.286494,666.185348,7846.182985
2480.425169,2068.457845,-74.020594,8734.430116
2480.425498,1915.238745,-888.247130,8956.491898
2480.425827,536.266849,-740.205942,9400.615463
2480.426156,-153.219100,-1184.329507,9548.656652
2480.426485,0.000000,-1332.370696,9844.739029
2480.426814,0.000000,-962.267725,9844.739029
2480.427143,0.000000,296.082377,9474.636058
2480.427472,-536.266849,296.082377,9326.594869
2480.427801,229.828649,296.082377,9400.615463
2480.428130,383.047749,1036.288319,8512.368333
2480.428459,306.438199,148.041188,8660.409521
2480.428788,229.828649,-0.000000,8956.491898
2480.429117,229.828649,-222.061783,9400.615463
2480.429447,-612.876398,-1406.391290,8956.491898
2480.429776,0.000000,-1110.308913,9474.636058
2480.430105,-995.924147,-2442.679609,9696.697840
2480.430434,-459.657299,-444.123565,9326.594869
2480.430763,-766.095498,-1110.308913,9696.697840
2480.431092,-459.657299,-0.000000,9104.533087
2480.431421,0.000000,666.185348,8734.430116
2480.431750,306.438199,1332.370696,8808.450710
2480.432079,1072.533697,814.226536,8364.327145
2480.432408,1072.533697,1036.288319,8512.368333
2480.432737,1532.190996,-0.000000,8216.285956
2480.433066,1532.190996,-222.061783,8216.285956
2480.433395,1149.143247,-740.205942,8660.409521
2480.433724,1149.143247,-1110.308913,9178.553681
2480.434053,766.095498,-1406.391290,9252.574275
2480.434382,689.485948,-1258.350101,9474.636058
2480.434711,689.485948,-1332.370696,9326.594869
2480.435041,459.657299,-592.164754,9474.636058
2480.435370,689.485948,-0.000000,9178.553681
2480.435699,536.266849,666.185348,8956.491898
2480.436028,536.266849,888.247130,8734.430116
2480.436357,306.438199,1184.329507,8216.285956
2480.436686,153.219100,888.247130,8660.409521
2480.437015,-919.314598,-0.000000,8364.327145
2480.437344,-229.828649,-740.205942,9178.553681
2480.437673,-919.314598,-666.185348,9696.697840
2480.438002,-1149.143247,-1776.494261,9474.636058
2480.438331,-1149.143247,-1702.473667,9844.739029
2480.438660,-1302.362347,-1554.432478,9622.677246
2480.438989,-383.047749,-962.267725,9770.718434
2480.439318,0.000000,-444.123565,9622.677246
2480.439647,306.438199,592.164754,9474.636058
2480.439976,536.266849,1110.308913,9326.594869
2480.440305,1532.190996,1554.432478,8216.285956
2480.440635,2221.676944,1628.453072,8068.244768
2480.440964,2068.457845,1406.391290,8216.285956
2480.441293,2374.896044,888.247130,8068.244768
2480.441622,1915.238745,-296.082377,8438.347739
2480.441951,1455.581446,-370.102971,9104.533087
2480.442280,766.095498,-814.226536,9326.594869
2480.442609,0.000000,-1184.329507,9548.656652
2480.442938,-306.438199,-1036.288319,10140.821405
2480.443267,-612.876398,-740.205942,10214.842000
2480.443596,-383.047749,-444.123565,9770.718434
2480.443925,76.609550,-444.123565,10066.800811
2480.444254,0.000000,444.123565,9474.636058
2480.444583,306.438199,370.102971,9252.574275
2480.444912,536.266849,444.123565,8734.430116
2480.445241,612.876398,296.082377,8808.450710
2480.445570,306.438199,-0.000000,8808.450710
2480.445899,-306.438199,-1184.329507,9178.553681
2480.446229,-383.047749,-1480.411884,9474.636058
2480.446558,-612.876398,-1702.473667,9548.656652
2480.446887,-1225.752797,-1184.329507,9474.636058
2480.447216,-919.314598,-740.205942,9400.615463
2480.447545,-459.657299,-0.000000,9030.512492
2480.447874,-153.219100,1110.308913,8586.388927
2480.448203,229.828649,1258.350101,8364.327145
2480.448532,689.485948,1702.473667,7920.203579
2480.448861,842.705048,888.247130,7846.182985
2480.449190,1302.362347,444.123565,8142.265362
2480.449519,1685.410096,-0.000000,7698.141797
2480.449848,1072.533697,-1036.288319,8364.327145
2480.450177,1149.143247,-1480.411884,8882.471304
2480.450506,766.095498,-1628.453072,9104.533087
2480.450835,536.266849,-1850.514855,9474.636058
2480.451164,842.705048,-1480.411884,9844.739029
2480.451493,1149.143247,-1332.370696,9696.697840
2480.451823,536.266849,-74.020594,9474.636058
2480.452152,766.095498,222.061783,9178.553681
2480.452481,383.047749,962.267725,8808.450710
2480.452810,153.219100,1036.288319,8882.471304
2480.453139,0.000000,1258.350101,8734.430116
2480.453468,0.000000,518.144159,8734.430116
2480.453797,-689.485948,-0.000000,8956.491898
2480.454126,-1072.533697,-962.267725,9474.636058
2480.454455,-1762.019645,-1776.494261,9918.759623
2480.454784,-1455.581446,-2072.576638,9844.739029
2480.455113,-1225.752797,-1554.432478,9992.780217
2480.455442,-1072.533697,-1110.308913,10362.883188
2480.455771,-766.095498,-518.144159,10140.821405
2480.456100,229.828649,-74.020594,9844.739029
2480.456429,1149.143247,814.226536,9474.636058
2480.456758,2145.067394,1998.556043,8512.368333
2480.457087,2681.334243,2368.659014,7920.203579
2480.457417,2987.772442,2664.741391,7994.224174
2480.457746,2528.115143,2294.638420,7698.141797
2480.458075,2604.724693,1332.370696,7846.182985
2480.458404,2145.067394,-0.000000,8216.285956
2480.458733,995.924147,-740.205942,8956.491898
2480.459062,0.000000,-1480.411884,9400.615463
2480.459391,-536.266849,-2072.576638,10140.821405
2480.459720,-153.219100,-2220.617826,10436.903782
2480.460049,-306.438199,-1332.370696,10362.883188
2480.460378,229.828649,-296.082377,9992.780217
2480.460707,459.657299,296.082377,9474.636058
2480.461036,689.485948,1036.288319,9104.533087
2480.461365,1532.190996,1184.329507,8660.409521
2480.461694,1302.362347,1184.329507,8068.244768
2480.462023,1302.362347,1110.308913,9104.533087
2480.462352,612.876398,222.061783,9178.553681
2480.462681,306.438199,-592.164754,9326.594869
2480.463011,-153.219100,-1258.350101,9474.636058
2480.463340,-1149.143247,-1702.473667,9622.677246
2480.463669,-1378.971896,-1776.494261,9548.656652
2480.463998,-1608.800546,-1184.329507,9474.636058
2480.464327,-1608.800546,-666.185348,9548.656652
2480.464656,-612.876398,296.082377,9104.533087
2480.464985,-306.438199,296.082377,8438.347739
2480.465314,76.609550,962.267725,8290.306550
2480.465643,842.705048,666.185348,8512.368333
2480.465972,1455.581446,148.041188,8216.285956
2480.466301,1532.190996,-222.061783,8216.285956
2480.466630,1762.019645,-814.226536,8586.388927
2480.466959,1378.971896,-740.205942,9104.533087
2480.467288,1302.362347,-740.205942,9178.553681
2480.467617,1302.362347,-740.205942,9474.636058
2480.467946,612.876398,-666.185348,9326.594869
2480.468275,612.876398,-296.082377,9548.656652
2480.468605,76.609550,-0.000000,9326.594869
2480.468934,-229.828649,222.061783,8808.450710
2480.469263,0.000000,518.144159,9030.512492
2480.469592,-612.876398,888.247130,8364.327145
2480.469921,0.000000,370.102971,8586.388927
2480.470250,-919.314598,-0.000000,8512.368333
2480.470579,-689.485948,-962.267725,9178.553681
2480.470908,-995.924147,-1776.494261,9474.636058
2480.471237,-995.924147,-1998.556043,9696.697840
2480.471566,-919.314598,-1850.514855,9844.739029
2480.471895,-766.095498,-1628.453072,9918.759623
2480.472224,-383.047749,-370.102971,9696.697840
2480.472553,-229.828649,-444.123565,9696.697840
2480.472882,1149.143247,444.123565,9178.553681
2480.473211,1762.019645,1480.411884,8660.409521
2480.473540,2451.505594,2294.638420,7920.203579
2480.473869,2298.286494,2368.659014,7402.059420
2480.474199,2298.286494,2368.659014,7920.203579
2480.474528,2451.505594,814.226536,7994.224174
2480.474857,2145.067394,148.041188,8512.368333
2480.475186,1455.581446,-666.185348,9326.594869
2480.475515,153.219100,-1258.350101,9548.656652
2480.475844,-229.828649,-2072.576638,10214.842000
2480.476173,-536.266849,-1924.535449,10658.965565
2480.476502,0.000000,-1332.370696,10362.883188
2480.476831,612.876398,-814.226536,10288.862594
2480.477160,1225.752797,-0.000000,9992.780217
2480.477489,1762.019645,962.267725,9474.636058
2480.477818,1608.800546,1184.329507,9030.512492
2480.478147,1915.238745,1480.411884,8660.409521
2480.478476,1685.410096,1554.432478,8438.347739
2480.478805,1072.533697,666.185348,8512.368333
2480.479134,0.000000,-518.144159,8882.471304
2480.479463,-459.657299,-1406.391290,9622.677246
2480.479793,-842.705048,-1850.514855,8956.491898
2480.480122,-1072.533697,-2220.617826,9474.636058
2480.480451,-1532.190996,-1554.432478,9400.615463
2480.480780,-1149.143247,-592.164754,9326.594869
2480.481109,-612.876398,-0.000000,8882.471304
2480.481438,-536.266849,888.247130,8290.306550
2480.481767,842.705048,1110.308913,9030.512492
2480.482096,995.924147,518.144159,8586.388927
2480.482425,1225.752797,1110.308913,7772.162391
2480.482754,1991.848295,518.144159,7698.141797
2480.483083,2221.676944,148.041188,8216.285956
2480.483412,1991.848295,-0.000000,8512.368333
2480.483741,1455.581446,-814.226536,8734.430116
2480.484070,766.095498,-888.247130,9030.512492
2480.484399,919.314598,-1628.453072,9104.533087
2480.484728,0.000000,-1184.329507,9474.636058
2480.485057,-383.047749,-962.267725,9622.677246
2480.485387,-842.705048,-444.123565,9474.636058
2480.485716,-995.924147,-74.020594,9252.574275
2480.486045,-383.047749,444.123565,9178.553681
2480.486374,-689.485948,-222.061783,7994.224174
2480.486703,-842.705048,370.102971,9178.553681
2480.487032,-612.876398,-296.082377,9030.512492
2480.487361,-842.705048,-666.185348,8882.471304
2480.487690,-842.705048,-1258.350101,9474.636058
2480.488019,-995.924147,-1406.391290,9770.718434
2480.488348,-689.485948,-1480.411884,9992.780217
2480.488677,-383.047749,-1406.391290,9474.636058
2480.489006,-383.047749,-296.082377,9770.718434
2480.489335,229.828649,148.041188,9326.594869
2480.489664,919.314598,962.267725,8882.471304
2480.489993,1225.752797,1776.494261,8512.368333
2480.490322,1072.533697,1628.453072,7772.162391
2480.490651,1455.581446,1406.391290,7994.224174
2480.490981,1532.190996,1184.329507,8290.306550
2480.491310,1378.971896,-0.000000,8290.306550
2480.491639,919.314598,-592.164754,8808.450710
2480.491968,919.314598,-962.267725,9252.574275
2480.492297,612.876398,-1332.370696,9474.636058
2480.492626,459.657299,-1184.329507,9548.656652
2480.492955,383.047749,-888.247130,9696.697840
2480.493284,1225.752797,-592.164754,10140.821405
2480.493613,995.924147,296.082377,9474.636058
2480.493942,1378.971896,444.123565,8956.491898
2480.494271,1225.752797,888.247130,8734.430116
2480.494600,1455.581446,1184.329507,8734.430116
2480.494929,1072.533697,1184.329507,8438.347739
2480.495258,459.657299,592.164754,8882.471304
2480.495587,0.000000,-74.020594,9474.636058
2480.495916,-995.924147,-1110.308913,9918.759623
2480.496245,-1302.362347,-1776.494261,9770.718434
2480.496575,-1455.581446,-1924.535449,9770.718434
2480.496904,-1225.752797,-1850.514855,9992.780217
2480.497233,-842.705048,-1110.308913,9992.780217
2480.497562,-153.219100,-296.082377,9548.656652
2480.497891,0.000000,222.061783,9400.615463
2480.498220,1072.533697,962.267725,8956.491898
2480.498549,1378.971896,1480.411884,8438.347739
2480.498878,2298.286494,1776.494261,7772.162391
2480.499207,2604.724693,1332.370696,7402.059420
2480.499536,2451.505594,666.185348,7698.141797
2480.499865,2374.896044,-296.082377,8364.327145
2480.500194,1915.238745,-1036.288319,8512.368333
2480.500523,919.314598,-1998.556043,9178.553681
2480.500852,-153.219100,-1776.494261,9400.615463
2480.501181,-459.657299,-1850.514855,9844.739029
2480.501510,-612.876398,-1332.370696,9622.677246
2480.501839,-612.876398,-592.164754,9622.677246
2480.502169,0.000000,-0.000000,9474.636058
2480.502498,-536.266849,814.226536,8808.450710
2480.502827,459.657299,962.267725,8586.388927
2480.503156,612.876398,1036.288319,8290.306550
2480.503485,459.657299,666.185348,7994.224174
2480.503814,383.047749,370.102971,8068.244768
2480.504143,-229.828649,-592.164754,8660.409521
2480.504472,-153.219100,-1110.308913,9548.656652
2480.504801,-995.924147,-2220.617826,9104.533087
2480.505130,-995.924147,-1776.494261,9918.759623
2480.505459,-995.924147,-1480.411884,9992.780217
2480.505788,-919.314598,-962.267725,9918.759623
2480.506117,-689.485948,-222.061783,9548.656652
2480.506446,0.000000,666.185348,9178.553681
2480.506775,383.047749,1480.411884,8734.430116
2480.507104,995.924147,1258.350101,8808.450710
2480.507433,1532.190996,1258.350101,8068.244768
2480.507762,1915.238745,888.247130,7920.203579
2480.508091,2145.067394,296.082377,7920.203579
2480.508420,2068.457845,-222.061783,8586.388927
2480.508750,1762.019645,-296.082377,8512.368333
2480.509079,1149.143247,-814.226536,9178.553681
2480.509408,919.314598,-1036.288319,9474.636058
2480.509737,459.657299,-814.226536,9474.636058
2480.510066,76.609550,-1184.329507,9918.759623
2480.510395,-229.828649,-592.164754,10140.821405
2480.510724,229.828649,-0.000000,9770.718434
2480.511053,-153.219100,222.061783,9474.636058
2480.511382,-306.438199,740.205942,9474.636058
2480.511711,0.000000,518.144159,9178.553681
2480.512040,-229.828649,148.041188,9030.512492
2480.512369,-153.219100,-296.082377,9104.533087
2480.512698,-612.876398,-1110.308913,9104.533087
2480.513027,-153.219100,-1332.370696,9104.533087
2480.513356,-153.219100,-1110.308913,9548.656652
2480.513685,-306.438199,-740.205942,9252.574275
2480.514014,0.000000,-296.082377,9030.512492
2480.514343,612.876398,370.102971,9030.512492
2480.514672,1225.752797,888.247130,8290.306550
2480.515001,1608.800546,1406.391290,8290.306550
2480.515330,1532.190996,1332.370696,7772.162391
2480.515659,1378.971896,1406.391290,7994.224174
2480.515988,1685.410096,666.185348,8142.265362
2480.516318,1608.800546,-0.000000,8068.244768
2480.516647,1225.752797,-518.144159,9178.553681
2480.516976,842.705048,-1332.370696,9252.574275
2480.517305,229.828649,-1628.453072,9400.615463
2480.517634,0.000000,-2072.576638,9622.677246
2480.517963,229.828649,-1406.391290,9844.739029
2480.518292,76.609550,-814.226536,9622.677246
2480.518621,0.000000,-74.020594,9474.636058
2480.518950,229.828649,666.185348,9104.533087
2480.519279,229.828649,962.267725,9252.574275
2480.519608,383.047749,518.144159,8586.388927
2480.519937,383.047749,592.164754,8808.450710
2480.520266,0.000000,222.061783,8882.471304
2480.520595,-689.485948,-740.205942,9178.553681
2480.520924,-995.924147,-1480.411884,9770.718434
2480.521253,-1302.362347,-2072.576638,9622.677246
2480.521582,-1532.190996,-1628.453072,9770.718434
2480.521911,-1149.143247,-1850.514855,9622.677246
2480.522240,-536.266849,-1258.350101,9696.697840
2480.522569,-306.438199,-296.082377,9400.615463
2480.522898,0.000000,444.123565,9030.512492
2480.523227,306.438199,962.267725,9178.553681
2480.523556,842.705048,1924.535449,8660.409521
2480.523886,1378.971896,1480.411884,7994.224174
2480.524215,2145.067394,1258.350101,7772.162391
2480.524544,1685.410096,666.185348,7920.203579
2480.524873,1762.019645,666.185348,8290.306550
2480.525202,1762.019645,-222.061783,8290.306550
2480.525531,1225.752797,-814.226536,8734.430116
2480.525860,536.266849,-814.226536,9104.533087
2480.526189,153.219100,-1258.350101,9474.636058
2480.526518,76.609550,-962.267725,9992.780217
2480.526847,-306.438199,-148.041188,9696.697840
2480.527176,0.000000,296.082377,9548.656652
2480.527505,76.609550,444.123565,9400.615463
2480.527834,153.219100,888.247130,8956.491898
2480.528163,0.000000,666.185348,8882.471304
2480.528492,229.828649,-0.000000,8882.471304
2480.528821,0.000000,-962.267725,9104.533087
2480.529150,-766.095498,-1480.411884,9474.636058
2480.529479,-612.876398,-1332.370696,9844.739029
2480.529808,-995.924147,-1776.494261,9474.636058
2480.530137,-995.924147,-1110.308913,9696.697840
2480.530466,-842.705048,-814.226536,9770.718434
2480.530795,-229.828649,-222.061783,9474.636058
2480.531124,229.828649,1036.288319,9992.780217
2480.531454,306.438199,1036.288319,9474.636058
2480.531783,689.485948,1480.411884,8956.491898
2480.532112,1225.752797,1184.329507,8660.409521
2480.532441,1302.362347,814.226536,7994.224174
2480.532770,1762.019645,296.082377,8216.285956
2480.533099,2145.067394,-444.123565,8882.471304
2480.533428,1378.971896,-666.185348,9178.553681
2480.533757,1225.752797,-1406.391290,9400.615463
2480.534086,766.095498,-1258.350101,9252.574275
2480.534415,612.876398,-1184.329507,9770.718434
2480.534744,383.047749,-814.226536,9548.656652
2480.535073,153.219100,-444.123565,9474.636058
2480.535402,842.705048,222.061783,9400.615463
2480.535731,995.924147,962.267725,8512.368333
2480.536060,612.876398,1850.514855,8882.471304
2480.536389,612.876398,1110.308913,8068.244768
2480.536718,229.828649,1110.308913,8290.306550
2480.537047,-383.047749,-0.000000,8438.347739
2480.537376,-842.705048,-814.226536,8734.430116
2480.537705,-1608.800546,-1702.473667,9474.636058
2480.538034,-612.876398,-2368.659014,9918.759623
2480.538363,-1149.143247,-2812.782580,9474.636058
2480.538692,-919.314598,-2072.576638,9696.697840
2480.539022,-766.095498,-888.247130,9474.636058
2480.539351,0.000000,-0.000000,9474.636058
2480.539680,766.095498,666.185348,9104.533087
2480.540009,2451.505594,1702.473667,8660.409521
2480.540338,2451.505594,2590.720797,7920.203579
2480.540667,2911.162892,1924.535449,7994.224174
2480.540996,2681.334243,1702.473667,7772.162391
2480.541325,2374.896044,962.267725,7698.141797
2480.541654,1608.800546,-0.000000,8290.306550
2480.541983,919.314598,-888.247130,9178.553681
2480.542312,153.219100,-1406.391290,9548.656652
2480.542641,-153.219100,-1998.556043,9696.697840
2480.542970,-383.047749,-1998.556043,10362.883188
2480.543299,-229.828649,-1406.391290,10362.883188
2480.543628,0.000000,-592.164754,9918.759623
2480.543957,306.438199,444.123565,9696.697840
2480.544286,1072.533697,814.226536,9252.574275
2480.544615,1608.800546,1258.350101,8808.450710
2480.544944,1838.629195,1332.370696,8512.368333
2480.545273,1455.581446,814.226536,8364.327145
2480.545602,766.095498,370.102971,8512.368333
2480.545931,0.000000,-296.082377,9326.594869
2480.546260,-383.047749,-962.267725,9474.636058
2480.546590,-1149.143247,-1628.453072,9770.718434
2480.546919,-1532.190996,-1628.453072,9696.697840
2480.547248,-1608.800546,-1258.350101,9844.739029
2480.547577,-1225.752797,-0.000000,9548.656652
2480.547906,-919.314598,592.164754,9104.533087
2480.548235,-536.266849,740.205942,9030.512492
2480.548564,153.219100,1036.288319,8660.409521
2480.548893,842.705048,1184.329507,8216.285956
2480.549222,2221.676944,444.123565,8290.306550
2480.549551,2221.676944,148.041188,7994.224174
2480.549880,2068.457845,-0.000000,8438.347739
2480.550209,1762.019645,-518.144159,8956.491898
2480.550538,1455.581446,-1036.288319,8734.430116
2480.550867,1072.533697,-1110.308913,9326.594869
2480.551196,536.266849,-962.267725,9474.636058
2480.551525,0.000000,-888.247130,9474.636058
2480.551854,0.000000,-444.123565,9770.718434
2480.552183,229.828649,222.061783,9326.594869
2480.552512,0.000000,444.123565,9178.553681
2480.552841,0.000000,592.164754,8660.409521
2480.553170,-612.876398,592.164754,8512.368333
2480.553499,-459.657299,-148.041188,8734.430116
2480.553828,-383.047749,-592.164754,9030.512492
2480.554158,-689.485948,-1406.391290,9030.512492
2480.554487,-1149.143247,-1924.535449,9474.636058
2480.554816,-612.876398,-1776.494261,9696.697840
2480.555145,-689.485948,-1924.535449,9918.759623
2480.555474,-689.485948,-1258.350101,9696.697840
2480.555803,-229.828649,-592.164754,9474.636058
2480.556132,459.657299,370.102971,9104.533087
2480.556461,1378.971896,1332.370696,8512.368333
2480.556790,1608.800546,2072.576638,8068.244768
2480.557119,1762.019645,1776.494261,7846.182985
2480.557448,2451.505594,1702.473667,7328.038826
2480.557777,1685.410096,740.205942,7920.203579
2480.558106,1455.581446,-0.000000,8142.265362
2480.558435,919.314598,-888.247130,8882.471304
2480.558764,536.266849,-1554.432478,9030.512492
2480.559093,383.047749,-1776.494261,9844.739029
2480.559422,-1072.533697,-1406.391290,10436.903782
2480.559751,76.609550,-1406.391290,9992.780217
2480.560080,229.828649,-592.164754,9696.697840
2480.560409,612.876398,222.061783,9474.636058
2480.560738,919.314598,1036.288319,9178.553681
2480.561067,1072.533697,1332.370696,8882.471304
2480.561396,1149.143247,1924.535449,9326.594869
2480.561726,1149.143247,962.267725,8660.409521
2480.562055,689.485948,222.061783,9030.512492
2480.562384,-153.219100,-296.082377,9548.656652
2480.562713,-842.705048,-1406.391290,9770.718434
2480.563042,-1455.581446,-1924.535449,9844.739029
2480.563371,-1378.971896,-2146.597232,9696.697840
2480.563700,-1685.410096,-1776.494261,9696.697840
2480.564029,-1302.362347,-962.267725,9474.636058
2480.564358,-612.876398,148.041188,9178.553681
2480.564687,0.000000,666.185348,8660.409521
2480.565016,842.705048,1480.411884,8364.327145
2480.565345,1685.410096,1924.535449,8142.265362
2480.565674,1915.238745,1184.329507,8142.265362
2480.566003,2374.896044,518.144159,8290.306550
2480.566332,1991.848295,222.061783,8142.265362
2480.566661,689.485948,-222.061783,9178.553681
2480.566990,459.657299,-518.144159,9178.553681
2480.567319,153.219100,-1554.432478,10066.800811
2480.567648,0.000000,-1776.494261,9770.718434
2480.567977,-459.657299,-888.247130,9548.656652
2480.568306,76.609550,-1406.391290,9474.636058
2480.568635,0.000000,-0.000000,8438.347739
2480.568964,0.000000,740.205942,9474.636058
2480.569294,0.000000,888.247130,8586.388927
2480.569623,383.047749,1184.329507,7846.182985
2480.569952,0.000000,740.205942,7994.224174
2480.570281,76.609550,370.102971,7920.203579
2480.570610,-229.828649,-814.226536,9252.574275
2480.570939,-612.876398,-1332.370696,9326.594869
2480.571268,-995.924147,-1850.514855,9548.656652
2480.571597,-1149.143247,-1702.473667,9844.739029
2480.571926,-1378.971896,-1628.453072,9992.780217
2480.572255,-689.485948,-592.164754,9474.636058
2480.572584,-383.047749,-148.041188,9548.656652
2480.572913,0.000000,814.226536,9474.636058
2480.573242,919.314598,666.185348,8586.388927
2480.573571,842.705048,1998.556043,8068.244768
2480.573900,1455.581446,1184.329507,7624.121203
2480.574229,1762.019645,1110.308913,7920.203579
2480.574558,1685.410096,-0.000000,8216.285956
2480.574887,1378.971896,-518.144159,8512.368333
2480.575216,1149.143247,-1184.329507,9326.594869
2480.575545,612.876398,-1998.556043,9622.677246
2480.575874,76.609550,-2146.597232,9918.759623
2480.576203,0.000000,-2146.597232,9992.780217
2480.576532,153.219100,-1258.350101,10140.821405
2480.576862,536.266849,-518.144159,9844.739029
2480.577191,995.924147,518.144159,9844.739029
2480.577520,1149.143247,1110.308913,8882.471304
2480.577849,766.095498,1332.370696,8956.491898
2480.578178,1455.581446,1036.288319,8216.285956
2480.578507,919.314598,1184.329507,7920.203579
2480.578836,0.000000,148.041188,8882.471304
2480.579165,-459.657299,-1110.308913,9030.512492
2480.579494,-842.705048,-1702.473667,9548.656652
2480.579823,-1532.190996,-2294.638420,9548.656652
2480.580152,-995.924147,-1628.453072,10362.883188
2480.580481,-1838.629195,-1702.473667,9622.677246
2480.580810,-842.705048,-296.082377,9326.594869
2480.581139,306.438199,444.123565,9178.553681
2480.581468,995.924147,1332.370696,8808.450710
2480.581797,1991.848295,1998.556043,8142.265362
2480.582126,2451.505594,2294.638420,7846.182985
2480.582455,2757.943793,1480.411884,7550.100608
2480.582784,2528.115143,1406.391290,7624.121203
2480.583113,2221.676944,296.082377,8364.327145
2480.583442,1685.410096,-518.144159,8660.409521
2480.583771,919.314598,-1258.350101,8956.491898
2480.584100,0.000000,-1924.535449,9696.697840
2480.584430,-459.657299,-2294.638420,9992.780217
2480.584759,-919.314598,-1776.494261,9992.780217
2480.585088,-536.266849,-1628.453072,9770.718434
2480.585417,-153.219100,-296.082377,9548.656652
2480.585746,229.828649,444.123565,9474.636058
2480.586075,536.266849,962.267725,8882.471304
2480.586404,842.705048,1036.288319,8586.388927
2480.586733,766.095498,962.267725,8290.306550
2480.587062,689.485948,666.185348,8068.244768
2480.587391,536.266849,-0.000000,8808.450710
2480.587720,-306.438199,-518.144159,9400.615463
2480.588049,-689.485948,-1184.329507,9474.636058
2480.588378,-1225.752797,-1776.494261,9770.718434
2480.588707,-1378.971896,-1554.432478,9918.759623
2480.589036,-1378.971896,-1184.329507,9918.759623
2480.589365,-842.705048,-740.205942,9622.677246
2480.589694,-766.095498,-0.000000,9474.636058
2480.590023,-383.047749,962.267725,9178.553681
2480.590352,229.828649,1332.370696,8438.347739
2480.590681,1225.752797,1036.288319,8216.285956
2480.591010,1838.629195,888.247130,8142.265362
2480.591339,2374.896044,-0.000000,8068.244768
2480.591668,2221.676944,-222.061783,8216.285956
2480.591998,2374.896044,-814.226536,8660.409521
2480.592327,1378.971896,-888.247130,9178.553681
2480.592656,1225.752797,-740.205942,9030.512492
2480.592985,689.485948,-888.247130,9178.553681
2480.593314,689.485948,-296.082377,9400.615463
2480.593643,1378.971896,-0.000000,9178.553681
2480.593972,306.438199,222.061783,8882.471304
2480.594301,-306.438199,222.061783,9178.553681
2480.594630,-383.047749,222.061783,9030.512492
2480.594959,-536.266849,-0.000000,8956.491898
2480.595288,-766.095498,-296.082377,8956.491898
2480.595617,-919.314598,-1036.288319,9252.574275
2480.595946,-1302.362347,-1850.514855,9474.636058
2480.596275,-842.705048,-2220.617826,9400.615463
2480.596604,-919.314598,-1702.473667,9992.780217
2480.596933,-995.924147,-1110.308913,9400.615463
2480.597262,-306.438199,-814.226536,9992.780217
2480.597591,76.609550,-0.000000,9400.615463
2480.597920,689.485948,1184.329507,9252.574275
2480.598249,842.705048,1258.350101,8586.388927
2480.598578,1532.190996,1332.370696,7920.203579
2480.598907,2068.457845,1554.432478,7994.224174
2480.599236,2145.067394,1036.288319,8142.265362
2480.599566,1762.019645,444.123565,7994.224174
2480.599895,995.924147,-518.144159,8808.450710
2480.600224,612.876398,-1110.308913,9178.553681
2480.600553,0.000000,-1924.535449,9474.636058
2480.600882,-383.047749,-2146.597232,9918.759623
2480.601211,-459.657299,-1480.411884,9992.780217
2480.601540,-153.219100,-1110.308913,9992.780217
2480.601869,153.219100,-370.102971,9548.656652
2480.602198,536.266849,518.144159,9326.594869
2480.602527,995.924147,1554.432478,8808.450710
2480.602856,1685.410096,1332.370696,8290.306550
2480.603185,1302.362347,1702.473667,8216.285956
2480.603514,1378.971896,814.226536,7698.141797
2480.603843,306.438199,370.102971,8586.388927
2480.604172,-153.219100,-962.267725,9178.553681
2480.604501,-1072.533697,-1850.514855,9474.636058
2480.604830,-1838.629195,-2072.576638,9696.697840
2480.605159,-1685.410096,-2368.659014,9992.780217
2480.605489,-1685.410096,-1702.473667,9992.780217
2480.605818,-1532.190996,-814.226536,9400.615463
2480.606147,-459.657299,370.102971,9474.636058
2480.606476,0.000000,888.247130,9178.553681
2480.606805,689.485948,1480.411884,8660.409521
2480.607134,1455.581446,1628.453072,8290.306550
2480.607463,1991.848295,962.267725,7698.141797
2480.607792,3064.381992,888.247130,7772.162391
2480.608121,2604.724693,-0.000000,7698.141797
2480.608450,2145.067394,148.041188,8734.430116
2480.608779,1532.190996,-592.164754,8882.471304
2480.609109,995.924147,-888.247130,9474.636058
2480.609438,0.000000,-1184.329507,9918.759623
2480.609767,-612.876398,-1628.453072,9992.780217
2480.610096,-153.219100,-1184.329507,10732.986159
2480.610425,-383.047749,-814.226536,10066.800811
2480.610754,-459.657299,-370.102971,9696.697840
2480.611083,-306.438199,518.144159,9178.553681
2480.611412,-229.828649,666.185348,9104.533087
2480.611741,0.000000,740.205942,8512.368333
2480.612070,-306.438199,-296.082377,8290.306550
2480.612400,0.000000,-222.061783,8660.409521
2480.612729,-689.485948,-1036.288319,9474.636058
2480.613058,-1072.533697,-1628.453072,9474.636058
2480.613387,-459.657299,-1406.391290,9400.615463
2480.613716,-689.485948,-962.267725,9400.615463
2480.614045,-612.876398,-370.102971,9326.594869
2480.614374,0.000000,296.082377,9104.533087
2480.614703,0.000000,1036.288319,9030.512492
2480.615032,919.314598,1406.391290,8586.388927
2480.615361,1532.190996,1258.350101,8142.265362
2480.615691,995.924147,1258.350101,7920.203579
2480.616020,1149.143247,592.164754,7920.203579
2480.616349,1378.971896,-222.061783,8142.265362
2480.616678,766.095498,-1184.329507,8956.491898
2480.617007,1302.362347,-1628.453072,9252.574275
2480.617336,995.924147,-1998.556043,9326.594869
2480.617665,153.219100,-1702.473667,9770.718434
2480.617994,459.657299,-1110.308913,9696.697840
2480.618323,612.876398,-592.164754,9696.697840
2480.618652,842.705048,-74.020594,9474.636058
2480.618982,1149.143247,962.267725,9474.636058
2480.619311,1532.190996,1184.329507,8808.450710
2480.619640,689.485948,888.247130,8586.388927
2480.619969,306.438199,1332.370696,9030.512492
2480.620298,0.000000,296.082377,8956.491898
2480.620627,-612.876398,-296.082377,9030.512492
2480.620956,-1149.143247,-1184.329507,9696.697840
2480.621285,-1225.752797,-1702.473667,9918.759623
2480.621614,-1762.019645,-1998.556043,9770.718434
2480.621943,-1302.362347,-1702.473667,10436.903782
2480.622272,-1072.533697,-1554.432478,9696.697840
2480.622602,-153.219100,-444.123565,9622.677246
2480.622931,536.266849,518.144159,9252.574275
2480.623260,1225.752797,1554.432478,8586.388927
2480.623589,1685.410096,1924.535449,7698.141797
2480.623918,2834.553343,2072.576638,7328.038826
2480.624247,2757.943793,2146.597232,7105.977043
2480.624576,2604.724693,1258.350101,7772.162391
2480.624905,1915.238745,222.061783,8216.285956
2480.625234,1455.581446,-222.061783,8882.471304
2480.625563,459.657299,-1480.411884,9178.553681
2480.625893,0.000000,-2072.576638,9622.677246
2480.626222,-689.485948,-1554.432478,10362.883188
2480.626551,-612.876398,-1554.432478,10288.862594
2480.626880,0.000000,-1110.308913,9696.697840
2480.627209,0.000000,-0.000000,9474.636058
2480.627538,153.219100,666.185348,8956.491898
2480.627867,612.876398,962.267725,8808.450710
2480.628196,1072.533697,962.267725,8438.347739
2480.628525,1072.533697,1110.308913,8142.265362
2480.628854,153.219100,296.082377,8438.347739
2480.629184,0.000000,-296.082377,9400.615463
2480.629513,-383.047749,-962.267725,9474.636058
2480.629842,-766.095498,-1554.432478,9400.615463
2480.630171,-1149.143247,-1702.473667,9770.718434
2480.630500,-1149.143247,-1332.370696,10066.800811
2480.630829,-612.876398,-1110.308913,9918.759623
2480.631158,-536.266849,-148.041188,9400.615463
2480.631487,-459.657299,518.144159,9474.636058
2480.631816,0.000000,1036.288319,8956.491898
2480.632145,689.485948,1184.329507,8586.388927
2480.632475,1072.533697,888.247130,8290.306550
2480.632804,1532.190996,222.061783,8216.285956
2480.633133,2145.067394,-0.000000,8364.327145
2480.633462,1838.629195,-444.123565,8882.471304
2480.633791,1455.581446,-666.185348,8808.450710
2480.634120,1225.752797,-666.185348,9030.512492
2480.634449,919.314598,-740.205942,9400.615463
2480.634778,919.314598,-592.164754,9252.574275
2480.635107,612.876398,-222.061783,9474.636058
2480.635436,766.095498,222.061783,9400.615463
2480.635766,0.000000,518.144159,9326.594869
2480.636095,-306.438199,1110.308913,9474.636058
2480.636424,-766.095498,666.185348,9104.533087
2480.636753,-919.314598,148.041188,9178.553681
2480.637082,-1072.533697,-518.144159,9030.512492
2480.637411,-1149.143247,-1332.370696,9474.636058
2480.637740,-1302.362347,-1924.535449,9474.636058
2480.638069,-995.924147,-1776.494261,10214.842000
2480.638398,-1149.143247,-2220.617826,9548.656652
2480.638727,-306.438199,-1332.370696,9326.594869
2480.639056,383.047749,-0.000000,9178.553681
2480.639386,1149.143247,666.185348,8956.491898
2480.639715,1685.410096,1332.370696,8142.265362
2480.640044,2528.115143,2072.576638,7846.182985
2480.640373,2681.334243,1702.473667,7772.162391
2480.640702,2298.286494,1258.350101,7624.121203
2480.641031,1838.629195,740.205942,7994.224174
2480.641360,1149.143247,-74.020594,8734.430116
2480.641689,383.047749,-1110.308913,9252.574275
2480.642018,153.219100,-1776.494261,9770.718434
2480.642347,-229.828649,-1998.556043,10066.800811
2480.642677,-689.485948,-2072.576638,10140.821405
2480.643006,153.219100,-1924.535449,10066.800811
2480.643335,229.828649,-1110.308913,9474.636058
2480.643664,766.095498,222.061783,9252.574275
2480.643993,1532.190996,1110.308913,8956.491898
2480.644322,1608.800546,1702.473667,7994.224174
2480.644651,1685.410096,1628.453072,7994.224174
2480.644980,1532.190996,1406.391290,7920.203579
2480.645309,459.657299,666.185348,8808.450710
2480.645638,0.000000,-666.185348,8882.471304
2480.645968,-1072.533697,-1554.432478,9474.636058
2480.646297,-1532.190996,-2146.597232,9992.780217
2480.646626,-1762.019645,-2146.597232,10066.800811
2480.646955,-1378.971896,-1850.514855,9622.677246
2480.647284,-689.485948,-740.205942,9622.677246
2480.647613,-995.924147,296.082377,9474.636058
2480.647942,-383.047749,962.267725,9178.553681
2480.648271,689.485948,1480.411884,8808.450710
2480.648600,1149.143247,1924.535449,7994.224174
2480.648929,2298.286494,1776.494261,7920.203579
2480.649259,2374.896044,1406.391290,7624.121203
2480.649588,2911.162892,666.185348,7920.203579
2480.649917,2528.115143,-296.082377,8660.409521
2480.650246,1455.581446,-222.061783,9030.512492
2480.650575,919.314598,-1184.329507,9104.533087
2480.650904,153.219100,-1258.350101,9844.739029
2480.651233,-153.219100,-1110.308913,9992.780217
2480.651562,-153.219100,-1332.370696,10066.800811
2480.651891,-229.828649,-1110.308913,10066.800811
2480.652220,-459.657299,-148.041188,9548.656652
2480.652550,-306.438199,1036.288319,9252.574275
2480.652879,0.000000,962.267725,8734.430116
2480.653208,76.609550,666.185348,8808.450710
2480.653537,0.000000,296.082377,8290.306550
2480.653866,229.828649,-666.185348,8882.471304
2480.654195,-536.266849,-1332.370696,9474.636058
2480.654524,-995.924147,-1998.556043,9844.739029
2480.654853,-1072.533697,-2146.597232,9326.594869
2480.655182,-1378.971896,-1628.453072,9770.718434
2480.655511,-1072.533697,-962.267725,9992.780217
2480.655840,-383.047749,-518.144159,9400.615463
2480.656170,459.657299,888.247130,9326.594869
2480.656499,459.657299,1480.411884,9104.533087
2480.656828,1762.019645,1702.473667,8142.265362
2480.657157,1378.971896,1924.535449,7698.141797
2480.657486,1685.410096,1332.370696,7994.224174
2480.657815,1762.019645,444.123565,7846.182985
2480.658144,1455.581446,-222.061783,8216.285956
2480.658473,1302.362347,-1184.329507,8956.491898
2480.658802,-229.828649,-1332.370696,9178.553681
2480.659131,306.438199,-1554.432478,9326.594869
2480.659461,229.828649,-1554.432478,9474.636058
2480.659790,0.000000,-888.247130,9548.656652
2480.660119,459.657299,-296.082377,9400.615463
2480.660448,612.876398,-0.000000,9400.615463
2480.660777,536.266849,814.226536,9178.553681
2480.661106,306.438199,814.226536,8734.430116
2480.661435,1072.533697,1110.308913,8364.327145
2480.661764,229.828649,888.247130,8660.409521
2480.662093,76.609550,-0.000000,8734.430116
2480.662422,-766.095498,-888.247130,9178.553681
2480.662752,-842.705048,-1628.453072,9696.697840
2480.663081,-995.924147,-2294.638420,9696.697840
2480.663410,-995.924147,-1850.514855,10140.821405
2480.663739,-1072.533697,-1480.411884,9770.718434
2480.664068,-612.876398,-592.164754,9696.697840
2480.664397,0.000000,-0.000000,9474.636058
2480.664726,689.485948,888.247130,8882.471304
2480.665055,1532.190996,1702.473667,8586.388927
2480.665384,2068.457845,1924.535449,8068.244768
2480.665713,2987.772442,1554.432478,7772.162391
2480.666043,2221.676944,740.205942,8290.306550
2480.666372,1915.238745,518.144159,8586.388927
2480.666701,1302.362347,-370.102971,9030.512492
2480.667030,689.485948,-1184.329507,9178.553681
2480.667359,0.000000,-1554.432478,9696.697840
2480.667688,-612.876398,-1776.494261,10510.924376
2480.668017,0.000000,-1702.473667,10288.862594
2480.668346,-459.657299,-148.041188,9992.780217
2480.668675,0.000000,-0.000000,9622.677246
2480.669004,842.705048,962.267725,8808.450710
2480.669334,766.095498,1036.288319,8142.265362
2480.669663,766.095498,1776.494261,8512.368333
2480.669992,842.705048,1332.370696,8364.327145
2480.670321,229.828649,296.082377,8808.450710
2480.670650,-153.219100,-0.000000,9326.594869
2480.670979,-919.314598,-962.267725,9474.636058
2480.671308,-1378.971896,-1184.329507,10066.800811
2480.671637,-1378.971896,-1850.514855,9918.759623
2480.671966,-1225.752797,-1924.535449,10066.800811
2480.672295,-459.657299,-814.226536,9548.656652
2480.672624,-306.438199,444.123565,10066.800811
2480.672954,-153.219100,-0.000000,9474.636058
2480.673283,995.924147,1258.350101,8438.347739
2480.673612,1838.629195,1702.473667,7772.162391
2480.673941,2298.286494,1702.473667,7772.162391
2480.674270,2374.896044,1036.288319,7994.224174
2480.674599,2451.505594,740.205942,7920.203579
2480.674928,1608.800546,-444.123565,8068.244768
2480.675257,1915.238745,-1110.308913,9326.594869
2480.675586,919.314598,-1258.350101,9326.594869
2480.675915,76.609550,-1702.473667,9548.656652
2480.676245,0.000000,-1628.453072,9918.759623
2480.676574,-383.047749,-1110.308913,10140.821405
2480.676903,76.609550,-666.185348,10288.862594
2480.677232,0.000000,-444.123565,9104.533087
2480.677561,0.000000,370.102971,9252.574275
2480.677890,0.000000,888.247130,8734.430116
2480.678219,0.000000,740.205942,8364.327145
2480.678548,76.609550,370.102971,8142.265362
2480.678877,-383.047749,-444.123565,8512.368333
2480.679206,-536.266849,-962.267725,9178.553681
2480.679536,-459.657299,-2516.700203,9104.533087
2480.679865,-1072.533697,-2294.638420,9474.636058
2480.680194,-995.924147,-1628.453072,9474.636058
2480.680523,-766.095498,-1036.288319,9474.636058
2480.680852,-459.657299,-148.041188,9178.553681
2480.681181,383.047749,962.267725,8808.450710
2480.681510,919.314598,1036.288319,8364.327145
2480.681839,1225.752797,1554.432478,7994.224174
2480.682168,1532.190996,1924.535449,7698.141797
2480.682497,1608.800546,1036.288319,7698.141797
2480.682827,1532.190996,518.144159,7846.182985
2480.683156,1225.752797,-0.000000,8142.265362
2480.683485,612.876398,-1406.391290,9992.780217
2480.683814,536.266849,-2664.741391,9474.636058
2480.684143,0.000000,-1702.473667,10140.821405
2480.684472,459.657299,-2442.679609,10066.800811
2480.684801,0.000000,-1258.350101,9474.636058
2480.685130,689.485948,-222.061783,10362.883188
2480.685459,842.705048,370.102971,9548.656652
2480.685788,1532.190996,1480.411884,8660.409521
2480.686118,1455.581446,1332.370696,8734.430116
2480.686447,2068.457845,1998.556043,7994.224174
2480.686776,1532.190996,1184.329507,8808.450710
2480.687105,229.828649,370.102971,8660.409521
2480.687434,-689.485948,-592.164754,9252.574275
2480.687763,-1302.362347,-1924.535449,10362.883188
2480.688092,-2145.067394,-2368.659014,10140.821405
2480.688421,-2145.067394,-2442.679609,10510.924376
2480.688750,-1455.581446,-1628.453072,10362.883188
2480.689079,-766.095498,-814.226536,9548.656652
2480.689408,-306.438199,148.041188,9770.718434
2480.689738,459.657299,1184.329507,9474.636058
2480.690067,1455.581446,1850.514855,8808.450710
2480.690396,2221.676944,2368.659014,7624.121203
2480.690725,2987.772442,2146.597232,7402.059420
2480.691054,3064.381992,888.247130,7179.997637
2480.691383,2374.896044,1110.308913,7476.080014
2480.691712,2068.457845,444.123565,8364.327145
2480.692041,1225.752797,-444.123565,8512.368333
2480.692370,153.219100,-1332.370696,9178.553681
2480.692699,-612.876398,-1776.494261,9844.739029
2480.693029,-1072.533697,-2368.659014,10066.800811
2480.693358,-766.095498,-1702.473667,9844.739029
2480.693687,-919.314598,-592.164754,9770.718434
2480.694016,-536.266849,148.041188,9548.656652
2480.694345,-383.047749,518.144159,9030.512492
2480.694674,229.828649,962.267725,8438.347739
2480.695003,612.876398,962.267725,8142.265362
2480.695332,229.828649,444.123565,8068.244768
2480.695661,383.047749,-222.061783,8808.450710
2480.695990,0.000000,-666.185348,8216.285956
2480.696320,-766.095498,-1480.411884,9474.636058
2480.696649,-1149.143247,-1850.514855,9918.759623
2480.696978,-1149.143247,-2072.576638,9844.739029
2480.697307,-1225.752797,-1258.350101,9474.636058
2480.697636,-1072.533697,-518.144159,9770.718434
2480.697965,-383.047749,296.082377,8882.471304
2480.698294,229.828649,1110.308913,8956.491898
2480.698623,229.828649,1184.329507,8438.347739
2480.698952,842.705048,888.247130,8438.347739
2480.699281,1378.971896,592.164754,8142.265362
2480.699611,1685.410096,148.041188,7994.224174
2480.699940,1685.410096,-814.226536,8734.430116
2480.700269,842.705048,-740.205942,9178.553681
2480.700598,1225.752797,-962.267725,9326.594869
2480.700927,1225.752797,-1036.288319,9474.636058
2480.701256,1149.143247,-1036.288319,9548.656652
2480.701585,919.314598,-592.164754,9326.594869
2480.701914,766.095498,-0.000000,9104.533087
2480.702243,766.095498,444.123565,9178.553681
2480.702572,995.924147,962.267725,8882.471304
2480.702901,612.876398,2220.617826,9104.533087
2480.703231,0.000000,1332.370696,8734.430116
2480.703560,0.000000,666.185348,8512.368333
2480.703889,-612.876398,-222.061783,8808.450710
2480.704218,-995.924147,-1036.288319,9622.677246
2480.704547,-842.705048,-1776.494261,9622.677246
2480.704876,-1378.971896,-1998.556043,9844.739029
2480.705205,-919.314598,-2220.617826,10140.821405
2480.705534,-919.314598,-1406.391290,10362.883188
2480.705863,0.000000,-518.144159,9696.697840
2480.706192,766.095498,518.144159,9178.553681
2480.706521,1685.410096,1554.432478,8660.409521
2480.706850,2298.286494,1998.556043,8068.244768
2480.707179,2987.772442,2886.803174,7550.100608
2480.707508,3217.601092,1184.329507,8068.244768
2480.707837,2681.334243,1184.329507,7402.059420
2480.708166,2298.286494,370.102971,8142.265362
2480.708496,1302.362347,-666.185348,8882.471304
2480.708825,229.828649,-1702.473667,9400.615463
2480.709154,-383.047749,-2516.700203,10362.883188
2480.709483,-689.485948,-2960.823768,10436.903782
2480.709812,-766.095498,-1850.514855,10436.903782
2480.710141,-459.657299,-1702.473667,10510.924376
2480.710470,-612.876398,-0.000000,10066.800811
2480.710799,229.828649,740.205942,9474.636058
2480.711128,766.095498,1184.329507,8956.491898
2480.711457,766.095498,1258.350101,8216.285956
2480.711786,1225.752797,1184.329507,8290.306550
2480.712115,1378.971896,-0.000000,8142.265362
2480.712444,536.266849,-296.082377,8512.368333
2480.712773,0.000000,-740.205942,8882.471304
2480.713102,-536.266849,-1628.453072,9400.615463
2480.713431,-995.924147,-1554.432478,9474.636058
2480.713761,-1762.019645,-1702.473667,9474.636058
2480.714090,-1915.238745,-1036.288319,9844.739029
2480.714419,-536.266849,-518.144159,9474.636058
2480.714748,-383.047749,296.082377,9178.553681
2480.715077,-383.047749,1258.350101,9030.512492
2480.715406,229.828649,1110.308913,8512.368333
2480.715735,1149.143247,1332.370696,7994.224174
2480.716064,2068.457845,1036.288319,7698.141797
2480.716393,2451.505594,-0.000000,7698.141797
2480.716722,2221.676944,-0.000000,8290.306550
2480.717051,1838.629195,-518.144159,8956.491898
2480.717380,1838.629195,-814.226536,8882.471304
2480.717709,1149.143247,-1110.308913,9400.615463
2480.718038,689.485948,-1036.288319,9474.636058
2480.718367,306.438199,-814.226536,9474.636058
2480.718696,306.438199,-444.123565,9548.656652
2480.719025,0.000000,518.144159,9696.697840
2480.719355,-766.095498,740.205942,9474.636058
2480.719684,-459.657299,814.226536,9252.574275
2480.720013,-536.266849,666.185348,9030.512492
2480.720342,-612.876398,-0.000000,9104.533087
2480.720671,-536.266849,-592.164754,9252.574275
2480.721000,-1072.533697,-1258.350101,9770.718434
2480.721329,-766.095498,-1776.494261,9770.718434
2480.721658,-1149.143247,-2220.617826,9770.718434
2480.721987,-612.876398,-1406.391290,9622.677246
2480.722316,0.000000,-666.185348,9474.636058
2480.722645,536.266849,-0.000000,9400.615463
2480.722974,842.705048,888.247130,8882.471304
2480.723303,1991.848295,1776.494261,8438.347739
2480.723632,2221.676944,1850.514855,7920.203579
2480.723961,2451.505594,1850.514855,7624.121203
2480.724290,1915.238745,1258.350101,7772.162391
2480.724620,1838.629195,296.082377,7994.224174
2480.724949,1302.362347,-518.144159,8586.388927
2480.725278,612.876398,-1184.329507,9326.594869
2480.725607,306.438199,-1850.514855,8956.491898
2480.725936,0.000000,-2294.638420,9474.636058
2480.726265,-306.438199,-1554.432478,10214.842000
2480.726594,0.000000,-1110.308913,9918.759623
2480.726923,383.047749,-148.041188,9030.512492
2480.727252,766.095498,518.144159,8808.450710
2480.727581,1072.533697,1184.329507,8882.471304
2480.727910,1225.752797,1110.308913,8512.368333
2480.728239,1072.533697,1036.288319,8290.306550
2480.728568,1455.581446,296.082377,7994.224174
2480.728897,229.828649,-222.061783,8734.430116
2480.729226,-536.266849,-962.267725,9252.574275
2480.729555,-1072.533697,-1702.473667,9622.677246
2480.729884,-1685.410096,-1998.556043,9844.739029
2480.730214,-1915.238745,-1998.556043,10140.821405
2480.730543,-1455.581446,-1628.453072,9992.780217
2480.730872,-1302.362347,-592.164754,9326.594869
2480.731201,-689.485948,518.144159,9474.636058
2480.731530,0.000000,1036.288319,9178.553681
2480.731859,536.266849,1258.350101,8438.347739
2480.732188,1225.752797,1258.350101,8438.347739
2480.732517,1608.800546,592.164754,7698.141797
2480.732846,2834.553343,370.102971,8216.285956
2480.733175,2374.896044,222.061783,8512.368333
2480.733504,1991.848295,-0.000000,8808.450710
2480.733833,1608.800546,-370.102971,9030.512492
2480.734162,1302.362347,-666.185348,9400.615463
2480.734491,766.095498,-814.226536,9548.656652
2480.734820,0.000000,-370.102971,9770.718434
2480.735149,-153.219100,-222.061783,10066.800811
2480.735479,0.000000,-148.041188,9400.615463
2480.735808,-536.266849,592.164754,9474.636058
2480.736137,-459.657299,888.247130,9104.533087
2480.736466,-383.047749,666.185348,8586.388927
2480.736795,-306.438199,296.082377,8956.491898
2480.737124,0.000000,-222.061783,8808.450710
2480.737453,-766.095498,-666.185348,8882.471304
2480.737782,-536.266849,-1702.473667,9104.533087
2480.738111,-383.047749,-1480.411884,9178.553681
2480.738440,-612.876398,-1406.391290,9178.553681
2480.738769,-229.828649,-666.185348,9548.656652
2480.739098,536.266849,-0.000000,9474.636058
2480.739427,689.485948,592.164754,9474.636058
2480.739756,1225.752797,1628.453072,8808.450710
2480.740085,1685.410096,1628.453072,8290.306550
2480.740414,1455.581446,1480.411884,7994.224174
2480.740744,1455.581446,1036.288319,8290.306550
2480.741073,1302.362347,-0.000000,8586.388927
2480.741402,612.876398,-592.164754,8660.409521
2480.741731,536.266849,-1628.453072,9474.636058
2480.742060,-536.266849,-2294.638420,9770.718434
2480.742389,0.000000,-2220.617826,10140.821405
2480.742718,153.219100,-1850.514855,9770.718434
2480.743047,612.876398,-1332.370696,9548.656652
2480.743376,995.924147,-592.164754,9474.636058
2480.743705,1072.533697,370.102971,9178.553681
2480.744034,919.314598,740.205942,8734.430116
2480.744363,1991.848295,1628.453072,8438.347739
2480.744692,1378.971896,1628.453072,8068.244768
2480.745021,1072.533697,1184.329507,8142.265362
2480.745350,76.609550,296.082377,8438.347739
2480.745679,-689.485948,-740.205942,8808.450710
2480.746008,-1455.581446,-1554.432478,9474.636058
2480.746338,-2068.457845,-2664.741391,9844.739029
2480.746667,-1915.238745,-2442.679609,10362.883188
2480.746996,-1685.410096,-1998.556043,9474.636058
2480.747325,-1838.629195,-1258.350101,9548.656652
2480.747654,-689.485948,-148.041188,9400.615463
2480.747983,76.609550,814.226536,8734.430116
2480.748312,1378.971896,1776.494261,8438.347739
2480.748641,2221.676944,1850.514855,7920.203579
2480.748970,3294.210641,2220.617826,7402.059420
2480.749299,3294.210641,1776.494261,7328.038826
2480.749628,2911.162892,1036.288319,7550.100608
2480.749957,2145.067394,-0.000000,7994.224174
2480.750286,1685.410096,-814.226536,8808.450710
2480.750615,919.314598,-1702.473667,9400.615463
2480.750944,229.828649,-2146.597232,9844.739029
2480.751273,-306.438199,-2294.638420,10288.862594
2480.751603,-306.438199,-1850.514855,9992.780217
2480.751932,-229.828649,-666.185348,10066.800811
2480.752261,0.000000,-0.000000,9474.636058
2480.752590,229.828649,740.205942,9400.615463
2480.752919,229.828649,1036.288319,8808.450710
2480.753248,459.657299,888.247130,8882.471304
2480.753577,689.485948,1036.288319,8512.368333
2480.753906,306.438199,-74.020594,8956.491898
2480.754235,0.000000,-740.205942,9696.697840
2480.754564,-536.266849,-1258.350101,9696.697840
2480.754893,-842.705048,-1406.391290,9696.697840
2480.755222,-689.485948,-1628.453072,9918.759623
2480.755551,-689.485948,-1332.370696,9918.759623
2480.755880,0.000000,-444.123565,9770.718434
2480.756209,0.000000,148.041188,9548.656652
2480.756538,689.485948,1110.308913,8882.471304
2480.756867,1378.971896,1628.453072,8142.265362
2480.757197,1455.581446,1628.453072,7920.203579
2480.757526,2298.286494,1480.411884,7698.141797
2480.757855,1838.629195,370.102971,7846.182985
2480.758184,1838.629195,-370.102971,7994.224174
2480.758513,1532.190996,-1036.288319,8364.327145
2480.758842,842.705048,-1258.350101,8882.471304
2480.759171,383.047749,-1554.432478,9474.636058
2480.759500,0.000000,-1480.411884,9622.677246
2480.759829,76.609550,-1332.370696,9474.636058
2480.760158,229.828649,-444.123565,9696.697840
2480.760487,229.828649,-0.000000,9252.574275
2480.760816,-306.438199,1110.308913,9178.553681
2480.761145,153.219100,1110.308913,8882.471304
2480.761474,459.657299,1110.308913,8512.368333
2480.761803,0.000000,518.144159,8364.327145
2480.762132,-229.828649,-74.020594,8586.388927
2480.762462,-612.876398,-1258.350101,9030.512492
2480.762791,-1302.362347,-1554.432478,9548.656652
2480.763120,-1838.629195,-2368.659014,9844.739029
2480.763449,-1838.629195,-2220.617826,9474.636058
2480.763778,-1685.410096,-1924.535449,9622.677246
2480.764107,-1149.143247,-962.267725,9696.697840
2480.764436,-612.876398,-148.041188,9178.553681
2480.764765,76.609550,592.164754,8956.491898
2480.765094,459.657299,1702.473667,8660.409521
2480.765423,1915.238745,1480.411884,7772.162391
2480.765752,2145.067394,1850.514855,7772.162391
2480.766081,2298.286494,1258.350101,7846.182985
2480.766410,1991.848295,666.185348,8364.327145
2480.766739,1225.752797,-592.164754,8956.491898
2480.767068,1455.581446,-1406.391290,8882.471304
2480.767397,0.000000,-1850.514855,9696.697840
2480.767726,76.609550,-1998.556043,10288.862594
2480.768056,0.000000,-1480.411884,10066.800811
2480.768385,0.000000,-814.226536,9844.739029
2480.768714,153.219100,-0.000000,9474.636058
2480.769043,383.047749,666.185348,9178.553681
2480.769372,536.266849,962.267725,8882.471304
2480.769701,1302.362347,1332.370696,8290.306550
2480.770030,766.095498,1332.370696,8364.327145
2480.770359,383.047749,666.185348,8734.430116
2480.770688,0.000000,-0.000000,8808.450710
2480.771017,-689.485948,-888.247130,9326.594869
2480.771346,-536.266849,-1332.370696,9696.697840
2480.771675,-842.705048,-1850.514855,9770.718434
2480.772004,-842.705048,-1036.288319,9770.718434
2480.772333,-306.438199,-1036.288319,9696.697840
2480.772662,0.000000,-222.061783,9548.656652
2480.772991,383.047749,592.164754,9178.553681
2480.773321,842.705048,1258.350101,8586.388927
2480.773650,1302.362347,1776.494261,8142.265362
2480.773979,2068.457845,1924.535449,8290.306550
2480.774308,1225.752797,962.267725,7920.203579
2480.774637,2068.457845,740.205942,7994.224174
2480.774966,2068.457845,-222.061783,8734.430116
2480.775295,1608.800546,-1036.288319,9104.533087
2480.775624,842.705048,-1258.350101,9918.759623
2480.775953,76.609550,-1406.391290,9696.697840
2480.776282,0.000000,-1332.370696,9844.739029
2480.776611,-153.219100,-1036.288319,9918.759623
2480.776940,0.000000,-518.144159,9474.636058
2480.777269,0.000000,-0.000000,9252.574275
2480.777598,536.266849,592.164754,9030.512492
2480.777927,842.705048,666.185348,8586.388927
2480.778256,536.266849,888.247130,8290.306550
2480.778586,306.438199,222.061783,8216.285956
2480.778915,0.000000,-444.123565,8438.347739
2480.779244,-919.314598,-814.226536,9104.533087
2480.779573,-1072.533697,-1480.411884,9622.677246
2480.779902,-1455.581446,-1776.494261,9474.636058
2480.780231,-1608.800546,-1702.473667,9844.739029
2480.780560,-1762.019645,-1332.370696,9696.697840
2480.780889,-1302.362347,-444.123565,9474.636058
2480.781218,-919.314598,444.123565,9326.594869
2480.781547,-153.219100,962.267725,9104.533087
2480.781876,766.095498,1036.288319,8068.244768
2480.782205,1072.533697,1036.288319,8216.285956
2480.782534,2145.067394,962.267725,8142.265362
2480.782863,1991.848295,518.144159,7698.141797
2480.783192,1838.629195,-222.061783,8142.265362
2480.783521,1608.800546,-666.185348,8808.450710
2480.783850,1532.190996,-1628.453072,8586.388927
2480.784180,459.657299,-1554.432478,9696.697840
2480.784509,842.705048,-1332.370696,10140.821405
2480.784838,306.438199,-1406.391290,9992.780217
2480.785167,0.000000,-296.082377,10214.842000
2480.785496,0.000000,148.041188,9696.697840
2480.785825,229.828649,740.205942,9474.636058
2480.786154,153.219100,1036.288319,8956.491898
2480.786483,153.219100,1184.329507,8660.409521
2480.786812,842.705048,1036.288319,8882.471304
2480.787141,229.828649,-74.020594,8882.471304
2480.787470,-459.657299,-666.185348,9252.574275
2480.787799,-842.705048,-1480.411884,9770.718434
2480.788128,-995.924147,-1776.494261,9622.677246
2480.788457,-689.485948,-1850.514855,9918.759623
2480.788786,0.000000,-1332.370696,9992.780217
2480.789115,459.657299,-740.205942,9696.697840
2480.789445,919.314598,-0.000000,9400.615463
2480.789774,1302.362347,1110.308913,8734.430116
2480.790103,1915.238745,1924.535449,8438.347739
2480.790432,2221.676944,2294.638420,7920.203579
2480.790761,2528.115143,1850.514855,7698.141797
2480.791090,2145.067394,1110.308913,7772.162391
2480.791419,1685.410096,444.123565,8142.265362
2480.791748,1608.800546,-222.061783,8734.430116
2480.792077,995.924147,-1184.329507,8882.471304
2480.792406,306.438199,-1628.453072,9474.636058
2480.792735,0.000000,-1702.473667,9844.739029
2480.793064,-306.438199,-1628.453072,9696.697840
2480.793393,-229.828649,-666.185348,10214.842000
2480.793722,612.876398,-0.000000,9104.533087
2480.794051,766.095498,666.185348,9104.533087
2480.794380,1072.533697,1110.308913,8808.450710
2480.794709,1149.143247,1258.350101,8364.327145
2480.795039,1149.143247,1110.308913,8364.327145
2480.795368,842.705048,592.164754,8512.368333
2480.795697,229.828649,-296.082377,8660.409521
2480.796026,-536.266849,-1036.288319,9474.636058
2480.796355,-1149.143247,-1850.514855,9474.636058
2480.796684,-1762.019645,-1850.514855,9992.780217
2480.797013,-2068.457845,-2072.576638,9992.780217
2480.797342,-2145.067394,-1480.411884,9696.697840
2480.797671,-1378.971896,-592.164754,9844.739029
2480.798000,-1149.143247,-74.020594,9178.553681
2480.798329,229.828649,962.267725,9400.615463
2480.798658,689.485948,740.205942,8882.471304
2480.798987,1455.581446,1184.329507,8142.265362
2480.799316,2145.067394,814.226536,7550.100608
2480.799645,2221.676944,740.205942,7772.162391
2480.799974,1915.238745,-0.000000,8364.327145
2480.800304,1608.800546,-740.205942,8808.450710
2480.800633,842.705048,-518.144159,8956.491898
2480.800962,766.095498,-1480.411884,9622.677246
2480.801291,76.609550,-1998.556043,9548.656652
2480.801620,-689.485948,-518.144159,9696.697840
2480.801949,-229.828649,-888.247130,9770.718434
2480.802278,-842.705048,148.041188,8734.430116
2480.802607,-766.095498,592.164754,9252.574275
2480.802936,-1149.143247,1110.308913,9400.615463
2480.803265,0.000000,444.123565,8438.347739
2480.803594,-383.047749,-0.000000,8290.306550
2480.803923,0.000000,-148.041188,8438.347739
2480.804252,-229.828649,-962.267725,9030.512492
2480.804581,-306.438199,-1036.288319,9326.594869
2480.804910,0.000000,-1184.329507,9474.636058
2480.805240,76.609550,-1258.350101,9622.677246
2480.805569,383.047749,-814.226536,9326.594869
2480.805898,383.047749,370.102971,9178.553681
2480.806227,919.314598,666.185348,9326.594869
2480.806556,1378.971896,1776.494261,8734.430116
2480.806885,2145.067394,1776.494261,8068.244768
2480.807215,1991.848295,1480.411884,7920.203579
2480.807544,1915.238745,814.226536,8438.347739
2480.807873,1455.581446,-0.000000,8364.327145
2480.808202,919.314598,-518.144159,8660.409521
2480.808531,689.485948,-1184.329507,9400.615463
2480.808861,459.657299,-1850.514855,9770.718434
2480.809190,153.219100,-1850.514855,9918.759623
2480.809519,0.000000,-1554.432478,10436.903782
2480.809848,842.705048,-1184.329507,10066.800811
2480.810177,842.705048,740.205942,10436.903782
2480.810506,1838.629195,1110.308913,9770.718434
2480.810836,1915.238745,1776.494261,8808.450710
2480.811165,1838.629195,1924.535449,8586.388927
2480.811494,1838.629195,1776.494261,8364.327145
2480.811823,1685.410096,1036.288319,8364.327145
2480.812152,383.047749,222.061783,8734.430116
2480.812482,-689.485948,-740.205942,9326.594869
2480.812811,-1302.362347,-1702.473667,9992.780217
2480.813140,-2451.505594,-2590.720797,9992.780217
2480.813469,-2145.067394,-2590.720797,10140.821405
2480.813798,-2298.286494,-1702.473667,9696.697840
2480.814128,-1838.629195,-1036.288319,9474.636058
2480.814457,-995.924147,-0.000000,9252.574275
2480.814786,-383.047749,962.267725,9104.533087
2480.815115,1072.533697,1258.350101,8068.244768
2480.815444,1762.019645,1776.494261,7698.141797
2480.815773,2528.115143,1702.473667,7402.059420
2480.816103,2528.115143,1036.288319,7402.059420
2480.816432,2528.115143,814.226536,8216.285956
2480.816761,2374.896044,-0.000000,8660.409521
2480.817090,1378.971896,-666.185348,9030.512492
2480.817419,229.828649,-1554.432478,9178.553681
2480.817749,0.000000,-1480.411884,9622.677246
2480.818078,-766.095498,-1628.453072,9770.718434
2480.818407,-919.314598,-1776.494261,9918.759623
2480.818736,-689.485948,-888.247130,10066.800811
2480.819065,0.000000,-148.041188,9770.718434
2480.819394,-842.705048,444.123565,9104.533087
2480.819724,-536.266849,592.164754,8660.409521
2480.820053,-153.219100,1036.288319,8882.471304
2480.820382,-153.219100,74.020594,8586.388927
2480.820711,0.000000,-222.061783,8956.491898
2480.821040,-306.438199,-740.205942,9474.636058
2480.821370,-153.219100,-1258.350101,9622.677246
2480.821699,-459.657299,-1702.473667,9474.636058
2480.822028,-612.876398,-1332.370696,10066.800811
2480.822357,-383.047749,-740.205942,9548.656652
2480.822686,153.219100,-0.000000,9474.636058
2480.823015,383.047749,888.247130,9104.533087
2480.823345,1225.752797,1110.308913,8586.388927
2480.823674,995.924147,1554.432478,8290.306550
2480.824003,1455.581446,1332.370696,8364.327145
2480.824332,1072.533697,1036.288319,7920.203579
2480.824661,1532.190996,-0.000000,8438.347739
2480.824991,919.314598,-592.164754,8734.430116
2480.825320,459.657299,-666.185348,9400.615463
2480.825649,1149.143247,-1924.535449,9474.636058
2480.825978,459.657299,-888.247130,9326.594869
2480.826307,1302.362347,-1110.308913,9918.759623
2480.826636,1149.143247,-444.123565,9400.615463
2480.826966,1225.752797,518.144159,9104.533087
2480.827295,1455.581446,888.247130,9030.512492
2480.827624,1455.581446,1258.350101,8660.409521
2480.827953,1072.533697,962.267725,8364.327145
2480.828282,1072.533697,666.185348,8216.285956
2480.828612,-153.219100,-74.020594,8586.388927
2480.828941,-842.705048,-888.247130,9178.553681
2480.829270,-1378.971896,-1628.453072,9548.656652
2480.829599,-1762.019645,-2368.659014,9696.697840
2480.829928,-2145.067394,-2516.700203,10066.800811
2480.830258,-1762.019645,-2146.597232,10066.800811
2480.830587,-1532.190996,-1776.494261,9992.780217
2480.830916,-1072.533697,-518.144159,10066.800811
2480.831245,-76.609550,296.082377,9474.636058
2480.831574,919.314598,1406.391290,9104.533087
2480.831903,1991.848295,2220.617826,7550.100608
2480.832233,2451.505594,2146.597232,7846.182985
2480.832562,2987.772442,1554.432478,7624.121203
2480.832891,2604.724693,1406.391290,7328.038826
2480.833220,2757.943793,-222.061783,7994.224174
2480.833549,2451.505594,-1036.288319,8660.409521
2480.833879,1225.752797,-1184.329507,8882.471304
2480.834208,0.000000,-2146.597232,9622.677246
2480.834537,-459.657299,-1924.535449,9844.739029
2480.834866,-995.924147,-1554.432478,10362.883188
2480.835195,-1072.533697,-888.247130,10288.862594
2480.835524,-689.485948,-0.000000,9918.759623
2480.835854,-612.876398,370.102971,9178.553681
2480.836183,0.000000,962.267725,8586.388927
2480.836512,689.485948,1406.391290,8734.430116
2480.836841,919.314598,888.247130,7994.224174
2480.837170,919.314598,666.185348,7920.203579
2480.837500,612.876398,296.082377,8660.409521
2480.837829,229.828649,-962.267725,9030.512492
2480.838158,0.000000,-1702.473667,9178.553681
2480.838487,-536.266849,-1258.350101,9474.636058
2480.838816,-689.485948,-1258.350101,9770.718434
2480.839145,-536.266849,-814.226536,9548.656652
2480.839475,-229.828649,222.061783,9400.615463
2480.839804,0.000000,222.061783,9548.656652
2480.840133,766.095498,814.226536,9252.574275
2480.840462,1149.143247,814.226536,8586.388927
2480.840791,1455.581446,1258.350101,8512.368333
2480.841121,1685.410096,592.164754,8512.368333
2480.841450,1991.848295,-0.000000,8586.388927
2480.841779,1685.410096,-592.164754,8956.491898
2480.842108,1838.629195,-1110.308913,9104.533087
2480.842437,1608.800546,-1036.288319,9622.677246
2480.842766,1455.581446,-1332.370696,9770.718434
2480.843096,1072.533697,-814.226536,9696.697840
2480.843425,995.924147,-0.000000,9400.615463
2480.843754,612.876398,148.041188,9548.656652
2480.844083,689.485948,444.123565,9178.553681
2480.844412,-306.438199,740.205942,9030.512492
2480.844742,-153.219100,518.144159,9178.553681
2480.845071,0.000000,222.061783,8882.471304
2480.845400,-919.314598,-592.164754,8808.450710
2480.845729,-1608.800546,-1184.329507,9252.574275
2480.846058,-1608.800546,-1776.494261,9696.697840
2480.846388,-1685.410096,-1850.514855,9548.656652
2480.846717,-1225.752797,-1702.473667,9548.656652
2480.847046,-459.657299,-1258.350101,9548.656652
2480.847375,-383.047749,-814.226536,9030.512492
2480.847704,306.438199,296.082377,8882.471304
2480.848033,1302.362347,1628.453072,8216.285956
2480.848363,1685.410096,2294.638420,7624.121203
2480.848692,1991.848295,2368.659014,7550.100608
2480.849021,2068.457845,1776.494261,7105.977043
2480.849350,1838.629195,888.247130,7550.100608
2480.849679,1378.971896,-296.082377,8068.244768
2480.850009,536.266849,-1036.288319,8808.450710
2480.850338,0.000000,-2072.576638,9400.615463
2480.850667,-766.095498,-2368.659014,9696.697840
2480.850996,-919.314598,-2220.617826,10288.862594
2480.851325,-919.314598,-1924.535449,10214.842000
2480.851654,-383.047749,-1332.370696,9326.594869
2480.851984,0.000000,-222.061783,9622.677246
2480.852313,842.705048,740.205942,9178.553681
2480.852642,1149.143247,1258.350101,8882.471304
2480.852971,1149.143247,1554.432478,8142.265362
2480.853300,1378.971896,1554.432478,8290.306550
2480.853630,1149.143247,666.185348,8586.388927
2480.853959,76.609550,-296.082377,8068.244768
2480.854288,-153.219100,-740.205942,9474.636058
2480.854617,-766.095498,-1480.411884,9696.697840
2480.854946,-1225.752797,-1702.473667,9992.780217
2480.855275,-1378.971896,-1480.411884,10066.800811
2480.855605,-842.705048,-962.267725,9622.677246
2480.855934,-689.485948,-666.185348,9474.636058
2480.856263,0.000000,518.144159,9992.780217
2480.856592,919.314598,740.205942,8956.491898
2480.856921,1149.143247,1628.453072,8438.347739
2480.857251,1762.019645,1480.411884,8364.327145
2480.857580,2298.286494,1258.350101,7994.224174
2480.857909,2221.676944,888.247130,7920.203579
2480.858238,2528.115143,-0.000000,8216.285956
2480.858567,2298.286494,-814.226536,9030.512492
2480.858896,1225.752797,-888.247130,9030.512492
2480.859226,1225.752797,-962.267725,9030.512492
2480.859555,766.095498,-888.247130,9622.677246
2480.859884,306.438199,-666.185348,9548.656652
2480.860213,612.876398,-0.000000,9474.636058
2480.860542,612.876398,370.102971,9178.553681
2480.860872,1225.752797,1036.288319,8660.409521
2480.861201,0.000000,740.205942,8734.430116
2480.861530,229.828649,518.144159,8734.430116
2480.861859,0.000000,-0.000000,8290.306550
