#time,accel_x,accel_y,accel_z
2606.749748,383.047749,-518.144159,9030.512492
2606.750076,229.828649,-222.061783,9252.574275
2606.750405,536.266849,-296.082377,9178.553681
2606.750734,383.047749,-0.000000,9326.594869
2606.751063,612.876398,-222.061783,9178.553681
2606.751392,766.095498,-222.061783,9178.553681
2606.751721,459.657299,-222.061783,9400.615463
2606.752050,76.609550,-444.123565,9178.553681
2606.752379,536.266849,-148.041188,8956.491898
2606.752708,76.609550,-0.000000,8956.491898
2606.753037,229.828649,-74.020594,9178.553681
2606.753366,76.609550,-0.000000,9326.594869
2606.753695,459.657299,-370.102971,8882.471304
2606.754024,383.047749,-370.102971,8882.471304
2606.754353,383.047749,-148.041188,9104.533087
2606.754681,229.828649,-0.000000,8956.491898
2606.755010,459.657299,-74.020594,8956.491898
2606.755339,612.876398,-0.000000,8734.430116
2606.755668,383.047749,-0.000000,9030.512492
2606.755997,383.047749,-0.000000,8808.450710
2606.756326,229.828649,-74.020594,9178.553681
2606.756655,229.828649,-296.082377,8956.491898
2606.756984,306.438199,-0.000000,8956.491898
2606.757313,459.657299,-74.020594,8808.450710
2606.757642,306.438199,-0.000000,8808.450710
2606.757971,229.828649,-222.061783,9030.512492
2606.758300,383.047749,-296.082377,9178.553681
2606.758629,459.657299,-370.102971,9030.512492
2606.758958,0.000000,-296.082377,9252.574275
2606.759287,459.657299,-222.061783,9104.533087
2606.759615,306.438199,-296.082377,9030.512492
2606.759944,229.828649,-148.041188,9178.553681
2606.760273,153.219100,-148.041188,9326.594869
2606.760602,306.438199,-370.102971,9474.636058
2606.760931,459.657299,-518.144159,9474.636058
2606.761260,459.657299,-592.164754,9178.553681
2606.761589,383.047749,-0.000000,9326.594869
2606.761918,229.828649,-370.102971,9400.615463
2606.762247,306.438199,-296.082377,9178.553681
2606.762576,536.266849,-0.000000,9178.553681
2606.762905,536.266849,222.061783,9474.636058
2606.763234,383.047749,-518.144159,9030.512492
2606.763563,229.828649,-222.061783,9474.636058
2606.763892,536.266849,-222.061783,9104.533087
2606.764220,383.047749,-74.020594,8956.491898
2606.764549,459.657299,-0.000000,8882.471304
2606.764878,306.438199,148.041188,9326.594869
2606.765207,536.266849,-0.000000,9252.574275
2606.765536,459.657299,-74.020594,9252.574275
2606.765865,306.438199,-0.000000,8956.491898
2606.766194,229.828649,-0.000000,9178.553681
2606.766523,153.219100,-222.061783,8882.471304
2606.766852,306.438199,-74.020594,8882.471304
2606.767181,459.657299,-0.000000,9030.512492
2606.767510,459.657299,-74.020594,9178.553681
2606.767839,306.438199,-222.061783,9104.533087
2606.768168,536.266849,-74.020594,9400.615463
2606.768497,229.828649,-148.041188,8956.491898
2606.768826,536.266849,-0.000000,9030.512492
2606.769154,0.000000,148.041188,9030.512492
2606.769483,536.266849,-296.082377,9178.553681
2606.769812,76.609550,-0.000000,8956.491898
2606.770141,229.828649,-370.102971,9326.594869
2606.770470,76.609550,-370.102971,8956.491898
2606.770799,306.438199,-222.061783,9030.512492
2606.771128,306.438199,-370.102971,9178.553681
2606.771457,306.438199,-222.061783,9104.533087
2606.771786,229.828649,-222.061783,9252.574275
2606.772115,536.266849,-296.082377,9326.594869
2606.772444,919.314598,-444.123565,8956.491898
2606.772773,612.876398,-444.123565,9104.533087
2606.773102,536.266849,-148.041188,9252.574275
2606.773431,229.828649,-74.020594,9252.574275
2606.773759,229.828649,-74.020594,9178.553681
2606.774088,383.047749,-370.102971,9252.574275
2606.774417,919.314598,-222.061783,9178.553681
2606.774746,306.438199,-814.226536,9400.615463
2606.775075,229.828649,-222.061783,9104.533087
2606.775404,153.219100,-0.000000,9030.512492
2606.775733,153.219100,-74.020594,8956.491898
2606.776062,383.047749,-0.000000,9030.512492
2606.776391,306.438199,-74.020594,9104.533087
2606.776720,383.047749,-296.082377,8956.491898
2606.777049,689.485948,-518.144159,9104.533087
2606.777378,459.657299,-296.082377,8956.491898
2606.777707,153.219100,-148.041188,8956.491898
2606.778036,229.828649,-0.000000,8956.491898
2606.778364,306.438199,-74.020594,8956.491898
2606.778693,76.609550,370.102971,9326.594869
2606.779022,306.438199,-74.020594,9030.512492
2606.779351,536.266849,-148.041188,9178.553681
2606.779680,842.705048,-444.123565,8956.491898
2606.780009,459.657299,-0.000000,8956.491898
2606.780338,306.438199,-74.020594,9030.512492
2606.780667,306.438199,-74.020594,9104.533087
2606.780996,459.657299,-296.082377,9030.512492
2606.781325,383.047749,-814.226536,8882.471304
2606.781654,536.266849,-592.164754,9252.574275
2606.781983,153.219100,-222.061783,9178.553681
2606.782312,306.438199,-74.020594,9104.533087
2606.782641,459.657299,-444.123565,9104.533087
2606.782970,76.609550,-370.102971,9178.553681
2606.783298,76.609550,-74.020594,9178.553681
2606.783627,306.438199,-148.041188,9326.594869
2606.783956,383.047749,-148.041188,9178.553681
2606.784285,383.047749,-370.102971,9252.574275
2606.784614,-306.438199,-148.041188,9400.615463
2606.784943,229.828649,-148.041188,9474.636058
2606.785272,306.438199,-296.082377,9104.533087
2606.785601,229.828649,-74.020594,8882.471304
2606.785930,459.657299,-0.000000,9178.553681
2606.786259,383.047749,-0.000000,8956.491898
2606.786588,612.876398,-814.226536,9548.656652
2606.786917,1225.752797,-1110.308913,9104.533087
2606.787246,1455.581446,-518.144159,9400.615463
2606.787575,1455.581446,-666.185348,9326.594869
2606.787903,2145.067394,-74.020594,8660.409521
2606.788232,2987.772442,222.061783,8734.430116
2606.788561,3524.039291,-74.020594,8882.471304
2606.788890,4213.525239,-0.000000,8660.409521
2606.789219,3370.820191,222.061783,8512.368333
2606.789548,2528.115143,814.226536,8586.388927
2606.789877,2604.724693,-74.020594,8956.491898
2606.790206,3294.210641,-296.082377,9030.512492
2606.790535,2068.457845,-666.185348,8808.450710
2606.790864,1685.410096,-1036.288319,9918.759623
2606.791193,2221.676944,-2516.700203,9474.636058
2606.791522,3064.381992,-592.164754,9474.636058
2606.791851,2221.676944,-1258.350101,9474.636058
2606.792180,3294.210641,-1406.391290,9474.636058
2606.792509,3294.210641,-0.000000,9400.615463
2606.792837,4979.620737,814.226536,8586.388927
2606.793166,4979.620737,888.247130,7476.080014
2606.793495,4366.744339,1258.350101,9400.615463
2606.793824,5592.497135,888.247130,8512.368333
2606.794153,4213.525239,888.247130,7624.121203
2606.794482,3753.867940,444.123565,9178.553681
2606.794811,3140.991542,-0.000000,8364.327145
2606.795140,2451.505594,222.061783,9474.636058
2606.795469,1072.533697,-1110.308913,9622.677246
2606.795798,1455.581446,-814.226536,9992.780217
2606.796127,1072.533697,-1480.411884,10214.842000
2606.796456,536.266849,-962.267725,9844.739029
2606.796785,1302.362347,-592.164754,9918.759623
2606.797114,2451.505594,-0.000000,9696.697840
2606.797442,2451.505594,-0.000000,8142.265362
2606.797771,4136.915689,1184.329507,9918.759623
2606.798100,4366.744339,1332.370696,8142.265362
2606.798429,4749.792088,1184.329507,8142.265362
2606.798758,4826.401637,962.267725,8734.430116
2606.799087,4213.525239,296.082377,7846.182985
2606.799416,3753.867940,-0.000000,8734.430116
2606.799745,3064.381992,-1110.308913,9548.656652
2606.800074,2528.115143,-962.267725,9992.780217
2606.800403,2298.286494,-1998.556043,10288.862594
2606.800732,2221.676944,-1850.514855,10066.800811
2606.801061,1762.019645,-1628.453072,10140.821405
2606.801390,2451.505594,-444.123565,9696.697840
2606.801719,2987.772442,74.020594,9030.512492
2606.802048,3830.477490,1036.288319,8290.306550
2606.802376,4060.306139,1776.494261,7994.224174
2606.802705,4903.011187,2960.823768,7846.182985
2606.803034,4443.353888,2368.659014,7550.100608
2606.803363,4060.306139,1850.514855,8068.244768
2606.803692,3830.477490,1332.370696,7624.121203
2606.804021,3294.210641,-0.000000,8364.327145
2606.804350,2681.334243,-1110.308913,9770.718434
2606.804679,2221.676944,-2442.679609,9992.780217
2606.805008,1915.238745,-2886.803174,10732.986159
2606.805337,1225.752797,-3330.926739,11177.109724
2606.805666,3064.381992,-2960.823768,10807.006753
2606.805995,3830.477490,-1110.308913,10436.903782
2606.806324,4903.011187,296.082377,9696.697840
2606.806653,5515.887586,1258.350101,8882.471304
2606.806981,5822.325785,2442.679609,8438.347739
2606.807310,4903.011187,2442.679609,8068.244768
2606.807639,4749.792088,3182.885551,7031.956449
2606.807968,4366.744339,2960.823768,6587.832884
2606.808297,3907.087040,1776.494261,6513.812290
2606.808626,2911.162892,370.102971,7994.224174
2606.808955,919.314598,-2664.741391,9696.697840
2606.809284,-536.266849,-3701.029710,10436.903782
2606.809613,-842.705048,-4663.297435,12213.398043
2606.809942,-536.266849,-4515.256246,11251.130318
2606.810271,-153.219100,-1998.556043,10288.862594
2606.810600,766.095498,-1184.329507,10807.006753
2606.810929,1455.581446,518.144159,9992.780217
2606.811258,4749.792088,1258.350101,10066.800811
2606.811586,6818.249932,1998.556043,8364.327145
2606.811915,7048.078582,1924.535449,7994.224174
2606.812244,4749.792088,1184.329507,7698.141797
2606.812573,5822.325785,1776.494261,7105.977043
2606.812902,6052.154434,2738.761985,6883.915261
2606.813231,5132.839837,1776.494261,5995.668130
2606.813560,4826.401637,2590.720797,6809.894666
2606.813889,4826.401637,2220.617826,6143.709319
2606.814218,3907.087040,-222.061783,6809.894666
2606.814547,1149.143247,-3997.112087,9770.718434
2606.814876,0.000000,-7476.080014,12657.521608
2606.815205,-1762.019645,-3256.906145,11769.274478
2606.815534,-1225.752797,-6661.853478,14359.995275
2606.815863,-1991.848295,-2812.782580,11103.089130
2606.816192,1072.533697,296.082377,12583.501014
2606.816520,3370.820191,666.185348,11769.274478
2606.816849,5362.668486,2146.597232,9474.636058
2606.817178,7967.393179,1554.432478,9326.594869
2606.817507,7737.564530,2294.638420,8586.388927
2606.817836,7890.783629,4589.276840,5625.565159
2606.818165,8044.002729,4145.153275,5403.503377
2606.818494,7814.174080,592.164754,6365.771101
2606.818823,7354.516781,2664.741391,5625.565159
2606.819152,6052.154434,592.164754,7179.997637
2606.819481,3753.867940,1406.391290,5847.626942
2606.819810,3983.696590,370.102971,6883.915261
2606.820139,459.657299,-3552.988522,11177.109724
2606.820468,-2298.286494,-6069.688724,12657.521608
2606.820797,-2451.505594,-0.000000,12065.356855
2606.821125,-1302.362347,-7772.162391,12953.603985
2606.821454,-1302.362347,-962.267725,10066.800811
2606.821783,919.314598,1406.391290,13027.624579
2606.822112,842.705048,592.164754,9622.677246
2606.822441,-919.314598,2072.576638,11473.192101
2606.822770,5286.058936,-888.247130,8734.430116
2606.823099,8044.002729,3330.926739,4811.338623
2606.823428,6588.421283,2738.761985,7105.977043
2606.823757,4443.353888,2294.638420,4367.215058
2606.824086,4213.525239,888.247130,6883.915261
2606.824415,4060.306139,1332.370696,7105.977043
2606.824744,1915.238745,-0.000000,5773.606348
2606.825073,-1838.629195,-1554.432478,11103.089130
2606.825402,-3064.381992,-3997.112087,11695.253884
2606.825731,-2221.676944,-2886.803174,11251.130318
2606.826059,-2911.162892,-1628.453072,9252.574275
2606.826388,-2451.505594,-1554.432478,10658.965565
2606.826717,-3217.601092,-1480.411884,11695.253884
2606.827046,-1762.019645,-666.185348,12435.459826
2606.827375,-459.657299,-370.102971,9400.615463
2606.827704,0.000000,-0.000000,8438.347739
2606.828033,-1455.581446,888.247130,11177.109724
2606.828362,766.095498,-0.000000,10066.800811
2606.828691,-153.219100,1628.453072,5329.482782
2606.829020,3294.210641,296.082377,7846.182985
2606.829349,1838.629195,1406.391290,5107.421000
2606.829678,1762.019645,222.061783,8142.265362
2606.830007,-459.657299,-148.041188,7328.038826
2606.830336,0.000000,-1184.329507,8808.450710
2606.830664,-612.876398,-2516.700203,11917.315666
2606.830993,-1915.238745,-1258.350101,9400.615463
2606.831322,-2221.676944,-2516.700203,10807.006753
2606.831651,-1532.190996,-0.000000,10658.965565
2606.831980,919.314598,1036.288319,9696.697840
2606.832309,995.924147,1480.411884,9178.553681
2606.832638,1838.629195,888.247130,8216.285956
2606.832967,2374.896044,1258.350101,7994.224174
2606.833296,2451.505594,888.247130,8512.368333
2606.833625,1838.629195,2738.761985,7624.121203
2606.833954,1455.581446,666.185348,6809.894666
2606.834282,919.314598,-1184.329507,8512.368333
2606.834611,-306.438199,-2220.617826,9178.553681
2606.834940,-1532.190996,-3256.906145,9474.636058
2606.835269,-1991.848295,-3627.009116,10288.862594
2606.835598,-919.314598,-2146.597232,9770.718434
2606.835927,-1072.533697,-296.082377,10140.821405
2606.836256,-1225.752797,-0.000000,10214.842000
2606.836585,-766.095498,222.061783,10066.800811
2606.836914,0.000000,518.144159,10436.903782
2606.837243,1072.533697,666.185348,10732.986159
2606.837571,2298.286494,1776.494261,8142.265362
2606.837900,3600.648841,1406.391290,7994.224174
2606.838229,4060.306139,370.102971,7994.224174
2606.838558,3677.258390,-0.000000,7624.121203
2606.838887,2528.115143,222.061783,8290.306550
2606.839216,1991.848295,296.082377,7994.224174
2606.839545,1455.581446,-444.123565,8512.368333
2606.839874,0.000000,-666.185348,8808.450710
2606.840203,-766.095498,-2368.659014,9992.780217
2606.840531,-1455.581446,-2812.782580,11473.192101
2606.840860,-1225.752797,-814.226536,10362.883188
2606.841189,-153.219100,-518.144159,11029.068536
2606.841518,0.000000,888.247130,9400.615463
2606.841847,383.047749,1406.391290,10288.862594
2606.842176,1991.848295,-74.020594,10066.800811
2606.842505,2374.896044,1184.329507,7105.977043
2606.842834,3677.258390,1554.432478,7624.121203
2606.843163,2911.162892,2442.679609,6513.812290
2606.843491,2604.724693,2072.576638,7550.100608
2606.843820,995.924147,222.061783,7846.182985
2606.844149,76.609550,-1258.350101,7698.141797
2606.844478,-1532.190996,-2368.659014,9474.636058
2606.844807,-1302.362347,-1628.453072,9844.739029
2606.845136,-919.314598,-1036.288319,8438.347739
2606.845465,-383.047749,-962.267725,9548.656652
2606.845794,-995.924147,-592.164754,8734.430116
2606.846123,-995.924147,-1036.288319,9992.780217
2606.846452,-1915.238745,-592.164754,10066.800811
2606.846780,-1838.629195,-74.020594,10362.883188
2606.847109,-766.095498,444.123565,9918.759623
2606.847438,-995.924147,-222.061783,8734.430116
2606.847767,-1455.581446,518.144159,9918.759623
2606.848096,-689.485948,-740.205942,9474.636058
2606.848425,-842.705048,-296.082377,8142.265362
2606.848754,-995.924147,370.102971,8364.327145
2606.849083,-383.047749,-444.123565,7846.182985
2606.849412,-153.219100,-1110.308913,8808.450710
2606.849740,-229.828649,-2220.617826,9474.636058
2606.850069,-689.485948,-1184.329507,8660.409521
2606.850398,-1072.533697,-1258.350101,9622.677246
2606.850727,-536.266849,296.082377,9104.533087
2606.851056,-536.266849,592.164754,8956.491898
2606.851385,-306.438199,592.164754,9474.636058
2606.851714,-689.485948,-296.082377,9474.636058
2606.852043,-612.876398,370.102971,9548.656652
2606.852372,0.000000,444.123565,9474.636058
2606.852700,0.000000,888.247130,8882.471304
2606.853029,153.219100,148.041188,8956.491898
2606.853358,383.047749,-888.247130,9918.759623
2606.853687,536.266849,-1776.494261,9178.553681
2606.854016,1149.143247,-1924.535449,8586.388927
2606.854345,1532.190996,-888.247130,8290.306550
2606.854674,1915.238745,592.164754,7846.182985
2606.855003,2068.457845,814.226536,8290.306550
2606.855332,1762.019645,-0.000000,8512.368333
2606.855661,1762.019645,-74.020594,9104.533087
2606.855989,1532.190996,-0.000000,8808.450710
2606.856318,1608.800546,740.205942,9326.594869
2606.856647,995.924147,518.144159,9030.512492
2606.856976,1532.190996,444.123565,8956.491898
2606.857305,1838.629195,-444.123565,9474.636058
2606.857634,1608.800546,-518.144159,9178.553681
2606.857963,1378.971896,-0.000000,9178.553681
2606.858292,1378.971896,-0.000000,8956.491898
2606.858621,1762.019645,-0.000000,8216.285956
2606.858949,1072.533697,-0.000000,8808.450710
2606.859278,919.314598,-592.164754,8882.471304
2606.859607,536.266849,-444.123565,9030.512492
2606.859936,229.828649,-296.082377,9400.615463
2606.860265,842.705048,-888.247130,9400.615463
2606.860594,306.438199,-222.061783,8882.471304
2606.860923,919.314598,-1184.329507,10214.842000
2606.861252,536.266849,-888.247130,9844.739029
2606.861581,689.485948,-592.164754,9474.636058
2606.861909,919.314598,444.123565,8956.491898
2606.862238,995.924147,1480.411884,8808.450710
2606.862567,229.828649,592.164754,8808.450710
2606.862896,0.000000,148.041188,9400.615463
2606.863225,-153.219100,-296.082377,9326.594869
2606.863554,-459.657299,-666.185348,9252.574275
2606.863883,-689.485948,-296.082377,8512.368333
2606.864212,-536.266849,-148.041188,8586.388927
2606.864541,-536.266849,-518.144159,8956.491898
2606.864870,-612.876398,-962.267725,8512.368333
2606.865198,-1072.533697,-1850.514855,9696.697840
2606.865527,-842.705048,-370.102971,9400.615463
2606.865856,-995.924147,-0.000000,9326.594869
2606.866185,-1225.752797,666.185348,8660.409521
2606.866514,-689.485948,370.102971,8734.430116
2606.866843,-766.095498,-0.000000,8808.450710
2606.867172,-1225.752797,-296.082377,9104.533087
2606.867501,-766.095498,-0.000000,9178.553681
2606.867830,-766.095498,-296.082377,8882.471304
2606.868158,-229.828649,-148.041188,8142.265362
2606.868487,-612.876398,-1702.473667,9178.553681
2606.868816,-612.876398,-1480.411884,8956.491898
2606.869145,-995.924147,-1406.391290,8882.471304
2606.869474,-536.266849,-740.205942,9252.574275
2606.869803,-766.095498,-518.144159,8808.450710
2606.870132,-536.266849,-148.041188,8512.368333
2606.870461,0.000000,-148.041188,9696.697840
2606.870790,0.000000,-666.185348,9030.512492
2606.871118,612.876398,148.041188,9918.759623
2606.871447,995.924147,666.185348,9030.512492
2606.871776,1455.581446,1184.329507,8660.409521
2606.872105,1685.410096,-0.000000,8956.491898
2606.872434,1302.362347,-518.144159,9178.553681
2606.872763,2068.457845,-888.247130,9030.512492
2606.873092,1378.971896,-0.000000,8956.491898
2606.873421,1455.581446,-0.000000,8586.388927
2606.873750,1225.752797,296.082377,8586.388927
2606.874079,1072.533697,-74.020594,9400.615463
2606.874407,689.485948,-962.267725,9622.677246
2606.874736,1072.533697,-740.205942,10066.800811
2606.875065,229.828649,222.061783,9770.718434
2606.875394,612.876398,296.082377,9400.615463
2606.875723,1225.752797,-0.000000,9474.636058
2606.876052,1455.581446,-592.164754,9622.677246
2606.876381,1685.410096,-1258.350101,9400.615463
2606.876710,1838.629195,-370.102971,8808.450710
2606.877039,3524.039291,444.123565,8660.409521
2606.877367,2451.505594,666.185348,7920.203579
2606.877696,2068.457845,888.247130,8586.388927
2606.878025,1915.238745,-0.000000,8364.327145
2606.878354,1762.019645,-444.123565,8734.430116
2606.878683,919.314598,-74.020594,8882.471304
2606.879012,1455.581446,-74.020594,8364.327145
2606.879341,612.876398,-296.082377,8660.409521
2606.879670,536.266849,-666.185348,9326.594869
2606.879999,229.828649,-962.267725,9622.677246
2606.880327,383.047749,-888.247130,9696.697840
2606.880656,0.000000,-222.061783,9474.636058
2606.880985,306.438199,370.102971,9178.553681
2606.881314,459.657299,222.061783,8808.450710
2606.881643,0.000000,-0.000000,9030.512492
2606.881972,0.000000,-592.164754,9548.656652
2606.882301,-536.266849,-296.082377,9178.553681
2606.882630,0.000000,-0.000000,9178.553681
2606.882959,0.000000,-74.020594,8734.430116
2606.883288,-459.657299,-888.247130,8586.388927
2606.883616,-306.438199,-1332.370696,9252.574275
2606.883945,-306.438199,-1554.432478,8882.471304
2606.884274,-306.438199,-592.164754,9326.594869
2606.884603,-383.047749,-444.123565,9030.512492
2606.884932,-383.047749,370.102971,8438.347739
2606.885261,-536.266849,296.082377,8808.450710
2606.885590,-612.876398,-148.041188,9548.656652
2606.885919,-842.705048,-222.061783,9326.594869
2606.886248,-1072.533697,296.082377,9696.697840
2606.886576,-689.485948,-74.020594,9030.512492
2606.886905,-689.485948,74.020594,8956.491898
2606.887234,-612.876398,-518.144159,9474.636058
2606.887563,-536.266849,-1036.288319,9030.512492
2606.887892,-919.314598,-814.226536,9770.718434
2606.888221,-842.705048,-740.205942,9474.636058
2606.888550,-919.314598,148.041188,8808.450710
2606.888879,0.000000,518.144159,9030.512492
2606.889208,0.000000,-0.000000,8956.491898
2606.889536,0.000000,-592.164754,8734.430116
2606.889865,-383.047749,-0.000000,9252.574275
2606.890194,229.828649,-74.020594,9178.553681
2606.890523,536.266849,-0.000000,8882.471304
2606.890852,842.705048,-370.102971,8808.450710
2606.891181,689.485948,-814.226536,8956.491898
2606.891510,919.314598,-1184.329507,9178.553681
2606.891839,842.705048,-296.082377,9030.512492
2606.892168,1608.800546,666.185348,8438.347739
2606.892497,1608.800546,740.205942,8586.388927
2606.892825,1455.581446,814.226536,9326.594869
2606.893154,1455.581446,-444.123565,9622.677246
2606.893483,1149.143247,-592.164754,8956.491898
2606.893812,1149.143247,-0.000000,9104.533087
2606.894141,1378.971896,370.102971,9104.533087
2606.894470,1225.752797,222.061783,9104.533087
2606.894799,1455.581446,-296.082377,9400.615463
2606.895128,2374.896044,-814.226536,9252.574275
2606.895457,1991.848295,-740.205942,9326.594869
2606.895785,1608.800546,222.061783,9252.574275
2606.896114,1302.362347,1332.370696,8216.285956
2606.896443,1149.143247,888.247130,8882.471304
2606.896772,1225.752797,592.164754,9474.636058
2606.897101,842.705048,222.061783,9770.718434
2606.897430,459.657299,-0.000000,10288.862594
2606.897759,-689.485948,-74.020594,9992.780217
2606.898088,612.876398,296.082377,9548.656652
2606.898417,536.266849,-0.000000,9474.636058
2606.898745,1149.143247,-740.205942,9252.574275
2606.899074,1455.581446,-740.205942,9178.553681
2606.899403,1455.581446,-74.020594,8438.347739
2606.899732,1608.800546,666.185348,7994.224174
2606.900061,1762.019645,740.205942,7846.182985
2606.900390,1915.238745,592.164754,7550.100608
2606.900719,459.657299,296.082377,8290.306550
2606.901048,0.000000,-1406.391290,10288.862594
2606.901377,-766.095498,-0.000000,8512.368333
2606.901705,-1072.533697,-296.082377,8882.471304
2606.902034,-1532.190996,-888.247130,9030.512492
2606.902363,-766.095498,-1110.308913,10066.800811
2606.902692,-1455.581446,-1702.473667,9992.780217
2606.903021,-1608.800546,-1924.535449,9622.677246
2606.903350,-2068.457845,-1036.288319,9400.615463
2606.903679,-1838.629195,-0.000000,8438.347739
2606.904008,-1302.362347,-0.000000,8882.471304
2606.904337,-1532.190996,-666.185348,8808.450710
2606.904666,-1225.752797,-666.185348,8882.471304
2606.904994,-1072.533697,-592.164754,9474.636058
2606.905323,-1149.143247,-444.123565,8438.347739
2606.905652,-842.705048,-74.020594,8290.306550
2606.905981,-383.047749,-444.123565,9178.553681
2606.906310,-766.095498,-1184.329507,9326.594869
2606.906639,-995.924147,-1110.308913,9622.677246
2606.906968,-459.657299,-592.164754,9030.512492
2606.907297,0.000000,-0.000000,9104.533087
2606.907626,0.000000,666.185348,8512.368333
2606.907954,766.095498,740.205942,8068.244768
2606.908283,842.705048,-148.041188,9104.533087
2606.908612,536.266849,-0.000000,8660.409521
2606.908941,1149.143247,-0.000000,8808.450710
2606.909270,919.314598,-0.000000,8882.471304
2606.909599,689.485948,-0.000000,8586.388927
2606.909928,766.095498,-296.082377,8734.430116
2606.910257,612.876398,-1258.350101,9326.594869
2606.910586,842.705048,-962.267725,9252.574275
2606.910914,766.095498,-0.000000,9548.656652
2606.911243,459.657299,370.102971,8882.471304
2606.911572,1608.800546,-0.000000,9400.615463
2606.911901,1149.143247,444.123565,9326.594869
2606.912230,1149.143247,-740.205942,9104.533087
2606.912559,1532.190996,518.144159,9548.656652
2606.912888,1302.362347,1110.308913,8586.388927
2606.913217,1915.238745,1036.288319,8882.471304
2606.913546,2374.896044,-814.226536,9326.594869
2606.913875,2681.334243,-222.061783,9252.574275
2606.914203,1991.848295,-962.267725,9252.574275
2606.914532,1915.238745,-148.041188,9030.512492
2606.914861,2068.457845,222.061783,9104.533087
2606.915190,1685.410096,592.164754,8882.471304
2606.915519,1532.190996,370.102971,9400.615463
2606.915848,1532.190996,-518.144159,9400.615463
2606.916177,919.314598,-0.000000,9548.656652
2606.916506,459.657299,148.041188,9474.636058
2606.916835,1225.752797,-0.000000,9326.594869
2606.917163,306.438199,444.123565,8956.491898
2606.917492,689.485948,-740.205942,9918.759623
2606.917821,306.438199,-1258.350101,9622.677246
2606.918150,0.000000,-740.205942,8808.450710
2606.918479,76.609550,-814.226536,9400.615463
2606.918808,-229.828649,296.082377,8660.409521
2606.919137,0.000000,740.205942,8956.491898
2606.919466,0.000000,222.061783,8660.409521
2606.919795,-306.438199,-0.000000,9326.594869
2606.920123,-1225.752797,-0.000000,9474.636058
2606.920452,-1225.752797,-740.205942,9474.636058
2606.920781,-995.924147,-370.102971,9104.533087
2606.921110,-919.314598,-888.247130,8512.368333
2606.921439,-536.266849,-1332.370696,9252.574275
2606.921768,-689.485948,-1406.391290,8808.450710
2606.922097,-229.828649,-296.082377,8808.450710
2606.922426,459.657299,962.267725,7698.141797
2606.922755,612.876398,592.164754,7179.997637
2606.923084,842.705048,444.123565,8586.388927
2606.923412,383.047749,-0.000000,8808.450710
2606.923741,-383.047749,-222.061783,8734.430116
2606.924070,-766.095498,-444.123565,8364.327145
2606.924399,-612.876398,296.082377,8438.347739
2606.924728,-1072.533697,-222.061783,8882.471304
2606.925057,-995.924147,-1480.411884,9548.656652
2606.925386,-1455.581446,-1998.556043,9548.656652
2606.925715,-1302.362347,-1480.411884,9474.636058
2606.926044,-1225.752797,-74.020594,9474.636058
2606.926372,-766.095498,-74.020594,8734.430116
2606.926701,-536.266849,148.041188,9326.594869
2606.927030,-383.047749,222.061783,8956.491898
2606.927359,153.219100,-74.020594,9548.656652
2606.927688,536.266849,-222.061783,9104.533087
2606.928017,766.095498,444.123565,9030.512492
2606.928346,612.876398,-296.082377,8808.450710
2606.928675,1225.752797,-518.144159,9030.512492
2606.929004,1225.752797,-518.144159,9326.594869
2606.929332,1532.190996,-666.185348,9030.512492
2606.929661,1762.019645,-296.082377,8808.450710
2606.929990,1225.752797,148.041188,8660.409521
2606.930319,1991.848295,666.185348,9030.512492
2606.930648,1455.581446,-148.041188,9104.533087
2606.930977,995.924147,-0.000000,9474.636058
2606.931306,689.485948,-74.020594,9326.594869
2606.931635,995.924147,-0.000000,9474.636058
2606.931964,1608.800546,666.185348,9178.553681
2606.932293,1838.629195,222.061783,8956.491898
2606.932622,1608.800546,-444.123565,9400.615463
2606.932951,1149.143247,-1258.350101,9474.636058
2606.933280,1608.800546,-74.020594,9252.574275
2606.933610,1225.752797,-0.000000,8290.306550
2606.933939,1072.533697,518.144159,8142.265362
2606.934268,766.095498,296.082377,9104.533087
2606.934597,1072.533697,-444.123565,9326.594869
2606.934926,536.266849,-888.247130,9030.512492
2606.935255,459.657299,-444.123565,9770.718434
2606.935584,0.000000,-148.041188,8734.430116
2606.935913,306.438199,-0.000000,8882.471304
2606.936242,536.266849,-888.247130,9326.594869
2606.936571,1225.752797,-1258.350101,9622.677246
2606.936900,995.924147,-1036.288319,9252.574275
2606.937229,1685.410096,-222.061783,8808.450710
2606.937558,1838.629195,888.247130,7402.059420
2606.937888,1762.019645,1184.329507,7994.224174
2606.938217,1532.190996,962.267725,8586.388927
2606.938546,689.485948,-0.000000,8734.430116
2606.938875,0.000000,-370.102971,9326.594869
2606.939204,-766.095498,-222.061783,9400.615463
2606.939533,-1608.800546,-148.041188,9474.636058
2606.939862,-1072.533697,-1110.308913,9622.677246
2606.940191,-1378.971896,-1480.411884,9474.636058
2606.940520,-1302.362347,-1406.391290,9696.697840
2606.940849,-1762.019645,-1110.308913,9844.739029
2606.941178,-1532.190996,-148.041188,9474.636058
2606.941507,-995.924147,370.102971,8734.430116
2606.941836,-1532.190996,444.123565,8660.409521
2606.942165,0.000000,-148.041188,8882.471304
2606.942495,-919.314598,-0.000000,8734.430116
2606.942824,-689.485948,-0.000000,8586.388927
2606.943153,-1149.143247,370.102971,8512.368333
2606.943482,-842.705048,-74.020594,8734.430116
2606.943811,-306.438199,-1110.308913,8882.471304
2606.944140,76.609550,-1258.350101,9104.533087
2606.944469,-536.266849,-1110.308913,9696.697840
2606.944798,-459.657299,-222.061783,9178.553681
2606.945127,76.609550,518.144159,8438.347739
2606.945456,459.657299,962.267725,8364.327145
2606.945785,536.266849,370.102971,8956.491898
2606.946114,612.876398,-0.000000,9622.677246
2606.946443,612.876398,-0.000000,9474.636058
2606.946773,995.924147,-0.000000,8734.430116
2606.947102,459.657299,666.185348,8734.430116
2606.947431,1072.533697,-74.020594,9178.553681
2606.947760,995.924147,-666.185348,9252.574275
2606.948089,536.266849,-1480.411884,9326.594869
2606.948418,0.000000,-888.247130,9474.636058
2606.948747,689.485948,-814.226536,9326.594869
2606.949076,612.876398,814.226536,9030.512492
2606.949405,612.876398,-444.123565,9326.594869
2606.949734,383.047749,-444.123565,9622.677246
2606.950063,536.266849,-888.247130,9548.656652
2606.950392,689.485948,-74.020594,9474.636058
2606.950721,1149.143247,740.205942,9252.574275
2606.951050,229.828649,518.144159,9104.533087
2606.951380,2145.067394,-0.000000,9104.533087
2606.951709,2451.505594,-666.185348,9178.553681
2606.952038,2298.286494,-296.082377,8586.388927
2606.952367,2298.286494,370.102971,8586.388927
2606.952696,2221.676944,888.247130,8290.306550
2606.953025,1685.410096,740.205942,8290.306550
2606.953354,1991.848295,-222.061783,9104.533087
2606.953683,1072.533697,-888.247130,9030.512492
2606.954012,383.047749,-296.082377,9400.615463
2606.954341,383.047749,-0.000000,9326.594869
2606.954670,0.000000,222.061783,8438.347739
2606.954999,612.876398,-370.102971,9326.594869
2606.955328,383.047749,-1110.308913,9252.574275
2606.955658,306.438199,-1406.391290,9104.533087
2606.955987,153.219100,-1036.288319,8660.409521
2606.956316,689.485948,-74.020594,8512.368333
2606.956645,229.828649,962.267725,7772.162391
2606.956974,229.828649,370.102971,8660.409521
2606.957303,-229.828649,-0.000000,9030.512492
2606.957632,-612.876398,-222.061783,9104.533087
2606.957961,-612.876398,-0.000000,9326.594869
2606.958290,-612.876398,-0.000000,8808.450710
2606.958619,-536.266849,-222.061783,8956.491898
2606.958948,-1225.752797,-888.247130,9474.636058
2606.959277,-229.828649,-1184.329507,9030.512492
2606.959606,-1455.581446,-1184.329507,9474.636058
2606.959935,-995.924147,-888.247130,9770.718434
2606.960265,-919.314598,666.185348,8586.388927
2606.960594,-1302.362347,-370.102971,8734.430116
2606.960923,-689.485948,-370.102971,9252.574275
2606.961252,-612.876398,-518.144159,9622.677246
2606.961581,-1838.629195,222.061783,9474.636058
2606.961910,-842.705048,518.144159,9030.512492
2606.962239,-536.266849,-74.020594,8808.450710
2606.962568,0.000000,222.061783,9104.533087
2606.962897,0.000000,-1406.391290,9548.656652
2606.963226,-689.485948,-1480.411884,9474.636058
2606.963555,-459.657299,-888.247130,9548.656652
2606.963884,306.438199,-0.000000,8808.450710
2606.964213,-306.438199,740.205942,8364.327145
2606.964543,-229.828649,592.164754,9030.512492
2606.964872,-229.828649,-222.061783,9326.594869
2606.965201,-153.219100,-444.123565,9474.636058
2606.965530,-383.047749,-0.000000,9474.636058
2606.965859,-229.828649,148.041188,9400.615463
2606.966188,0.000000,-148.041188,9178.553681
2606.966517,459.657299,-222.061783,9400.615463
2606.966846,1149.143247,-962.267725,9252.574275
2606.967175,1378.971896,-962.267725,9104.533087
2606.967504,1915.238745,518.144159,8734.430116
2606.967833,2068.457845,296.082377,8512.368333
2606.968162,2068.457845,296.082377,8512.368333
2606.968491,2374.896044,370.102971,9104.533087
2606.968821,2221.676944,-0.000000,9030.512492
2606.969150,1762.019645,148.041188,9178.553681
2606.969479,1762.019645,740.205942,8956.491898
2606.969808,1608.800546,814.226536,8364.327145
2606.970137,1991.848295,222.061783,9030.512492
2606.970466,1685.410096,-814.226536,9696.697840
2606.970795,995.924147,-1036.288319,9844.739029
2606.971124,1072.533697,-962.267725,9622.677246
2606.971453,995.924147,-222.061783,8512.368333
2606.971782,689.485948,-0.000000,8660.409521
2606.972111,76.609550,-0.000000,9474.636058
2606.972440,536.266849,-74.020594,9326.594869
2606.972769,383.047749,-666.185348,9400.615463
2606.973098,153.219100,-296.082377,9474.636058
2606.973428,383.047749,148.041188,8808.450710
2606.973757,459.657299,370.102971,8808.450710
2606.974086,842.705048,-444.123565,9326.594869
2606.974415,919.314598,-1110.308913,9474.636058
2606.974744,1302.362347,-962.267725,9104.533087
2606.975073,1532.190996,-148.041188,8216.285956
2606.975402,1149.143247,-0.000000,8290.306550
2606.975731,536.266849,518.144159,8364.327145
2606.976060,842.705048,-0.000000,8660.409521
2606.976389,306.438199,-666.185348,8512.368333
2606.976718,0.000000,-74.020594,9104.533087
2606.977047,0.000000,-74.020594,8438.347739
2606.977376,-612.876398,-370.102971,8290.306550
2606.977706,-536.266849,-666.185348,8882.471304
2606.978035,-612.876398,-1332.370696,9326.594869
2606.978364,-919.314598,-1480.411884,9474.636058
2606.978693,-1532.190996,-740.205942,9178.553681
2606.979022,-1302.362347,-74.020594,8808.450710
2606.979351,-1302.362347,592.164754,8882.471304
2606.979680,-919.314598,-148.041188,8882.471304
2606.980009,-919.314598,-444.123565,9030.512492
2606.980338,-1455.581446,-740.205942,9326.594869
2606.980667,-1302.362347,-0.000000,9104.533087
2606.980996,-995.924147,148.041188,8956.491898
2606.981325,-766.095498,-444.123565,9030.512492
2606.981654,-612.876398,-1184.329507,9622.677246
2606.981983,-842.705048,-1924.535449,9770.718434
2606.982313,-1072.533697,-1332.370696,10066.800811
2606.982642,-306.438199,-296.082377,9252.574275
2606.982971,76.609550,740.205942,8290.306550
2606.983300,766.095498,740.205942,8734.430116
2606.983629,766.095498,-0.000000,9252.574275
2606.983958,153.219100,-370.102971,9474.636058
2606.984287,842.705048,370.102971,9326.594869
2606.984616,995.924147,518.144159,8882.471304
2606.984945,689.485948,740.205942,8734.430116
2606.985274,766.095498,-0.000000,8956.491898
2606.985603,919.314598,-1110.308913,9622.677246
2606.985932,842.705048,-444.123565,9696.697840
2606.986261,766.095498,-518.144159,9622.677246
2606.986591,689.485948,-0.000000,9252.574275
2606.986920,842.705048,444.123565,9104.533087
2606.987249,766.095498,-148.041188,9474.636058
2606.987578,459.657299,-740.205942,9178.553681
2606.987907,536.266849,-74.020594,9548.656652
2606.988236,995.924147,-0.000000,9178.553681
2606.988565,1225.752797,222.061783,8512.368333
2606.988894,1915.238745,296.082377,9326.594869
2606.989223,2145.067394,-666.185348,9104.533087
2606.989552,2374.896044,-1036.288319,8586.388927
2606.989881,2604.724693,-592.164754,8586.388927
2606.990210,2451.505594,518.144159,7994.224174
2606.990539,1991.848295,444.123565,7846.182985
2606.990868,2757.943793,518.144159,9104.533087
2606.991198,1991.848295,-296.082377,9104.533087
2606.991527,1072.533697,-296.082377,9400.615463
2606.991856,306.438199,370.102971,9474.636058
2606.992185,689.485948,814.226536,8882.471304
2606.992514,689.485948,296.082377,9030.512492
2606.992843,1072.533697,-74.020594,9474.636058
2606.993172,842.705048,-1776.494261,9844.739029
2606.993501,229.828649,-1554.432478,9844.739029
2606.993830,459.657299,-370.102971,9326.594869
2606.994159,689.485948,370.102971,8660.409521
2606.994488,536.266849,962.267725,8290.306550
2606.994817,766.095498,740.205942,8734.430116
2606.995146,383.047749,-444.123565,9400.615463
2606.995476,-153.219100,-444.123565,9548.656652
2606.995805,-383.047749,-222.061783,9104.533087
2606.996134,-689.485948,-0.000000,9030.512492
2606.996463,-1072.533697,-370.102971,9252.574275
2606.996792,-536.266849,-1036.288319,9474.636058
2606.997121,-612.876398,-666.185348,9326.594869
2606.997450,-919.314598,-1110.308913,9474.636058
2606.997779,-766.095498,-0.000000,8808.450710
2606.998108,-689.485948,296.082377,8586.388927
2606.998437,-842.705048,296.082377,8808.450710
2606.998766,-1072.533697,-222.061783,9400.615463
2606.999095,-995.924147,-962.267725,9252.574275
2606.999424,-1072.533697,-0.000000,9400.615463
2606.999753,-536.266849,814.226536,9030.512492
2607.000083,-1072.533697,518.144159,7994.224174
2607.000412,-459.657299,-888.247130,9770.718434
2607.000741,-306.438199,-592.164754,9326.594869
2607.001070,-1302.362347,-962.267725,9400.615463
2607.001399,-1608.800546,-740.205942,9252.574275
2607.001728,-383.047749,518.144159,7994.224174
2607.002057,-383.047749,1258.350101,8586.388927
2607.002386,-459.657299,-222.061783,9030.512492
2607.002715,-536.266849,-814.226536,9178.553681
2607.003044,-995.924147,-888.247130,9400.615463
2607.003373,-995.924147,-148.041188,9178.553681
2607.003702,0.000000,-370.102971,9400.615463
2607.004031,0.000000,-518.144159,9474.636058
2607.004361,383.047749,-888.247130,9548.656652
2607.004690,766.095498,-1258.350101,9474.636058
2607.005019,919.314598,-518.144159,9178.553681
2607.005348,1455.581446,-74.020594,8512.368333
2607.005677,2145.067394,888.247130,8142.265362
2607.006006,1915.238745,888.247130,9252.574275
2607.006335,1455.581446,-0.000000,9474.636058
2607.006664,1455.581446,-74.020594,9326.594869
2607.006993,1225.752797,370.102971,8882.471304
2607.007322,1455.581446,592.164754,8512.368333
2607.007651,1455.581446,-0.000000,8956.491898
2607.007980,1455.581446,-962.267725,8882.471304
2607.008309,1991.848295,-1480.411884,9548.656652
2607.008638,1455.581446,-1554.432478,9474.636058
2607.008968,1532.190996,-222.061783,9178.553681
2607.009297,1915.238745,518.144159,8290.306550
2607.009626,1685.410096,740.205942,8438.347739
2607.009955,1455.581446,-74.020594,8364.327145
2607.010284,1455.581446,-444.123565,9252.574275
2607.010613,536.266849,-148.041188,9696.697840
2607.010942,995.924147,222.061783,8882.471304
2607.011271,612.876398,-0.000000,8734.430116
2607.011600,766.095498,-74.020594,8882.471304
2607.011929,995.924147,-814.226536,9474.636058
2607.012258,229.828649,-1258.350101,9252.574275
2607.012587,1225.752797,-740.205942,8586.388927
2607.012916,612.876398,592.164754,7328.038826
2607.013246,995.924147,-222.061783,8734.430116
2607.013575,919.314598,962.267725,7772.162391
2607.013904,383.047749,-592.164754,8808.450710
2607.014233,306.438199,-666.185348,9178.553681
2607.014562,-153.219100,296.082377,9992.780217
2607.014891,-689.485948,-148.041188,9326.594869
2607.015220,-536.266849,296.082377,9030.512492
2607.015549,-536.266849,-1110.308913,9696.697840
2607.015878,-459.657299,-1036.288319,9178.553681
2607.016207,-153.219100,-1036.288319,9474.636058
2607.016536,-1072.533697,-444.123565,9030.512492
2607.016865,-842.705048,740.205942,8142.265362
2607.017194,-766.095498,740.205942,9696.697840
2607.017524,-1302.362347,-592.164754,9548.656652
2607.017853,-1762.019645,-518.144159,8586.388927
2607.018182,-1685.410096,-740.205942,9696.697840
2607.018511,-1685.410096,-222.061783,8808.450710
2607.018840,-1455.581446,222.061783,8808.450710
2607.019169,-1302.362347,-740.205942,9474.636058
2607.019498,-1532.190996,-1628.453072,10214.842000
2607.019827,-1072.533697,-1702.473667,9178.553681
2607.020156,-459.657299,-296.082377,8882.471304
2607.020485,0.000000,518.144159,8216.285956
2607.020814,229.828649,1110.308913,8364.327145
2607.021143,383.047749,740.205942,8808.450710
2607.021472,689.485948,-148.041188,8660.409521
2607.021801,-612.876398,-0.000000,8882.471304
2607.022131,689.485948,370.102971,8808.450710
2607.022460,459.657299,814.226536,8364.327145
2607.022789,383.047749,518.144159,8586.388927
2607.023118,766.095498,-518.144159,8956.491898
2607.023447,306.438199,-1258.350101,9326.594869
2607.023776,229.828649,-888.247130,9696.697840
2607.024105,-306.438199,-0.000000,9326.594869
2607.024434,919.314598,-0.000000,8512.368333
2607.024763,153.219100,296.082377,8956.491898
2607.025092,842.705048,-0.000000,8660.409521
2607.025421,0.000000,-518.144159,9474.636058
2607.025750,459.657299,-370.102971,9844.739029
2607.026079,612.876398,518.144159,9252.574275
2607.026409,1378.971896,-0.000000,9252.574275
2607.026738,1149.143247,-0.000000,10140.821405
2607.027067,1838.629195,-296.082377,9548.656652
2607.027396,2145.067394,-518.144159,9104.533087
2607.027725,2757.943793,666.185348,8660.409521
2607.028054,2451.505594,444.123565,8438.347739
2607.028383,2604.724693,1554.432478,7920.203579
2607.028712,2681.334243,444.123565,9474.636058
2607.029041,1838.629195,-370.102971,9178.553681
2607.029370,689.485948,-814.226536,9400.615463
2607.029699,383.047749,-74.020594,9696.697840
2607.030028,0.000000,-74.020594,8956.491898
2607.030357,459.657299,-74.020594,9400.615463
2607.030686,-76.609550,-1480.411884,9844.739029
2607.031016,842.705048,-1924.535449,9474.636058
2607.031345,612.876398,-444.123565,9400.615463
2607.031674,842.705048,-74.020594,8956.491898
2607.032003,536.266849,1036.288319,8438.347739
2607.032332,612.876398,1110.308913,8290.306550
2607.032661,612.876398,518.144159,8586.388927
2607.032990,229.828649,-444.123565,8734.430116
2607.033319,153.219100,-148.041188,9178.553681
2607.033648,229.828649,-0.000000,8808.450710
2607.033977,0.000000,370.102971,8808.450710
2607.034307,0.000000,-444.123565,8956.491898
2607.034636,-229.828649,-962.267725,9104.533087
2607.034965,-612.876398,-1332.370696,8956.491898
2607.035294,0.000000,-666.185348,8586.388927
2607.035623,-383.047749,-0.000000,8290.306550
2607.035952,-612.876398,-0.000000,8734.430116
2607.036281,-689.485948,-0.000000,8956.491898
2607.036611,-995.924147,-888.247130,9474.636058
2607.036940,-766.095498,-740.205942,9474.636058
2607.037269,-995.924147,-222.061783,9104.533087
2607.037598,-766.095498,-222.061783,8956.491898
2607.037927,-1072.533697,-370.102971,9030.512492
2607.038256,-689.485948,-1110.308913,9992.780217
2607.038585,-995.924147,-1924.535449,9696.697840
2607.038914,0.000000,-1332.370696,9548.656652
2607.039244,-306.438199,-148.041188,9252.574275
2607.039573,-306.438199,962.267725,8734.430116
2607.039902,-153.219100,518.144159,8808.450710
2607.040231,-229.828649,-0.000000,9104.533087
2607.040560,-306.438199,-444.123565,8882.471304
2607.040889,0.000000,-592.164754,9030.512492
2607.041218,0.000000,222.061783,9030.512492
2607.041548,153.219100,-148.041188,8660.409521
2607.041877,306.438199,-518.144159,9326.594869
2607.042206,229.828649,-1184.329507,9548.656652
2607.042535,536.266849,-962.267725,9474.636058
2607.042864,766.095498,-296.082377,9474.636058
2607.043193,1302.362347,518.144159,8586.388927
2607.043522,1685.410096,1258.350101,8586.388927
2607.043852,2221.676944,518.144159,8956.491898
2607.044181,1762.019645,518.144159,9326.594869
2607.044510,1608.800546,296.082377,9178.553681
2607.044839,1608.800546,1480.411884,8660.409521
2607.045168,1225.752797,1406.391290,8068.244768
2607.045497,1915.238745,-0.000000,8882.471304
2607.045826,1532.190996,-1110.308913,9178.553681
2607.046156,919.314598,-1036.288319,9696.697840
2607.046485,766.095498,-1480.411884,9400.615463
2607.046814,536.266849,-370.102971,9474.636058
2607.047143,612.876398,148.041188,8956.491898
2607.047472,229.828649,666.185348,9104.533087
2607.047801,995.924147,-666.185348,9918.759623
2607.048130,1072.533697,-1036.288319,9326.594869
2607.048459,842.705048,-0.000000,9400.615463
2607.048789,536.266849,74.020594,9030.512492
2607.049118,766.095498,370.102971,8660.409521
2607.049447,1532.190996,-222.061783,9178.553681
2607.049776,1915.238745,-592.164754,9030.512492
2607.050105,1455.581446,-814.226536,8882.471304
2607.050434,1225.752797,-370.102971,9252.574275
2607.050763,919.314598,370.102971,8956.491898
2607.051093,766.095498,666.185348,8660.409521
2607.051422,0.000000,296.082377,9030.512492
2607.051751,0.000000,-222.061783,9400.615463
2607.052080,-689.485948,-444.123565,9474.636058
2607.052409,-995.924147,-0.000000,9918.759623
2607.052738,-383.047749,-0.000000,8882.471304
2607.053067,-383.047749,-592.164754,8882.471304
2607.053397,-612.876398,-814.226536,9400.615463
2607.053726,-229.828649,-1628.453072,9474.636058
2607.054055,-995.924147,-814.226536,8956.491898
2607.054384,-306.438199,-0.000000,8512.368333
2607.054713,-306.438199,370.102971,7920.203579
2607.055042,-842.705048,370.102971,8290.306550
2607.055371,-153.219100,-74.020594,9104.533087
2607.055701,-995.924147,-666.185348,9178.553681
2607.056030,-1225.752797,-148.041188,9326.594869
2607.056359,-766.095498,444.123565,8882.471304
2607.056688,-766.095498,814.226536,8364.327145
2607.057017,-153.219100,-962.267725,9770.718434
2607.057346,-1225.752797,-962.267725,9474.636058
2607.057675,0.000000,-1406.391290,9178.553681
2607.058004,0.000000,-222.061783,8734.430116
2607.058334,229.828649,296.082377,8142.265362
2607.058663,536.266849,370.102971,8290.306550
2607.058992,0.000000,-0.000000,8734.430116
2607.059321,-459.657299,-1258.350101,9474.636058
2607.059650,0.000000,-592.164754,9400.615463
2607.059979,153.219100,-222.061783,9104.533087
2607.060308,229.828649,296.082377,8734.430116
2607.060638,-76.609550,-444.123565,9474.636058
2607.060967,76.609550,-962.267725,9992.780217
2607.061296,689.485948,-592.164754,9474.636058
2607.061625,689.485948,-0.000000,9474.636058
2607.061954,1225.752797,444.123565,8660.409521
2607.062283,1149.143247,1776.494261,9178.553681
2607.062612,1072.533697,518.144159,9178.553681
2607.062942,842.705048,-74.020594,9400.615463
2607.063271,842.705048,-666.185348,9622.677246
2607.063600,459.657299,-148.041188,9474.636058
2607.063929,1072.533697,-0.000000,8956.491898
2607.064258,689.485948,296.082377,9400.615463
2607.064587,1762.019645,-518.144159,9992.780217
2607.064916,1762.019645,-1554.432478,9252.574275
2607.065246,1149.143247,-740.205942,9770.718434
2607.065575,2298.286494,370.102971,9400.615463
2607.065904,1915.238745,888.247130,7328.038826
2607.066233,1455.581446,1332.370696,7550.100608
2607.066562,2451.505594,518.144159,8808.450710
2607.066891,2068.457845,-148.041188,9474.636058
2607.067220,995.924147,-0.000000,9030.512492
2607.067549,689.485948,370.102971,8734.430116
2607.067879,0.000000,-0.000000,8660.409521
2607.068208,229.828649,-740.205942,9030.512492
2607.068537,306.438199,-1554.432478,9400.615463
2607.068866,0.000000,-1776.494261,9104.533087
2607.069195,612.876398,-1702.473667,9400.615463
2607.069524,383.047749,-666.185348,8364.327145
2607.069853,383.047749,592.164754,8068.244768
2607.070183,612.876398,-0.000000,8882.471304
2607.070512,383.047749,-74.020594,8882.471304
2607.070841,0.000000,74.020594,9104.533087
2607.071170,-229.828649,592.164754,8882.471304
2607.071499,459.657299,962.267725,8142.265362
2607.071828,76.609550,296.082377,8586.388927
2607.072157,306.438199,-518.144159,8956.491898
2607.072487,153.219100,-1258.350101,9104.533087
2607.072816,-459.657299,-1110.308913,8956.491898
2607.073145,-306.438199,-222.061783,9178.553681
2607.073474,-383.047749,-74.020594,8364.327145
2607.073803,-842.705048,-0.000000,8660.409521
2607.074132,-1302.362347,-296.082377,9622.677246
2607.074461,-1072.533697,-740.205942,9252.574275
2607.074791,-1378.971896,-0.000000,9474.636058
2607.075120,-612.876398,-0.000000,9474.636058
2607.075449,-459.657299,296.082377,9104.533087
2607.075778,-383.047749,-148.041188,9696.697840
2607.076107,0.000000,-1110.308913,9770.718434
2607.076436,-153.219100,-1036.288319,9474.636058
2607.076765,-229.828649,-222.061783,9178.553681
2607.077094,-612.876398,518.144159,8586.388927
2607.077424,-229.828649,592.164754,8734.430116
2607.077753,0.000000,296.082377,8808.450710
2607.078082,-689.485948,-814.226536,9474.636058
2607.078411,-766.095498,-888.247130,9770.718434
2607.078740,-536.266849,-74.020594,9400.615463
2607.079069,0.000000,148.041188,9030.512492
2607.079398,0.000000,148.041188,9178.553681
2607.079728,459.657299,-888.247130,9474.636058
2607.080057,1225.752797,-518.144159,9400.615463
2607.080386,1225.752797,-592.164754,9178.553681
2607.080715,995.924147,592.164754,8512.368333
2607.081044,1378.971896,666.185348,8512.368333
2607.081373,1991.848295,962.267725,8734.430116
2607.081702,1225.752797,-0.000000,9474.636058
2607.082032,1378.971896,-222.061783,9178.553681
2607.082361,689.485948,-296.082377,9474.636058
2607.082690,766.095498,370.102971,9252.574275
2607.083019,536.266849,296.082377,8808.450710
2607.083348,766.095498,-666.185348,9400.615463
2607.083677,919.314598,-1036.288319,8956.491898
2607.084006,842.705048,-1258.350101,9770.718434
2607.084336,459.657299,-592.164754,9326.594869
2607.084665,995.924147,444.123565,8438.347739
2607.084994,919.314598,666.185348,8142.265362
2607.085323,995.924147,-0.000000,8734.430116
2607.085652,1685.410096,-518.144159,9178.553681
2607.085981,689.485948,-592.164754,9474.636058
2607.086310,383.047749,-0.000000,9178.553681
2607.086639,689.485948,296.082377,8734.430116
2607.086969,919.314598,-0.000000,8956.491898
2607.087298,1149.143247,-814.226536,9178.553681
2607.087627,1455.581446,-888.247130,8808.450710
2607.087956,1225.752797,-740.205942,8660.409521
2607.088285,1378.971896,296.082377,7920.203579
2607.088614,1378.971896,962.267725,7772.162391
2607.088943,689.485948,666.185348,8290.306550
2607.089273,536.266849,-0.000000,8882.471304
2607.089602,0.000000,-444.123565,8808.450710
2607.089931,-1072.533697,-0.000000,9178.553681
2607.090260,-229.828649,-444.123565,9696.697840
2607.090589,-919.314598,-444.123565,8586.388927
2607.090918,-1378.971896,-666.185348,9622.677246
2607.091247,-612.876398,-1998.556043,10214.842000
2607.091577,-1072.533697,-2072.576638,9474.636058
2607.091906,-1072.533697,-222.061783,9178.553681
2607.092235,-689.485948,518.144159,8882.471304
2607.092564,-536.266849,666.185348,8808.450710
2607.092893,-383.047749,-0.000000,8808.450710
2607.093222,229.828649,370.102971,9252.574275
2607.093551,-689.485948,-296.082377,9252.574275
2607.093881,-766.095498,222.061783,9400.615463
2607.094210,-612.876398,370.102971,8734.430116
2607.094539,-689.485948,-370.102971,9474.636058
2607.094868,-1532.190996,-1628.453072,9844.739029
2607.095197,0.000000,-2220.617826,9844.739029
2607.095526,-1149.143247,-1628.453072,9844.739029
2607.095855,-612.876398,-444.123565,9326.594869
2607.096184,0.000000,296.082377,8882.471304
2607.096514,0.000000,592.164754,9030.512492
2607.096843,689.485948,296.082377,9474.636058
2607.097172,612.876398,-518.144159,9104.533087
2607.097501,306.438199,444.123565,9696.697840
2607.097830,842.705048,592.164754,9030.512492
2607.098159,995.924147,1036.288319,8438.347739
2607.098488,1072.533697,-0.000000,8438.347739
2607.098818,1225.752797,-666.185348,9104.533087
2607.099147,842.705048,-592.164754,9178.553681
2607.099476,229.828649,-148.041188,8586.388927
2607.099805,995.924147,592.164754,8660.409521
2607.100134,842.705048,222.061783,8660.409521
2607.100463,229.828649,-148.041188,9992.780217
2607.100792,229.828649,-1036.288319,9474.636058
2607.101122,0.000000,-592.164754,9770.718434
2607.101451,536.266849,-0.000000,9178.553681
2607.101780,1378.971896,740.205942,9252.574275
2607.102109,1838.629195,-0.000000,8808.450710
2607.102438,2681.334243,-444.123565,8882.471304
2607.102767,2911.162892,-222.061783,8808.450710
2607.103096,2681.334243,-222.061783,8512.368333
2607.103426,2911.162892,666.185348,8142.265362
2607.103755,2528.115143,1184.329507,7920.203579
2607.104084,2145.067394,518.144159,8438.347739
2607.104413,2068.457845,-962.267725,8586.388927
2607.104742,1149.143247,-962.267725,9474.636058
2607.105071,612.876398,-666.185348,9770.718434
2607.105400,0.000000,-74.020594,9400.615463
2607.105729,0.000000,-592.164754,9326.594869
2607.106059,-306.438199,-1110.308913,9696.697840
2607.106388,153.219100,-1258.350101,9918.759623
2607.106717,-229.828649,-1406.391290,9474.636058
2607.107046,0.000000,-148.041188,9474.636058
2607.107375,383.047749,740.205942,8290.306550
2607.107704,766.095498,1480.411884,8512.368333
2607.108033,612.876398,518.144159,8734.430116
2607.108363,306.438199,-148.041188,9104.533087
2607.108692,-306.438199,-592.164754,9400.615463
2607.109021,0.000000,-0.000000,8586.388927
2607.109350,-383.047749,518.144159,8808.450710
2607.109679,0.000000,-148.041188,9252.574275
2607.110008,0.000000,-592.164754,9474.636058
2607.110337,76.609550,-1036.288319,9178.553681
2607.110667,-306.438199,-444.123565,9030.512492
2607.110996,153.219100,740.205942,8586.388927
2607.111325,229.828649,1184.329507,8364.327145
2607.111654,0.000000,1258.350101,8660.409521
2607.111983,-383.047749,-0.000000,9252.574275
2607.112312,-766.095498,-592.164754,9474.636058
2607.112641,-1302.362347,-0.000000,9400.615463
2607.112971,-1149.143247,-0.000000,8882.471304
2607.113300,-1532.190996,-222.061783,9326.594869
2607.113629,-689.485948,-814.226536,9844.739029
2607.113958,-536.266849,-1850.514855,10288.862594
2607.114287,-1302.362347,-1924.535449,9400.615463
2607.114616,-1762.019645,-296.082377,9474.636058
2607.114945,-383.047749,-0.000000,9104.533087
2607.115274,-766.095498,592.164754,7920.203579
2607.115604,0.000000,222.061783,8290.306550
2607.115933,0.000000,-518.144159,9844.739029
2607.116262,-306.438199,-888.247130,10066.800811
2607.116591,-229.828649,-370.102971,9770.718434
2607.116920,306.438199,296.082377,8438.347739
2607.117249,306.438199,-296.082377,9326.594869
2607.117578,1072.533697,-814.226536,9400.615463
2607.117908,1072.533697,-814.226536,8882.471304
2607.118237,1685.410096,-740.205942,9326.594869
2607.118566,1302.362347,666.185348,8142.265362
2607.118895,1532.190996,666.185348,8142.265362
2607.119224,1532.190996,148.041188,8956.491898
2607.119553,1378.971896,-148.041188,8956.491898
2607.119882,1072.533697,-296.082377,9622.677246
2607.120212,995.924147,-0.000000,9104.533087
2607.120541,1991.848295,444.123565,9326.594869
2607.120870,1455.581446,74.020594,8512.368333
2607.121199,1915.238745,-296.082377,9400.615463
2607.121528,1685.410096,-1332.370696,9474.636058
2607.121857,1225.752797,-592.164754,9252.574275
2607.122186,1302.362347,-0.000000,8882.471304
2607.122516,1149.143247,370.102971,8216.285956
2607.122845,919.314598,444.123565,8512.368333
2607.123174,995.924147,-296.082377,9548.656652
2607.123503,536.266849,-1184.329507,9326.594869
2607.123832,459.657299,-518.144159,9622.677246
2607.124161,689.485948,-296.082377,9030.512492
2607.124490,995.924147,296.082377,8586.388927
2607.124819,1225.752797,-444.123565,9252.574275
2607.125149,1838.629195,-518.144159,9326.594869
2607.125478,2068.457845,-444.123565,9104.533087
2607.125807,2145.067394,-0.000000,9030.512492
2607.126136,1838.629195,740.205942,8068.244768
2607.126465,1455.581446,1184.329507,8290.306550
2607.126794,306.438199,1110.308913,8660.409521
2607.127123,689.485948,-444.123565,9622.677246
2607.127453,-459.657299,-1628.453072,9400.615463
2607.127782,-1302.362347,-296.082377,10066.800811
2607.128111,-842.705048,-962.267725,9992.780217
2607.128440,-1532.190996,-518.144159,9178.553681
2607.128769,-995.924147,-666.185348,9400.615463
2607.129098,-689.485948,-1702.473667,9622.677246
2607.129427,-1225.752797,-1554.432478,9844.739029
2607.129757,-919.314598,-0.000000,9696.697840
2607.130086,0.000000,1184.329507,8438.347739
2607.130415,-612.876398,1036.288319,8216.285956
2607.130744,0.000000,370.102971,8364.327145
2607.131073,-536.266849,-0.000000,8734.430116
2607.131402,-1072.533697,-518.144159,9400.615463
2607.131731,-1072.533697,370.102971,8290.306550
2607.132060,-1225.752797,-0.000000,8734.430116
2607.132390,-1225.752797,-740.205942,10140.821405
2607.132719,-995.924147,-1406.391290,9326.594869
2607.133048,-1149.143247,-1554.432478,9474.636058
2607.133377,-1455.581446,-1110.308913,9474.636058
2607.133706,-536.266849,296.082377,8808.450710
2607.134035,-306.438199,666.185348,8142.265362
2607.134364,0.000000,666.185348,8808.450710
2607.134693,229.828649,-222.061783,9400.615463
2607.135022,-153.219100,-814.226536,8660.409521
2607.135352,383.047749,370.102971,8956.491898
2607.135681,689.485948,888.247130,8808.450710
2607.136010,306.438199,444.123565,8438.347739
2607.136339,1149.143247,-666.185348,9548.656652
2607.136668,1149.143247,-1036.288319,9400.615463
2607.136997,1072.533697,-592.164754,9178.553681
2607.137326,689.485948,-148.041188,9252.574275
2607.137655,766.095498,740.205942,8438.347739
2607.137984,536.266849,444.123565,9400.615463
2607.138314,536.266849,-0.000000,8882.471304
2607.138643,383.047749,-666.185348,9400.615463
2607.138972,153.219100,-888.247130,10066.800811
2607.139301,612.876398,-0.000000,8956.491898
2607.139630,612.876398,370.102971,9474.636058
2607.139959,842.705048,-370.102971,9696.697840
2607.140288,1455.581446,-666.185348,9474.636058
2607.140617,1608.800546,-814.226536,9400.615463
2607.140946,2298.286494,-370.102971,9178.553681
2607.141275,1991.848295,1110.308913,8364.327145
2607.141605,2757.943793,1110.308913,7994.224174
2607.141934,2681.334243,962.267725,8438.347739
2607.142263,2374.896044,-0.000000,9400.615463
2607.142592,1302.362347,-370.102971,9622.677246
2607.142921,1302.362347,370.102971,9326.594869
2607.143250,1149.143247,222.061783,8512.368333
2607.143579,1225.752797,-0.000000,8734.430116
2607.143908,995.924147,-148.041188,9474.636058
2607.144237,612.876398,-1110.308913,10140.821405
2607.144567,0.000000,-1110.308913,9474.636058
2607.144896,536.266849,-148.041188,8882.471304
2607.145225,76.609550,592.164754,8216.285956
2607.145554,0.000000,888.247130,8882.471304
2607.145883,-76.609550,-444.123565,9770.718434
2607.146212,-306.438199,-0.000000,9918.759623
2607.146541,229.828649,-222.061783,9326.594869
2607.146870,-229.828649,222.061783,8216.285956
2607.147199,0.000000,888.247130,8660.409521
2607.147529,0.000000,-370.102971,8882.471304
2607.147858,536.266849,-666.185348,9104.533087
2607.148187,0.000000,-1110.308913,9104.533087
2607.148516,383.047749,-0.000000,8882.471304
2607.148845,76.609550,666.185348,7698.141797
2607.149174,76.609550,962.267725,8216.285956
2607.149503,0.000000,370.102971,9104.533087
2607.149832,-612.876398,-814.226536,9252.574275
2607.150161,-1149.143247,-888.247130,9474.636058
2607.150491,-1378.971896,-666.185348,9548.656652
2607.150820,-1149.143247,-740.205942,9104.533087
2607.151149,-1532.190996,-814.226536,9400.615463
2607.151478,-919.314598,-1406.391290,9696.697840
2607.151807,-1072.533697,-1628.453072,9474.636058
2607.152136,-1302.362347,-1332.370696,9548.656652
2607.152465,-842.705048,-148.041188,8808.450710
2607.152794,-383.047749,370.102971,8290.306550
2607.153123,-689.485948,888.247130,8882.471304
2607.153452,-536.266849,-370.102971,9030.512492
2607.153782,-766.095498,-444.123565,9474.636058
2607.154111,-995.924147,-0.000000,9474.636058
2607.154440,-229.828649,-0.000000,8882.471304
2607.154769,-306.438199,-0.000000,9030.512492
2607.155098,76.609550,-148.041188,8882.471304
2607.155427,1072.533697,-1628.453072,8882.471304
2607.155756,842.705048,-740.205942,8734.430116
2607.156085,1608.800546,-0.000000,8290.306550
2607.156414,1608.800546,1258.350101,7994.224174
2607.156744,1685.410096,1258.350101,7994.224174
2607.157073,2145.067394,592.164754,8882.471304
2607.157402,1455.581446,222.061783,9252.574275
2607.157731,1762.019645,-148.041188,9548.656652
2607.158060,689.485948,148.041188,9400.615463
2607.158389,1149.143247,296.082377,8956.491898
2607.158718,766.095498,-0.000000,9326.594869
2607.159047,919.314598,-1036.288319,9622.677246
2607.159376,1072.533697,-1480.411884,9474.636058
2607.159706,995.924147,-1332.370696,9104.533087
2607.160035,1532.190996,222.061783,9104.533087
2607.160364,1608.800546,1184.329507,8586.388927
2607.160693,919.314598,1110.308913,9178.553681
2607.161022,766.095498,-0.000000,9474.636058
2607.161351,612.876398,-592.164754,10214.842000
2607.161680,536.266849,-222.061783,9992.780217
2607.162009,766.095498,-296.082377,9622.677246
2607.162338,229.828649,370.102971,9474.636058
2607.162668,1072.533697,-0.000000,9622.677246
2607.162997,1608.800546,-444.123565,9696.697840
2607.163326,1532.190996,-296.082377,8956.491898
2607.163655,1915.238745,-0.000000,8512.368333
2607.163984,1915.238745,740.205942,7920.203579
2607.164313,1608.800546,1184.329507,7624.121203
2607.164642,1302.362347,370.102971,8438.347739
2607.164971,995.924147,-370.102971,9178.553681
2607.165300,459.657299,-814.226536,8882.471304
2607.165629,-76.609550,-148.041188,9252.574275
2607.165959,-153.219100,-0.000000,8290.306550
2607.166288,0.000000,-148.041188,9030.512492
2607.166617,153.219100,-962.267725,9400.615463
2607.166946,-229.828649,-1332.370696,9548.656652
2607.167275,-766.095498,-1406.391290,9474.636058
2607.167604,-995.924147,-0.000000,8438.347739
2607.167933,-536.266849,962.267725,7920.203579
2607.168262,-383.047749,444.123565,8586.388927
2607.168591,-689.485948,-370.102971,8512.368333
2607.168921,-383.047749,-1406.391290,8956.491898
2607.169250,-766.095498,-888.247130,8882.471304
2607.169579,-1302.362347,-814.226536,8142.265362
2607.169908,-995.924147,-518.144159,8734.430116
2607.170237,-1378.971896,-1258.350101,9400.615463
2607.170566,-612.876398,-1406.391290,9548.656652
2607.170895,-1225.752797,-1702.473667,9400.615463
2607.171224,-612.876398,-814.226536,9326.594869
2607.171553,0.000000,-0.000000,8734.430116
2607.171883,0.000000,888.247130,7846.182985
2607.172212,0.000000,-148.041188,9548.656652
2607.172541,229.828649,-666.185348,9400.615463
2607.172870,0.000000,-74.020594,9178.553681
2607.173199,76.609550,-0.000000,9178.553681
2607.173528,0.000000,-0.000000,8438.347739
2607.173857,612.876398,-74.020594,9030.512492
2607.174186,536.266849,-1184.329507,9474.636058
2607.174515,689.485948,-1036.288319,9252.574275
2607.174845,0.000000,-1110.308913,9474.636058
2607.175174,229.828649,962.267725,8734.430116
2607.175503,459.657299,444.123565,8734.430116
2607.175832,229.828649,740.205942,9178.553681
2607.176161,306.438199,-74.020594,9696.697840
2607.176490,536.266849,-592.164754,9992.780217
2607.176819,0.000000,-296.082377,9548.656652
2607.177148,842.705048,-0.000000,9400.615463
2607.177477,1149.143247,222.061783,9178.553681
2607.177806,1455.581446,-222.061783,9474.636058
2607.178136,1915.238745,-518.144159,9178.553681
2607.178465,1762.019645,-666.185348,9104.533087
2607.178794,2374.896044,296.082377,9178.553681
2607.179123,2451.505594,1332.370696,7698.141797
2607.179452,2145.067394,1110.308913,8438.347739
2607.179781,1685.410096,148.041188,9030.512492
2607.180110,1302.362347,-222.061783,8734.430116
2607.180439,612.876398,-1110.308913,9474.636058
2607.180768,689.485948,-370.102971,8808.450710
2607.181098,383.047749,296.082377,9030.512492
2607.181427,459.657299,-518.144159,9844.739029
2607.181756,1072.533697,-1702.473667,9622.677246
2607.182085,1149.143247,-1184.329507,9474.636058
2607.182414,383.047749,-148.041188,9326.594869
2607.182743,1149.143247,666.185348,8734.430116
2607.183072,1302.362347,666.185348,8216.285956
2607.183401,1378.971896,1332.370696,8216.285956
2607.183730,1302.362347,444.123565,9030.512492
2607.184060,459.657299,-444.123565,9104.533087
2607.184389,0.000000,-74.020594,9326.594869
2607.184718,-459.657299,-0.000000,8956.491898
2607.185047,-1225.752797,-1036.288319,8808.450710
2607.185376,-1149.143247,-1554.432478,9696.697840
2607.185705,-1072.533697,-1850.514855,10140.821405
2607.186034,-1378.971896,-1702.473667,9622.677246
2607.186363,-1225.752797,-814.226536,9178.553681
2607.186692,-689.485948,-0.000000,8586.388927
2607.187022,-689.485948,740.205942,8364.327145
2607.187351,-383.047749,-0.000000,8808.450710
2607.187680,229.828649,-592.164754,8882.471304
2607.188009,-153.219100,-74.020594,9104.533087
2607.188338,459.657299,666.185348,8660.409521
2607.188667,383.047749,740.205942,7624.121203
2607.188996,0.000000,222.061783,8660.409521
2607.189325,0.000000,-814.226536,9030.512492
2607.189654,-766.095498,-1184.329507,8808.450710
2607.189983,-1072.533697,-888.247130,9474.636058
2607.190313,-919.314598,-148.041188,8660.409521
2607.190642,-1225.752797,-148.041188,8734.430116
2607.190971,-1455.581446,-444.123565,9400.615463
2607.191300,-1072.533697,-1110.308913,9770.718434
2607.191629,-1455.581446,-1258.350101,10214.842000
2607.191958,-995.924147,-592.164754,10066.800811
2607.192287,0.000000,-0.000000,9622.677246
2607.192616,76.609550,-0.000000,9178.553681
2607.192945,383.047749,-518.144159,9400.615463
2607.193275,1838.629195,-222.061783,9400.615463
2607.193604,1532.190996,-518.144159,9178.553681
2607.193933,1838.629195,740.205942,8512.368333
2607.194262,2374.896044,888.247130,8290.306550
2607.194591,1915.238745,1110.308913,8734.430116
2607.194920,2221.676944,-0.000000,9696.697840
2607.195249,1455.581446,-444.123565,9696.697840
2607.195578,612.876398,-518.144159,9474.636058
2607.195907,766.095498,-0.000000,9474.636058
2607.196237,383.047749,-0.000000,9474.636058
2607.196566,842.705048,-222.061783,9326.594869
2607.196895,919.314598,-1406.391290,9918.759623
2607.197224,459.657299,-1850.514855,9992.780217
2607.197553,919.314598,-0.000000,9548.656652
2607.197882,1302.362347,592.164754,8586.388927
2607.198211,1532.190996,1628.453072,7994.224174
2607.198540,1838.629195,1184.329507,8512.368333
2607.198869,1685.410096,518.144159,8734.430116
2607.199199,1378.971896,370.102971,9400.615463
2607.199528,1532.190996,444.123565,9252.574275
2607.199857,1608.800546,740.205942,8068.244768
2607.200186,842.705048,370.102971,8808.450710
2607.200515,766.095498,-666.185348,8882.471304
2607.200844,919.314598,-888.247130,8882.471304
2607.201173,689.485948,-888.247130,8956.491898
2607.201502,689.485948,-296.082377,8290.306550
2607.201831,689.485948,-0.000000,8438.347739
2607.202160,536.266849,-0.000000,8734.430116
2607.202490,383.047749,-370.102971,9326.594869
2607.202819,-153.219100,-518.144159,9326.594869
2607.203148,-153.219100,-592.164754,9326.594869
2607.203477,0.000000,518.144159,9400.615463
2607.203806,0.000000,-0.000000,9030.512492
2607.204135,459.657299,-222.061783,9104.533087
2607.204464,612.876398,-962.267725,9030.512492
2607.204793,-153.219100,-1406.391290,9104.533087
2607.205122,-76.609550,-666.185348,8808.450710
2607.205452,0.000000,518.144159,8364.327145
2607.205781,-459.657299,370.102971,8068.244768
2607.206110,-1072.533697,-370.102971,9030.512492
2607.206439,-1532.190996,-962.267725,9696.697840
2607.206768,-2145.067394,-1184.329507,9770.718434
2607.207097,-1991.848295,-370.102971,9474.636058
2607.207426,-1685.410096,-0.000000,9178.553681
2607.207755,-1302.362347,-74.020594,9474.636058
2607.208084,-766.095498,-666.185348,9622.677246
2607.208414,-383.047749,-888.247130,9770.718434
2607.208743,-459.657299,-740.205942,9400.615463
2607.209072,0.000000,592.164754,8586.388927
2607.209401,-306.438199,1258.350101,9030.512492
2607.209730,0.000000,-74.020594,8882.471304
2607.210059,0.000000,-296.082377,9696.697840
2607.210388,536.266849,-518.144159,9326.594869
2607.210717,-229.828649,-222.061783,7624.121203
2607.211046,76.609550,592.164754,8882.471304
2607.211376,306.438199,370.102971,9474.636058
2607.211705,0.000000,-888.247130,9474.636058
2607.212034,919.314598,-1184.329507,9844.739029
2607.212363,689.485948,-1554.432478,9178.553681
2607.212692,766.095498,-518.144159,8882.471304
2607.213021,1378.971896,740.205942,8290.306550
2607.213350,1225.752797,1332.370696,7994.224174
2607.213679,995.924147,740.205942,8808.450710
2607.214008,919.314598,-296.082377,8882.471304
2607.214337,689.485948,-1110.308913,9030.512492
2607.214667,919.314598,-74.020594,9400.615463
2607.214996,1225.752797,-444.123565,8586.388927
2607.215325,919.314598,-444.123565,8882.471304
2607.215654,995.924147,-962.267725,9474.636058
2607.215983,1455.581446,-1258.350101,9252.574275
2607.216312,1378.971896,-1036.288319,9474.636058
2607.216641,1915.238745,296.082377,8808.450710
2607.216970,1762.019645,1110.308913,8290.306550
2607.217299,2068.457845,962.267725,8586.388927
2607.217629,1838.629195,370.102971,9178.553681
2607.217958,1762.019645,-0.000000,9030.512492
2607.218287,1532.190996,-0.000000,9252.574275
2607.218616,1455.581446,148.041188,8808.450710
2607.218945,766.095498,-0.000000,9104.533087
2607.219274,842.705048,-592.164754,8808.450710
2607.219603,766.095498,-888.247130,9400.615463
2607.219932,229.828649,-1110.308913,9474.636058
2607.220261,0.000000,-666.185348,9252.574275
2607.220591,153.219100,740.205942,8364.327145
2607.220920,229.828649,148.041188,8290.306550
2607.221249,0.000000,-0.000000,8882.471304
2607.221578,0.000000,-0.000000,8956.491898
2607.221907,-919.314598,296.082377,9696.697840
2607.222236,0.000000,-0.000000,9918.759623
2607.222565,-153.219100,444.123565,8364.327145
2607.222894,-689.485948,-222.061783,9326.594869
2607.223223,-383.047749,-740.205942,9992.780217
2607.223553,0.000000,-962.267725,9474.636058
2607.223882,-536.266849,-666.185348,9104.533087
2607.224211,0.000000,666.185348,8808.450710
2607.224540,-153.219100,518.144159,8660.409521
2607.224869,-306.438199,1258.350101,8660.409521
2607.225198,0.000000,-814.226536,9326.594869
2607.225527,-1225.752797,-962.267725,9400.615463
2607.225856,-1149.143247,-518.144159,9326.594869
2607.226185,-1225.752797,-0.000000,9474.636058
2607.226514,-1225.752797,-444.123565,8512.368333
2607.226844,-919.314598,-814.226536,9696.697840
2607.227173,-919.314598,-1258.350101,9918.759623
2607.227502,-306.438199,-1184.329507,9474.636058
2607.227831,-689.485948,-444.123565,9104.533087
2607.228160,-306.438199,370.102971,8438.347739
2607.228489,-229.828649,740.205942,9030.512492
2607.228818,-612.876398,-0.000000,9104.533087
2607.229147,-536.266849,-814.226536,9474.636058
2607.229476,-1072.533697,-1036.288319,9918.759623
2607.229806,0.000000,-370.102971,8734.430116
2607.230135,459.657299,-148.041188,8512.368333
2607.230464,306.438199,-296.082377,8882.471304
2607.230793,766.095498,-666.185348,9104.533087
2607.231122,1302.362347,-814.226536,8956.491898
2607.231451,1302.362347,-148.041188,8882.471304
2607.231780,1762.019645,962.267725,7994.224174
2607.232109,2145.067394,888.247130,7476.080014
2607.232438,2145.067394,1036.288319,8364.327145
2607.232768,1762.019645,370.102971,8882.471304
2607.233097,1455.581446,-0.000000,8734.430116
2607.233426,1149.143247,-0.000000,8956.491898
2607.233755,995.924147,888.247130,8512.368333
2607.234084,1225.752797,-74.020594,8956.491898
2607.234413,1302.362347,-1036.288319,9252.574275
2607.234742,1455.581446,-888.247130,9400.615463
2607.235072,1225.752797,-888.247130,9548.656652
2607.235401,1762.019645,-296.082377,8364.327145
2607.235730,1915.238745,1036.288319,8216.285956
2607.236059,1685.410096,1184.329507,8586.388927
2607.236388,1455.581446,-0.000000,9326.594869
2607.236717,1685.410096,-1036.288319,9696.697840
2607.237047,1149.143247,-148.041188,9696.697840
2607.237376,306.438199,-0.000000,9992.780217
2607.237705,842.705048,-666.185348,9178.553681
2607.238034,1149.143247,-0.000000,9252.574275
2607.238363,919.314598,-962.267725,9474.636058
2607.238692,1302.362347,-1184.329507,9400.615463
2607.239021,689.485948,-814.226536,9918.759623
2607.239351,1302.362347,370.102971,8882.471304
2607.239680,1072.533697,370.102971,8216.285956
2607.240009,842.705048,-0.000000,8808.450710
2607.240338,459.657299,-0.000000,9104.533087
2607.240667,459.657299,-222.061783,9622.677246
2607.240996,0.000000,-0.000000,9104.533087
2607.241326,76.609550,296.082377,9548.656652
2607.241655,-306.438199,-370.102971,9548.656652
2607.241984,-689.485948,-1036.288319,9918.759623
2607.242313,-536.266849,-1406.391290,9030.512492
2607.242642,-1378.971896,-814.226536,9252.574275
2607.242971,-995.924147,296.082377,9252.574275
2607.243301,-612.876398,1332.370696,7994.224174
2607.243630,-612.876398,1110.308913,8216.285956
2607.243959,-919.314598,222.061783,8956.491898
2607.244288,-1378.971896,-518.144159,8882.471304
2607.244617,-1378.971896,-592.164754,9104.533087
2607.244946,-1225.752797,-0.000000,8808.450710
2607.245276,-1225.752797,-0.000000,8586.388927
2607.245605,-995.924147,-592.164754,9400.615463
2607.245934,-842.705048,-814.226536,9326.594869
2607.246263,-459.657299,-1332.370696,9474.636058
2607.246592,-229.828649,-592.164754,9104.533087
2607.246921,0.000000,-0.000000,8512.368333
2607.247251,0.000000,814.226536,8586.388927
2607.247580,0.000000,148.041188,9030.512492
2607.247909,0.000000,-592.164754,9104.533087
2607.248238,0.000000,-1110.308913,9548.656652
2607.248567,-153.219100,-0.000000,9104.533087
2607.248896,229.828649,-444.123565,8660.409521
2607.249226,0.000000,-74.020594,8660.409521
2607.249555,229.828649,-962.267725,9178.553681
2607.249884,383.047749,-1554.432478,9474.636058
2607.250213,383.047749,-1184.329507,9030.512492
2607.250542,536.266849,-296.082377,8734.430116
2607.250871,842.705048,370.102971,8586.388927
2607.251200,689.485948,592.164754,7994.224174
2607.251530,919.314598,-296.082377,9104.533087
2607.251859,229.828649,-888.247130,9474.636058
2607.252188,0.000000,-666.185348,9992.780217
2607.252517,0.000000,-222.061783,9400.615463
2607.252846,612.876398,-296.082377,9844.739029
2607.253175,1225.752797,-222.061783,9252.574275
2607.253505,2451.505594,-0.000000,9178.553681
2607.253834,1991.848295,-518.144159,8882.471304
2607.254163,2528.115143,888.247130,8290.306550
2607.254492,2911.162892,1332.370696,7772.162391
2607.254821,2757.943793,1628.453072,7328.038826
2607.255150,2987.772442,370.102971,8734.430116
2607.255480,2145.067394,-222.061783,8512.368333
2607.255809,1072.533697,-518.144159,9474.636058
2607.256138,536.266849,-296.082377,10066.800811
2607.256467,153.219100,-222.061783,9474.636058
2607.256796,0.000000,-148.041188,9770.718434
2607.257125,229.828649,-740.205942,10140.821405
2607.257455,689.485948,-962.267725,10140.821405
2607.257784,306.438199,-1036.288319,9696.697840
2607.258113,1149.143247,444.123565,8956.491898
2607.258442,1225.752797,1332.370696,7920.203579
2607.258771,1302.362347,1258.350101,8586.388927
2607.259100,1762.019645,666.185348,8512.368333
2607.259430,842.705048,-0.000000,8660.409521
2607.259759,842.705048,-0.000000,8438.347739
2607.260088,612.876398,-518.144159,8586.388927
2607.260417,0.000000,-222.061783,8512.368333
2607.260746,-766.095498,-888.247130,9622.677246
2607.261075,-536.266849,-1554.432478,9474.636058
2607.261405,-842.705048,-1998.556043,9474.636058
2607.261734,-919.314598,-888.247130,9992.780217
2607.262063,-536.266849,222.061783,8956.491898
2607.262392,-459.657299,444.123565,8734.430116
2607.262721,-229.828649,814.226536,8956.491898
2607.263050,-306.438199,-444.123565,9474.636058
2607.263380,-1532.190996,-518.144159,9474.636058
2607.263709,-612.876398,-518.144159,9178.553681
2607.264038,-995.924147,-0.000000,8660.409521
2607.264367,-766.095498,-518.144159,8438.347739
2607.264696,-306.438199,-888.247130,8808.450710
2607.265025,-995.924147,-1776.494261,8956.491898
2607.265354,-1225.752797,-1406.391290,9104.533087
2607.265684,-536.266849,-148.041188,8660.409521
2607.266013,-612.876398,962.267725,8512.368333
2607.266342,-536.266849,888.247130,8660.409521
2607.266671,-612.876398,-0.000000,9252.574275
2607.267000,-766.095498,-296.082377,9400.615463
2607.267329,-995.924147,-74.020594,9400.615463
2607.267659,-153.219100,-296.082377,9326.594869
2607.267988,229.828649,296.082377,7994.224174
2607.268317,306.438199,-740.205942,9178.553681
2607.268646,536.266849,-1110.308913,9474.636058
2607.268975,536.266849,-962.267725,8956.491898
2607.269304,689.485948,-592.164754,9104.533087
2607.269634,1455.581446,888.247130,8364.327145
2607.269963,1685.410096,-0.000000,8660.409521
2607.270292,1302.362347,814.226536,9104.533087
2607.270621,1532.190996,-222.061783,9400.615463
2607.270950,842.705048,-296.082377,9548.656652
2607.271279,1149.143247,-0.000000,9622.677246
2607.271609,1532.190996,518.144159,8882.471304
2607.271938,1225.752797,-74.020594,9326.594869
2607.272267,919.314598,-962.267725,10214.842000
2607.272596,1532.190996,-1628.453072,9992.780217
2607.272925,1149.143247,-1110.308913,9474.636058
2607.273254,1225.752797,296.082377,9104.533087
2607.273584,1455.581446,888.247130,8364.327145
2607.273913,1378.971896,1036.288319,8808.450710
2607.274242,1455.581446,148.041188,9326.594869
2607.274571,1302.362347,-296.082377,9474.636058
2607.274900,689.485948,-592.164754,9474.636058
2607.275229,995.924147,-0.000000,9474.636058
2607.275559,1455.581446,592.164754,8660.409521
2607.275888,1302.362347,-148.041188,8808.450710
2607.276217,1608.800546,-814.226536,9474.636058
2607.276546,1532.190996,-518.144159,9252.574275
2607.276875,1532.190996,222.061783,9030.512492
2607.277204,1608.800546,1184.329507,8438.347739
2607.277533,1685.410096,962.267725,8216.285956
2607.277863,612.876398,888.247130,9104.533087
2607.278192,612.876398,-0.000000,9400.615463
2607.278521,0.000000,-518.144159,9178.553681
2607.278850,0.000000,222.061783,9030.512492
2607.279179,536.266849,-0.000000,8290.306550
2607.279508,-306.438199,-1184.329507,8660.409521
2607.279838,-766.095498,-666.185348,9030.512492
2607.280167,-383.047749,-1554.432478,9104.533087
2607.280496,-766.095498,-1036.288319,9400.615463
2607.280825,-1072.533697,370.102971,8512.368333
2607.281154,-995.924147,666.185348,8512.368333
2607.281483,-1149.143247,592.164754,8808.450710
2607.281813,-995.924147,-814.226536,9030.512492
2607.282142,-1378.971896,-1258.350101,9474.636058
2607.282471,-2374.896044,-888.247130,9696.697840
2607.282800,-1378.971896,-148.041188,9252.574275
2607.283129,-1225.752797,-74.020594,8808.450710
2607.283458,-842.705048,-814.226536,9474.636058
2607.283788,-306.438199,-1628.453072,9696.697840
2607.284117,0.000000,-1924.535449,9696.697840
2607.284446,-766.095498,-518.144159,8882.471304
2607.284775,0.000000,-0.000000,7994.224174
2607.285104,229.828649,518.144159,8068.244768
2607.285433,153.219100,-74.020594,9326.594869
2607.285763,76.609550,-444.123565,9252.574275
2607.286092,-306.438199,-814.226536,9326.594869
2607.286421,0.000000,-222.061783,8956.491898
2607.286750,229.828649,-74.020594,8660.409521
2607.287079,0.000000,-148.041188,9548.656652
2607.287408,0.000000,-1184.329507,9622.677246
2607.287738,0.000000,-1036.288319,9844.739029
2607.288067,0.000000,-592.164754,9400.615463
2607.288396,766.095498,296.082377,8586.388927
2607.288725,229.828649,962.267725,8808.450710
2607.289054,1302.362347,-0.000000,8660.409521
2607.289383,1302.362347,370.102971,8956.491898
2607.289713,919.314598,-0.000000,8882.471304
2607.290042,995.924147,444.123565,9104.533087
2607.290371,842.705048,370.102971,8734.430116
2607.290700,1149.143247,-0.000000,8734.430116
2607.291029,766.095498,-370.102971,9474.636058
2607.291358,2221.676944,-962.267725,9474.636058
2607.291687,1685.410096,-888.247130,9400.615463
2607.292017,1838.629195,222.061783,9178.553681
2607.292346,1762.019645,592.164754,9030.512492
2607.292675,1532.190996,1406.391290,8956.491898
2607.293004,1685.410096,444.123565,9548.656652
2607.293333,1762.019645,-444.123565,9400.615463
2607.293662,1072.533697,148.041188,9548.656652
2607.293992,995.924147,444.123565,9474.636058
2607.294321,1149.143247,222.061783,9030.512492
2607.294650,1072.533697,-148.041188,9178.553681
2607.294979,1149.143247,-888.247130,9400.615463
2607.295308,842.705048,-1850.514855,9326.594869
2607.295637,383.047749,-1258.350101,9252.574275
2607.295967,383.047749,-148.041188,8956.491898
2607.296296,459.657299,-0.000000,8290.306550
2607.296625,0.000000,-0.000000,9252.574275
2607.296954,-306.438199,-74.020594,8882.471304
2607.297283,-383.047749,-814.226536,8956.491898
2607.297612,-612.876398,-74.020594,9400.615463
2607.297942,383.047749,1036.288319,9104.533087
2607.298271,-919.314598,814.226536,8438.347739
2607.298600,-229.828649,-518.144159,9400.615463
2607.298929,919.314598,-592.164754,9178.553681
2607.299258,229.828649,-444.123565,8734.430116
2607.299587,153.219100,296.082377,7994.224174
2607.299917,766.095498,1110.308913,7698.141797
2607.300246,0.000000,740.205942,8364.327145
2607.300575,0.000000,222.061783,9326.594869
2607.300904,0.000000,-1406.391290,9326.594869
2607.301233,-995.924147,-1332.370696,9252.574275
2607.301562,-1072.533697,-148.041188,8734.430116
2607.301892,-1149.143247,-222.061783,8882.471304
2607.302221,-1378.971896,-888.247130,9474.636058
2607.302550,-536.266849,-814.226536,9622.677246
2607.302879,-306.438199,-1406.391290,9770.718434
2607.303208,-1378.971896,-814.226536,9474.636058
2607.303537,-689.485948,888.247130,8808.450710
2607.303866,0.000000,962.267725,8586.388927
2607.304196,-306.438199,370.102971,8068.244768
2607.304525,-995.924147,-0.000000,9918.759623
2607.304854,-612.876398,-1628.453072,10955.047942
2607.305183,-842.705048,-1332.370696,9548.656652
2607.305512,-1149.143247,-0.000000,7624.121203
2607.305841,612.876398,-1332.370696,8734.430116
2607.306171,76.609550,-888.247130,9400.615463
2607.306500,383.047749,-1110.308913,9918.759623
2607.306829,995.924147,-1110.308913,9030.512492
2607.307158,919.314598,296.082377,8068.244768
2607.307487,1302.362347,814.226536,8142.265362
2607.307816,2374.896044,1332.370696,8364.327145
2607.308146,1915.238745,148.041188,9104.533087
2607.308475,1302.362347,-296.082377,9474.636058
2607.308804,766.095498,-0.000000,8956.491898
2607.309133,842.705048,370.102971,9252.574275
2607.309462,689.485948,-0.000000,8660.409521
2607.309791,1302.362347,-296.082377,9252.574275
2607.310121,1072.533697,-1702.473667,9326.594869
2607.310450,1302.362347,-1110.308913,9104.533087
2607.310779,1149.143247,-444.123565,8808.450710
2607.311108,1072.533697,222.061783,8512.368333
2607.311437,842.705048,518.144159,8216.285956
2607.311766,1149.143247,-0.000000,9104.533087
2607.312096,459.657299,-666.185348,9474.636058
2607.312425,842.705048,-1110.308913,9474.636058
2607.312754,459.657299,-0.000000,8956.491898
2607.313083,689.485948,518.144159,8512.368333
2607.313412,1302.362347,-148.041188,8586.388927
2607.313741,1608.800546,-148.041188,8808.450710
2607.314071,1608.800546,-888.247130,9326.594869
2607.314400,2145.067394,-1480.411884,9474.636058
2607.314729,1685.410096,222.061783,8586.388927
2607.315058,1455.581446,814.226536,8068.244768
2607.315387,1838.629195,1036.288319,8586.388927
2607.315716,995.924147,-0.000000,8734.430116
2607.316046,229.828649,-296.082377,9400.615463
2607.316375,76.609550,-814.226536,9548.656652
2607.316704,-689.485948,-0.000000,8660.409521
2607.317033,-612.876398,148.041188,9326.594869
2607.317362,0.000000,-888.247130,9696.697840
2607.317691,-842.705048,-962.267725,9622.677246
2607.318020,-842.705048,-1184.329507,9622.677246
2607.318350,-842.705048,-74.020594,9400.615463
2607.318679,-995.924147,592.164754,8734.430116
2607.319008,-153.219100,1406.391290,8586.388927
2607.319337,-536.266849,-0.000000,9252.574275
2607.319666,-1532.190996,-444.123565,9918.759623
2607.319995,-1225.752797,-1110.308913,9474.636058
2607.320325,-1149.143247,-296.082377,9400.615463
2607.320654,-919.314598,-296.082377,8734.430116
2607.320983,-689.485948,-0.000000,9400.615463
2607.321312,-383.047749,-1036.288319,9548.656652
2607.321641,-306.438199,-1332.370696,9030.512492
2607.321970,-536.266849,-740.205942,8808.450710
2607.322300,0.000000,222.061783,8290.306550
2607.322629,0.000000,1406.391290,7772.162391
2607.322958,153.219100,1036.288319,8734.430116
2607.323287,459.657299,-0.000000,9474.636058
2607.323616,0.000000,-814.226536,10140.821405
2607.323945,-536.266849,-962.267725,9474.636058
2607.324275,0.000000,-74.020594,8882.471304
2607.324604,383.047749,-222.061783,8956.491898
2607.324933,612.876398,-518.144159,9104.533087
2607.325262,842.705048,-1110.308913,9474.636058
2607.325591,1072.533697,-1110.308913,9178.553681
2607.325920,1532.190996,-518.144159,8734.430116
2607.326250,1532.190996,370.102971,8216.285956
2607.326579,995.924147,1184.329507,7920.203579
2607.326908,1302.362347,444.123565,8956.491898
2607.327237,995.924147,-296.082377,9252.574275
2607.327566,766.095498,-444.123565,9548.656652
2607.327895,306.438199,-370.102971,9474.636058
2607.328225,612.876398,-74.020594,9178.553681
2607.328554,536.266849,-666.185348,9844.739029
2607.328883,766.095498,-1406.391290,9770.718434
2607.329212,1149.143247,-1406.391290,9474.636058
2607.329541,1455.581446,-444.123565,9252.574275
2607.329870,2145.067394,592.164754,8586.388927
2607.330199,2145.067394,1628.453072,8216.285956
2607.330529,1685.410096,1184.329507,8882.471304
2607.330858,2451.505594,962.267725,8734.430116
2607.331187,1762.019645,-444.123565,9400.615463
2607.331516,1532.190996,-0.000000,9030.512492
2607.331845,1455.581446,296.082377,8512.368333
2607.332174,612.876398,148.041188,8586.388927
2607.332504,383.047749,-740.205942,9252.574275
2607.332834,689.485948,-740.205942,9696.697840
2607.333163,459.657299,-1702.473667,9770.718434
2607.333492,-153.219100,-962.267725,9474.636058
2607.333821,-306.438199,296.082377,8734.430116
2607.334150,-459.657299,666.185348,8808.450710
2607.334479,0.000000,666.185348,9030.512492
2607.334808,-459.657299,-74.020594,9326.594869
2607.335137,-229.828649,-222.061783,9400.615463
2607.335466,153.219100,222.061783,8734.430116
2607.335795,612.876398,592.164754,7994.224174
2607.336124,153.219100,222.061783,8586.388927
2607.336453,459.657299,-518.144159,9030.512492
2607.336782,229.828649,-888.247130,8808.450710
2607.337111,0.000000,-1184.329507,9104.533087
2607.337440,-383.047749,222.061783,8364.327145
2607.337769,-612.876398,740.205942,8586.388927
2607.338098,-612.876398,444.123565,9474.636058
2607.338427,-995.924147,-148.041188,9696.697840
2607.338757,-1225.752797,-1184.329507,10288.862594
2607.339086,-2451.505594,-518.144159,10140.821405
2607.339415,-1225.752797,-222.061783,9400.615463
2607.339744,-1225.752797,-518.144159,8956.491898
2607.340073,-842.705048,-518.144159,9326.594869
2607.340402,-383.047749,-1184.329507,9548.656652
2607.340731,-536.266849,-1184.329507,9474.636058
2607.341060,-689.485948,-444.123565,9104.533087
2607.341389,0.000000,370.102971,8364.327145
2607.341718,-306.438199,888.247130,8290.306550
2607.342047,-383.047749,-0.000000,9104.533087
2607.342376,-383.047749,-888.247130,9474.636058
2607.342705,-689.485948,-1036.288319,9326.594869
2607.343034,-383.047749,-592.164754,9474.636058
2607.343363,-612.876398,-0.000000,9474.636058
2607.343692,-459.657299,-444.123565,9474.636058
2607.344021,536.266849,-518.144159,9622.677246
2607.344350,995.924147,-962.267725,9030.512492
2607.344679,1072.533697,-518.144159,8586.388927
2607.345008,2068.457845,592.164754,8142.265362
2607.345337,2451.505594,888.247130,7994.224174
2607.345666,2145.067394,-0.000000,8586.388927
2607.345995,1915.238745,-296.082377,9104.533087
2607.346324,1685.410096,-222.061783,8956.491898
2607.346653,1915.238745,-0.000000,8956.491898
2607.346982,2145.067394,888.247130,8586.388927
2607.347312,1991.848295,740.205942,9104.533087
2607.347641,2145.067394,-0.000000,9696.697840
2607.347970,1838.629195,-962.267725,9400.615463
2607.348299,1838.629195,-1332.370696,9622.677246
2607.348628,612.876398,-222.061783,8882.471304
2607.348957,1455.581446,-74.020594,8956.491898
2607.349286,1149.143247,-148.041188,8956.491898
2607.349615,383.047749,666.185348,9474.636058
2607.349944,1532.190996,-1554.432478,10214.842000
2607.350273,229.828649,-444.123565,8882.471304
2607.350602,1455.581446,-0.000000,9178.553681
2607.350931,1149.143247,444.123565,8956.491898
2607.351260,1149.143247,-222.061783,8586.388927
2607.351589,1455.581446,-0.000000,9400.615463
2607.351918,1532.190996,-814.226536,8956.491898
2607.352247,459.657299,-296.082377,8956.491898
2607.352576,1378.971896,222.061783,8438.347739
2607.352905,1072.533697,1184.329507,8660.409521
2607.353234,-612.876398,814.226536,8882.471304
2607.353563,-919.314598,-222.061783,9474.636058
2607.353892,-2451.505594,-370.102971,9400.615463
2607.354221,-2757.943793,-666.185348,9696.697840
2607.354550,-3217.601092,518.144159,8660.409521
2607.354879,-2834.553343,-0.000000,9178.553681
2607.355208,-2451.505594,-666.185348,8586.388927
2607.355537,-3217.601092,-1036.288319,8438.347739
2607.355867,-3447.429741,-1406.391290,8956.491898
2607.356196,-3907.087040,-1184.329507,9178.553681
2607.356525,-4060.306139,-296.082377,8290.306550
2607.356854,-3907.087040,-222.061783,9104.533087
2607.357183,-4673.182538,666.185348,8586.388927
2607.357512,-4060.306139,-296.082377,8882.471304
2607.357841,-4673.182538,-592.164754,9474.636058
2607.358170,-4979.620737,-740.205942,9474.636058
2607.358499,-4519.963438,-740.205942,9622.677246
2607.358828,-4826.401637,-740.205942,9104.533087
2607.359157,-4826.401637,-1184.329507,9474.636058
2607.359486,-4136.915689,-1480.411884,9474.636058
2607.359815,-3447.429741,-1406.391290,9030.512492
2607.360144,-3294.210641,-666.185348,8956.491898
2607.360473,-2451.505594,-148.041188,8734.430116
2607.360802,-2604.724693,-0.000000,8290.306550
2607.361131,-2987.772442,148.041188,8586.388927
2607.361460,-2451.505594,370.102971,9030.512492
2607.361789,-3064.381992,-0.000000,9104.533087
2607.362118,-2528.115143,-222.061783,9400.615463
2607.362447,-2221.676944,-74.020594,9474.636058
2607.362776,-2528.115143,370.102971,9400.615463
2607.363105,-2528.115143,-0.000000,9030.512492
2607.363434,-2298.286494,444.123565,9178.553681
2607.363763,-1991.848295,518.144159,9104.533087
2607.364092,-1838.629195,-0.000000,8512.368333
2607.364422,-1685.410096,-148.041188,8660.409521
2607.364751,-2298.286494,-444.123565,9104.533087
2607.365080,-2681.334243,-1036.288319,8808.450710
2607.365409,-3064.381992,-1480.411884,9696.697840
2607.365738,-3140.991542,-1702.473667,9548.656652
2607.366067,-2757.943793,-518.144159,9770.718434
2607.366396,-2604.724693,-222.061783,9696.697840
2607.366725,-2604.724693,962.267725,8882.471304
2607.367054,-1915.238745,1036.288319,8956.491898
2607.367383,-1608.800546,592.164754,9474.636058
2607.367712,-995.924147,-0.000000,9474.636058
2607.368041,-766.095498,-518.144159,9622.677246
2607.368370,-536.266849,-740.205942,9622.677246
2607.368699,536.266849,-740.205942,10066.800811
2607.369028,995.924147,518.144159,7476.080014
2607.369357,1915.238745,1554.432478,7179.997637
2607.369686,1915.238745,2072.576638,6217.729913
2607.370015,1302.362347,1850.514855,7105.977043
2607.370344,0.000000,1258.350101,7994.224174
2607.370673,-1608.800546,-296.082377,8438.347739
2607.371002,-3753.867940,-1702.473667,9474.636058
2607.371331,-4366.744339,-2590.720797,11251.130318
2607.371660,-4979.620737,-2960.823768,9918.759623
2607.371989,-5515.887586,-2146.597232,10955.047942
2607.372318,-5439.278036,-2368.659014,11251.130318
2607.372647,-4903.011187,-1406.391290,11399.171507
2607.372977,-3907.087040,-518.144159,11473.192101
2607.373306,-2834.553343,518.144159,9474.636058
2607.373635,-1072.533697,222.061783,8512.368333
2607.373964,-766.095498,2220.617826,6957.935855
2607.374293,-1455.581446,2368.659014,7179.997637
2607.374622,-383.047749,-814.226536,10288.862594
2607.374951,459.657299,962.267725,6069.688724
2607.375280,1915.238745,962.267725,6587.832884
2607.375609,-689.485948,888.247130,5847.626942
2607.375938,-1225.752797,148.041188,7624.121203
2607.376267,-2757.943793,-518.144159,9918.759623
2607.376596,-3140.991542,-592.164754,9548.656652
2607.376925,-3217.601092,-0.000000,9178.553681
2607.377254,-4443.353888,-0.000000,9178.553681
2607.377583,-6281.983084,-1628.453072,9844.739029
2607.377912,-7890.783629,-1480.411884,10955.047942
2607.378241,-6358.592633,-1480.411884,10881.027347
2607.378570,-6052.154434,-1702.473667,9992.780217
2607.378899,-4673.182538,-1036.288319,9918.759623
2607.379228,-4673.182538,296.082377,8438.347739
2607.379557,-4060.306139,-1184.329507,7994.224174
2607.379886,-2145.067394,-1110.308913,8364.327145
2607.380215,-1225.752797,592.164754,7994.224174
2607.380544,-1532.190996,-74.020594,8364.327145
2607.380873,-2451.505594,-0.000000,8808.450710
2607.381203,-2757.943793,444.123565,9030.512492
2607.381532,-3600.648841,-370.102971,9474.636058
2607.381861,-3524.039291,-0.000000,9622.677246
2607.382190,-4366.744339,-0.000000,10140.821405
2607.382519,-3524.039291,-0.000000,10732.986159
2607.382848,-3447.429741,962.267725,9252.574275
2607.383177,-3370.820191,814.226536,8808.450710
2607.383506,-2374.896044,1258.350101,8734.430116
2607.383835,-1302.362347,1258.350101,7994.224174
2607.384164,-1149.143247,1924.535449,7105.977043
2607.384493,-1762.019645,444.123565,7920.203579
2607.384822,-2221.676944,592.164754,8808.450710
2607.385151,-2604.724693,444.123565,8882.471304
2607.385480,-2451.505594,1258.350101,8808.450710
2607.385809,-1532.190996,1184.329507,8734.430116
2607.386138,-2298.286494,814.226536,9474.636058
2607.386467,-1991.848295,2146.597232,9474.636058
2607.386796,-2374.896044,1480.411884,9844.739029
2607.387125,-3217.601092,1036.288319,10658.965565
2607.387454,-2298.286494,518.144159,11251.130318
2607.387783,-2068.457845,296.082377,10658.965565
2607.388112,-1455.581446,444.123565,10214.842000
2607.388441,-919.314598,1184.329507,8512.368333
2607.388770,-689.485948,222.061783,10214.842000
2607.389099,-383.047749,1554.432478,9770.718434
2607.389428,2145.067394,1776.494261,8734.430116
2607.389758,3370.820191,3404.947333,6587.832884
2607.390087,3753.867940,3849.070898,6439.791695
2607.390416,3140.991542,4367.215058,7031.956449
2607.390745,3140.991542,4589.276840,7698.141797
2607.391074,2681.334243,5255.462188,7772.162391
2607.391403,2604.724693,3997.112087,7328.038826
2607.391732,1685.410096,3478.967927,9326.594869
2607.392061,0.000000,1554.432478,10732.986159
2607.392390,-766.095498,1332.370696,10288.862594
2607.392719,-1149.143247,888.247130,11399.171507
2607.393048,-842.705048,518.144159,10955.047942
2607.393377,-459.657299,2294.638420,9844.739029
2607.393706,-383.047749,2368.659014,9178.553681
2607.394035,-536.266849,2738.761985,8512.368333
2607.394364,1302.362347,3330.926739,7920.203579
2607.394693,1149.143247,3997.112087,7179.997637
2607.395022,1378.971896,4589.276840,7476.080014
2607.395351,919.314598,4219.173869,7994.224174
2607.395680,-766.095498,3034.844362,8808.450710
2607.396009,-2068.457845,2516.700203,9252.574275
2607.396338,-2834.553343,1924.535449,9548.656652
2607.396667,-2911.162892,1184.329507,11399.171507
2607.396996,-2681.334243,2738.761985,9770.718434
2607.397325,-1915.238745,2886.803174,10658.965565
2607.397654,-2604.724693,3552.988522,9622.677246
2607.397983,-2604.724693,2590.720797,10807.006753
2607.398313,-2374.896044,2590.720797,11103.089130
2607.398642,-1378.971896,2886.803174,9474.636058
2607.398971,-612.876398,2220.617826,8512.368333
2607.399300,-995.924147,2812.782580,9252.574275
2607.399629,-1302.362347,2812.782580,10362.883188
2607.399958,-153.219100,2072.576638,11103.089130
2607.400287,2221.676944,3997.112087,7328.038826
2607.400616,3294.210641,4959.379811,7105.977043
2607.400945,2451.505594,5181.441594,6513.812290
2607.401274,1991.848295,5995.668130,7105.977043
2607.401603,2221.676944,6217.729913,8586.388927
2607.401932,1838.629195,4737.318029,8068.244768
2607.402261,1302.362347,5773.606348,7476.080014
2607.402590,919.314598,5329.482782,8808.450710
2607.402919,229.828649,4293.194464,8290.306550
2607.403248,-1149.143247,1036.288319,10955.047942
2607.403577,-383.047749,-518.144159,11399.171507
2607.403906,-229.828649,1110.308913,10510.924376
2607.404235,-536.266849,-444.123565,10658.965565
2607.404564,-1149.143247,2590.720797,9104.533087
2607.404893,612.876398,3256.906145,10584.944971
2607.405222,1378.971896,3997.112087,8586.388927
2607.405551,2068.457845,5699.585753,7550.100608
2607.405880,3370.820191,4737.318029,7402.059420
2607.406209,2757.943793,4441.235652,8290.306550
2607.406538,1685.410096,3330.926739,8364.327145
2607.406868,-536.266849,1480.411884,9104.533087
2607.407197,-2298.286494,-296.082377,11621.233289
2607.407526,-2221.676944,-0.000000,11843.295072
2607.407855,-2221.676944,518.144159,10955.047942
2607.408184,-1378.971896,1480.411884,10288.862594
2607.408513,-1149.143247,2072.576638,9622.677246
2607.408842,-689.485948,2294.638420,10140.821405
2607.409171,383.047749,1776.494261,10362.883188
2607.409500,2451.505594,1998.556043,9326.594869
2607.409829,3600.648841,3256.906145,7698.141797
2607.410158,4290.134789,2516.700203,7105.977043
2607.410487,3600.648841,3552.988522,7105.977043
2607.410816,3907.087040,4441.235652,7031.956449
2607.411145,2604.724693,3775.050304,7105.977043
2607.411474,2528.115143,4219.173869,7254.018232
2607.411803,1838.629195,4811.338623,7402.059420
2607.412132,612.876398,2442.679609,8882.471304
2607.412461,-2911.162892,-1480.411884,13323.706956
2607.412790,-3294.210641,-3256.906145,12213.398043
2607.413119,-2451.505594,-592.164754,11695.253884
2607.413448,-2681.334243,-3404.947333,11251.130318
2607.413777,-3677.258390,1406.391290,9178.553681
2607.414106,-1608.800546,962.267725,11325.150913
2607.414435,0.000000,2960.823768,8734.430116
2607.414764,76.609550,4737.318029,7772.162391
2607.415094,3677.258390,2146.597232,11251.130318
2607.415423,3217.601092,2442.679609,7624.121203
2607.415752,4136.915689,4367.215058,7254.018232
2607.416081,4596.572988,4293.194464,2294.638420
2607.416410,3983.696590,4885.359217,6069.688724
2607.416739,3600.648841,2886.803174,8512.368333
2607.417068,2528.115143,5773.606348,5847.626942
2607.417397,2604.724693,3997.112087,7698.141797
2607.417726,-153.219100,1998.556043,8512.368333
2607.418055,-4060.306139,-962.267725,13841.851115
2607.418384,-4213.525239,-3404.947333,14508.036463
2607.418713,-4443.353888,2664.741391,9326.594869
2607.419042,-2757.943793,-5255.462188,13693.809927
2607.419371,-4903.011187,-1776.494261,9992.780217
2607.419700,-1532.190996,-74.020594,13619.789333
2607.420029,-2374.896044,1110.308913,10288.862594
2607.420358,-1991.848295,2590.720797,7698.141797
2607.420687,383.047749,2516.700203,10066.800811
2607.421016,3600.648841,2738.761985,11473.192101
2607.421345,2374.896044,6365.771101,3330.926739
2607.421674,4903.011187,1184.329507,8512.368333
2607.422003,3753.867940,3701.029710,6291.750507
2607.422332,3907.087040,4737.318029,7105.977043
2607.422661,-229.828649,2368.659014,7476.080014
2607.422990,-1838.629195,3849.070898,9326.594869
2607.423319,-2068.457845,-2368.659014,13101.645173
2607.423649,-1225.752797,740.205942,11029.068536
2607.423978,-2834.553343,-370.102971,9178.553681
2607.424307,-2987.772442,-1554.432478,11103.089130
2607.424636,-1685.410096,-666.185348,10066.800811
2607.424965,-612.876398,-888.247130,10732.986159
2607.425294,-1991.848295,-1554.432478,10955.047942
2607.425623,383.047749,-222.061783,8808.450710
2607.425952,2604.724693,592.164754,6587.832884
2607.426281,3677.258390,3849.070898,5995.668130
2607.426610,2374.896044,4663.297435,4293.194464
2607.426939,3217.601092,3404.947333,9326.594869
2607.427268,1532.190996,4293.194464,7550.100608
2607.427597,1991.848295,1924.535449,8808.450710
2607.427926,-383.047749,-1998.556043,10881.027347
2607.428255,-2221.676944,-1110.308913,9326.594869
2607.428584,-2451.505594,-4071.132681,13915.871710
2607.428913,-3064.381992,-1702.473667,11695.253884
2607.429242,-1455.581446,-1924.535449,10955.047942
2607.429571,76.609550,-2812.782580,11103.089130
2607.429900,306.438199,-0.000000,9252.574275
2607.430229,1838.629195,2294.638420,6661.853478
2607.430558,3830.477490,1258.350101,6291.750507
2607.430887,3983.696590,3330.926739,6291.750507
2607.431216,3524.039291,2146.597232,8290.306550
2607.431545,2987.772442,2590.720797,7698.141797
2607.431874,2451.505594,962.267725,7550.100608
2607.432204,2145.067394,-444.123565,8586.388927
2607.432533,229.828649,-1702.473667,9474.636058
2607.432862,-995.924147,-3256.906145,10881.027347
2607.433191,-2145.067394,-3330.926739,12139.377449
2607.433520,-1762.019645,-3775.050304,11917.315666
2607.433849,-2834.553343,-1480.411884,10140.821405
2607.434178,-2221.676944,-518.144159,9548.656652
2607.434507,-1762.019645,-0.000000,9178.553681
2607.434836,689.485948,-0.000000,8364.327145
2607.435165,3217.601092,1184.329507,7698.141797
2607.435494,3217.601092,1036.288319,7179.997637
2607.435823,2451.505594,-0.000000,6957.935855
2607.436152,2221.676944,222.061783,6439.791695
2607.436481,2145.067394,-592.164754,7994.224174
2607.436810,1302.362347,-1480.411884,8364.327145
2607.437139,229.828649,-2516.700203,10214.842000
2607.437468,-689.485948,-2146.597232,10140.821405
2607.437797,-2068.457845,-1406.391290,10214.842000
2607.438126,-1991.848295,-148.041188,10362.883188
2607.438455,-2451.505594,-1184.329507,10584.944971
2607.438784,-2298.286494,-814.226536,10881.027347
2607.439113,-1225.752797,-740.205942,11177.109724
2607.439442,0.000000,-370.102971,9178.553681
2607.439771,919.314598,-296.082377,8438.347739
2607.440100,919.314598,222.061783,7179.997637
2607.440429,1915.238745,-370.102971,7105.977043
2607.440759,2298.286494,-0.000000,7328.038826
2607.441088,1838.629195,222.061783,6957.935855
2607.441417,1532.190996,1036.288319,7179.997637
2607.441746,76.609550,740.205942,8438.347739
2607.442075,-153.219100,-0.000000,9326.594869
2607.442404,-1532.190996,-1036.288319,10510.924376
2607.442733,-1608.800546,-1998.556043,10584.944971
2607.443062,-1838.629195,-1850.514855,11769.274478
2607.443391,-2145.067394,-518.144159,11103.089130
2607.443720,-2221.676944,-74.020594,10362.883188
2607.444049,-995.924147,-0.000000,9918.759623
2607.444378,229.828649,-0.000000,8734.430116
2607.444707,1685.410096,222.061783,8364.327145
2607.445036,1915.238745,370.102971,7328.038826
2607.445365,1838.629195,1480.411884,6661.853478
2607.445694,1838.629195,1702.473667,6809.894666
2607.446023,1378.971896,1036.288319,7698.141797
2607.446352,1149.143247,-0.000000,8734.430116
2607.446681,306.438199,-1184.329507,9326.594869
2607.447010,-306.438199,-1628.453072,9474.636058
2607.447339,-919.314598,-1332.370696,10066.800811
2607.447668,-919.314598,-518.144159,10214.842000
2607.447997,-842.705048,-666.185348,11029.068536
2607.448326,-459.657299,-666.185348,11103.089130
2607.448655,76.609550,-74.020594,9992.780217
2607.448984,1072.533697,1036.288319,8586.388927
2607.449314,1302.362347,1998.556043,8512.368333
2607.449643,1149.143247,1776.494261,8586.388927
2607.449972,1378.971896,592.164754,8290.306550
2607.450301,1072.533697,-0.000000,8290.306550
2607.450630,612.876398,-444.123565,8734.430116
2607.450959,459.657299,-1184.329507,8216.285956
2607.451288,0.000000,-1628.453072,8956.491898
2607.451617,919.314598,-1332.370696,9326.594869
2607.451946,1532.190996,-1924.535449,9326.594869
2607.452275,689.485948,-1036.288319,9622.677246
2607.452604,612.876398,222.061783,9696.697840
2607.452933,689.485948,1480.411884,8808.450710
2607.453262,459.657299,2368.659014,9030.512492
2607.453591,995.924147,1850.514855,9326.594869
2607.453920,1072.533697,1554.432478,9622.677246
2607.454249,995.924147,222.061783,9400.615463
2607.454578,689.485948,-0.000000,8956.491898
2607.454907,153.219100,-0.000000,8290.306550
2607.455236,-229.828649,-666.185348,8216.285956
2607.455565,383.047749,-1702.473667,8512.368333
2607.455894,383.047749,-2072.576638,8808.450710
2607.456223,612.876398,-1924.535449,8438.347739
2607.456552,306.438199,-1184.329507,8068.244768
2607.456881,306.438199,518.144159,8068.244768
2607.457210,383.047749,1406.391290,8734.430116
2607.457539,766.095498,888.247130,9326.594869
2607.457869,842.705048,518.144159,9696.697840
2607.458198,1072.533697,-0.000000,9992.780217
2607.458527,306.438199,-222.061783,9400.615463
2607.458856,766.095498,-296.082377,9178.553681
2607.459185,0.000000,-370.102971,9400.615463
2607.459514,153.219100,-1110.308913,9326.594869
2607.459843,0.000000,-1406.391290,9548.656652
2607.460172,-383.047749,-814.226536,8660.409521
2607.460501,-1302.362347,-592.164754,8660.409521
2607.460830,-383.047749,-962.267725,8808.450710
2607.461159,-383.047749,-1628.453072,9104.533087
2607.461488,-383.047749,-1332.370696,9474.636058
2607.461817,-842.705048,-1036.288319,9622.677246
2607.462146,-306.438199,-888.247130,9474.636058
2607.462475,0.000000,-296.082377,8956.491898
2607.462804,536.266849,-0.000000,9622.677246
2607.463133,459.657299,-148.041188,9548.656652
2607.463462,842.705048,-370.102971,9548.656652
2607.463791,612.876398,-74.020594,9178.553681
2607.464120,0.000000,888.247130,8216.285956
2607.464449,-383.047749,1554.432478,8290.306550
2607.464778,-919.314598,518.144159,8882.471304
2607.465107,-612.876398,-518.144159,8660.409521
2607.465436,-459.657299,-1332.370696,8882.471304
2607.465765,-306.438199,-1554.432478,8956.491898
2607.466094,-1072.533697,-1702.473667,8660.409521
2607.466424,-612.876398,-740.205942,8808.450710
2607.466753,229.828649,-740.205942,8438.347739
2607.467082,766.095498,-592.164754,8882.471304
2607.467411,1838.629195,-518.144159,8956.491898
2607.467740,2068.457845,-0.000000,8142.265362
2607.468069,2068.457845,1406.391290,7994.224174
2607.468398,1838.629195,1702.473667,8290.306550
2607.468727,1302.362347,1258.350101,9326.594869
2607.469056,995.924147,444.123565,9178.553681
2607.469385,689.485948,-0.000000,9400.615463
2607.469714,536.266849,-0.000000,8512.368333
2607.470043,0.000000,-666.185348,8956.491898
2607.470372,76.609550,-666.185348,9474.636058
2607.470701,383.047749,-1998.556043,9326.594869
2607.471030,919.314598,-1554.432478,9474.636058
2607.471359,689.485948,-1036.288319,8956.491898
2607.471688,383.047749,370.102971,8364.327145
2607.472017,306.438199,666.185348,8808.450710
2607.472346,689.485948,1036.288319,9252.574275
2607.472675,536.266849,814.226536,9770.718434
2607.473004,919.314598,-0.000000,9474.636058
2607.473333,919.314598,518.144159,10066.800811
2607.473662,612.876398,740.205942,9770.718434
2607.473991,919.314598,370.102971,9696.697840
2607.474320,1072.533697,592.164754,9178.553681
2607.474649,1302.362347,-0.000000,9400.615463
2607.474979,1608.800546,-74.020594,9474.636058
2607.475308,1225.752797,-0.000000,8586.388927
2607.475637,383.047749,888.247130,8142.265362
2607.475966,229.828649,592.164754,8734.430116
2607.476295,-383.047749,-0.000000,9696.697840
2607.476624,-383.047749,-444.123565,9844.739029
2607.476953,-383.047749,-888.247130,9474.636058
2607.477282,-612.876398,-740.205942,9400.615463
2607.477611,-306.438199,-444.123565,9474.636058
2607.477940,383.047749,-296.082377,9400.615463
2607.478269,383.047749,-962.267725,9474.636058
2607.478598,383.047749,-666.185348,9178.553681
2607.478927,689.485948,-370.102971,8808.450710
2607.479256,459.657299,740.205942,8068.244768
2607.479585,153.219100,888.247130,7846.182985
2607.479914,536.266849,444.123565,8512.368333
2607.480243,383.047749,-1110.308913,9326.594869
2607.480572,0.000000,-1406.391290,9178.553681
2607.480901,-229.828649,-1184.329507,9030.512492
2607.481230,-612.876398,-888.247130,8290.306550
2607.481559,-766.095498,-888.247130,8734.430116
2607.481888,-229.828649,-1702.473667,8808.450710
2607.482217,306.438199,-1924.535449,9252.574275
2607.482546,612.876398,-1776.494261,9030.512492
2607.482875,842.705048,-740.205942,8364.327145
2607.483204,306.438199,296.082377,8290.306550
2607.483534,0.000000,814.226536,8734.430116
2607.483863,229.828649,-0.000000,9474.636058
2607.484192,153.219100,-296.082377,9622.677246
2607.484521,383.047749,-296.082377,9252.574275
2607.484850,306.438199,148.041188,8512.368333
2607.485179,536.266849,-74.020594,9104.533087
2607.485508,612.876398,-518.144159,9178.553681
2607.485837,689.485948,-962.267725,9252.574275
2607.486166,689.485948,-1184.329507,8956.491898
2607.486495,766.095498,-296.082377,8956.491898
2607.486824,229.828649,-222.061783,9178.553681
2607.487153,76.609550,296.082377,8586.388927
2607.487482,536.266849,296.082377,8882.471304
2607.487811,383.047749,-0.000000,9548.656652
2607.488140,306.438199,-0.000000,10140.821405
2607.488469,459.657299,-74.020594,9548.656652
2607.488798,536.266849,-444.123565,9178.553681
2607.489127,842.705048,-148.041188,9252.574275
2607.489456,1455.581446,-888.247130,9474.636058
2607.489785,1532.190996,-592.164754,9918.759623
2607.490114,1762.019645,-370.102971,8882.471304
2607.490443,1532.190996,-0.000000,8512.368333
2607.490772,689.485948,1332.370696,8142.265362
2607.491101,612.876398,666.185348,8364.327145
2607.491430,842.705048,370.102971,9178.553681
2607.491759,306.438199,-370.102971,9622.677246
2607.492089,0.000000,-740.205942,9548.656652
2607.492418,-612.876398,-1110.308913,9696.697840
2607.492747,-459.657299,-814.226536,9400.615463
2607.493076,229.828649,-1036.288319,9400.615463
2607.493405,229.828649,-888.247130,9474.636058
2607.493734,612.876398,-1184.329507,9696.697840
2607.494063,1072.533697,-666.185348,9474.636058
2607.494392,383.047749,1110.308913,8290.306550
2607.494721,459.657299,1258.350101,8586.388927
2607.495050,153.219100,814.226536,8882.471304
2607.495379,229.828649,-296.082377,9696.697840
2607.495708,306.438199,-740.205942,9622.677246
2607.496037,-229.828649,-814.226536,9252.574275
2607.496366,0.000000,-222.061783,8882.471304
2607.496695,76.609550,-370.102971,8808.450710
2607.497024,689.485948,-0.000000,8808.450710
2607.497353,842.705048,-370.102971,8956.491898
2607.497682,1072.533697,-0.000000,8290.306550
2607.498011,536.266849,1184.329507,7550.100608
2607.498340,536.266849,1702.473667,8068.244768
2607.498669,0.000000,1258.350101,8882.471304
2607.498998,76.609550,-148.041188,9326.594869
2607.499327,-306.438199,-444.123565,9696.697840
2607.499656,-689.485948,-370.102971,9548.656652
2607.499985,-1378.971896,-296.082377,9326.594869
2607.500314,-1225.752797,-148.041188,9400.615463
2607.500643,-766.095498,-296.082377,9622.677246
2607.500973,0.000000,-1628.453072,8882.471304
2607.501302,0.000000,-814.226536,9030.512492
2607.501631,459.657299,-0.000000,8512.368333
2607.501960,76.609550,518.144159,8216.285956
2607.502289,306.438199,888.247130,8364.327145
2607.502618,229.828649,370.102971,8734.430116
2607.502947,689.485948,-370.102971,9548.656652
2607.503276,842.705048,-148.041188,9326.594869
2607.503605,-383.047749,-0.000000,9178.553681
2607.503934,153.219100,-0.000000,9326.594869
2607.504263,612.876398,-0.000000,8734.430116
2607.504592,689.485948,-444.123565,9474.636058
2607.504921,766.095498,-888.247130,9400.615463
2607.505250,842.705048,-888.247130,9696.697840
2607.505579,383.047749,-444.123565,8882.471304
2607.505908,76.609550,-0.000000,8808.450710
2607.506237,0.000000,-0.000000,9326.594869
2607.506566,0.000000,-444.123565,9696.697840
2607.506895,306.438199,-592.164754,9844.739029
2607.507224,306.438199,-0.000000,9474.636058
2607.507553,536.266849,-296.082377,8808.450710
2607.507882,536.266849,-0.000000,9252.574275
2607.508211,766.095498,-148.041188,8882.471304
2607.508540,1685.410096,-888.247130,8808.450710
2607.508869,1838.629195,-888.247130,9474.636058
2607.509198,1302.362347,-370.102971,8808.450710
2607.509528,689.485948,592.164754,8216.285956
2607.509857,459.657299,1554.432478,8808.450710
2607.510186,-612.876398,814.226536,9474.636058
2607.510515,229.828649,296.082377,10140.821405
2607.510844,536.266849,-444.123565,9474.636058
2607.511173,153.219100,-444.123565,8956.491898
2607.511502,0.000000,-0.000000,8660.409521
2607.511831,229.828649,-592.164754,9178.553681
2607.512160,766.095498,-1480.411884,8956.491898
2607.512489,1149.143247,-1924.535449,9030.512492
2607.512818,1225.752797,-1332.370696,8808.450710
2607.513147,1149.143247,-0.000000,7772.162391
2607.513476,612.876398,1110.308913,7402.059420
2607.513805,689.485948,888.247130,8290.306550
2607.514134,536.266849,148.041188,8808.450710
2607.514463,459.657299,-74.020594,8956.491898
2607.514792,0.000000,-444.123565,8438.347739
2607.515121,-459.657299,-592.164754,9178.553681
2607.515450,-306.438199,-1406.391290,9030.512492
2607.515779,-306.438199,-1998.556043,9474.636058
2607.516108,-459.657299,-1998.556043,9696.697840
2607.516437,-459.657299,-1924.535449,9400.615463
2607.516766,-536.266849,-888.247130,8882.471304
2607.517095,-536.266849,-0.000000,8290.306550
2607.517424,383.047749,222.061783,8512.368333
2607.517753,0.000000,-0.000000,8734.430116
2607.518083,0.000000,-370.102971,9400.615463
2607.518412,306.438199,-592.164754,9548.656652
2607.518741,153.219100,-222.061783,8660.409521
2607.519070,0.000000,-444.123565,8956.491898
2607.519399,229.828649,-666.185348,8956.491898
2607.519728,766.095498,-962.267725,9474.636058
2607.520057,1072.533697,-1036.288319,9326.594869
2607.520386,919.314598,-222.061783,8882.471304
2607.520715,459.657299,518.144159,8586.388927
2607.521044,76.609550,1110.308913,8364.327145
2607.521373,0.000000,518.144159,8586.388927
2607.521702,-229.828649,-222.061783,9474.636058
2607.522031,-459.657299,-370.102971,9030.512492
2607.522360,0.000000,-518.144159,9696.697840
2607.522689,-153.219100,-666.185348,8956.491898
2607.523018,0.000000,-444.123565,9104.533087
2607.523347,459.657299,-518.144159,9252.574275
2607.523676,1072.533697,-740.205942,9252.574275
2607.524005,995.924147,-74.020594,9104.533087
2607.524334,1302.362347,518.144159,8068.244768
2607.524663,1072.533697,1924.535449,8734.430116
2607.524992,995.924147,1702.473667,8512.368333
2607.525321,612.876398,1110.308913,9326.594869
2607.525650,459.657299,-0.000000,9622.677246
2607.525979,459.657299,-74.020594,9548.656652
2607.526308,383.047749,-370.102971,9918.759623
2607.526638,383.047749,-370.102971,9696.697840
2607.526967,153.219100,-444.123565,9104.533087
2607.527296,842.705048,-0.000000,9326.594869
2607.527625,1302.362347,-0.000000,9326.594869
2607.527954,1455.581446,518.144159,8808.450710
2607.528283,766.095498,814.226536,8290.306550
2607.528612,1225.752797,1110.308913,8734.430116
2607.528941,1072.533697,888.247130,9252.574275
2607.529270,536.266849,-0.000000,9474.636058
2607.529599,383.047749,-444.123565,9622.677246
2607.529928,536.266849,-444.123565,9474.636058
2607.530257,76.609550,-518.144159,9104.533087
2607.530586,229.828649,-0.000000,8734.430116
2607.530915,689.485948,-666.185348,9030.512492
2607.531244,229.828649,-518.144159,9030.512492
2607.531573,612.876398,-962.267725,9474.636058
2607.531902,76.609550,-222.061783,8364.327145
2607.532231,-229.828649,-370.102971,8364.327145
2607.532560,-229.828649,-74.020594,8956.491898
2607.532889,-459.657299,-666.185348,9030.512492
2607.533218,0.000000,-888.247130,9400.615463
2607.533547,0.000000,-1110.308913,9474.636058
2607.533877,-383.047749,-1110.308913,8882.471304
2607.534206,-383.047749,-666.185348,9030.512492
2607.534535,306.438199,-740.205942,8808.450710
2607.534864,1225.752797,-962.267725,8808.450710
2607.535193,1225.752797,-888.247130,8808.450710
2607.535522,1455.581446,-888.247130,8438.347739
2607.535851,306.438199,-296.082377,8216.285956
2607.536180,76.609550,740.205942,8364.327145
2607.536509,229.828649,592.164754,8290.306550
2607.536838,-306.438199,148.041188,8956.491898
2607.537168,-459.657299,-222.061783,9474.636058
2607.537497,-842.705048,-222.061783,9104.533087
2607.537826,-1455.581446,-814.226536,9104.533087
2607.538155,-766.095498,-1110.308913,9474.636058
2607.538484,-995.924147,-1776.494261,9992.780217
2607.538813,-612.876398,-1702.473667,9548.656652
2607.539142,-229.828649,-1554.432478,9844.739029
2607.539471,0.000000,-296.082377,9252.574275
2607.539800,-306.438199,444.123565,8142.265362
2607.540129,459.657299,1110.308913,8660.409521
2607.540459,612.876398,814.226536,8808.450710
2607.540788,995.924147,148.041188,9474.636058
2607.541117,842.705048,-0.000000,9326.594869
2607.541446,306.438199,-74.020594,8956.491898
2607.541775,229.828649,296.082377,9030.512492
2607.542104,383.047749,-296.082377,9326.594869
2607.542433,995.924147,-1184.329507,9400.615463
2607.542762,919.314598,-1332.370696,9326.594869
2607.543091,1378.971896,-592.164754,8734.430116
2607.543421,689.485948,222.061783,8586.388927
2607.543750,689.485948,888.247130,8438.347739
2607.544079,766.095498,592.164754,8808.450710
2607.544408,995.924147,-74.020594,8882.471304
2607.544737,995.924147,-444.123565,8882.471304
2607.545066,919.314598,-518.144159,8660.409521
2607.545395,536.266849,-962.267725,8808.450710
2607.545724,1072.533697,-518.144159,8734.430116
2607.546053,995.924147,-1258.350101,9178.553681
2607.546382,1302.362347,-962.267725,9178.553681
2607.546712,842.705048,-592.164754,8808.450710
2607.547041,229.828649,-0.000000,8808.450710
2607.547370,-689.485948,148.041188,8290.306550
2607.547699,-612.876398,148.041188,9104.533087
2607.548028,-919.314598,-0.000000,9918.759623
2607.548357,-536.266849,-888.247130,9622.677246
2607.548686,-383.047749,-1110.308913,10288.862594
2607.549015,-536.266849,-814.226536,9326.594869
2607.549344,76.609550,-888.247130,9548.656652
2607.549673,612.876398,-814.226536,9474.636058
2607.550003,766.095498,-222.061783,8660.409521
2607.550332,2145.067394,148.041188,8956.491898
2607.550661,2298.286494,962.267725,8512.368333
2607.550990,1685.410096,1702.473667,7920.203579
2607.551319,1685.410096,1850.514855,8068.244768
2607.551648,1455.581446,1924.535449,8956.491898
2607.551977,1302.362347,148.041188,9622.677246
2607.552306,459.657299,-666.185348,9474.636058
2607.552635,0.000000,-518.144159,10140.821405
2607.552965,-995.924147,-370.102971,9178.553681
2607.553294,-1149.143247,-148.041188,8808.450710
2607.553623,-919.314598,-592.164754,9622.677246
2607.553952,-766.095498,-1184.329507,9844.739029
2607.554281,-459.657299,-518.144159,9474.636058
2607.554610,-766.095498,-962.267725,8808.450710
2607.554939,-153.219100,592.164754,8290.306550
2607.555268,-306.438199,1110.308913,8734.430116
2607.555597,383.047749,370.102971,9252.574275
2607.555926,459.657299,-0.000000,9178.553681
2607.556256,766.095498,-666.185348,8956.491898
2607.556585,842.705048,370.102971,8438.347739
2607.556914,612.876398,444.123565,7624.121203
2607.557243,689.485948,-0.000000,8882.471304
2607.557572,612.876398,-518.144159,8512.368333
2607.557901,842.705048,-814.226536,9178.553681
2607.558230,612.876398,-666.185348,8660.409521
2607.558559,-153.219100,-296.082377,8142.265362
2607.558888,-229.828649,-0.000000,8882.471304
2607.559217,-612.876398,-74.020594,9918.759623
2607.559547,-766.095498,-1184.329507,10288.862594
2607.559876,-612.876398,-888.247130,9918.759623
2607.560205,-459.657299,-370.102971,9474.636058
2607.560534,-536.266849,296.082377,9178.553681
2607.560863,306.438199,-148.041188,9252.574275
2607.561192,612.876398,-518.144159,8808.450710
2607.561521,919.314598,-666.185348,9474.636058
2607.561850,1302.362347,-740.205942,9326.594869
2607.562179,1225.752797,-222.061783,8660.409521
2607.562509,766.095498,1110.308913,9252.574275
2607.562838,536.266849,1332.370696,8512.368333
2607.563167,76.609550,296.082377,9548.656652
2607.563496,76.609550,222.061783,9918.759623
2607.563825,0.000000,-0.000000,9548.656652
2607.564154,-229.828649,-0.000000,9474.636058
2607.564483,153.219100,-296.082377,9030.512492
2607.564812,76.609550,-370.102971,9696.697840
2607.565141,842.705048,-888.247130,9844.739029
2607.565470,1225.752797,-740.205942,8882.471304
2607.565800,1532.190996,-74.020594,8290.306550
2607.566129,1455.581446,1258.350101,8142.265362
2607.566458,1608.800546,1480.411884,7994.224174
2607.566787,1685.410096,888.247130,9104.533087
2607.567116,1149.143247,814.226536,9252.574275
2607.567445,842.705048,222.061783,9474.636058
2607.567774,612.876398,296.082377,9400.615463
2607.568103,536.266849,-74.020594,9400.615463
2607.568432,612.876398,-592.164754,9474.636058
2607.568761,459.657299,-814.226536,9178.553681
2607.569091,842.705048,-1480.411884,9474.636058
2607.569420,229.828649,-740.205942,9326.594869
2607.569749,0.000000,148.041188,8808.450710
2607.570078,-842.705048,1110.308913,8438.347739
2607.570407,-383.047749,1110.308913,8882.471304
2607.570736,-689.485948,-74.020594,9474.636058
2607.571065,-383.047749,-1332.370696,10362.883188
2607.571394,-536.266849,-1110.308913,9770.718434
2607.571723,-842.705048,-1480.411884,9326.594869
2607.572053,-153.219100,-518.144159,9400.615463
2607.572382,536.266849,-1184.329507,9474.636058
2607.572711,1072.533697,-962.267725,9400.615463
2607.573040,1685.410096,-444.123565,9030.512492
2607.573369,1302.362347,-222.061783,7994.224174
2607.573698,1072.533697,1554.432478,7105.977043
2607.574027,1302.362347,2294.638420,8142.265362
2607.574356,536.266849,592.164754,8808.450710
2607.574685,153.219100,-518.144159,9992.780217
2607.575014,0.000000,-814.226536,9400.615463
2607.575344,-536.266849,-962.267725,9326.594869
2607.575673,-1532.190996,-444.123565,9474.636058
2607.576002,-995.924147,-1036.288319,9622.677246
2607.576331,-306.438199,-814.226536,9622.677246
2607.576660,-306.438199,-1110.308913,9326.594869
2607.576989,383.047749,-444.123565,8586.388927
2607.577318,0.000000,962.267725,8068.244768
2607.577647,0.000000,1258.350101,8142.265362
2607.577976,459.657299,962.267725,8882.471304
2607.578305,536.266849,592.164754,9326.594869
2607.578635,383.047749,-148.041188,9252.574275
2607.578964,0.000000,370.102971,9400.615463
2607.579293,-153.219100,370.102971,8660.409521
2607.579622,0.000000,222.061783,8660.409521
2607.579951,229.828649,296.082377,9030.512492
2607.580280,766.095498,-666.185348,9178.553681
2607.580609,766.095498,-1110.308913,9178.553681
2607.580938,766.095498,-0.000000,8438.347739
2607.581267,689.485948,-74.020594,8364.327145
2607.581597,459.657299,666.185348,9030.512492
2607.581926,459.657299,370.102971,9548.656652
2607.582255,536.266849,-296.082377,9548.656652
2607.582584,995.924147,222.061783,9474.636058
2607.582913,1072.533697,518.144159,9252.574275
2607.583242,1302.362347,-74.020594,8364.327145
2607.583571,1072.533697,592.164754,8512.368333
2607.583900,1149.143247,-0.000000,9326.594869
2607.584229,842.705048,-592.164754,9474.636058
2607.584558,919.314598,-370.102971,9326.594869
