#time,accel_x,accel_y,accel_z
2684.270473,383.047749,-0.000000,9104.533087
2684.270802,229.828649,-222.061783,9326.594869
2684.271131,76.609550,-0.000000,8956.491898
2684.271460,0.000000,-0.000000,8956.491898
2684.271789,383.047749,148.041188,8956.491898
2684.272118,689.485948,-148.041188,8808.450710
2684.272447,0.000000,-0.000000,9178.553681
2684.272776,459.657299,-222.061783,8956.491898
2684.273105,459.657299,-0.000000,8956.491898
2684.273434,383.047749,-148.041188,9030.512492
2684.273763,153.219100,-148.041188,9104.533087
2684.274092,383.047749,-148.041188,9104.533087
2684.274421,229.828649,-370.102971,9104.533087
2684.274750,306.438199,-444.123565,9400.615463
2684.275079,153.219100,-148.041188,9104.533087
2684.275408,0.000000,-296.082377,9474.636058
2684.275737,536.266849,-222.061783,9252.574275
2684.276066,459.657299,-74.020594,9400.615463
2684.276395,459.657299,-296.082377,9104.533087
2684.276724,459.657299,-444.123565,9252.574275
2684.277053,536.266849,-296.082377,9104.533087
2684.277382,459.657299,-296.082377,9030.512492
2684.277711,536.266849,-444.123565,9030.512492
2684.278040,153.219100,-222.061783,9178.553681
2684.278369,229.828649,-74.020594,9104.533087
2684.278698,153.219100,-148.041188,9400.615463
2684.279027,383.047749,-296.082377,9104.533087
2684.279356,306.438199,-74.020594,9326.594869
2684.279685,536.266849,-148.041188,9326.594869
2684.280014,306.438199,-296.082377,9178.553681
2684.280343,536.266849,-74.020594,8808.450710
2684.280672,306.438199,-0.000000,8882.471304
2684.281001,459.657299,-0.000000,8882.471304
2684.281330,536.266849,-74.020594,8956.491898
2684.281659,0.000000,-0.000000,9104.533087
2684.281988,1225.752797,-0.000000,9252.574275
2684.282317,153.219100,-222.061783,9030.512492
2684.282646,229.828649,-0.000000,9104.533087
2684.282975,76.609550,-74.020594,8882.471304
2684.283304,229.828649,-148.041188,9104.533087
2684.283633,306.438199,-370.102971,8882.471304
2684.283962,383.047749,-222.061783,9400.615463
2684.284291,229.828649,-296.082377,8808.450710
2684.284620,612.876398,-148.041188,8956.491898
2684.284949,229.828649,-0.000000,8956.491898
2684.285278,459.657299,-0.000000,9104.533087
2684.285607,459.657299,-74.020594,9030.512492
2684.285936,459.657299,-74.020594,9178.553681
2684.286265,536.266849,-296.082377,9474.636058
2684.286594,689.485948,-370.102971,9400.615463
2684.286923,76.609550,-296.082377,9178.553681
2684.287252,153.219100,-518.144159,9252.574275
2684.287581,306.438199,-222.061783,9326.594869
2684.287910,229.828649,-296.082377,9252.574275
2684.288239,766.095498,-0.000000,9474.636058
2684.288568,229.828649,-740.205942,9252.574275
2684.288897,689.485948,-222.061783,9104.533087
2684.289226,153.219100,-148.041188,8882.471304
2684.289555,383.047749,-222.061783,9104.533087
2684.289884,229.828649,-148.041188,9104.533087
2684.290213,306.438199,-74.020594,9030.512492
2684.290542,229.828649,-370.102971,9104.533087
2684.290871,229.828649,-148.041188,9252.574275
2684.291200,536.266849,-370.102971,8808.450710
2684.291529,0.000000,-296.082377,9400.615463
2684.291858,229.828649,-74.020594,8882.471304
2684.292187,229.828649,-74.020594,8882.471304
2684.292516,536.266849,-0.000000,9030.512492
2684.292845,919.314598,-74.020594,8956.491898
2684.293174,536.266849,-370.102971,8734.430116
2684.293503,383.047749,-74.020594,9030.512492
2684.293832,536.266849,-0.000000,8956.491898
2684.294161,229.828649,-74.020594,8734.430116
2684.294490,76.609550,-0.000000,8882.471304
2684.294819,153.219100,-222.061783,9178.553681
2684.295148,229.828649,-222.061783,8882.471304
2684.295477,153.219100,-740.205942,9178.553681
2684.295806,306.438199,-370.102971,9326.594869
2684.296135,306.438199,-222.061783,9178.553681
2684.296464,459.657299,-370.102971,9104.533087
2684.296793,383.047749,-74.020594,9030.512492
2684.297122,612.876398,-0.000000,8808.450710
2684.297451,536.266849,-0.000000,8808.450710
2684.297780,536.266849,-370.102971,8956.491898
2684.298109,842.705048,-444.123565,9178.553681
2684.298438,995.924147,-444.123565,9030.512492
2684.298767,76.609550,-148.041188,9400.615463
2684.299096,153.219100,-222.061783,9252.574275
2684.299425,153.219100,-444.123565,9178.553681
2684.299754,306.438199,-0.000000,9400.615463
2684.300083,383.047749,-0.000000,9252.574275
2684.300412,-153.219100,-444.123565,9252.574275
2684.300741,383.047749,-370.102971,9326.594869
2684.301070,229.828649,-0.000000,9104.533087
2684.301399,536.266849,-148.041188,9400.615463
2684.301728,1532.190996,-814.226536,9696.697840
2684.302057,1225.752797,-0.000000,9400.615463
2684.302386,1608.800546,-370.102971,9770.718434
2684.302715,2145.067394,-370.102971,9178.553681
2684.303044,2681.334243,518.144159,8512.368333
2684.303373,2987.772442,518.144159,8660.409521
2684.303702,3907.087040,-222.061783,8882.471304
2684.304031,3447.429741,-0.000000,8364.327145
2684.304360,2834.553343,592.164754,8586.388927
2684.304689,2987.772442,296.082377,8512.368333
2684.305018,2757.943793,-444.123565,9474.636058
2684.305347,3064.381992,-740.205942,8956.491898
2684.305676,1532.190996,-666.185348,9030.512492
2684.306005,2145.067394,-1332.370696,9992.780217
2684.306334,2604.724693,-1258.350101,9104.533087
2684.306663,2757.943793,370.102971,9178.553681
2684.306992,2681.334243,-1184.329507,9918.759623
2684.307321,2681.334243,-370.102971,8956.491898
2684.307650,3677.258390,666.185348,9696.697840
2684.307979,4979.620737,592.164754,7698.141797
2684.308308,4519.963438,888.247130,8438.347739
2684.308637,4290.134789,1036.288319,9400.615463
2684.308966,4213.525239,666.185348,7846.182985
2684.309295,3830.477490,296.082377,8808.450710
2684.309624,3830.477490,-0.000000,9326.594869
2684.309953,2834.553343,296.082377,8512.368333
2684.310282,2145.067394,-148.041188,9918.759623
2684.310611,1455.581446,-888.247130,9474.636058
2684.310940,1762.019645,-814.226536,9918.759623
2684.311269,612.876398,-1332.370696,9548.656652
2684.311598,2298.286494,-518.144159,9622.677246
2684.311927,1915.238745,-740.205942,9992.780217
2684.312256,3753.867940,222.061783,7920.203579
2684.312585,3677.258390,-148.041188,9326.594869
2684.312914,4213.525239,1184.329507,8882.471304
2684.313243,4213.525239,444.123565,8068.244768
2684.313572,4290.134789,962.267725,8142.265362
2684.313901,3524.039291,518.144159,9104.533087
2684.314229,3753.867940,-0.000000,8956.491898
2684.314558,3370.820191,-1184.329507,9030.512492
2684.314887,2604.724693,-1110.308913,9104.533087
2684.315216,2757.943793,-1480.411884,9992.780217
2684.315545,1762.019645,-1628.453072,9400.615463
2684.315874,2374.896044,-1554.432478,9992.780217
2684.316203,2911.162892,-888.247130,9474.636058
2684.316532,3677.258390,-222.061783,9474.636058
2684.316861,3830.477490,370.102971,8808.450710
2684.317190,3907.087040,1184.329507,8586.388927
2684.317519,4060.306139,2294.638420,8364.327145
2684.317848,4366.744339,2294.638420,7550.100608
2684.318177,3983.696590,1850.514855,7698.141797
2684.318506,3677.258390,1184.329507,7994.224174
2684.318835,3447.429741,518.144159,7624.121203
2684.319164,2451.505594,-1110.308913,9252.574275
2684.319493,2298.286494,-1628.453072,9992.780217
2684.319822,1915.238745,-2664.741391,10066.800811
2684.320151,2068.457845,-2590.720797,10955.047942
2684.320480,2451.505594,-2886.803174,10881.027347
2684.320809,3524.039291,-2220.617826,10584.944971
2684.321138,4519.963438,-74.020594,9548.656652
2684.321467,5439.278036,1184.329507,9770.718434
2684.321796,6052.154434,1850.514855,8882.471304
2684.322125,5362.668486,2442.679609,8290.306550
2684.322454,4749.792088,3108.864956,7402.059420
2684.322783,4596.572988,3923.091493,6957.935855
2684.323112,4366.744339,2220.617826,7328.038826
2684.323441,3294.210641,1184.329507,7402.059420
2684.323770,919.314598,-1480.411884,9548.656652
2684.324099,-306.438199,-3775.050304,10955.047942
2684.324428,-1149.143247,-3701.029710,11177.109724
2684.324757,-842.705048,-5625.565159,11547.212695
2684.325086,-995.924147,-2368.659014,9992.780217
2684.325415,612.876398,-1850.514855,11325.150913
2684.325744,0.000000,-444.123565,9548.656652
2684.326073,3600.648841,370.102971,11103.089130
2684.326402,5898.935335,1776.494261,8808.450710
2684.326731,7277.907231,1628.453072,8216.285956
2684.327060,5745.716235,962.267725,8438.347739
2684.327389,5975.544884,2072.576638,6143.709319
2684.327718,6358.592633,2960.823768,7105.977043
2684.328047,5132.839837,2146.597232,6661.853478
2684.328376,4903.011187,3923.091493,5625.565159
2684.328705,4903.011187,2368.659014,7105.977043
2684.329034,4519.963438,1554.432478,5625.565159
2684.329363,4519.963438,-518.144159,7846.182985
2684.329692,919.314598,-5995.668130,11029.068536
2684.330021,-459.657299,-6439.791695,12361.439231
2684.330350,-612.876398,-2886.803174,12065.356855
2684.330679,-995.924147,-7550.100608,13915.871710
2684.331008,-1762.019645,-370.102971,10066.800811
2684.331337,1915.238745,370.102971,12731.542202
2684.331666,3370.820191,-0.000000,10955.047942
2684.331995,4749.792088,2516.700203,8808.450710
2684.332324,7814.174080,222.061783,9474.636058
2684.332653,8120.612279,2664.741391,7624.121203
2684.332982,7890.783629,3775.050304,6661.853478
2684.333311,7277.907231,2886.803174,4959.379811
2684.333640,7201.297681,814.226536,5551.544565
2684.333969,6435.202183,2294.638420,6439.791695
2684.334298,5439.278036,814.226536,6291.750507
2684.334627,4673.182538,1702.473667,5847.626942
2684.334956,4136.915689,-1776.494261,8734.430116
2684.335285,1225.752797,-3849.070898,12435.459826
2684.335614,-1915.238745,-5847.626942,12583.501014
2684.335943,-2757.943793,-1036.288319,12509.480420
2684.336272,-1302.362347,-7550.100608,13841.851115
2684.336601,-1225.752797,444.123565,10066.800811
2684.336930,1915.238745,1184.329507,12287.418637
2684.337259,689.485948,1406.391290,9918.759623
2684.337588,2604.724693,1110.308913,13249.686362
2684.337917,7431.126331,444.123565,6735.874072
2684.338246,9806.022374,2294.638420,7846.182985
2684.338575,6052.154434,1258.350101,7105.977043
2684.338904,7277.907231,2072.576638,4663.297435
2684.339233,6052.154434,814.226536,7624.121203
2684.339562,5132.839837,888.247130,6439.791695
2684.339891,5132.839837,1924.535449,6069.688724
2684.340220,2757.943793,2294.638420,7920.203579
2684.340549,2528.115143,444.123565,7994.224174
2684.340878,2298.286494,-0.000000,10140.821405
2684.341207,1225.752797,-3404.947333,10436.903782
2684.341536,229.828649,-2072.576638,11177.109724
2684.341865,383.047749,-3552.988522,12805.562797
2684.342194,-459.657299,-3849.070898,11325.150913
2684.342523,229.828649,370.102971,10658.965565
2684.342852,2374.896044,592.164754,9696.697840
2684.343181,2374.896044,1776.494261,8734.430116
2684.343510,3677.258390,666.185348,8068.244768
2684.343839,4060.306139,814.226536,8734.430116
2684.344168,4060.306139,1554.432478,8142.265362
2684.344497,3677.258390,-0.000000,7550.100608
2684.344826,3600.648841,-1702.473667,7994.224174
2684.345155,2911.162892,-1776.494261,9252.574275
2684.345484,1608.800546,-1776.494261,10510.924376
2684.345813,1991.848295,-1406.391290,10584.944971
2684.346142,1225.752797,-1480.411884,10214.842000
2684.346471,3064.381992,-74.020594,10362.883188
2684.346800,2987.772442,592.164754,8882.471304
2684.347129,3753.867940,740.205942,10362.883188
2684.347458,3677.258390,1258.350101,8882.471304
2684.347788,5286.058936,1332.370696,8142.265362
2684.348117,5592.497135,1998.556043,7698.141797
2684.348446,5209.449386,1702.473667,7476.080014
2684.348775,4519.963438,518.144159,8364.327145
2684.349104,4290.134789,-0.000000,7550.100608
2684.349433,3677.258390,444.123565,7920.203579
2684.349762,1608.800546,-740.205942,9770.718434
2684.350092,383.047749,-1776.494261,10362.883188
2684.350421,0.000000,-2146.597232,10807.006753
2684.350750,612.876398,-1628.453072,10288.862594
2684.351079,1455.581446,-1480.411884,10066.800811
2684.351408,842.705048,-1406.391290,10436.903782
2684.351737,1915.238745,-370.102971,10881.027347
2684.352067,3830.477490,888.247130,9104.533087
2684.352396,5975.544884,1406.391290,8216.285956
2684.352725,6281.983084,1924.535449,8216.285956
2684.353054,5056.230287,1184.329507,8660.409521
2684.353383,4749.792088,1184.329507,7550.100608
2684.353712,5822.325785,1184.329507,7476.080014
2684.354042,5745.716235,222.061783,7698.141797
2684.354371,4596.572988,740.205942,8290.306550
2684.354700,2528.115143,-0.000000,8882.471304
2684.355029,1302.362347,-1628.453072,9474.636058
2684.355358,383.047749,-740.205942,9548.656652
2684.355687,-536.266849,-1998.556043,10510.924376
2684.356016,-1608.800546,-1110.308913,10807.006753
2684.356346,-1608.800546,814.226536,8438.347739
2684.356675,-919.314598,-1406.391290,10584.944971
2684.357004,-612.876398,-1998.556043,11769.274478
2684.357333,-842.705048,-1184.329507,9474.636058
2684.357662,-306.438199,-444.123565,8438.347739
2684.357991,153.219100,370.102971,7254.018232
2684.358321,459.657299,296.082377,9474.636058
2684.358650,1072.533697,-370.102971,9252.574275
2684.358979,1762.019645,-0.000000,7698.141797
2684.359308,1532.190996,-888.247130,7624.121203
2684.359637,1455.581446,666.185348,7772.162391
2684.359966,1378.971896,-814.226536,9326.594869
2684.360295,689.485948,-0.000000,8512.368333
2684.360625,0.000000,1110.308913,7550.100608
2684.360954,-1378.971896,296.082377,9030.512492
2684.361283,-1072.533697,-814.226536,9696.697840
2684.361612,-1149.143247,-444.123565,9326.594869
2684.361941,-1072.533697,-592.164754,9104.533087
2684.362270,-2145.067394,-2146.597232,9474.636058
2684.362600,-1302.362347,-1702.473667,9992.780217
2684.362929,-612.876398,-1776.494261,9918.759623
2684.363258,0.000000,-962.267725,8734.430116
2684.363587,1225.752797,-444.123565,9178.553681
2684.363916,3064.381992,-0.000000,8808.450710
2684.364245,3600.648841,-0.000000,8364.327145
2684.364574,3677.258390,888.247130,8142.265362
2684.364904,3447.429741,740.205942,7624.121203
2684.365233,3370.820191,1850.514855,7994.224174
2684.365562,3064.381992,1258.350101,8882.471304
2684.365891,1532.190996,2516.700203,7994.224174
2684.366220,-383.047749,-0.000000,9770.718434
2684.366549,-766.095498,296.082377,9178.553681
2684.366879,-1532.190996,-518.144159,9696.697840
2684.367208,-2298.286494,-2368.659014,10288.862594
2684.367537,-2451.505594,-2368.659014,9992.780217
2684.367866,-1225.752797,-1554.432478,10140.821405
2684.368195,-1685.410096,-962.267725,9474.636058
2684.368524,-1149.143247,-1036.288319,10510.924376
2684.368853,-1532.190996,-1184.329507,10362.883188
2684.369183,0.000000,-148.041188,9326.594869
2684.369512,-229.828649,-0.000000,9400.615463
2684.369841,-306.438199,-1036.288319,10214.842000
2684.370170,459.657299,-74.020594,10140.821405
2684.370499,2911.162892,1850.514855,7550.100608
2684.370828,2451.505594,1850.514855,8142.265362
2684.371158,1915.238745,2960.823768,6587.832884
2684.371487,2451.505594,2664.741391,7328.038826
2684.371816,1302.362347,2442.679609,7328.038826
2684.372145,229.828649,-0.000000,8290.306550
2684.372474,-459.657299,-1480.411884,9474.636058
2684.372803,-1225.752797,-740.205942,9696.697840
2684.373132,-1608.800546,-2368.659014,10140.821405
2684.373462,-1532.190996,-2146.597232,9992.780217
2684.373791,-612.876398,-1776.494261,9400.615463
2684.374120,0.000000,-666.185348,9696.697840
2684.374449,689.485948,-740.205942,9326.594869
2684.374778,-766.095498,-1258.350101,9696.697840
2684.375107,919.314598,-1776.494261,10214.842000
2684.375437,1915.238745,888.247130,8438.347739
2684.375766,2604.724693,962.267725,7846.182985
2684.376095,1762.019645,1332.370696,7550.100608
2684.376424,2528.115143,2516.700203,7920.203579
2684.376753,2681.334243,1258.350101,8290.306550
2684.377082,1685.410096,740.205942,7920.203579
2684.377411,0.000000,-1406.391290,9622.677246
2684.377741,76.609550,-2368.659014,9992.780217
2684.378070,-1455.581446,-1776.494261,10140.821405
2684.378399,-1915.238745,-1998.556043,9918.759623
2684.378728,-1378.971896,-1998.556043,9548.656652
2684.379057,-689.485948,-1110.308913,9770.718434
2684.379386,0.000000,-518.144159,9030.512492
2684.379716,383.047749,-444.123565,9104.533087
2684.380045,1149.143247,-592.164754,9696.697840
2684.380374,1532.190996,1036.288319,8438.347739
2684.380703,1608.800546,2146.597232,7698.141797
2684.381032,995.924147,1110.308913,7994.224174
2684.381361,153.219100,1554.432478,8068.244768
2684.381690,383.047749,1110.308913,8512.368333
2684.382020,153.219100,-0.000000,8512.368333
2684.382349,-1532.190996,-592.164754,9104.533087
2684.382678,-995.924147,-1998.556043,10584.944971
2684.383007,-306.438199,-1332.370696,9104.533087
2684.383336,-612.876398,-1184.329507,9030.512492
2684.383665,-1149.143247,-666.185348,9252.574275
2684.383995,-919.314598,222.061783,9400.615463
2684.384324,229.828649,-148.041188,9770.718434
2684.384653,-229.828649,-74.020594,8586.388927
2684.384982,-1225.752797,-1036.288319,9992.780217
2684.385311,0.000000,-666.185348,10881.027347
2684.385640,383.047749,-0.000000,9400.615463
2684.385969,536.266849,296.082377,8142.265362
2684.386299,919.314598,518.144159,7994.224174
2684.386628,1149.143247,1258.350101,7550.100608
2684.386957,1455.581446,1036.288319,7624.121203
2684.387286,1072.533697,-0.000000,8438.347739
2684.387615,459.657299,-1406.391290,9992.780217
2684.387944,536.266849,-740.205942,9918.759623
2684.388274,0.000000,-222.061783,9844.739029
2684.388603,76.609550,-592.164754,10140.821405
2684.388932,536.266849,444.123565,9622.677246
2684.389261,1532.190996,666.185348,9992.780217
2684.389590,1915.238745,740.205942,8956.491898
2684.389919,2145.067394,-0.000000,8734.430116
2684.390248,1762.019645,-296.082377,9474.636058
2684.390578,1608.800546,1184.329507,8956.491898
2684.390907,1455.581446,518.144159,8808.450710
2684.391236,459.657299,-0.000000,8364.327145
2684.391565,536.266849,-296.082377,8438.347739
2684.391894,383.047749,-222.061783,9326.594869
2684.392223,0.000000,-888.247130,9104.533087
2684.392553,-383.047749,-1924.535449,9770.718434
2684.392882,-459.657299,-1036.288319,10140.821405
2684.393211,0.000000,-222.061783,9326.594869
2684.393540,-306.438199,222.061783,8956.491898
2684.393869,153.219100,444.123565,9548.656652
2684.394198,1302.362347,370.102971,8438.347739
2684.394527,2068.457845,962.267725,7772.162391
2684.394857,1685.410096,592.164754,7920.203579
2684.395186,1072.533697,296.082377,7624.121203
2684.395515,459.657299,-0.000000,8586.388927
2684.395844,-383.047749,444.123565,8586.388927
2684.396173,-1455.581446,-1110.308913,9104.533087
2684.396502,-2145.067394,-1406.391290,9474.636058
2684.396832,-919.314598,-518.144159,9326.594869
2684.397161,-1149.143247,-1258.350101,8660.409521
2684.397490,-1532.190996,-1924.535449,9104.533087
2684.397819,-1302.362347,-1998.556043,10362.883188
2684.398148,-1685.410096,-1554.432478,10214.842000
2684.398477,-995.924147,-1406.391290,10288.862594
2684.398806,-383.047749,-518.144159,9178.553681
2684.399136,383.047749,-0.000000,8808.450710
2684.399465,919.314598,-0.000000,10288.862594
2684.399794,2068.457845,-1110.308913,9770.718434
2684.400123,2757.943793,740.205942,7698.141797
2684.400452,3600.648841,1776.494261,7328.038826
2684.400781,3217.601092,2294.638420,6143.709319
2684.401111,2528.115143,1258.350101,7846.182985
2684.401440,995.924147,-0.000000,8882.471304
2684.401769,383.047749,370.102971,8364.327145
2684.402098,76.609550,-888.247130,9326.594869
2684.402427,-536.266849,-1776.494261,9844.739029
2684.402756,-1302.362347,-2294.638420,10288.862594
2684.403085,-1149.143247,-1776.494261,10732.986159
2684.403415,229.828649,-1110.308913,9474.636058
2684.403744,536.266849,-592.164754,9696.697840
2684.404073,459.657299,-0.000000,9474.636058
2684.404402,1762.019645,962.267725,9696.697840
2684.404731,2374.896044,592.164754,8586.388927
2684.405060,2604.724693,1480.411884,7402.059420
2684.405390,2374.896044,1332.370696,7179.997637
2684.405719,2528.115143,1554.432478,8438.347739
2684.406048,2145.067394,222.061783,7994.224174
2684.406377,919.314598,-666.185348,7624.121203
2684.406706,-842.705048,-1036.288319,9252.574275
2684.407035,-766.095498,-1406.391290,9918.759623
2684.407364,-1762.019645,-2294.638420,9474.636058
2684.407694,-3140.991542,-2146.597232,10510.924376
2684.408023,-2145.067394,-2294.638420,10955.047942
2684.408352,-1532.190996,-666.185348,10288.862594
2684.408681,-842.705048,-888.247130,11029.068536
2684.409010,-689.485948,1184.329507,8512.368333
2684.409339,153.219100,148.041188,9770.718434
2684.409669,1915.238745,296.082377,9770.718434
2684.409998,1991.848295,1776.494261,7031.956449
2684.410327,3064.381992,962.267725,7920.203579
2684.410656,2681.334243,1480.411884,6587.832884
2684.410985,2834.553343,1702.473667,7772.162391
2684.411314,766.095498,-0.000000,8734.430116
2684.411643,-536.266849,-0.000000,8438.347739
2684.411973,-1532.190996,-1184.329507,9770.718434
2684.412302,-1149.143247,-814.226536,9844.739029
2684.412631,-1762.019645,-2146.597232,9548.656652
2684.412960,-1915.238745,-2368.659014,11177.109724
2684.413289,-612.876398,-1406.391290,10436.903782
2684.413618,-306.438199,-370.102971,9622.677246
2684.413948,-229.828649,518.144159,9474.636058
2684.414277,0.000000,518.144159,9326.594869
2684.414606,1532.190996,-296.082377,9918.759623
2684.414935,3064.381992,1406.391290,6735.874072
2684.415264,3294.210641,962.267725,7254.018232
2684.415593,1991.848295,666.185348,6809.894666
2684.415922,2987.772442,1258.350101,8438.347739
2684.416252,1991.848295,-0.000000,8734.430116
2684.416581,76.609550,-518.144159,6661.853478
2684.416910,0.000000,-1184.329507,9474.636058
2684.417239,-612.876398,-1258.350101,9326.594869
2684.417568,-919.314598,-1776.494261,9104.533087
2684.417897,-1762.019645,-1850.514855,10584.944971
2684.418227,-1378.971896,-1110.308913,10510.924376
2684.418556,-306.438199,-814.226536,10510.924376
2684.418885,-459.657299,370.102971,9696.697840
2684.419214,76.609550,740.205942,8808.450710
2684.419543,1915.238745,1036.288319,9030.512492
2684.419872,2451.505594,1554.432478,8068.244768
2684.420201,1838.629195,1850.514855,8808.450710
2684.420531,1455.581446,444.123565,9178.553681
2684.420860,919.314598,296.082377,8512.368333
2684.421189,383.047749,-296.082377,9030.512492
2684.421518,-689.485948,-1110.308913,9104.533087
2684.421847,-1991.848295,-1110.308913,9844.739029
2684.422176,-1378.971896,-1258.350101,11029.068536
2684.422506,-842.705048,-666.185348,9770.718434
2684.422835,-1455.581446,-814.226536,9844.739029
2684.423164,-1608.800546,-1036.288319,10658.965565
2684.423493,-1072.533697,-518.144159,10658.965565
2684.423822,-383.047749,-0.000000,9696.697840
2684.424151,-536.266849,296.082377,9474.636058
2684.424480,306.438199,-222.061783,10288.862594
2684.424810,2298.286494,518.144159,9696.697840
2684.425139,2451.505594,1036.288319,7698.141797
2684.425468,2451.505594,740.205942,8142.265362
2684.425797,2528.115143,592.164754,6883.915261
2684.426126,2987.772442,1258.350101,7846.182985
2684.426455,2298.286494,518.144159,7624.121203
2684.426785,612.876398,-666.185348,7920.203579
2684.427114,-536.266849,-814.226536,9474.636058
2684.427443,-689.485948,-1406.391290,9030.512492
2684.427772,-1072.533697,-814.226536,9178.553681
2684.428101,-1838.629195,-2146.597232,10214.842000
2684.428430,-1302.362347,-1110.308913,9400.615463
2684.428759,-689.485948,-1924.535449,10732.986159
2684.429089,995.924147,-296.082377,8142.265362
2684.429418,0.000000,740.205942,7105.977043
2684.429747,1378.971896,-962.267725,10658.965565
2684.430076,2757.943793,592.164754,7846.182985
2684.430405,2757.943793,962.267725,8216.285956
2684.430734,2451.505594,222.061783,7105.977043
2684.431064,3830.477490,1554.432478,7254.018232
2684.431393,1378.971896,-0.000000,7179.997637
2684.431722,1685.410096,-0.000000,7328.038826
2684.432051,76.609550,-1036.288319,9622.677246
2684.432380,-2221.676944,-888.247130,9770.718434
2684.432709,-1915.238745,-1110.308913,10288.862594
2684.433038,-2451.505594,-1554.432478,9992.780217
2684.433368,-1532.190996,-2146.597232,10288.862594
2684.433697,-919.314598,-666.185348,9696.697840
2684.434026,-1149.143247,-0.000000,10066.800811
2684.434355,-1302.362347,-0.000000,9844.739029
2684.434684,-306.438199,1110.308913,9178.553681
2684.435013,229.828649,444.123565,10066.800811
2684.435343,-383.047749,592.164754,8586.388927
2684.435672,306.438199,-518.144159,10066.800811
2684.436001,1532.190996,-0.000000,8660.409521
2684.436330,1991.848295,1184.329507,7698.141797
2684.436659,536.266849,-0.000000,8438.347739
2684.436988,0.000000,-0.000000,8142.265362
2684.437317,76.609550,1406.391290,9252.574275
2684.437647,-306.438199,-148.041188,9104.533087
2684.437976,-1149.143247,-740.205942,9252.574275
2684.438305,-1685.410096,-2220.617826,11251.130318
2684.438634,-995.924147,-1036.288319,10362.883188
2684.438963,153.219100,-740.205942,9622.677246
2684.439292,153.219100,-222.061783,9400.615463
2684.439622,1072.533697,370.102971,9326.594869
2684.439951,2528.115143,1924.535449,8586.388927
2684.440280,3140.991542,1258.350101,7476.080014
2684.440609,3294.210641,370.102971,8216.285956
2684.440938,2221.676944,1628.453072,8290.306550
2684.441267,2298.286494,1110.308913,7476.080014
2684.441596,1685.410096,-0.000000,8068.244768
2684.441926,383.047749,-888.247130,8808.450710
2684.442255,-153.219100,-518.144159,9696.697840
2684.442584,-306.438199,-1554.432478,9548.656652
2684.442913,-1608.800546,-2072.576638,10658.965565
2684.443242,-1762.019645,-2368.659014,11399.171507
2684.443571,-1608.800546,-1110.308913,10807.006753
2684.443901,-383.047749,-1110.308913,10066.800811
2684.444230,-383.047749,-296.082377,9030.512492
2684.444559,612.876398,148.041188,10510.924376
2684.444888,2834.553343,1332.370696,8290.306550
2684.445217,4213.525239,2146.597232,7105.977043
2684.445546,3983.696590,666.185348,7550.100608
2684.445876,3217.601092,2072.576638,7772.162391
2684.446205,2757.943793,1850.514855,8068.244768
2684.446534,1762.019645,592.164754,7772.162391
2684.446863,229.828649,-74.020594,7698.141797
2684.447192,-536.266849,-1110.308913,9326.594869
2684.447521,-1915.238745,-1332.370696,9400.615463
2684.447850,-2528.115143,-1702.473667,10066.800811
2684.448180,-2068.457845,-1628.453072,9474.636058
2684.448509,-2451.505594,-2368.659014,10436.903782
2684.448838,-1608.800546,-962.267725,10362.883188
2684.449170,-919.314598,-296.082377,9992.780217
2684.449499,-842.705048,-518.144159,9104.533087
2684.449828,-306.438199,666.185348,9548.656652
2684.450157,-383.047749,222.061783,9548.656652
2684.450486,-536.266849,-222.061783,9918.759623
2684.450815,689.485948,-1036.288319,11251.130318
2684.451145,2145.067394,962.267725,7328.038826
2684.451474,3600.648841,1184.329507,6735.874072
2684.451803,3140.991542,1924.535449,6365.771101
2684.452132,2681.334243,2146.597232,6735.874072
2684.452461,1455.581446,740.205942,8290.306550
2684.452790,689.485948,148.041188,7846.182985
2684.453119,-842.705048,-814.226536,9474.636058
2684.453448,-2451.505594,-3256.906145,11621.233289
2684.453777,-2451.505594,-2738.761985,11103.089130
2684.454107,-1532.190996,-2294.638420,10510.924376
2684.454436,-689.485948,-1702.473667,10584.944971
2684.454765,-689.485948,-1332.370696,10214.842000
2684.455094,306.438199,370.102971,9770.718434
2684.455423,0.000000,-74.020594,9696.697840
2684.455752,1149.143247,-1110.308913,10510.924376
2684.456081,2374.896044,-0.000000,8216.285956
2684.456410,3294.210641,2368.659014,8216.285956
2684.456739,2987.772442,1702.473667,7031.956449
2684.457069,3064.381992,1776.494261,6957.935855
2684.457398,1991.848295,2294.638420,7994.224174
2684.457727,1608.800546,1554.432478,8068.244768
2684.458056,306.438199,-74.020594,9326.594869
2684.458385,-2374.896044,-1850.514855,10584.944971
2684.458714,-2757.943793,-2442.679609,11991.336260
2684.459043,-2221.676944,-1406.391290,9326.594869
2684.459372,-1072.533697,-1110.308913,10288.862594
2684.459701,-1838.629195,-1110.308913,10288.862594
2684.460031,-459.657299,-0.000000,9622.677246
2684.460360,-306.438199,-0.000000,9178.553681
2684.460689,0.000000,-444.123565,8290.306550
2684.461018,-229.828649,-444.123565,9992.780217
2684.461347,612.876398,370.102971,9104.533087
2684.461676,2374.896044,1628.453072,5773.606348
2684.462005,2145.067394,1184.329507,7105.977043
2684.462334,1225.752797,888.247130,6661.853478
2684.462663,2298.286494,1776.494261,7476.080014
2684.462993,995.924147,-0.000000,7550.100608
2684.463322,-536.266849,-518.144159,8512.368333
2684.463651,-1302.362347,-2812.782580,11399.171507
2684.463980,-1149.143247,-1554.432478,10214.842000
2684.464309,-1378.971896,-1184.329507,9548.656652
2684.464638,-1225.752797,-814.226536,9178.553681
2684.464967,-1532.190996,-1406.391290,9770.718434
2684.465296,1302.362347,-740.205942,9622.677246
2684.465625,0.000000,-0.000000,8290.306550
2684.465955,-919.314598,-2294.638420,10214.842000
2684.466284,1149.143247,-518.144159,9548.656652
2684.466613,3524.039291,2960.823768,8808.450710
2684.466942,1532.190996,296.082377,6291.750507
2684.467271,3370.820191,1702.473667,7846.182985
2684.467600,2451.505594,-0.000000,7846.182985
2684.467929,1685.410096,2368.659014,7031.956449
2684.468258,842.705048,-2146.597232,9474.636058
2684.468587,-1762.019645,-2812.782580,10214.842000
2684.468917,-2145.067394,-2368.659014,10584.944971
2684.469246,-1378.971896,-1628.453072,11991.336260
2684.469575,-2987.772442,-1406.391290,9474.636058
2684.469904,-842.705048,-740.205942,10436.903782
2684.470233,0.000000,-296.082377,9844.739029
2684.470562,1149.143247,962.267725,9326.594869
2684.470891,2145.067394,888.247130,7402.059420
2684.471220,2834.553343,1036.288319,8808.450710
2684.471549,2757.943793,1924.535449,7402.059420
2684.471878,2757.943793,2960.823768,6883.915261
2684.472208,919.314598,296.082377,8438.347739
2684.472537,306.438199,444.123565,7698.141797
2684.472866,612.876398,444.123565,8660.409521
2684.473195,-1991.848295,-1998.556043,9696.697840
2684.473524,-2145.067394,-3108.864956,10510.924376
2684.473853,-2145.067394,-2812.782580,11621.233289
2684.474182,-2374.896044,-740.205942,10288.862594
2684.474511,-1762.019645,-1332.370696,10881.027347
2684.474840,-2221.676944,-888.247130,10510.924376
2684.475170,-766.095498,666.185348,9548.656652
2684.475499,536.266849,888.247130,9918.759623
2684.475828,1532.190996,-740.205942,9474.636058
2684.476157,1991.848295,370.102971,7402.059420
2684.476486,3753.867940,1850.514855,7328.038826
2684.476815,2757.943793,2442.679609,6217.729913
2684.477144,2298.286494,1258.350101,7476.080014
2684.477473,1455.581446,962.267725,7846.182985
2684.477802,1302.362347,1110.308913,7105.977043
2684.478132,919.314598,-740.205942,8808.450710
2684.478461,-2374.896044,-1406.391290,9178.553681
2684.478790,-1608.800546,-2738.761985,11547.212695
2684.479119,-1762.019645,-1924.535449,10584.944971
2684.479448,-842.705048,-1554.432478,9696.697840
2684.479777,-1149.143247,-1184.329507,10362.883188
2684.480106,-689.485948,148.041188,9918.759623
2684.480435,0.000000,-222.061783,9844.739029
2684.480764,1302.362347,-296.082377,8808.450710
2684.481094,2757.943793,518.144159,8290.306550
2684.481423,2987.772442,1924.535449,7624.121203
2684.481752,2834.553343,2072.576638,7105.977043
2684.482081,2528.115143,1332.370696,7179.997637
2684.482410,1838.629195,1110.308913,7179.997637
2684.482739,1302.362347,740.205942,7772.162391
2684.483068,842.705048,-888.247130,7772.162391
2684.483397,-995.924147,-1628.453072,8882.471304
2684.483726,-1608.800546,-2442.679609,11103.089130
2684.484056,-2145.067394,-2072.576638,10807.006753
2684.484385,-1608.800546,-1998.556043,10584.944971
2684.484714,-1302.362347,-1332.370696,9844.739029
2684.485043,-1302.362347,-222.061783,10288.862594
2684.485372,-842.705048,-0.000000,10584.944971
2684.485701,-459.657299,-0.000000,9030.512492
2684.486030,536.266849,-0.000000,9548.656652
2684.486359,842.705048,740.205942,9326.594869
2684.486688,1455.581446,1406.391290,8142.265362
2684.487018,1838.629195,1702.473667,7105.977043
2684.487347,1149.143247,962.267725,7476.080014
2684.487676,1762.019645,740.205942,8364.327145
2684.488005,1608.800546,-0.000000,8956.491898
2684.488334,-229.828649,-296.082377,9548.656652
2684.488663,-1378.971896,-1702.473667,9992.780217
2684.488992,-1762.019645,-2442.679609,11029.068536
2684.489321,-1378.971896,-1184.329507,10881.027347
2684.489650,-689.485948,-666.185348,10362.883188
2684.489980,-689.485948,-814.226536,10140.821405
2684.490309,-536.266849,222.061783,9992.780217
2684.490638,1225.752797,296.082377,10214.842000
2684.490967,1532.190996,222.061783,7624.121203
2684.491296,1915.238745,592.164754,8068.244768
2684.491625,2145.067394,814.226536,7994.224174
2684.491954,1991.848295,1702.473667,7105.977043
2684.492283,1838.629195,592.164754,7328.038826
2684.492612,919.314598,-74.020594,8290.306550
2684.492942,766.095498,-0.000000,8734.430116
2684.493271,306.438199,-444.123565,8364.327145
2684.493600,-919.314598,-1406.391290,9844.739029
2684.493929,-1225.752797,-1924.535449,11177.109724
2684.494258,-1149.143247,-1924.535449,10066.800811
2684.494587,0.000000,-1258.350101,9696.697840
2684.494916,-612.876398,-1406.391290,9474.636058
2684.495245,-536.266849,-444.123565,10066.800811
2684.495574,919.314598,222.061783,8364.327145
2684.495904,2068.457845,1110.308913,7550.100608
2684.496233,1532.190996,666.185348,7550.100608
2684.496562,1915.238745,888.247130,7994.224174
2684.496891,1455.581446,814.226536,8290.306550
2684.497220,1149.143247,740.205942,7624.121203
2684.497549,-383.047749,-814.226536,8290.306550
2684.497878,-995.924147,-888.247130,9400.615463
2684.498207,-689.485948,-888.247130,9770.718434
2684.498536,-1838.629195,-1480.411884,10140.821405
2684.498866,-1762.019645,-2442.679609,10288.862594
2684.499195,-1762.019645,-888.247130,10732.986159
2684.499524,-1072.533697,-1554.432478,10732.986159
2684.499853,-1532.190996,-74.020594,9696.697840
2684.500182,0.000000,-370.102971,9844.739029
2684.500511,536.266849,1036.288319,8586.388927
2684.500840,2221.676944,1924.535449,8216.285956
2684.501169,2681.334243,1036.288319,7698.141797
2684.501498,1532.190996,888.247130,7846.182985
2684.501828,1762.019645,740.205942,7994.224174
2684.502157,1072.533697,888.247130,8068.244768
2684.502486,0.000000,-296.082377,8882.471304
2684.502815,-842.705048,-444.123565,8882.471304
2684.503144,-1378.971896,-962.267725,9474.636058
2684.503473,153.219100,-1628.453072,8586.388927
2684.503802,-766.095498,-1258.350101,8882.471304
2684.504131,-1762.019645,-1776.494261,11843.295072
2684.504460,995.924147,-1702.473667,11621.233289
2684.504790,0.000000,-0.000000,8882.471304
2684.505119,1072.533697,296.082377,8142.265362
2684.505448,2987.772442,1998.556043,7994.224174
2684.505777,3064.381992,1628.453072,7105.977043
2684.506106,3217.601092,2516.700203,7624.121203
2684.506435,2528.115143,-0.000000,8586.388927
2684.506764,995.924147,518.144159,7772.162391
2684.507093,689.485948,-518.144159,8438.347739
2684.507422,0.000000,-1998.556043,9326.594869
2684.507752,-1838.629195,-1924.535449,8882.471304
2684.508081,-842.705048,-1776.494261,10288.862594
2684.508410,-383.047749,-1036.288319,9326.594869
2684.508739,-689.485948,-74.020594,10066.800811
2684.509068,-1072.533697,-1406.391290,10214.842000
2684.509397,-153.219100,-444.123565,10807.006753
2684.509726,536.266849,1184.329507,8142.265362
2684.510055,1838.629195,1258.350101,9178.553681
2684.510384,1685.410096,592.164754,8438.347739
2684.510714,2068.457845,1850.514855,8586.388927
2684.511043,2451.505594,1036.288319,8290.306550
2684.511372,1149.143247,-222.061783,7105.977043
2684.511701,536.266849,-222.061783,8734.430116
2684.512030,-153.219100,-0.000000,9400.615463
2684.512359,-766.095498,-1258.350101,8882.471304
2684.512688,-2374.896044,-2146.597232,10140.821405
2684.513017,-1532.190996,-962.267725,9474.636058
2684.513346,-1072.533697,-740.205942,9400.615463
2684.513676,-1072.533697,-518.144159,8882.471304
2684.514005,-1455.581446,-518.144159,9770.718434
2684.514334,-766.095498,-1258.350101,10881.027347
2684.514663,229.828649,-666.185348,10658.965565
2684.514992,1532.190996,592.164754,7550.100608
2684.515321,2451.505594,444.123565,8364.327145
2684.515650,2221.676944,1702.473667,7846.182985
2684.515979,2757.943793,1850.514855,7328.038826
2684.516308,2068.457845,518.144159,7920.203579
2684.516638,1608.800546,222.061783,8512.368333
2684.516967,1302.362347,518.144159,8216.285956
2684.517296,0.000000,-0.000000,8882.471304
2684.517625,-1302.362347,-962.267725,9622.677246
2684.517954,-1991.848295,-2146.597232,10214.842000
2684.518283,-1378.971896,-1036.288319,10658.965565
2684.518612,-1149.143247,-592.164754,9770.718434
2684.518941,-1225.752797,-444.123565,9474.636058
2684.519270,-1072.533697,-1480.411884,10140.821405
2684.519600,0.000000,-962.267725,11399.171507
2684.519929,1072.533697,-0.000000,9326.594869
2684.520258,1225.752797,814.226536,8660.409521
2684.520587,1915.238745,814.226536,8142.265362
2684.520916,2451.505594,2738.761985,7772.162391
2684.521245,2834.553343,1628.453072,7920.203579
2684.521574,1685.410096,-0.000000,7846.182985
2684.521903,536.266849,-0.000000,8734.430116
2684.522232,153.219100,-0.000000,9030.512492
2684.522562,-1302.362347,-740.205942,9178.553681
2684.522891,-3447.429741,-1850.514855,11029.068536
2684.523220,-2298.286494,-1628.453072,10955.047942
2684.523549,-1149.143247,-1110.308913,9548.656652
2684.523878,-1685.410096,-518.144159,9696.697840
2684.524207,-1302.362347,-1258.350101,9992.780217
2684.524536,-1225.752797,-888.247130,10658.965565
2684.524865,-842.705048,-962.267725,10288.862594
2684.525194,689.485948,-0.000000,9770.718434
2684.525524,1072.533697,-370.102971,8882.471304
2684.525853,2451.505594,1924.535449,7254.018232
2684.526182,3830.477490,1702.473667,6883.915261
2684.526511,2987.772442,1554.432478,7328.038826
2684.526840,3217.601092,962.267725,7698.141797
2684.527169,2604.724693,666.185348,7846.182985
2684.527498,1149.143247,296.082377,7476.080014
2684.527827,0.000000,-148.041188,8216.285956
2684.528156,-1685.410096,-1480.411884,9992.780217
2684.528486,-1838.629195,-1480.411884,10510.924376
2684.528815,-459.657299,-1480.411884,10140.821405
2684.529144,-1149.143247,-2442.679609,9696.697840
2684.529473,-689.485948,-2960.823768,11177.109724
2684.529802,306.438199,-1776.494261,10140.821405
2684.530131,1532.190996,-518.144159,8216.285956
2684.530460,2681.334243,-0.000000,8438.347739
2684.530789,3907.087040,2368.659014,6957.935855
2684.531118,4979.620737,2590.720797,7031.956449
2684.531448,4136.915689,2072.576638,7031.956449
2684.531777,3677.258390,1776.494261,7476.080014
2684.532106,1991.848295,740.205942,8512.368333
2684.532435,919.314598,148.041188,7920.203579
2684.532764,-1532.190996,-1406.391290,10214.842000
2684.533093,-2757.943793,-2368.659014,11843.295072
2684.533422,-2374.896044,-3108.864956,10955.047942
2684.533751,-2298.286494,-1628.453072,10510.924376
2684.534080,-2145.067394,-1702.473667,10066.800811
2684.534410,-2757.943793,-962.267725,9770.718434
2684.534739,-1072.533697,-1406.391290,10288.862594
2684.535068,153.219100,-148.041188,9696.697840
2684.535397,1072.533697,592.164754,9326.594869
2684.535726,2068.457845,1702.473667,7402.059420
2684.536055,3370.820191,2442.679609,7031.956449
2684.536384,2298.286494,1998.556043,6957.935855
2684.536713,3677.258390,1184.329507,7920.203579
2684.537042,1532.190996,1110.308913,7476.080014
2684.537372,536.266849,1036.288319,8068.244768
2684.537701,-1762.019645,-222.061783,9622.677246
2684.538030,-2757.943793,-1702.473667,10140.821405
2684.538359,-2987.772442,-1776.494261,10510.924376
2684.538688,-2298.286494,-1776.494261,9622.677246
2684.539017,-1991.848295,-1776.494261,9548.656652
2684.539346,-2145.067394,-962.267725,9770.718434
2684.539675,-1302.362347,-666.185348,9992.780217
2684.540004,-995.924147,-518.144159,9474.636058
2684.540334,-153.219100,-1036.288319,9770.718434
2684.540663,995.924147,148.041188,9622.677246
2684.540992,2451.505594,1406.391290,7328.038826
2684.541321,2987.772442,2442.679609,6661.853478
2684.541650,3600.648841,1258.350101,7254.018232
2684.541979,3753.867940,592.164754,7846.182985
2684.542308,1838.629195,1332.370696,8216.285956
2684.542637,1378.971896,-74.020594,8068.244768
2684.542966,-766.095498,-1480.411884,9030.512492
2684.543296,-1838.629195,-1184.329507,10066.800811
2684.543625,-2145.067394,-1554.432478,11399.171507
2684.543954,-2068.457845,-2146.597232,10881.027347
2684.544283,-2145.067394,-2442.679609,10732.986159
2684.544612,-1532.190996,-1628.453072,10362.883188
2684.544941,-459.657299,-1332.370696,10732.986159
2684.545270,306.438199,-1036.288319,9178.553681
2684.545599,1608.800546,518.144159,8734.430116
2684.545928,3140.991542,1924.535449,8734.430116
2684.546258,3370.820191,1998.556043,6661.853478
2684.546587,3907.087040,1554.432478,7476.080014
2684.546916,2757.943793,962.267725,7550.100608
2684.547245,2681.334243,296.082377,7105.977043
2684.547574,1455.581446,444.123565,7698.141797
2684.547903,76.609550,-518.144159,9474.636058
2684.548232,-1915.238745,-1702.473667,11177.109724
2684.548561,-2681.334243,-814.226536,10288.862594
2684.548891,-1915.238745,-1110.308913,10214.842000
2684.549220,-2911.162892,-740.205942,9104.533087
2684.549549,-2451.505594,-1184.329507,10732.986159
2684.549878,-1072.533697,-1628.453072,10510.924376
2684.550207,-919.314598,-74.020594,9474.636058
2684.550536,-766.095498,-444.123565,9918.759623
2684.550865,383.047749,-148.041188,9104.533087
2684.551194,1915.238745,1110.308913,7254.018232
2684.551524,3217.601092,1036.288319,6809.894666
2684.551853,3370.820191,888.247130,6809.894666
2684.552182,3140.991542,222.061783,8808.450710
2684.552511,2757.943793,1184.329507,7624.121203
2684.552840,2298.286494,1258.350101,7550.100608
2684.553169,1072.533697,-0.000000,8734.430116
2684.553498,-1378.971896,-74.020594,9474.636058
2684.553827,-1838.629195,-1628.453072,11177.109724
2684.554157,-2451.505594,-1406.391290,10140.821405
2684.554486,-2374.896044,-2072.576638,10732.986159
2684.554815,-1762.019645,-2738.761985,11103.089130
2684.555144,-766.095498,-1776.494261,10436.903782
2684.555473,-766.095498,-814.226536,8956.491898
2684.555802,383.047749,-888.247130,10214.842000
2684.556131,919.314598,666.185348,8808.450710
2684.556461,3140.991542,1406.391290,8364.327145
2684.556790,4060.306139,962.267725,7254.018232
2684.557119,4060.306139,1184.329507,7328.038826
2684.557448,3753.867940,666.185348,7920.203579
2684.557777,3217.601092,1110.308913,7402.059420
2684.558106,1378.971896,888.247130,7624.121203
2684.558435,0.000000,-0.000000,8734.430116
2684.558764,-1762.019645,-0.000000,10066.800811
2684.559094,-2451.505594,-1184.329507,10658.965565
2684.559423,-2681.334243,-3108.864956,10658.965565
2684.559752,-3064.381992,-2146.597232,10510.924376
2684.560081,-2068.457845,-2220.617826,10584.944971
2684.560410,-2298.286494,-518.144159,9178.553681
2684.560739,-1991.848295,-814.226536,9548.656652
2684.561068,-1302.362347,592.164754,9104.533087
2684.561397,1532.190996,518.144159,8882.471304
2684.561727,2604.724693,518.144159,7105.977043
2684.562056,3907.087040,444.123565,7328.038826
2684.562385,3677.258390,1776.494261,6661.853478
2684.562714,3447.429741,1924.535449,7698.141797
2684.563043,1685.410096,1184.329507,8068.244768
2684.563372,536.266849,1036.288319,8512.368333
2684.563701,-1685.410096,-0.000000,10066.800811
2684.564030,-2298.286494,-222.061783,9770.718434
2684.564360,-2911.162892,-2442.679609,11843.295072
2684.564689,-3140.991542,-2294.638420,11547.212695
2684.565018,-2221.676944,-3034.844362,10807.006753
2684.565347,-1225.752797,-1628.453072,10362.883188
2684.565676,-1225.752797,-370.102971,8808.450710
2684.566005,-383.047749,-74.020594,10658.965565
2684.566334,1915.238745,-592.164754,9030.512492
2684.566664,4749.792088,1776.494261,6809.894666
2684.566993,4673.182538,814.226536,7624.121203
2684.567322,4519.963438,962.267725,6883.915261
2684.567651,4213.525239,1554.432478,7476.080014
2684.567980,2911.162892,2368.659014,7031.956449
2684.568309,1762.019645,296.082377,8142.265362
2684.568638,-229.828649,-814.226536,10140.821405
2684.568967,-1149.143247,-518.144159,9104.533087
2684.569297,-1455.581446,-2294.638420,10288.862594
2684.569626,-2374.896044,-2516.700203,9918.759623
2684.569955,-2068.457845,-1998.556043,10584.944971
2684.570284,-1991.848295,-1628.453072,10807.006753
2684.570613,-1149.143247,-592.164754,9400.615463
2684.570942,-383.047749,-1332.370696,9622.677246
2684.571271,1608.800546,-0.000000,9326.594869
2684.571600,3830.477490,1480.411884,7031.956449
2684.571930,3830.477490,2146.597232,7105.977043
2684.572259,4596.572988,1924.535449,7550.100608
2684.572588,4060.306139,1480.411884,6735.874072
2684.572917,2911.162892,2442.679609,7550.100608
2684.573246,1378.971896,-0.000000,8512.368333
2684.573575,-612.876398,-444.123565,8808.450710
2684.573904,-1532.190996,-370.102971,9474.636058
2684.574233,-2374.896044,-1332.370696,11103.089130
2684.574563,-2911.162892,-2886.803174,11695.253884
2684.574892,-3064.381992,-1628.453072,11251.130318
2684.575221,-1915.238745,-1998.556043,11251.130318
2684.575550,-2068.457845,-518.144159,9992.780217
2684.575879,-1072.533697,-518.144159,9992.780217
2684.576208,-766.095498,222.061783,10288.862594
2684.576537,995.924147,-0.000000,10732.986159
2684.576866,2374.896044,-0.000000,9104.533087
2684.577196,3064.381992,370.102971,8142.265362
2684.577525,3370.820191,1406.391290,7402.059420
2684.577854,3524.039291,1776.494261,6809.894666
2684.578183,3294.210641,2368.659014,7402.059420
2684.578512,1302.362347,1258.350101,8290.306550
2684.578841,995.924147,370.102971,8660.409521
2684.579170,-995.924147,222.061783,9326.594869
2684.579500,-2451.505594,-1776.494261,10214.842000
2684.579829,-3064.381992,-2812.782580,11251.130318
2684.580158,-3140.991542,-3478.967927,11103.089130
2684.580487,-1685.410096,-3478.967927,10807.006753
2684.580816,-1685.410096,-1332.370696,9548.656652
2684.581145,-1302.362347,-740.205942,8882.471304
2684.581474,-842.705048,-592.164754,8956.491898
2684.581803,1378.971896,-0.000000,9844.739029
2684.582133,2374.896044,-0.000000,7846.182985
2684.582462,3524.039291,1702.473667,7624.121203
2684.582791,3830.477490,814.226536,6439.791695
2684.583120,3830.477490,2664.741391,6069.688724
2684.583449,2757.943793,2294.638420,7328.038826
2684.583778,1838.629195,1924.535449,6143.709319
2684.584107,1149.143247,962.267725,8142.265362
2684.584436,-1149.143247,-740.205942,9104.533087
2684.584766,-2757.943793,-2294.638420,11251.130318
2684.585095,-3447.429741,-3478.967927,11843.295072
2684.585424,-2528.115143,-3627.009116,10584.944971
2684.585753,-2145.067394,-2738.761985,10362.883188
2684.586082,-2681.334243,-1258.350101,9918.759623
2684.586411,-1302.362347,-0.000000,9844.739029
2684.586740,-919.314598,-296.082377,9844.739029
2684.587069,0.000000,-74.020594,9104.533087
2684.587399,306.438199,-814.226536,11251.130318
2684.587728,1302.362347,444.123565,8956.491898
2684.588057,3600.648841,1332.370696,7179.997637
2684.588386,3830.477490,1998.556043,5847.626942
2684.588715,2528.115143,2368.659014,7328.038826
2684.589044,2604.724693,962.267725,8660.409521
2684.589373,1072.533697,1110.308913,7698.141797
2684.589703,-153.219100,-1332.370696,9548.656652
2684.590032,-2068.457845,-2664.741391,11843.295072
2684.590361,-3447.429741,-3775.050304,11695.253884
2684.590690,-3140.991542,-2516.700203,11843.295072
2684.591019,-1915.238745,-1998.556043,10140.821405
2684.591348,-1532.190996,-740.205942,9696.697840
2684.591677,153.219100,-518.144159,9770.718434
2684.592006,2604.724693,740.205942,8882.471304
2684.592336,3600.648841,148.041188,7698.141797
2684.592665,4213.525239,1702.473667,8068.244768
2684.592994,4519.963438,3256.906145,6513.812290
2684.593323,4979.620737,2738.761985,6809.894666
2684.593652,2987.772442,2590.720797,6809.894666
2684.593981,2604.724693,1554.432478,7772.162391
2684.594310,1378.971896,740.205942,7994.224174
2684.594639,-536.266849,-518.144159,8808.450710
2684.594969,-2221.676944,-3330.926739,10955.047942
2684.595298,-3600.648841,-4071.132681,12139.377449
2684.595627,-2604.724693,-2886.803174,11399.171507
2684.595956,-2451.505594,-1776.494261,10066.800811
2684.596285,-2145.067394,-1332.370696,9770.718434
2684.596614,-612.876398,222.061783,10288.862594
2684.596943,919.314598,666.185348,9030.512492
2684.597272,3830.477490,1184.329507,7994.224174
2684.597602,3830.477490,1036.288319,7031.956449
2684.597931,3294.210641,2590.720797,8364.327145
2684.598260,3907.087040,1850.514855,8512.368333
2684.598589,2068.457845,2368.659014,5995.668130
2684.598918,1302.362347,814.226536,7105.977043
2684.599247,383.047749,296.082377,8216.285956
2684.599576,-1225.752797,-1628.453072,9474.636058
2684.599906,-2604.724693,-2664.741391,10658.965565
2684.600235,-3217.601092,-3478.967927,10807.006753
2684.600564,-2911.162892,-3182.885551,11103.089130
2684.600893,-2987.772442,-2368.659014,10214.842000
2684.601222,-2451.505594,-592.164754,10066.800811
2684.601551,-1532.190996,-0.000000,8956.491898
2684.601880,76.609550,-0.000000,9252.574275
2684.602209,1149.143247,296.082377,9178.553681
2684.602539,1838.629195,296.082377,7476.080014
2684.602868,2757.943793,518.144159,9030.512492
2684.603197,2451.505594,1628.453072,6809.894666
2684.603526,3140.991542,2072.576638,7254.018232
2684.603855,2374.896044,1406.391290,6513.812290
2684.604184,1302.362347,1998.556043,7105.977043
2684.604513,766.095498,-444.123565,9178.553681
2684.604842,-766.095498,-740.205942,8216.285956
2684.605172,-2757.943793,-2590.720797,10510.924376
2684.605501,-2757.943793,-3849.070898,12065.356855
2684.605830,-3140.991542,-3034.844362,11843.295072
2684.606159,-2374.896044,-2294.638420,10362.883188
2684.606488,-1225.752797,-0.000000,10288.862594
2684.606817,-612.876398,-814.226536,10214.842000
2684.607146,1378.971896,814.226536,9622.677246
2684.607475,3447.429741,1850.514855,7846.182985
2684.607805,2987.772442,1110.308913,7920.203579
2684.608134,3294.210641,1998.556043,7698.141797
2684.608463,4136.915689,2590.720797,7476.080014
2684.608792,2451.505594,1776.494261,7476.080014
2684.609121,2221.676944,1110.308913,7624.121203
2684.609450,1072.533697,148.041188,7772.162391
2684.609779,-766.095498,-666.185348,9178.553681
2684.610108,-1991.848295,-1998.556043,10955.047942
2684.610438,-2987.772442,-3404.947333,11473.192101
2684.610767,-3140.991542,-2442.679609,12213.398043
2684.611096,-2528.115143,-2294.638420,11029.068536
2684.611425,-2068.457845,-518.144159,10362.883188
2684.611754,-1302.362347,-0.000000,9252.574275
2684.612083,383.047749,666.185348,9918.759623
2684.612412,1302.362347,962.267725,9252.574275
2684.612742,2068.457845,370.102971,7550.100608
2684.613071,2145.067394,1998.556043,7550.100608
2684.613400,2451.505594,1998.556043,7994.224174
2684.613729,2451.505594,1184.329507,6735.874072
2684.614058,1685.410096,296.082377,7328.038826
2684.614387,842.705048,-74.020594,7402.059420
2684.614716,766.095498,-296.082377,8512.368333
2684.615045,-689.485948,-2294.638420,9474.636058
2684.615375,-1991.848295,-3330.926739,9992.780217
2684.615704,-1915.238745,-2590.720797,11251.130318
2684.616033,-1455.581446,-2220.617826,11177.109724
2684.616362,-1302.362347,-296.082377,9326.594869
2684.616691,0.000000,-0.000000,9474.636058
2684.617020,919.314598,1110.308913,8808.450710
2684.617349,2604.724693,1184.329507,8142.265362
2684.617678,3294.210641,1554.432478,7772.162391
2684.618008,2528.115143,740.205942,8364.327145
2684.618337,2911.162892,1480.411884,7105.977043
2684.618666,2911.162892,1924.535449,7624.121203
2684.618995,1225.752797,444.123565,7476.080014
2684.619324,1149.143247,-296.082377,8290.306550
2684.619653,842.705048,-1110.308913,9548.656652
2684.619982,-612.876398,-1924.535449,10288.862594
2684.620311,-2068.457845,-3256.906145,10658.965565
2684.620641,-2068.457845,-2590.720797,11251.130318
2684.620970,-1685.410096,-1480.411884,11177.109724
2684.621299,-995.924147,-296.082377,10510.924376
2684.621628,76.609550,370.102971,9992.780217
2684.621957,1455.581446,518.144159,8364.327145
2684.622286,2298.286494,2960.823768,7476.080014
2684.622615,2757.943793,1184.329507,7920.203579
2684.622945,2528.115143,1036.288319,8364.327145
2684.623274,1762.019645,1036.288319,8142.265362
2684.623603,1149.143247,888.247130,7402.059420
2684.623932,0.000000,-0.000000,8216.285956
2684.624261,-1225.752797,-1258.350101,9252.574275
2684.624590,-2604.724693,-1184.329507,9918.759623
2684.624919,-1072.533697,-1850.514855,9844.739029
2684.625248,-2528.115143,-2664.741391,10066.800811
2684.625578,-2604.724693,-2442.679609,10881.027347
2684.625907,-2374.896044,-1110.308913,10732.986159
2684.626236,-1149.143247,-0.000000,9548.656652
2684.626565,-229.828649,-74.020594,9104.533087
2684.626894,842.705048,2368.659014,8290.306550
2684.627223,2681.334243,1776.494261,8364.327145
2684.627552,2604.724693,2294.638420,7254.018232
2684.627881,1455.581446,666.185348,7698.141797
2684.628211,1532.190996,-0.000000,8956.491898
2684.628540,842.705048,592.164754,7994.224174
2684.628869,0.000000,-962.267725,8660.409521
2684.629198,-459.657299,-962.267725,8586.388927
2684.629527,-1225.752797,-1110.308913,9400.615463
2684.629856,-1225.752797,-1850.514855,10140.821405
2684.630185,-1225.752797,-1480.411884,9252.574275
2684.630514,-766.095498,-1998.556043,10436.903782
2684.630844,-1302.362347,-1258.350101,9918.759623
2684.631173,306.438199,-148.041188,10362.883188
2684.631502,919.314598,-592.164754,8808.450710
2684.631831,1149.143247,-296.082377,9548.656652
2684.632160,2834.553343,1036.288319,8512.368333
2684.632489,2911.162892,1480.411884,7105.977043
2684.632818,3064.381992,814.226536,7772.162391
2684.633148,2604.724693,740.205942,7698.141797
2684.633477,2451.505594,666.185348,8512.368333
2684.633806,1225.752797,148.041188,7994.224174
2684.634135,536.266849,-518.144159,8512.368333
2684.634464,-995.924147,-518.144159,9770.718434
2684.634793,-1149.143247,-444.123565,9844.739029
2684.635122,-2068.457845,-1258.350101,9622.677246
2684.635451,-1225.752797,-2220.617826,10658.965565
2684.635781,-1302.362347,-1110.308913,10140.821405
2684.636110,-1455.581446,-1110.308913,10584.944971
2684.636439,-1072.533697,-592.164754,9770.718434
2684.636768,306.438199,444.123565,9104.533087
2684.637097,919.314598,1406.391290,8734.430116
2684.637426,2451.505594,1850.514855,8438.347739
2684.637755,2374.896044,444.123565,8290.306550
2684.638084,2374.896044,962.267725,8586.388927
2684.638414,2451.505594,814.226536,9178.553681
2684.638743,1685.410096,518.144159,8956.491898
2684.639072,536.266849,-0.000000,8660.409521
2684.639401,0.000000,296.082377,9326.594869
2684.639730,-995.924147,-444.123565,9992.780217
2684.640059,-995.924147,-518.144159,9104.533087
2684.640388,-1378.971896,-1776.494261,10288.862594
2684.640717,-919.314598,-2220.617826,10881.027347
2684.641047,-842.705048,-1406.391290,9326.594869
2684.641376,153.219100,-444.123565,9696.697840
2684.641705,229.828649,-296.082377,9474.636058
2684.642034,1302.362347,592.164754,9178.553681
2684.642363,2298.286494,740.205942,8290.306550
2684.642692,2987.772442,1110.308913,7328.038826
2684.643021,2451.505594,-518.144159,9252.574275
2684.643351,1762.019645,-962.267725,9030.512492
2684.643680,1991.848295,444.123565,8216.285956
2684.644009,1302.362347,518.144159,8512.368333
2684.644338,0.000000,-296.082377,9030.512492
2684.644667,-766.095498,-74.020594,9548.656652
2684.644996,-306.438199,-444.123565,9326.594869
2684.645325,-306.438199,-592.164754,8882.471304
2684.645654,-995.924147,-2590.720797,9844.739029
2684.645984,-1378.971896,-1554.432478,8882.471304
2684.646313,0.000000,-74.020594,9400.615463
2684.646642,153.219100,-518.144159,9104.533087
2684.646971,612.876398,-0.000000,7994.224174
2684.647300,1532.190996,888.247130,8290.306550
2684.647629,1991.848295,1110.308913,8290.306550
2684.647958,1149.143247,370.102971,8808.450710
2684.648287,459.657299,-592.164754,8808.450710
2684.648617,612.876398,296.082377,7920.203579
2684.648946,229.828649,740.205942,8660.409521
2684.649275,-919.314598,-444.123565,8956.491898
2684.649604,-1685.410096,-0.000000,9252.574275
2684.649933,-1455.581446,-666.185348,9918.759623
2684.650262,-1455.581446,-962.267725,9104.533087
2684.650591,-2221.676944,-1702.473667,10140.821405
2684.650920,-2451.505594,-2294.638420,9992.780217
2684.651249,-1532.190996,-1036.288319,9918.759623
2684.651578,-766.095498,-74.020594,9252.574275
2684.651907,306.438199,-814.226536,9548.656652
2684.652237,229.828649,962.267725,8660.409521
2684.652566,2374.896044,1036.288319,7328.038826
2684.652895,2834.553343,370.102971,8586.388927
2684.653224,2145.067394,-0.000000,8068.244768
2684.653553,2145.067394,-0.000000,8882.471304
2684.653882,1302.362347,592.164754,8438.347739
2684.654211,-76.609550,-370.102971,8808.450710
2684.654540,-766.095498,-1110.308913,9622.677246
2684.654869,-1149.143247,-0.000000,9844.739029
2684.655198,-995.924147,-148.041188,10066.800811
2684.655527,-995.924147,-1480.411884,9696.697840
2684.655856,-1532.190996,-1406.391290,10140.821405
2684.656185,-306.438199,-1406.391290,10732.986159
2684.656514,1455.581446,-1110.308913,9622.677246
2684.656844,1149.143247,-74.020594,8364.327145
2684.657173,2068.457845,518.144159,8438.347739
2684.657502,3217.601092,1554.432478,7624.121203
2684.657831,3677.258390,1998.556043,7402.059420
2684.658160,3447.429741,666.185348,8142.265362
2684.658489,2757.943793,1258.350101,8660.409521
2684.658818,1378.971896,814.226536,8734.430116
2684.659147,1302.362347,-0.000000,9474.636058
2684.659476,-612.876398,-296.082377,9030.512492
2684.659805,-2145.067394,-1406.391290,11325.150913
2684.660134,-1608.800546,-1628.453072,10362.883188
2684.660463,-1838.629195,-888.247130,9400.615463
2684.660792,-1915.238745,-1258.350101,10214.842000
2684.661122,-1302.362347,-1036.288319,9474.636058
2684.661451,919.314598,-444.123565,9400.615463
2684.661780,1149.143247,296.082377,8364.327145
2684.662109,2757.943793,1036.288319,7254.018232
2684.662438,2834.553343,888.247130,7254.018232
2684.662767,3524.039291,2368.659014,6439.791695
2684.663096,3217.601092,888.247130,7402.059420
2684.663425,1762.019645,370.102971,8512.368333
2684.663754,1455.581446,370.102971,8290.306550
2684.664083,0.000000,-0.000000,9844.739029
2684.664412,-1685.410096,-1184.329507,9992.780217
2684.664741,-3064.381992,-1628.453072,10658.965565
2684.665070,-2834.553343,-2146.597232,11843.295072
2684.665399,-2298.286494,-962.267725,10066.800811
2684.665729,-2068.457845,-1258.350101,9696.697840
2684.666058,-2145.067394,-2294.638420,10362.883188
2684.666387,-1991.848295,-1110.308913,10658.965565
2684.666716,0.000000,-1110.308913,9844.739029
2684.667045,766.095498,-592.164754,8068.244768
2684.667374,2681.334243,-0.000000,8586.388927
2684.667703,3140.991542,962.267725,7031.956449
2684.668032,3600.648841,1184.329507,6735.874072
2684.668361,3524.039291,1184.329507,8660.409521
2684.668690,2528.115143,1850.514855,7476.080014
2684.669019,1302.362347,1110.308913,8586.388927
2684.669348,689.485948,814.226536,9252.574275
2684.669677,-1608.800546,-518.144159,9844.739029
2684.670007,-2451.505594,-1184.329507,11103.089130
2684.670336,-2145.067394,-1332.370696,11103.089130
2684.670665,-2451.505594,-1258.350101,10140.821405
2684.670994,-3370.820191,-2220.617826,10362.883188
2684.671323,-1378.971896,-1776.494261,10658.965565
2684.671652,-995.924147,-2072.576638,8586.388927
2684.671981,0.000000,-0.000000,8438.347739
2684.672310,1991.848295,370.102971,8512.368333
2684.672639,3140.991542,1924.535449,7846.182985
2684.672968,3677.258390,1924.535449,7031.956449
2684.673297,3294.210641,1628.453072,7031.956449
2684.673626,2681.334243,222.061783,8290.306550
2684.673955,2757.943793,1998.556043,7920.203579
2684.674284,1915.238745,1480.411884,8364.327145
2684.674614,-1149.143247,296.082377,10066.800811
2684.674943,-2145.067394,-1332.370696,11621.233289
2684.675272,-2298.286494,-1258.350101,11473.192101
2684.675601,-2221.676944,-1628.453072,10288.862594
2684.675930,-2451.505594,-1628.453072,9104.533087
2684.676259,-2221.676944,-1998.556043,10955.047942
2684.676588,-2221.676944,-1332.370696,9770.718434
2684.676917,-1149.143247,-1258.350101,9474.636058
2684.677246,0.000000,-814.226536,10288.862594
2684.677575,612.876398,-74.020594,8216.285956
2684.677904,3217.601092,518.144159,8142.265362
2684.678233,3064.381992,1184.329507,6957.935855
2684.678562,3524.039291,296.082377,8216.285956
2684.678891,3370.820191,1554.432478,8364.327145
2684.679221,3140.991542,2146.597232,7994.224174
2684.679550,2604.724693,1332.370696,8882.471304
2684.679879,766.095498,296.082377,9326.594869
2684.680208,-383.047749,-148.041188,10214.842000
2684.680537,-1915.238745,-1110.308913,10362.883188
2684.680866,-2528.115143,-1332.370696,10066.800811
2684.681195,-3140.991542,-1998.556043,10584.944971
2684.681524,-1991.848295,-1554.432478,9992.780217
2684.681853,-1532.190996,-1776.494261,8586.388927
2684.682182,-1455.581446,-962.267725,8734.430116
2684.682511,76.609550,-0.000000,7624.121203
2684.682840,153.219100,592.164754,7254.018232
2684.683169,919.314598,1184.329507,6735.874072
2684.683499,995.924147,592.164754,7994.224174
2684.683828,0.000000,-370.102971,8364.327145
2684.684157,-383.047749,666.185348,8586.388927
2684.684486,-1915.238745,370.102971,8216.285956
2684.684815,-2681.334243,-814.226536,9770.718434
2684.685144,-3524.039291,-444.123565,10362.883188
2684.685473,-3983.696590,-370.102971,10881.027347
2684.685802,-4596.572988,296.082377,8808.450710
2684.686131,-4749.792088,-1258.350101,9400.615463
2684.686460,-5745.716235,-1480.411884,10288.862594
2684.686789,-4673.182538,-2220.617826,9622.677246
2684.687118,-3907.087040,-1998.556043,9252.574275
2684.687447,-3217.601092,-1406.391290,7920.203579
2684.687776,-3447.429741,-148.041188,8882.471304
2684.688106,-3370.820191,518.144159,8512.368333
2684.688435,-2221.676944,-148.041188,8068.244768
2684.688764,-1302.362347,-666.185348,8956.491898
2684.689093,-1455.581446,-740.205942,8882.471304
2684.689422,-2145.067394,-148.041188,9770.718434
2684.689751,-1838.629195,370.102971,9252.574275
2684.690080,-1762.019645,1258.350101,8660.409521
2684.690409,-2451.505594,814.226536,9252.574275
2684.690738,-3064.381992,296.082377,10510.924376
2684.691067,-2604.724693,666.185348,9474.636058
2684.691396,-2681.334243,370.102971,8586.388927
2684.691725,-2604.724693,222.061783,7920.203579
2684.692054,-2987.772442,-1258.350101,8734.430116
2684.692384,-3830.477490,-1258.350101,9252.574275
2684.692713,-3370.820191,-888.247130,8956.491898
2684.693042,-2528.115143,-296.082377,8512.368333
2684.693371,-3217.601092,-148.041188,8290.306550
2684.693700,-3753.867940,-740.205942,10066.800811
2684.694029,-2834.553343,-148.041188,9844.739029
2684.694358,-1991.848295,-222.061783,8882.471304
2684.694687,-1762.019645,-370.102971,8734.430116
2684.695016,-2451.505594,-1110.308913,9696.697840
2684.695345,-3140.991542,-740.205942,10214.842000
2684.695674,-2221.676944,-518.144159,9474.636058
2684.696003,-1685.410096,370.102971,7698.141797
2684.696332,-2298.286494,-444.123565,9548.656652
2684.696661,-1762.019645,-0.000000,9178.553681
2684.696991,-2221.676944,296.082377,8660.409521
2684.697320,-2068.457845,370.102971,8068.244768
2684.697649,-1225.752797,-0.000000,7772.162391
2684.697978,-1072.533697,-814.226536,8512.368333
2684.698307,-1302.362347,-1850.514855,9326.594869
2684.698636,-2068.457845,-1776.494261,9844.739029
2684.698965,-1685.410096,-1036.288319,9622.677246
2684.699294,-919.314598,-0.000000,8438.347739
2684.699623,-536.266849,592.164754,8586.388927
2684.699952,-459.657299,518.144159,8882.471304
2684.700281,-383.047749,296.082377,8956.491898
2684.700610,-459.657299,296.082377,9474.636058
2684.700939,-689.485948,1258.350101,8216.285956
2684.701268,-1455.581446,1850.514855,7772.162391
2684.701598,-2068.457845,518.144159,8808.450710
2684.701927,-2528.115143,-1036.288319,9474.636058
2684.702256,-3294.210641,-2072.576638,9548.656652
2684.702585,-3447.429741,-1110.308913,9030.512492
2684.702914,-3830.477490,-296.082377,8438.347739
2684.703243,-4596.572988,592.164754,7624.121203
2684.703572,-4903.011187,-148.041188,9474.636058
2684.703901,-5822.325785,-2072.576638,10288.862594
2684.704230,-5515.887586,-2368.659014,10881.027347
2684.704559,-5439.278036,-1628.453072,10362.883188
2684.704888,-4903.011187,-1702.473667,10436.903782
2684.705217,-3447.429741,-1110.308913,10584.944971
2684.705546,-2987.772442,-666.185348,9474.636058
2684.705876,-1838.629195,370.102971,8660.409521
2684.706205,-1532.190996,1332.370696,8142.265362
2684.706534,-1838.629195,1184.329507,7994.224174
2684.706863,-1991.848295,1332.370696,8216.285956
2684.707192,-1762.019645,1258.350101,8216.285956
2684.707521,-2221.676944,962.267725,8142.265362
2684.707850,-2451.505594,-148.041188,8142.265362
2684.708179,-2757.943793,-222.061783,8882.471304
2684.708508,-2528.115143,-222.061783,8512.368333
2684.708837,-1991.848295,-444.123565,8512.368333
2684.709166,-2451.505594,-370.102971,8882.471304
2684.709495,-2298.286494,-444.123565,9622.677246
2684.709824,-3370.820191,-666.185348,9474.636058
2684.710153,-3064.381992,-518.144159,9770.718434
2684.710483,-2451.505594,-592.164754,9548.656652
2684.710812,-2681.334243,-518.144159,9548.656652
2684.711141,-2911.162892,-740.205942,10214.842000
2684.711470,-3140.991542,-888.247130,9474.636058
2684.711799,-3217.601092,-370.102971,9178.553681
2684.712128,-3447.429741,148.041188,9474.636058
2684.712457,-3600.648841,592.164754,9252.574275
2684.712786,-3753.867940,518.144159,9474.636058
2684.713115,-3677.258390,-0.000000,8956.491898
2684.713444,-3217.601092,-518.144159,9178.553681
2684.713773,-2374.896044,-1776.494261,9326.594869
2684.714102,-1302.362347,-1998.556043,9400.615463
2684.714431,-919.314598,-666.185348,8512.368333
2684.714760,-612.876398,-0.000000,8586.388927
2684.715090,-383.047749,-222.061783,10510.924376
2684.715419,536.266849,1554.432478,7624.121203
2684.715748,1838.629195,2442.679609,6587.832884
2684.716077,766.095498,2072.576638,6217.729913
2684.716406,-229.828649,1480.411884,7328.038826
2684.716735,-1455.581446,814.226536,9400.615463
2684.717064,-2911.162892,-370.102971,8142.265362
2684.717393,-2911.162892,-2220.617826,10436.903782
2684.717722,-4673.182538,-1850.514855,8142.265362
2684.718051,-6052.154434,-2368.659014,9992.780217
2684.718380,-7431.126331,-3627.009116,11547.212695
2684.718709,-6665.030833,-2664.741391,11251.130318
2684.719038,-4979.620737,-2812.782580,11695.253884
2684.719368,-3983.696590,-1258.350101,9474.636058
2684.719697,-1378.971896,370.102971,9474.636058
2684.720026,-919.314598,1480.411884,6957.935855
2684.720355,-1225.752797,2072.576638,7328.038826
2684.720684,1991.848295,740.205942,11843.295072
2684.721013,2068.457845,2812.782580,3478.967927
2684.721342,4290.134789,2146.597232,8142.265362
2684.721671,612.876398,1850.514855,5329.482782
2684.722000,536.266849,1406.391290,8216.285956
2684.722329,-2834.553343,-1184.329507,9622.677246
2684.722658,-2834.553343,-1110.308913,9474.636058
2684.722987,-2451.505594,-2146.597232,11399.171507
2684.723316,-4136.915689,296.082377,7772.162391
2684.723645,-5286.058936,-2442.679609,11473.192101
2684.723975,-8120.612279,-2072.576638,11843.295072
2684.724304,-4979.620737,-1332.370696,10881.027347
2684.724633,-4903.011187,-1406.391290,9770.718434
2684.724962,-3677.258390,-444.123565,9104.533087
2684.725291,-3370.820191,518.144159,9030.512492
2684.725620,-3140.991542,-1184.329507,7624.121203
2684.725949,-1608.800546,-222.061783,8882.471304
2684.726278,-1762.019645,-0.000000,8438.347739
2684.726607,-1072.533697,-666.185348,8290.306550
2684.726936,-2451.505594,-0.000000,8808.450710
2684.727265,-2528.115143,296.082377,9400.615463
2684.727594,-3294.210641,-444.123565,8882.471304
2684.727923,-3524.039291,-370.102971,9252.574275
2684.728253,-2834.553343,962.267725,9326.594869
2684.728582,-2911.162892,666.185348,9474.636058
2684.728911,-3217.601092,1258.350101,8512.368333
2684.729240,-3140.991542,962.267725,7994.224174
2684.729569,-2911.162892,1480.411884,8586.388927
2684.729898,-2145.067394,814.226536,7550.100608
2684.730227,-1455.581446,1332.370696,7105.977043
2684.730556,-1991.848295,1332.370696,8364.327145
2684.730885,-2681.334243,-74.020594,8660.409521
2684.731214,-3217.601092,-0.000000,8956.491898
2684.731543,-3447.429741,1110.308913,8882.471304
2684.731872,-3064.381992,1258.350101,9030.512492
2684.732201,-3677.258390,740.205942,9474.636058
2684.732530,-3907.087040,1036.288319,10732.986159
2684.732860,-4596.572988,-0.000000,11103.089130
2684.733189,-4673.182538,-222.061783,11769.274478
2684.733518,-3217.601092,-296.082377,11473.192101
2684.733847,-2298.286494,296.082377,9548.656652
2684.734176,-995.924147,222.061783,9548.656652
2684.734505,-766.095498,2294.638420,7772.162391
2684.734834,-459.657299,370.102971,11399.171507
2684.735163,1378.971896,1850.514855,9622.677246
2684.735492,3600.648841,3849.070898,4811.338623
2684.735821,4749.792088,3775.050304,7476.080014
2684.736150,3447.429741,4663.297435,5107.421000
2684.736479,4213.525239,4811.338623,7920.203579
2684.736808,2528.115143,4293.194464,7254.018232
2684.737137,3140.991542,4293.194464,8216.285956
2684.737467,842.705048,1924.535449,10066.800811
2684.737796,76.609550,2590.720797,10140.821405
2684.738125,-1838.629195,370.102971,11917.315666
2684.738454,-2068.457845,1184.329507,10584.944971
2684.738783,-919.314598,1110.308913,10955.047942
2684.739112,-1072.533697,1554.432478,10362.883188
2684.739441,536.266849,2516.700203,10140.821405
2684.739770,1072.533697,2886.803174,7772.162391
2684.740099,1532.190996,2368.659014,8068.244768
2684.740428,3524.039291,4663.297435,6587.832884
2684.740757,2604.724693,4663.297435,5995.668130
2684.741086,2528.115143,4589.276840,7624.121203
2684.741415,1149.143247,5033.400406,7105.977043
2684.741745,0.000000,3034.844362,8956.491898
2684.742074,-2604.724693,2368.659014,9918.759623
2684.742403,-3064.381992,1258.350101,10584.944971
2684.742732,-3217.601092,222.061783,11917.315666
2684.743061,-3140.991542,2960.823768,9400.615463
2684.743390,-3140.991542,2590.720797,10140.821405
2684.743719,-3983.696590,1998.556043,10807.006753
2684.744048,-3447.429741,2220.617826,11843.295072
2684.744377,-2987.772442,1776.494261,10584.944971
2684.744706,-689.485948,2368.659014,9252.574275
2684.745035,-689.485948,2738.761985,8660.409521
2684.745364,-766.095498,3478.967927,9252.574275
2684.745693,-1608.800546,2590.720797,11029.068536
2684.746022,1685.410096,2368.659014,11769.274478
2684.746352,3447.429741,4885.359217,5107.421000
2684.746681,4749.792088,5107.421000,7994.224174
2684.747010,3677.258390,5699.585753,5995.668130
2684.747339,4366.744339,7328.038826,7254.018232
2684.747668,1915.238745,6217.729913,7254.018232
2684.747997,1915.238745,6809.894666,7254.018232
2684.748326,1302.362347,5255.462188,8882.471304
2684.748655,0.000000,5995.668130,7328.038826
2684.748984,-306.438199,2516.700203,10288.862594
2684.749314,-2298.286494,444.123565,13027.624579
2684.749643,-1378.971896,-1702.473667,10807.006753
2684.749972,-1762.019645,888.247130,11547.212695
2684.750301,-1225.752797,-1036.288319,11843.295072
2684.750631,-1915.238745,3404.947333,8290.306550
2684.750960,766.095498,1628.453072,9622.677246
2684.751289,1762.019645,4293.194464,7698.141797
2684.751618,2451.505594,4737.318029,7402.059420
2684.751948,3677.258390,4441.235652,7402.059420
2684.752277,2757.943793,5477.523971,7105.977043
2684.752606,1838.629195,5255.462188,7994.224174
2684.752935,689.485948,2738.761985,7772.162391
2684.753265,-1378.971896,888.247130,11325.150913
2684.753594,-2145.067394,-370.102971,11621.233289
2684.753923,-2757.943793,814.226536,11325.150913
2684.754252,-1991.848295,370.102971,10510.924376
2684.754581,-2221.676944,1184.329507,9326.594869
2684.754911,-1378.971896,2072.576638,10066.800811
2684.755240,-1455.581446,1850.514855,9252.574275
2684.755569,76.609550,962.267725,11695.253884
2684.755898,2987.772442,1850.514855,8808.450710
2684.756228,4749.792088,2220.617826,7105.977043
2684.756557,3370.820191,3330.926739,6957.935855
2684.756886,2757.943793,3478.967927,6809.894666
2684.757215,3753.867940,4219.173869,7920.203579
2684.757545,2451.505594,4737.318029,7254.018232
2684.757874,2221.676944,4441.235652,6735.874072
2684.758203,919.314598,4663.297435,8808.450710
2684.758532,-1838.629195,1332.370696,9030.512492
2684.758862,-2298.286494,-3552.988522,13027.624579
2684.759191,-3447.429741,296.082377,10584.944971
2684.759520,-2528.115143,-2072.576638,11325.150913
2684.759849,-3830.477490,444.123565,9770.718434
2684.760179,-1915.238745,3034.844362,10510.924376
2684.760508,0.000000,2368.659014,9178.553681
2684.760837,0.000000,3478.967927,8290.306550
2684.761166,3677.258390,1998.556043,11917.315666
2684.761495,3294.210641,2812.782580,6143.709319
2684.761825,4290.134789,4441.235652,8068.244768
2684.762154,3294.210641,5625.565159,3404.947333
2684.762483,4290.134789,4737.318029,5921.647536
2684.762812,3064.381992,3404.947333,7179.997637
2684.763142,3217.601092,4737.318029,6513.812290
2684.763471,3064.381992,3997.112087,7179.997637
2684.763800,-536.266849,5033.400406,7031.956449
2684.764129,-3753.867940,370.102971,10584.944971
2684.764459,-5132.839837,-2812.782580,13693.809927
2684.764788,-3294.210641,3330.926739,9548.656652
2684.765117,-1991.848295,-3404.947333,11843.295072
2684.765446,-3600.648841,-0.000000,9918.759623
2684.765776,-1762.019645,2368.659014,13397.727550
2684.766105,-1225.752797,1924.535449,8660.409521
2684.766434,-2374.896044,4145.153275,8734.430116
2684.766763,-229.828649,1110.308913,11325.150913
2684.767092,3294.210641,3182.885551,8808.450710
2684.767422,3064.381992,6143.709319,7179.997637
2684.767751,1991.848295,3478.967927,6069.688724
2684.768080,1915.238745,4885.359217,7031.956449
2684.768409,2221.676944,5921.647536,10066.800811
2684.768739,-229.828649,5255.462188,7105.977043
2684.769068,229.828649,6957.935855,8808.450710
2684.769397,-842.705048,3849.070898,8808.450710
2684.769726,-2987.772442,2294.638420,9474.636058
2684.770056,-2987.772442,296.082377,12139.377449
2684.770385,-2451.505594,1924.535449,9770.718434
2684.770714,-1302.362347,-1850.514855,10955.047942
2684.771043,-1762.019645,-148.041188,10732.986159
2684.771373,-1302.362347,2368.659014,9992.780217
2684.771702,76.609550,2664.741391,8956.491898
2684.772031,1302.362347,4589.276840,7846.182985
2684.772360,3447.429741,6809.894666,7476.080014
2684.772689,3217.601092,5773.606348,7994.224174
2684.773019,995.924147,5551.544565,9030.512492
2684.773348,919.314598,4959.379811,9400.615463
2684.773677,-536.266849,4663.297435,7402.059420
2684.774006,689.485948,3627.009116,8290.306550
2684.774336,1915.238745,2442.679609,9252.574275
2684.774665,536.266849,1036.288319,11251.130318
2684.774994,0.000000,-0.000000,10732.986159
2684.775323,-536.266849,3108.864956,9474.636058
2684.775653,0.000000,592.164754,10288.862594
2684.775982,0.000000,4071.132681,8068.244768
2684.776311,766.095498,4589.276840,9696.697840
2684.776640,919.314598,3478.967927,8660.409521
2684.776970,1915.238745,3849.070898,7846.182985
2684.777299,4060.306139,4145.153275,8068.244768
2684.777628,3064.381992,3552.988522,8438.347739
2684.777957,1378.971896,3701.029710,8512.368333
2684.778287,689.485948,3478.967927,8216.285956
2684.778616,229.828649,2664.741391,9474.636058
2684.778945,-995.924147,1924.535449,10584.944971
2684.779274,-1378.971896,2146.597232,9474.636058
2684.779603,-2757.943793,2294.638420,11177.109724
2684.779933,-2451.505594,-2368.659014,11991.336260
2684.780262,-1762.019645,-296.082377,10140.821405
2684.780591,-689.485948,-962.267725,10510.924376
2684.780920,-1378.971896,1776.494261,9474.636058
2684.781250,536.266849,1628.453072,9548.656652
2684.781579,3753.867940,2072.576638,7846.182985
2684.781908,4136.915689,3256.906145,6365.771101
2684.782237,1838.629195,3108.864956,8142.265362
2684.782567,306.438199,1258.350101,7846.182985
2684.782896,2604.724693,3182.885551,8068.244768
2684.783225,3524.039291,2368.659014,7031.956449
2684.783554,2451.505594,2516.700203,7328.038826
2684.783884,-842.705048,296.082377,10436.903782
2684.784213,-1455.581446,-2886.803174,12213.398043
2684.784542,-1685.410096,-148.041188,9770.718434
2684.784871,-2221.676944,-1184.329507,10288.862594
2684.785200,-4596.572988,222.061783,10214.842000
2684.785530,-2834.553343,-1110.308913,11843.295072
2684.785859,-995.924147,-444.123565,8512.368333
2684.786188,-153.219100,962.267725,7328.038826
2684.786517,689.485948,1924.535449,8068.244768
2684.786847,1455.581446,222.061783,8512.368333
2684.787176,2834.553343,1332.370696,7105.977043
2684.787505,2068.457845,1554.432478,5329.482782
2684.787834,459.657299,296.082377,8216.285956
2684.788164,306.438199,-74.020594,10140.821405
2684.788493,995.924147,370.102971,8956.491898
2684.788822,-459.657299,888.247130,8660.409521
2684.789151,-2451.505594,-222.061783,10214.842000
2684.789481,-1762.019645,-740.205942,11621.233289
2684.789810,-2221.676944,-222.061783,10510.924376
2684.790139,-1915.238745,444.123565,9252.574275
2684.790468,-689.485948,370.102971,10214.842000
2684.790798,383.047749,-1110.308913,9844.739029
2684.791127,2374.896044,-296.082377,8364.327145
2684.791456,2757.943793,-0.000000,7328.038826
2684.791785,1608.800546,-592.164754,7846.182985
2684.792114,2145.067394,370.102971,8364.327145
2684.792444,2681.334243,1406.391290,7402.059420
2684.792773,2451.505594,1776.494261,7402.059420
2684.793102,2145.067394,888.247130,8512.368333
2684.793431,2145.067394,-370.102971,9252.574275
2684.793761,1455.581446,-1184.329507,9696.697840
2684.794090,0.000000,-222.061783,10140.821405
2684.794419,-1149.143247,-1036.288319,11251.130318
2684.794748,-689.485948,-370.102971,11103.089130
2684.795078,-612.876398,444.123565,9474.636058
2684.795407,-995.924147,666.185348,9326.594869
2684.795736,-229.828649,148.041188,9326.594869
2684.796065,842.705048,666.185348,8882.471304
2684.796395,1072.533697,-296.082377,7920.203579
2684.796724,536.266849,-962.267725,8142.265362
2684.797053,306.438199,-1406.391290,9252.574275
2684.797382,612.876398,-888.247130,8216.285956
2684.797711,459.657299,-222.061783,8216.285956
2684.798041,306.438199,-370.102971,8808.450710
2684.798370,306.438199,-814.226536,9844.739029
2684.798699,459.657299,-370.102971,10066.800811
2684.799028,0.000000,-0.000000,9252.574275
2684.799358,-459.657299,-0.000000,9474.636058
2684.799687,0.000000,-74.020594,10288.862594
2684.800016,76.609550,444.123565,9104.533087
2684.800345,0.000000,740.205942,8512.368333
2684.800675,0.000000,-0.000000,8586.388927
2684.801004,0.000000,-1110.308913,8956.491898
2684.801333,0.000000,-222.061783,9252.574275
2684.801662,-536.266849,-814.226536,7772.162391
2684.801992,-153.219100,-2072.576638,8808.450710
2684.802321,229.828649,-666.185348,8956.491898
2684.802650,919.314598,-148.041188,9104.533087
2684.802979,919.314598,-0.000000,8216.285956
2684.803308,1072.533697,-370.102971,8882.471304
2684.803638,2451.505594,-74.020594,9400.615463
2684.803967,1991.848295,1332.370696,8216.285956
2684.804296,919.314598,1406.391290,8734.430116
2684.804625,1072.533697,740.205942,10066.800811
2684.804955,842.705048,1998.556043,8142.265362
2684.805284,919.314598,888.247130,9252.574275
2684.805613,0.000000,740.205942,9474.636058
2684.805942,0.000000,-1258.350101,9178.553681
2684.806272,153.219100,-814.226536,9104.533087
2684.806601,-536.266849,-1332.370696,8882.471304
2684.806930,-919.314598,-1924.535449,9474.636058
2684.807259,-536.266849,-1702.473667,9918.759623
2684.807589,0.000000,-222.061783,9030.512492
2684.807918,229.828649,-0.000000,8808.450710
2684.808247,153.219100,-0.000000,8586.388927
2684.808576,1149.143247,-148.041188,10066.800811
2684.808906,1991.848295,962.267725,9622.677246
2684.809235,919.314598,1184.329507,8290.306550
2684.809564,612.876398,518.144159,10732.986159
2684.809893,1072.533697,444.123565,10066.800811
2684.810222,689.485948,-0.000000,9104.533087
2684.810552,0.000000,222.061783,8956.491898
2684.810881,-612.876398,-814.226536,9548.656652
2684.811210,-612.876398,-1184.329507,10140.821405
2684.811539,-459.657299,-1332.370696,9252.574275
2684.811869,-766.095498,-1628.453072,9400.615463
2684.812198,-766.095498,-1480.411884,9252.574275
2684.812527,-383.047749,-444.123565,9104.533087
2684.812856,536.266849,-0.000000,8808.450710
2684.813186,383.047749,-0.000000,8216.285956
2684.813515,1149.143247,-74.020594,8438.347739
2684.813844,1532.190996,296.082377,9474.636058
2684.814173,995.924147,444.123565,8512.368333
2684.814503,306.438199,-518.144159,8956.491898
2684.814832,459.657299,-148.041188,9474.636058
2684.815161,995.924147,-222.061783,9104.533087
2684.815490,153.219100,-0.000000,8882.471304
2684.815819,-536.266849,-666.185348,9178.553681
2684.816149,766.095498,-888.247130,9104.533087
2684.816478,842.705048,-740.205942,8512.368333
2684.816807,306.438199,-1332.370696,8142.265362
2684.817136,536.266849,-2368.659014,8586.388927
2684.817466,1455.581446,-1258.350101,8290.306550
2684.817795,1532.190996,740.205942,7698.141797
2684.818124,1225.752797,814.226536,7105.977043
2684.818453,842.705048,370.102971,7328.038826
2684.818783,1532.190996,888.247130,8512.368333
2684.819112,1302.362347,-222.061783,8882.471304
2684.819441,0.000000,-1554.432478,8808.450710
2684.819770,-459.657299,-1702.473667,9548.656652
2684.820100,0.000000,-1110.308913,9844.739029
2684.820429,-536.266849,-444.123565,9178.553681
2684.820758,-1302.362347,-148.041188,9326.594869
2684.821087,-919.314598,-370.102971,9474.636058
2684.821417,0.000000,370.102971,9474.636058
2684.821746,229.828649,518.144159,8512.368333
2684.822075,0.000000,-1776.494261,9030.512492
2684.822404,612.876398,-888.247130,9918.759623
2684.822733,1302.362347,-518.144159,8290.306550
2684.823063,766.095498,-0.000000,7624.121203
2684.823392,-459.657299,296.082377,9030.512492
2684.823721,612.876398,-370.102971,9622.677246
2684.824050,0.000000,222.061783,8438.347739
2684.824380,-612.876398,-0.000000,9178.553681
2684.824709,-1072.533697,-814.226536,10362.883188
2684.825038,-1762.019645,-1036.288319,10362.883188
2684.825367,-995.924147,-1110.308913,10288.862594
2684.825697,-1302.362347,-1258.350101,9474.636058
2684.826026,-1149.143247,-1628.453072,10436.903782
2684.826355,612.876398,-444.123565,9696.697840
2684.826684,1149.143247,-296.082377,8438.347739
2684.827014,76.609550,740.205942,8882.471304
2684.827343,1608.800546,148.041188,8734.430116
2684.827672,2298.286494,1110.308913,8660.409521
2684.828001,2451.505594,2220.617826,7254.018232
2684.828330,1762.019645,1184.329507,7105.977043
2684.828660,1455.581446,-148.041188,8512.368333
2684.828989,1225.752797,-666.185348,9178.553681
2684.829318,1532.190996,-1554.432478,10066.800811
2684.829647,-1225.752797,-1406.391290,10288.862594
2684.829977,-842.705048,-888.247130,9844.739029
2684.830306,-383.047749,-370.102971,10066.800811
2684.830635,-1225.752797,1332.370696,8512.368333
2684.830964,-1149.143247,370.102971,9474.636058
2684.831294,-153.219100,-370.102971,10140.821405
2684.831623,995.924147,-0.000000,8956.491898
2684.831952,1838.629195,-222.061783,8734.430116
2684.832281,1991.848295,-0.000000,8290.306550
2684.832611,2145.067394,592.164754,8290.306550
2684.832940,2451.505594,2368.659014,7624.121203
2684.833269,2145.067394,2294.638420,7105.977043
2684.833598,1532.190996,1776.494261,7994.224174
2684.833927,995.924147,1332.370696,9326.594869
2684.834257,1149.143247,-0.000000,9178.553681
2684.834586,-612.876398,-1406.391290,9252.574275
2684.834915,-1838.629195,-1406.391290,10807.006753
2684.835244,-1838.629195,-2590.720797,11843.295072
2684.835574,-2298.286494,-962.267725,9992.780217
2684.835903,-2451.505594,-74.020594,9474.636058
2684.836232,-995.924147,-666.185348,10214.842000
2684.836561,0.000000,518.144159,9918.759623
2684.836891,842.705048,296.082377,8290.306550
2684.837220,612.876398,-0.000000,8216.285956
2684.837549,1149.143247,222.061783,8290.306550
2684.837878,2145.067394,740.205942,8364.327145
2684.838208,2145.067394,592.164754,7105.977043
2684.838537,1302.362347,-0.000000,7698.141797
2684.838866,1685.410096,-222.061783,8290.306550
2684.839195,1149.143247,-0.000000,8956.491898
2684.839525,-383.047749,444.123565,8956.491898
2684.839854,-2068.457845,-1258.350101,10066.800811
2684.840183,-1762.019645,-666.185348,10510.924376
2684.840512,-1378.971896,-1332.370696,10510.924376
2684.840841,-1685.410096,-1110.308913,9622.677246
2684.841171,-2298.286494,-1850.514855,10584.944971
2684.841500,-995.924147,-1776.494261,11251.130318
2684.841829,0.000000,-444.123565,9474.636058
2684.842158,766.095498,-814.226536,8438.347739
2684.842488,1302.362347,-740.205942,8808.450710
2684.842817,2681.334243,592.164754,8586.388927
2684.843146,3907.087040,1850.514855,6513.812290
2684.843475,3217.601092,1480.411884,7031.956449
2684.843805,2911.162892,1110.308913,7846.182985
2684.844134,2987.772442,1110.308913,7772.162391
2684.844463,1608.800546,592.164754,9030.512492
2684.844792,0.000000,-148.041188,8882.471304
2684.845122,-995.924147,-1036.288319,10510.924376
2684.845451,-1072.533697,-1406.391290,11621.233289
2684.845780,-2528.115143,-1110.308913,9992.780217
2684.846109,-3294.210641,-888.247130,10436.903782
2684.846438,-2298.286494,-1480.411884,10807.006753
2684.846768,-1532.190996,-814.226536,9844.739029
2684.847097,-995.924147,-518.144159,9770.718434
2684.847426,612.876398,-666.185348,8882.471304
2684.847755,1991.848295,-1258.350101,9326.594869
2684.848085,2681.334243,1406.391290,7328.038826
2684.848414,2604.724693,1258.350101,6513.812290
2684.848743,2374.896044,1332.370696,7105.977043
2684.849072,2987.772442,1406.391290,7772.162391
2684.849402,3140.991542,2738.761985,7105.977043
2684.849731,1378.971896,1036.288319,7772.162391
2684.850060,0.000000,-370.102971,9474.636058
2684.850389,-1225.752797,-1628.453072,10362.883188
2684.850718,-1991.848295,-1924.535449,11029.068536
2684.851048,-3294.210641,-1998.556043,9400.615463
2684.851377,-2987.772442,-2516.700203,10732.986159
2684.851706,-2681.334243,-2368.659014,11695.253884
2684.852035,-1302.362347,-1850.514855,9844.739029
2684.852364,-919.314598,-2220.617826,10066.800811
2684.852693,306.438199,-1480.411884,9474.636058
2684.853022,2451.505594,666.185348,8808.450710
2684.853351,3294.210641,2146.597232,7105.977043
2684.853680,3217.601092,1554.432478,7179.997637
2684.854009,3064.381992,1406.391290,8660.409521
2684.854339,3907.087040,1924.535449,7624.121203
2684.854668,3370.820191,2812.782580,7105.977043
2684.854997,2374.896044,1702.473667,7772.162391
2684.855326,459.657299,888.247130,9326.594869
2684.855655,-153.219100,-740.205942,10807.006753
2684.855984,-2451.505594,-1110.308913,9696.697840
2684.856313,-3217.601092,-1332.370696,10881.027347
2684.856642,-2528.115143,-2516.700203,12065.356855
2684.856971,-2834.553343,-1924.535449,11399.171507
2684.857301,-3370.820191,-1332.370696,9548.656652
2684.857630,-2068.457845,-1850.514855,10658.965565
2684.857959,306.438199,-962.267725,11399.171507
2684.858288,2145.067394,1702.473667,8068.244768
2684.858617,3217.601092,1924.535449,7254.018232
2684.858946,2987.772442,1924.535449,8216.285956
2684.859275,4136.915689,1776.494261,8290.306550
2684.859604,4136.915689,3182.885551,6143.709319
2684.859933,2834.553343,2886.803174,6661.853478
2684.860262,2068.457845,1924.535449,8216.285956
2684.860592,2145.067394,3108.864956,6809.894666
2684.860921,2374.896044,666.185348,8068.244768
2684.861250,-2681.334243,-2146.597232,10584.944971
2684.861579,-2681.334243,-4293.194464,11103.089130
2684.861908,-2834.553343,-3330.926739,11991.336260
2684.862237,-2604.724693,-5699.585753,12361.439231
2684.862566,-4213.525239,-2368.659014,8364.327145
2684.862895,-2221.676944,-3849.070898,11473.192101
2684.863224,-1991.848295,-1036.288319,10140.821405
2684.863554,459.657299,-0.000000,9400.615463
2684.863883,2221.676944,1258.350101,7550.100608
2684.864212,4136.915689,-0.000000,8068.244768
2684.864541,4136.915689,2220.617826,7179.997637
2684.864870,3370.820191,1480.411884,5477.523971
2684.865199,2298.286494,962.267725,6883.915261
2684.865528,2987.772442,1480.411884,7994.224174
2684.865857,3907.087040,1924.535449,7254.018232
2684.866186,689.485948,1480.411884,6587.832884
2684.866516,-1991.848295,-3034.844362,11695.253884
2684.866845,-2987.772442,-1998.556043,11473.192101
2684.867174,-2298.286494,-3849.070898,12361.439231
2684.867503,-3064.381992,-3182.885551,10955.047942
2684.867832,-3524.039291,-2146.597232,11695.253884
2684.868161,-1991.848295,-2516.700203,11473.192101
2684.868490,-229.828649,-666.185348,10955.047942
2684.868819,1302.362347,1036.288319,8956.491898
2684.869148,3064.381992,296.082377,8512.368333
2684.869477,4366.744339,2516.700203,7624.121203
2684.869807,4060.306139,2960.823768,7105.977043
2684.870136,2145.067394,2738.761985,6587.832884
2684.870465,2451.505594,2664.741391,7254.018232
2684.870794,2681.334243,1554.432478,7328.038826
2684.871123,1838.629195,3849.070898,7031.956449
2684.871452,1302.362347,1924.535449,7476.080014
2684.871781,-1455.581446,-1776.494261,9844.739029
2684.872110,-2298.286494,-3849.070898,12287.418637
2684.872439,-2374.896044,-2590.720797,10807.006753
2684.872769,-3370.820191,-4145.153275,10881.027347
2684.873098,-3140.991542,-1924.535449,11325.150913
2684.873427,-1072.533697,-666.185348,11029.068536
2684.873756,0.000000,1480.411884,9474.636058
2684.874085,76.609550,1110.308913,8512.368333
2684.874414,3370.820191,-148.041188,8882.471304
2684.874743,4749.792088,2516.700203,7698.141797
2684.875072,3600.648841,1628.453072,5921.647536
2684.875401,1991.848295,1184.329507,6883.915261
2684.875730,2451.505594,370.102971,8586.388927
2684.876060,2145.067394,814.226536,7328.038826
2684.876389,0.000000,592.164754,7920.203579
2684.876718,-1072.533697,-888.247130,10288.862594
2684.877047,-2298.286494,-2220.617826,11177.109724
2684.877376,-2528.115143,-3997.112087,12287.418637
2684.877705,-3677.258390,-2812.782580,10510.924376
2684.878034,-2451.505594,-3182.885551,12065.356855
2684.878363,-2374.896044,-888.247130,11843.295072
2684.878692,-383.047749,-370.102971,9326.594869
2684.879022,1149.143247,296.082377,8290.306550
2684.879351,2604.724693,-0.000000,8290.306550
2684.879680,3983.696590,2220.617826,6735.874072
2684.880009,3983.696590,1628.453072,7179.997637
2684.880338,2451.505594,2146.597232,7179.997637
2684.880667,2604.724693,1628.453072,7402.059420
2684.880996,2528.115143,2146.597232,6735.874072
2684.881325,1608.800546,2590.720797,5773.606348
2684.881654,229.828649,222.061783,8586.388927
2684.881983,-1762.019645,-3182.885551,11399.171507
2684.882313,-1991.848295,-2812.782580,11103.089130
2684.882642,-2987.772442,-3034.844362,11325.150913
2684.882971,-3447.429741,-4885.359217,11547.212695
2684.883300,-3447.429741,-1036.288319,11399.171507
2684.883629,-612.876398,-370.102971,9474.636058
2684.883958,0.000000,2368.659014,7550.100608
2684.884287,1532.190996,962.267725,8734.430116
2684.884616,3907.087040,740.205942,8290.306550
2684.884945,4519.963438,2368.659014,7105.977043
2684.885275,3217.601092,1702.473667,7105.977043
2684.885604,2374.896044,814.226536,6883.915261
2684.885933,2528.115143,1702.473667,7772.162391
2684.886262,2068.457845,1998.556043,7328.038826
2684.886591,-459.657299,666.185348,8512.368333
2684.886920,-2298.286494,-1480.411884,10584.944971
2684.887249,-1378.971896,-2368.659014,11251.130318
2684.887578,-2757.943793,-3256.906145,11769.274478
2684.887907,-3447.429741,-3923.091493,11769.274478
2684.888237,-3447.429741,-3627.009116,12361.439231
2684.888566,-2221.676944,-2072.576638,11029.068536
2684.888895,-1302.362347,592.164754,10066.800811
2684.889224,842.705048,-74.020594,9400.615463
2684.889553,2834.553343,740.205942,9030.512492
2684.889882,4290.134789,1258.350101,7476.080014
2684.890211,3447.429741,1554.432478,6587.832884
2684.890540,1915.238745,1628.453072,7550.100608
2684.890869,2681.334243,2516.700203,7772.162391
2684.891198,2757.943793,2442.679609,6217.729913
2684.891528,1225.752797,2664.741391,6365.771101
2684.891857,-229.828649,-518.144159,8734.430116
2684.892186,-1762.019645,-4367.215058,11769.274478
2684.892515,-2451.505594,-2960.823768,10658.965565
2684.892844,-2834.553343,-2664.741391,11103.089130
2684.893173,-2911.162892,-4071.132681,11769.274478
2684.893502,-2681.334243,-592.164754,11547.212695
2684.893831,-229.828649,-666.185348,9178.553681
2684.894160,0.000000,814.226536,7920.203579
2684.894490,1685.410096,222.061783,8438.347739
2684.894819,3907.087040,1406.391290,7328.038826
2684.895148,4213.525239,2220.617826,7105.977043
2684.895477,2604.724693,1332.370696,7105.977043
2684.895806,2298.286494,666.185348,6809.894666
2684.896135,1991.848295,1776.494261,7846.182985
2684.896464,2068.457845,2072.576638,5847.626942
2684.896793,1302.362347,2294.638420,7402.059420
2684.897122,383.047749,-222.061783,8512.368333
2684.897451,-1072.533697,-4145.153275,11177.109724
2684.897781,-2911.162892,-1554.432478,10881.027347
2684.898110,-3294.210641,-4219.173869,12287.418637
2684.898439,-3140.991542,-3330.926739,12731.542202
2684.898768,-1915.238745,-222.061783,11103.089130
2684.899097,-612.876398,370.102971,8734.430116
2684.899426,76.609550,666.185348,9326.594869
2684.899755,1991.848295,1258.350101,8438.347739
2684.900084,3753.867940,1554.432478,8216.285956
2684.900413,3064.381992,2072.576638,7031.956449
2684.900743,2298.286494,1036.288319,6957.935855
2684.901072,2298.286494,740.205942,7624.121203
2684.901401,2604.724693,1924.535449,7402.059420
2684.901730,612.876398,296.082377,7105.977043
2684.902059,-229.828649,-1850.514855,10510.924376
2684.902388,-1532.190996,-2072.576638,10066.800811
2684.902717,-2068.457845,-3627.009116,11399.171507
2684.903046,-3217.601092,-3923.091493,10732.986159
2684.903375,-3217.601092,-3997.112087,12065.356855
2684.903704,-1378.971896,-740.205942,11177.109724
2684.904034,-229.828649,1406.391290,8586.388927
2684.904363,612.876398,1258.350101,8142.265362
2684.904692,1991.848295,1258.350101,8882.471304
2684.905021,3370.820191,1036.288319,7846.182985
2684.905350,3140.991542,592.164754,7105.977043
2684.905679,2374.896044,666.185348,7105.977043
2684.906008,2604.724693,-74.020594,7920.203579
2684.906337,2451.505594,1554.432478,7105.977043
2684.906666,1302.362347,1702.473667,7105.977043
2684.906996,-383.047749,-1110.308913,8956.491898
2684.907325,-1072.533697,-1776.494261,9844.739029
2684.907654,-1915.238745,-2442.679609,10807.006753
2684.907983,-2834.553343,-2960.823768,10955.047942
2684.908312,-3064.381992,-3108.864956,11843.295072
2684.908641,-1762.019645,-2220.617826,11917.315666
2684.908970,-229.828649,740.205942,8882.471304
2684.909299,383.047749,1332.370696,8290.306550
2684.909628,1302.362347,740.205942,8512.368333
2684.909958,3524.039291,1480.411884,8290.306550
2684.910287,3753.867940,3034.844362,7179.997637
2684.910616,3064.381992,1110.308913,7105.977043
2684.910945,1915.238745,1258.350101,8216.285956
2684.911274,1991.848295,962.267725,8438.347739
2684.911603,995.924147,1258.350101,7772.162391
2684.911932,-766.095498,-1110.308913,8512.368333
2684.912261,-1685.410096,-2220.617826,10362.883188
2684.912590,-1378.971896,-2812.782580,11251.130318
2684.912919,-2451.505594,-2516.700203,10955.047942
2684.913249,-2834.553343,-2072.576638,11177.109724
2684.913578,-1762.019645,-1850.514855,11029.068536
2684.913907,-612.876398,888.247130,9400.615463
2684.914236,689.485948,1110.308913,8512.368333
2684.914565,1302.362347,1110.308913,8438.347739
2684.914894,2834.553343,-370.102971,8808.450710
2684.915223,3447.429741,592.164754,7698.141797
2684.915552,2298.286494,-0.000000,7254.018232
2684.915881,1838.629195,-0.000000,8142.265362
2684.916211,2221.676944,444.123565,8364.327145
2684.916540,1532.190996,814.226536,7920.203579
2684.916869,0.000000,148.041188,7846.182985
2684.917198,-153.219100,-1036.288319,8808.450710
2684.917527,-1149.143247,-814.226536,10288.862594
2684.917856,-1532.190996,-1406.391290,9992.780217
2684.918185,-2145.067394,-1184.329507,10288.862594
2684.918514,-1608.800546,-2368.659014,11547.212695
2684.918843,-459.657299,-518.144159,10510.924376
2684.919172,229.828649,814.226536,9178.553681
2684.919502,689.485948,814.226536,7994.224174
2684.919831,1532.190996,1258.350101,8068.244768
2684.920160,2298.286494,1850.514855,8808.450710
2684.920489,2298.286494,1628.453072,7772.162391
2684.920818,1455.581446,962.267725,8068.244768
2684.921147,1762.019645,740.205942,8586.388927
2684.921476,1378.971896,296.082377,9178.553681
2684.921805,0.000000,296.082377,8364.327145
2684.922134,-1149.143247,-814.226536,9474.636058
2684.922464,-995.924147,-814.226536,10436.903782
2684.922793,-995.924147,-518.144159,10066.800811
2684.923122,-1685.410096,-814.226536,9992.780217
2684.923451,-1838.629195,-1628.453072,10066.800811
2684.923780,-612.876398,-1110.308913,10584.944971
2684.924109,76.609550,-74.020594,8586.388927
2684.924438,229.828649,370.102971,8142.265362
2684.924767,459.657299,-0.000000,9252.574275
2684.925096,1072.533697,-296.082377,9252.574275
2684.925425,1378.971896,518.144159,8364.327145
2684.925755,919.314598,222.061783,7328.038826
2684.926084,1072.533697,-666.185348,8216.285956
2684.926413,1072.533697,-0.000000,9030.512492
2684.926742,1378.971896,-222.061783,8512.368333
2684.927071,-153.219100,-370.102971,7624.121203
2684.927400,-766.095498,-1332.370696,8808.450710
2684.927729,-229.828649,-1258.350101,9400.615463
2684.928058,-689.485948,-1998.556043,9548.656652
2684.928387,-1072.533697,-2220.617826,9770.718434
2684.928717,-612.876398,-2590.720797,9696.697840
2684.929046,306.438199,-444.123565,9474.636058
2684.929375,459.657299,814.226536,8216.285956
2684.929704,383.047749,148.041188,8290.306550
2684.930033,1225.752797,-296.082377,9326.594869
2684.930362,2221.676944,370.102971,8216.285956
2684.930691,2068.457845,296.082377,8364.327145
2684.931020,1072.533697,-74.020594,8586.388927
2684.931349,1302.362347,-74.020594,9252.574275
2684.931679,1532.190996,-0.000000,8438.347739
2684.932008,229.828649,296.082377,8068.244768
2684.932337,0.000000,-74.020594,9992.780217
2684.932666,-536.266849,-0.000000,9770.718434
2684.932995,-153.219100,-0.000000,10066.800811
2684.933324,383.047749,-0.000000,9474.636058
2684.933653,0.000000,-1406.391290,10362.883188
2684.933982,689.485948,444.123565,10140.821405
2684.934311,612.876398,740.205942,8734.430116
2684.934640,153.219100,1332.370696,8808.450710
2684.934970,919.314598,592.164754,9326.594869
2684.935299,1685.410096,518.144159,9474.636058
2684.935628,1302.362347,1184.329507,8512.368333
2684.935957,919.314598,962.267725,8808.450710
2684.936286,383.047749,-0.000000,9252.574275
2684.936615,689.485948,518.144159,9474.636058
2684.936944,689.485948,592.164754,8512.368333
2684.937273,-459.657299,-0.000000,8956.491898
2684.937602,-612.876398,-0.000000,9696.697840
2684.937932,-229.828649,-740.205942,9770.718434
2684.938261,0.000000,-518.144159,8956.491898
2684.938590,-612.876398,-1110.308913,9622.677246
2684.938919,-383.047749,-1036.288319,9918.759623
2684.939248,0.000000,814.226536,8290.306550
2684.939577,153.219100,814.226536,8216.285956
2684.939906,76.609550,592.164754,8438.347739
2684.940235,612.876398,-518.144159,9474.636058
2684.940564,919.314598,-518.144159,9326.594869
2684.940893,-153.219100,-74.020594,8512.368333
2684.941223,0.000000,-222.061783,9474.636058
2684.941552,0.000000,-518.144159,9622.677246
2684.941881,229.828649,-74.020594,8438.347739
2684.942210,-306.438199,-0.000000,8290.306550
2684.942539,76.609550,-592.164754,9474.636058
2684.942868,229.828649,296.082377,8882.471304
2684.943197,612.876398,-518.144159,9030.512492
2684.943526,459.657299,-740.205942,9400.615463
2684.943855,459.657299,-1258.350101,9400.615463
2684.944185,995.924147,-0.000000,8882.471304
2684.944514,1149.143247,962.267725,7698.141797
2684.944843,459.657299,1110.308913,8290.306550
2684.945172,842.705048,-296.082377,9252.574275
2684.945501,1302.362347,-370.102971,9030.512492
2684.945830,766.095498,296.082377,9104.533087
2684.946159,-383.047749,-148.041188,9030.512492
2684.946488,0.000000,-222.061783,9252.574275
2684.946817,0.000000,-0.000000,9696.697840
2684.947146,0.000000,592.164754,8438.347739
2684.947476,-306.438199,-370.102971,9030.512492
2684.947805,459.657299,-222.061783,9992.780217
2684.948134,842.705048,-148.041188,9178.553681
2684.948463,536.266849,-592.164754,9400.615463
2684.948792,383.047749,-1036.288319,9252.574275
2684.949121,1455.581446,222.061783,9178.553681
2684.949450,1455.581446,1628.453072,8068.244768
2684.949779,1149.143247,888.247130,7772.162391
2684.950108,459.657299,-592.164754,9548.656652
2684.950438,1608.800546,-1110.308913,9326.594869
2684.950767,689.485948,-666.185348,8364.327145
2684.951096,-919.314598,-888.247130,9104.533087
2684.951425,-1302.362347,-1332.370696,10362.883188
2684.951754,-919.314598,-2220.617826,9992.780217
2684.952083,-1378.971896,-1036.288319,9104.533087
2684.952412,-1302.362347,-1702.473667,9178.553681
2684.952741,-383.047749,-1332.370696,9622.677246
2684.953070,306.438199,-1258.350101,10362.883188
2684.953400,766.095498,-814.226536,8808.450710
2684.953729,689.485948,-1850.514855,9474.636058
2684.954058,1838.629195,-0.000000,9400.615463
2684.954387,3217.601092,962.267725,7550.100608
2684.954716,2298.286494,1850.514855,7920.203579
2684.955045,2221.676944,1702.473667,8216.285956
2684.955374,1838.629195,148.041188,8586.388927
2684.955703,2068.457845,-0.000000,8956.491898
2684.956032,229.828649,-666.185348,8216.285956
2684.956362,-995.924147,-1480.411884,9770.718434
2684.956691,-995.924147,-888.247130,10066.800811
2684.957020,-1072.533697,-1702.473667,10288.862594
2684.957349,-1915.238745,-1258.350101,9252.574275
2684.957678,-2068.457845,-370.102971,9844.739029
2684.958007,-689.485948,-444.123565,9992.780217
2684.958336,76.609550,666.185348,8882.471304
2684.958665,766.095498,-0.000000,7772.162391
2684.958994,1455.581446,-0.000000,9400.615463
2684.959324,2374.896044,1702.473667,8808.450710
2684.959653,2451.505594,2072.576638,7179.997637
2684.959982,1915.238745,2368.659014,7550.100608
2684.960311,1991.848295,2220.617826,8068.244768
2684.960640,2451.505594,1702.473667,8364.327145
2684.960969,1149.143247,1702.473667,8216.285956
2684.961298,-229.828649,-222.061783,9178.553681
2684.961627,-1991.848295,-1554.432478,9770.718434
2684.961956,-1608.800546,-2072.576638,10362.883188
2684.962286,-2757.943793,-2220.617826,10362.883188
2684.962615,-3140.991542,-1702.473667,9622.677246
2684.962944,-2221.676944,-1924.535449,10732.986159
2684.963273,-1302.362347,-1110.308913,10066.800811
2684.963602,-383.047749,-444.123565,8882.471304
2684.963931,153.219100,-1184.329507,9548.656652
2684.964260,1838.629195,-222.061783,8512.368333
2684.964589,2911.162892,1554.432478,8142.265362
2684.964919,2374.896044,1850.514855,6809.894666
2684.965248,2298.286494,444.123565,8068.244768
2684.965577,2604.724693,1702.473667,8364.327145
2684.965906,2987.772442,962.267725,7994.224174
2684.966235,995.924147,296.082377,8586.388927
2684.966564,-612.876398,-1258.350101,9548.656652
2684.966893,-1149.143247,-1110.308913,10658.965565
2684.967222,-2068.457845,-1480.411884,9474.636058
2684.967551,-3140.991542,-1702.473667,10436.903782
2684.967881,-2987.772442,-2294.638420,11251.130318
2684.968210,-1915.238745,-2072.576638,11177.109724
2684.968539,-1838.629195,-1480.411884,9844.739029
2684.968868,-459.657299,-1628.453072,9326.594869
2684.969197,995.924147,-1406.391290,10362.883188
2684.969526,3140.991542,888.247130,8882.471304
2684.969855,3907.087040,1998.556043,7031.956449
2684.970184,2451.505594,1406.391290,7328.038826
2684.970513,2604.724693,1258.350101,8438.347739
2684.970843,4060.306139,2886.803174,7624.121203
2684.971172,2298.286494,2368.659014,7105.977043
2684.971501,1532.190996,1332.370696,7254.018232
2684.971830,1685.410096,2294.638420,7920.203579
2684.972159,1762.019645,-0.000000,8290.306550
2684.972488,-1302.362347,-1480.411884,9770.718434
2684.972817,-2374.896044,-3108.864956,10140.821405
2684.973146,-2374.896044,-2664.741391,11769.274478
2684.973475,-2298.286494,-3701.029710,11843.295072
2684.973805,-3064.381992,-2368.659014,8808.450710
2684.974134,-1455.581446,-2368.659014,11769.274478
2684.974463,0.000000,-518.144159,10066.800811
2684.974792,1685.410096,1406.391290,8142.265362
2684.975121,2911.162892,2146.597232,7328.038826
2684.975450,3524.039291,962.267725,7254.018232
2684.975779,3217.601092,1776.494261,8956.491898
2684.976108,2834.553343,1480.411884,6587.832884
2684.976437,1685.410096,1110.308913,6957.935855
2684.976767,1532.190996,962.267725,8290.306550
2684.977096,1072.533697,-0.000000,8808.450710
2684.977425,-1072.533697,-1702.473667,9326.594869
2684.977754,-3370.820191,-2368.659014,9770.718434
2684.978083,-3370.820191,-3775.050304,11917.315666
2684.978412,-2987.772442,-4145.153275,11177.109724
2684.978741,-3294.210641,-1554.432478,10362.883188
2684.979070,-2681.334243,-2072.576638,9548.656652
2684.979399,-1608.800546,-1924.535449,11843.295072
2684.979729,919.314598,-444.123565,9770.718434
2684.980058,2451.505594,296.082377,7624.121203
2684.980387,2911.162892,444.123565,7328.038826
2684.980716,3600.648841,740.205942,7179.997637
2684.981045,3600.648841,1924.535449,7105.977043
2684.981374,2834.553343,3552.988522,6735.874072
2684.981703,2374.896044,1406.391290,7624.121203
2684.982032,1838.629195,2294.638420,8290.306550
2684.982361,1838.629195,3404.947333,7105.977043
2684.982691,842.705048,-0.000000,8290.306550
2684.983020,-2451.505594,-1776.494261,11029.068536
2684.983349,-2145.067394,-4293.194464,12657.521608
2684.983678,-2451.505594,-2368.659014,11251.130318
2684.984007,-2604.724693,-4071.132681,11103.089130
2684.984336,-3217.601092,-1998.556043,9992.780217
2684.984665,0.000000,-1258.350101,12139.377449
2684.984994,536.266849,2072.576638,8882.471304
2684.985323,2068.457845,1998.556043,7698.141797
2684.985653,3524.039291,1850.514855,8068.244768
2684.985982,4213.525239,2812.782580,8290.306550
2684.986311,3217.601092,3404.947333,6809.894666
2684.986640,1608.800546,2590.720797,5773.606348
2684.986969,1685.410096,222.061783,9030.512492
2684.987298,1915.238745,2146.597232,6883.915261
2684.987627,2068.457845,1184.329507,7105.977043
2684.987956,-1915.238745,-1406.391290,8882.471304
2684.988285,-1991.848295,-4737.318029,11769.274478
2684.988615,-2757.943793,-2146.597232,11695.253884
2684.988944,-3064.381992,-6291.750507,11399.171507
2684.989273,-3830.477490,-2590.720797,10140.821405
2684.989602,-2604.724693,-1776.494261,12657.521608
2684.989931,-1072.533697,-0.000000,9622.677246
2684.990260,229.828649,2368.659014,8290.306550
2684.990589,2911.162892,-0.000000,8290.306550
2684.990918,4213.525239,1110.308913,8068.244768
2684.991247,4060.306139,1776.494261,6883.915261
2684.991577,2528.115143,1036.288319,5699.585753
2684.991906,1532.190996,962.267725,8364.327145
2684.992235,2068.457845,1258.350101,7624.121203
2684.992564,1915.238745,1480.411884,6735.874072
2684.992893,-919.314598,-0.000000,8734.430116
2684.993222,-2374.896044,-4441.235652,10732.986159
2684.993551,-1838.629195,-2664.741391,11843.295072
2684.993880,-2451.505594,-4811.338623,11103.089130
2684.994209,-4443.353888,-3108.864956,10510.924376
2684.994539,-2298.286494,-2368.659014,11917.315666
2684.994868,536.266849,-814.226536,10214.842000
2684.995197,1838.629195,1554.432478,8364.327145
2684.995526,2681.334243,814.226536,7031.956449
2684.995855,3370.820191,1184.329507,7698.141797
2684.996184,4136.915689,1776.494261,8216.285956
2684.996513,2374.896044,3108.864956,6069.688724
2684.996842,1991.848295,1332.370696,7550.100608
2684.997171,1532.190996,1628.453072,7254.018232
2684.997501,2068.457845,2960.823768,7328.038826
2684.997830,1532.190996,1628.453072,6661.853478
2684.998159,-1608.800546,-2516.700203,8956.491898
2684.998488,-1838.629195,-4589.276840,12509.480420
2684.998817,-2374.896044,-1850.514855,11547.212695
2684.999146,-2834.553343,-5921.647536,12065.356855
2684.999475,-3983.696590,-2072.576638,10510.924376
2684.999804,-1455.581446,-888.247130,12657.521608
2685.000134,612.876398,1776.494261,9252.574275
2685.000463,1072.533697,2960.823768,7550.100608
2685.000792,2757.943793,1036.288319,8216.285956
2685.001121,4060.306139,1110.308913,8734.430116
2685.001450,3753.867940,1258.350101,7994.224174
2685.001779,1915.238745,1554.432478,5995.668130
2685.002108,1225.752797,740.205942,8216.285956
2685.002437,1915.238745,2442.679609,7328.038826
2685.002766,1378.971896,2072.576638,6661.853478
2685.003096,-1455.581446,-222.061783,9252.574275
2685.003425,-2451.505594,-3404.947333,11473.192101
2685.003754,-1991.848295,-2442.679609,11103.089130
2685.004083,-3064.381992,-4959.379811,11769.274478
2685.004412,-4290.134789,-2886.803174,10510.924376
2685.004741,-3217.601092,-2738.761985,12583.501014
2685.005070,-1378.971896,-888.247130,11177.109724
2685.005399,229.828649,740.205942,8512.368333
2685.005728,3217.601092,814.226536,8364.327145
2685.006058,3753.867940,518.144159,8290.306550
2685.006387,4060.306139,1924.535449,7772.162391
2685.006716,2987.772442,2072.576638,6143.709319
2685.007045,1991.848295,2368.659014,7328.038826
2685.007374,2604.724693,1998.556043,8512.368333
2685.007703,2145.067394,2664.741391,6587.832884
2685.008032,919.314598,2812.782580,6365.771101
2685.008361,383.047749,740.205942,7254.018232
2685.008690,-306.438199,-2294.638420,10066.800811
2685.009020,-2451.505594,-5181.441594,11843.295072
2685.009349,-2604.724693,-2146.597232,10362.883188
2685.009678,-3064.381992,-3849.070898,11695.253884
2685.010007,-2681.334243,-1628.453072,10510.924376
2685.010336,-1072.533697,1332.370696,11621.233289
2685.010665,383.047749,148.041188,8068.244768
2685.010994,1455.581446,1406.391290,8660.409521
2685.011323,3907.087040,1850.514855,7476.080014
2685.011652,4596.572988,1924.535449,7994.224174
2685.011982,2374.896044,1702.473667,7328.038826
2685.012311,1685.410096,740.205942,7402.059420
2685.012640,1685.410096,1258.350101,6809.894666
2685.012969,1225.752797,2220.617826,6957.935855
2685.013298,612.876398,1850.514855,7179.997637
2685.013627,0.000000,-0.000000,9548.656652
2685.013956,-2221.676944,-3182.885551,10584.944971
2685.014285,-2374.896044,-2886.803174,10955.047942
2685.014614,-3064.381992,-3923.091493,10658.965565
2685.014944,-2681.334243,-3404.947333,11769.274478
2685.015273,-2298.286494,-0.000000,11177.109724
2685.015602,-536.266849,-296.082377,8586.388927
2685.015931,153.219100,222.061783,9474.636058
2685.016260,3217.601092,1110.308913,8290.306550
2685.016589,4366.744339,1332.370696,7698.141797
2685.016918,2604.724693,1110.308913,7105.977043
2685.017247,2145.067394,518.144159,7698.141797
2685.017576,2221.676944,1924.535449,7550.100608
2685.017906,1608.800546,2368.659014,7698.141797
2685.018235,842.705048,1924.535449,7105.977043
2685.018564,612.876398,-296.082377,9844.739029
2685.018893,-1072.533697,-3108.864956,11177.109724
2685.019222,-1685.410096,-4145.153275,10955.047942
2685.019551,-2451.505594,-3478.967927,11769.274478
2685.019880,-2451.505594,-4367.215058,12879.583391
2685.020209,-1991.848295,-814.226536,10658.965565
2685.020538,229.828649,370.102971,8956.491898
2685.020868,766.095498,1480.411884,8734.430116
2685.021197,2604.724693,740.205942,8586.388927
2685.021526,4136.915689,1406.391290,7624.121203
2685.021855,3677.258390,888.247130,7624.121203
2685.022184,2528.115143,1184.329507,7994.224174
2685.022513,2145.067394,1702.473667,7254.018232
2685.022842,1838.629195,2072.576638,7254.018232
2685.023171,842.705048,2368.659014,7179.997637
2685.023500,1149.143247,2072.576638,8068.244768
2685.023830,0.000000,-1258.350101,8660.409521
2685.024159,-306.438199,-3552.988522,10658.965565
2685.024488,-2528.115143,-2886.803174,10436.903782
2685.024817,-2987.772442,-5403.503377,12583.501014
2685.025146,-2911.162892,-2590.720797,10732.986159
2685.025475,-1225.752797,-0.000000,10140.821405
2685.025804,153.219100,-0.000000,7920.203579
2685.026133,1225.752797,740.205942,8512.368333
2685.026462,3140.991542,370.102971,8660.409521
2685.026792,3753.867940,222.061783,7031.956449
2685.027121,1838.629195,962.267725,6439.791695
2685.027450,2451.505594,962.267725,7920.203579
2685.027779,1915.238745,2146.597232,7402.059420
2685.028108,995.924147,1924.535449,7105.977043
2685.028437,0.000000,-0.000000,7105.977043
2685.028766,-995.924147,-1480.411884,10140.821405
2685.029095,-1762.019645,-2812.782580,10510.924376
2685.029424,-3140.991542,-4367.215058,11029.068536
2685.029754,-3370.820191,-4663.297435,11547.212695
2685.030083,-2987.772442,-3997.112087,12287.418637
2685.030412,-1072.533697,-1036.288319,10140.821405
2685.030741,-153.219100,888.247130,7550.100608
2685.031070,842.705048,1184.329507,8734.430116
2685.031399,2987.772442,1406.391290,8808.450710
2685.031728,3830.477490,1628.453072,7846.182985
2685.032057,2681.334243,148.041188,8290.306550
2685.032386,2068.457845,222.061783,7624.121203
2685.032716,2374.896044,1332.370696,8586.388927
2685.033045,1915.238745,2590.720797,7031.956449
2685.033374,1225.752797,2072.576638,7920.203579
2685.033703,306.438199,370.102971,8956.491898
2685.034032,-1455.581446,-1776.494261,10066.800811
2685.034361,-1838.629195,-444.123565,11177.109724
2685.034690,-2681.334243,-2368.659014,11843.295072
2685.035019,-2987.772442,-2294.638420,11325.150913
2685.035348,-2068.457845,-592.164754,11251.130318
2685.035678,-766.095498,962.267725,9474.636058
2685.036007,229.828649,666.185348,8808.450710
2685.036336,1608.800546,592.164754,8734.430116
2685.036665,3064.381992,1110.308913,8290.306550
2685.036994,2987.772442,1332.370696,7179.997637
2685.037323,1838.629195,1184.329507,8142.265362
2685.037652,1532.190996,1258.350101,8364.327145
2685.037981,2298.286494,2664.741391,7476.080014
2685.038311,1532.190996,1406.391290,7179.997637
2685.038640,-306.438199,-370.102971,8586.388927
2685.038969,-689.485948,-2072.576638,10584.944971
2685.039298,-1532.190996,-1850.514855,10288.862594
2685.039627,-2604.724693,-2664.741391,10140.821405
2685.039956,-3447.429741,-2368.659014,10881.027347
2685.040285,-2221.676944,-1258.350101,11251.130318
2685.040614,-689.485948,222.061783,9474.636058
2685.040943,-306.438199,666.185348,7994.224174
2685.041273,612.876398,444.123565,8290.306550
2685.041602,1838.629195,1110.308913,8734.430116
2685.041931,2757.943793,962.267725,8364.327145
2685.042260,2145.067394,518.144159,7772.162391
2685.042589,1991.848295,-0.000000,7994.224174
2685.042918,2604.724693,1110.308913,8586.388927
2685.043247,2068.457845,666.185348,8512.368333
2685.043576,306.438199,-222.061783,8956.491898
2685.043905,-306.438199,-370.102971,9104.533087
2685.044235,-153.219100,-592.164754,10288.862594
2685.044564,-1532.190996,-1110.308913,10140.821405
2685.044893,-2068.457845,-1702.473667,10955.047942
2685.045222,-1149.143247,-1924.535449,10732.986159
2685.045551,0.000000,-518.144159,9178.553681
2685.045880,383.047749,666.185348,8660.409521
2685.046209,995.924147,-148.041188,9104.533087
2685.046538,1685.410096,518.144159,8882.471304
2685.046867,2528.115143,888.247130,7994.224174
2685.047197,2298.286494,518.144159,7254.018232
2685.047526,1685.410096,370.102971,8734.430116
2685.047855,1991.848295,962.267725,8734.430116
2685.048184,1532.190996,888.247130,8216.285956
2685.048513,0.000000,-370.102971,8882.471304
2685.048842,-383.047749,-444.123565,9178.553681
2685.049171,0.000000,-1332.370696,10066.800811
2685.049500,-689.485948,-1628.453072,10584.944971
2685.049829,-1608.800546,-2294.638420,9326.594869
2685.050159,-1072.533697,-1850.514855,9844.739029
2685.050488,-229.828649,-1850.514855,9548.656652
2685.050817,689.485948,-222.061783,8216.285956
2685.051146,306.438199,-222.061783,7920.203579
2685.051475,459.657299,-962.267725,8290.306550
2685.051804,1225.752797,-444.123565,8586.388927
2685.052133,1455.581446,-1480.411884,8216.285956
2685.052462,612.876398,-2072.576638,8068.244768
2685.052791,229.828649,-1258.350101,9474.636058
2685.053120,1608.800546,-1258.350101,9030.512492
2685.053449,-229.828649,-666.185348,8142.265362
2685.053779,-1225.752797,-0.000000,8808.450710
2685.054108,-229.828649,-1110.308913,9918.759623
2685.054437,0.000000,-222.061783,9178.553681
2685.054766,-995.924147,-592.164754,8808.450710
2685.055095,-995.924147,-1110.308913,9400.615463
2685.055424,229.828649,-814.226536,9696.697840
2685.055753,1072.533697,444.123565,8734.430116
2685.056082,306.438199,-0.000000,7624.121203
2685.056411,229.828649,148.041188,8882.471304
2685.056740,919.314598,296.082377,9326.594869
2685.057069,842.705048,444.123565,8734.430116
2685.057398,612.876398,888.247130,8586.388927
2685.057728,689.485948,370.102971,9474.636058
2685.058057,842.705048,962.267725,9474.636058
2685.058386,919.314598,-0.000000,9844.739029
2685.058715,383.047749,-74.020594,8808.450710
2685.059044,76.609550,-592.164754,9474.636058
2685.059373,766.095498,-0.000000,9918.759623
2685.059702,1608.800546,296.082377,9030.512492
2685.060031,306.438199,148.041188,9104.533087
2685.060360,0.000000,296.082377,9030.512492
2685.060689,1225.752797,1258.350101,8290.306550
2685.061018,689.485948,1406.391290,8438.347739
2685.061347,612.876398,296.082377,8512.368333
2685.061677,842.705048,-592.164754,9030.512492
2685.062006,766.095498,-296.082377,9474.636058
2685.062335,153.219100,-666.185348,8882.471304
2685.062664,-306.438199,-1406.391290,9696.697840
2685.062993,0.000000,-888.247130,10066.800811
2685.063322,153.219100,-0.000000,9252.574275
2685.063651,-383.047749,296.082377,9104.533087
2685.063980,-919.314598,592.164754,8586.388927
2685.064309,306.438199,-148.041188,10066.800811
2685.064638,76.609550,1036.288319,9104.533087
2685.064967,76.609550,-370.102971,8882.471304
2685.065296,919.314598,-296.082377,9474.636058
2685.065626,1378.971896,-296.082377,8660.409521
2685.065955,1455.581446,518.144159,8216.285956
2685.066284,536.266849,814.226536,7772.162391
2685.066613,229.828649,518.144159,8808.450710
2685.066942,766.095498,740.205942,8956.491898
2685.067271,153.219100,296.082377,8216.285956
2685.067600,-919.314598,-962.267725,9770.718434
2685.067929,-766.095498,-1036.288319,10066.800811
2685.068258,-536.266849,-814.226536,9770.718434
2685.068587,-689.485948,-1480.411884,10584.944971
2685.068916,-1072.533697,-1036.288319,9030.512492
2685.069246,0.000000,-0.000000,10140.821405
2685.069575,1225.752797,1258.350101,9696.697840
2685.069904,1302.362347,1036.288319,7772.162391
2685.070233,1378.971896,666.185348,8808.450710
2685.070562,2068.457845,592.164754,8808.450710
2685.070891,2911.162892,1702.473667,7698.141797
2685.071220,1915.238745,1702.473667,7402.059420
2685.071549,1149.143247,-74.020594,8512.368333
2685.071878,1302.362347,-592.164754,9770.718434
2685.072207,842.705048,-888.247130,9326.594869
2685.072536,-229.828649,-1110.308913,8956.491898
2685.072865,-1302.362347,-1258.350101,10140.821405
2685.073195,-1378.971896,-1036.288319,10066.800811
2685.073524,-1455.581446,-666.185348,9918.759623
2685.073853,-1685.410096,-1110.308913,10066.800811
2685.074182,-1455.581446,-1554.432478,10140.821405
2685.074511,0.000000,-814.226536,8734.430116
2685.074840,1149.143247,-888.247130,9252.574275
2685.075169,1072.533697,-148.041188,8216.285956
2685.075498,1915.238745,-888.247130,9030.512492
2685.075827,2374.896044,370.102971,8364.327145
2685.076156,2145.067394,1184.329507,6809.894666
2685.076485,919.314598,370.102971,7328.038826
2685.076814,1072.533697,-518.144159,8660.409521
2685.077144,766.095498,-518.144159,8142.265362
2685.077473,-459.657299,-2590.720797,9104.533087
2685.077802,-1991.848295,-2220.617826,9548.656652
2685.078131,-2145.067394,-3627.009116,11029.068536
2685.078460,-2374.896044,-2664.741391,10510.924376
2685.078789,-2451.505594,-1776.494261,9400.615463
2685.079118,-2221.676944,-2368.659014,9918.759623
2685.079447,-1072.533697,-222.061783,10140.821405
2685.079776,536.266849,-0.000000,9104.533087
2685.080105,995.924147,444.123565,7920.203579
2685.080434,1685.410096,296.082377,8438.347739
2685.080763,2528.115143,814.226536,8364.327145
2685.081093,3140.991542,888.247130,7476.080014
2685.081422,2298.286494,1406.391290,7402.059420
2685.081751,2298.286494,148.041188,7920.203579
2685.082080,2221.676944,1184.329507,8364.327145
2685.082409,1685.410096,1702.473667,7772.162391
2685.082738,153.219100,-222.061783,9030.512492
2685.083067,-1532.190996,-370.102971,9548.656652
2685.083396,-1225.752797,-1184.329507,11473.192101
2685.083725,-1685.410096,-1406.391290,9918.759623
2685.084054,-2757.943793,-1184.329507,10510.924376
2685.084383,-1685.410096,-1184.329507,11621.233289
2685.084712,-766.095498,-444.123565,10066.800811
2685.085042,76.609550,518.144159,9104.533087
2685.085371,1455.581446,592.164754,8808.450710
2685.085700,2374.896044,1184.329507,9104.533087
2685.086029,2911.162892,1776.494261,8290.306550
2685.086358,2145.067394,1332.370696,7031.956449
2685.086687,1838.629195,1998.556043,8512.368333
2685.087016,1838.629195,1628.453072,8068.244768
2685.087345,2298.286494,2220.617826,7402.059420
2685.087674,2068.457845,1480.411884,8142.265362
2685.088003,1455.581446,296.082377,9696.697840
2685.088332,-612.876398,-1406.391290,10140.821405
2685.088661,-766.095498,-1480.411884,9844.739029
2685.088991,-2451.505594,-518.144159,10288.862594
2685.089320,-3217.601092,-2368.659014,11991.336260
2685.089649,-3140.991542,-1480.411884,11177.109724
2685.089978,-2145.067394,-1480.411884,10362.883188
2685.090307,-1378.971896,-296.082377,9400.615463
2685.090636,459.657299,-444.123565,9400.615463
