#time,accel_x,accel_y,accel_z
2667.749954,612.876398,-370.102971,8956.491898
2667.750283,919.314598,-148.041188,9030.512492
2667.750612,229.828649,296.082377,9326.594869
2667.750941,153.219100,-74.020594,9104.533087
2667.751271,153.219100,-74.020594,9178.553681
2667.751600,153.219100,-0.000000,9030.512492
2667.751929,306.438199,-222.061783,8882.471304
2667.752258,306.438199,-518.144159,9030.512492
2667.752587,1302.362347,-666.185348,9326.594869
2667.752916,153.219100,-296.082377,9252.574275
2667.753245,536.266849,-222.061783,9178.553681
2667.753574,383.047749,-222.061783,9326.594869
2667.753904,383.047749,-222.061783,9178.553681
2667.754233,383.047749,-74.020594,9104.533087
2667.754562,0.000000,-370.102971,9400.615463
2667.754891,919.314598,-444.123565,9030.512492
2667.755220,536.266849,-0.000000,9252.574275
2667.755549,76.609550,-74.020594,9474.636058
2667.755878,383.047749,-222.061783,9178.553681
2667.756207,306.438199,-74.020594,9104.533087
2667.756537,306.438199,-148.041188,9030.512492
2667.756866,306.438199,-148.041188,8956.491898
2667.757195,459.657299,148.041188,9178.553681
2667.757524,459.657299,-74.020594,9104.533087
2667.757853,536.266849,-0.000000,9030.512492
2667.758182,459.657299,-148.041188,8808.450710
2667.758511,612.876398,-0.000000,8882.471304
2667.758841,306.438199,-0.000000,8734.430116
2667.759170,306.438199,-74.020594,8882.471304
2667.759499,153.219100,-296.082377,8956.491898
2667.759828,76.609550,-296.082377,8956.491898
2667.760157,0.000000,-296.082377,9104.533087
2667.760486,0.000000,-74.020594,9104.533087
2667.760815,153.219100,-74.020594,9104.533087
2667.761144,383.047749,-74.020594,9104.533087
2667.761474,689.485948,-222.061783,9030.512492
2667.761803,689.485948,-0.000000,9178.553681
2667.762132,766.095498,-296.082377,9030.512492
2667.762461,536.266849,-296.082377,8734.430116
2667.762790,459.657299,-74.020594,8956.491898
2667.763119,383.047749,-148.041188,9178.553681
2667.763448,229.828649,-148.041188,9178.553681
2667.763778,459.657299,-592.164754,9326.594869
2667.764107,383.047749,-370.102971,9326.594869
2667.764436,0.000000,-370.102971,9474.636058
2667.764765,153.219100,-370.102971,9474.636058
2667.765094,153.219100,-148.041188,9400.615463
2667.765423,229.828649,-0.000000,9030.512492
2667.765752,459.657299,-74.020594,9326.594869
2667.766081,459.657299,-370.102971,9252.574275
2667.766411,536.266849,-148.041188,9326.594869
2667.766740,306.438199,-222.061783,9104.533087
2667.767069,459.657299,-0.000000,9252.574275
2667.767398,306.438199,-0.000000,9104.533087
2667.767727,153.219100,-148.041188,8956.491898
2667.768056,229.828649,-0.000000,9178.553681
2667.768385,536.266849,-74.020594,9104.533087
2667.768715,383.047749,-222.061783,9178.553681
2667.769044,383.047749,-370.102971,8438.347739
2667.769373,383.047749,370.102971,9104.533087
2667.769702,229.828649,-74.020594,8808.450710
2667.770031,306.438199,-74.020594,8882.471304
2667.770360,153.219100,-0.000000,8808.450710
2667.770689,229.828649,-148.041188,8882.471304
2667.771018,536.266849,-0.000000,8882.471304
2667.771348,459.657299,-0.000000,8956.491898
2667.771677,383.047749,-296.082377,8882.471304
2667.772006,229.828649,-0.000000,8808.450710
2667.772335,153.219100,-74.020594,9104.533087
2667.772664,229.828649,-74.020594,9178.553681
2667.772993,459.657299,222.061783,9252.574275
2667.773322,76.609550,-0.000000,9474.636058
2667.773651,306.438199,-296.082377,9252.574275
2667.773981,536.266849,-370.102971,9178.553681
2667.774310,383.047749,-370.102971,9104.533087
2667.774639,229.828649,-444.123565,9104.533087
2667.774968,229.828649,-148.041188,9178.553681
2667.775297,153.219100,-444.123565,9104.533087
2667.775626,842.705048,-296.082377,9326.594869
2667.775955,306.438199,-296.082377,9178.553681
2667.776285,383.047749,-0.000000,9178.553681
2667.776614,153.219100,-0.000000,9178.553681
2667.776943,153.219100,-74.020594,9326.594869
2667.777272,153.219100,-148.041188,9178.553681
2667.777601,229.828649,-74.020594,9104.533087
2667.777930,306.438199,-222.061783,9326.594869
2667.778259,766.095498,-370.102971,9252.574275
2667.778588,612.876398,-370.102971,9326.594869
2667.778918,306.438199,-0.000000,8956.491898
2667.779247,229.828649,-148.041188,9104.533087
2667.779576,612.876398,-222.061783,8808.450710
2667.779905,76.609550,-518.144159,8956.491898
2667.780234,995.924147,-962.267725,9844.739029
2667.780563,1608.800546,-888.247130,9326.594869
2667.780892,1302.362347,-592.164754,9400.615463
2667.781222,1915.238745,-370.102971,9252.574275
2667.781551,2298.286494,-0.000000,8512.368333
2667.781880,3064.381992,666.185348,9104.533087
2667.782209,4136.915689,-0.000000,9104.533087
2667.782538,4290.134789,-0.000000,8438.347739
2667.782867,3294.210641,296.082377,8882.471304
2667.783196,3370.820191,666.185348,8290.306550
2667.783525,2834.553343,-148.041188,9178.553681
2667.783855,3294.210641,-370.102971,9030.512492
2667.784184,1608.800546,-518.144159,9104.533087
2667.784513,1915.238745,-1480.411884,10066.800811
2667.784842,2451.505594,-2220.617826,9696.697840
2667.785171,2757.943793,-518.144159,8734.430116
2667.785500,2221.676944,-1406.391290,9696.697840
2667.785829,3294.210641,-1110.308913,9474.636058
2667.786159,3064.381992,-0.000000,9474.636058
2667.786488,4903.011187,666.185348,8142.265362
2667.786817,4749.792088,518.144159,7994.224174
2667.787146,4673.182538,888.247130,9400.615463
2667.787475,5132.839837,740.205942,7772.162391
2667.787804,3907.087040,1036.288319,8438.347739
2667.788133,3983.696590,370.102971,9030.512492
2667.788462,2834.553343,518.144159,8216.285956
2667.788792,2374.896044,-148.041188,9474.636058
2667.789121,766.095498,-962.267725,9548.656652
2667.789450,1991.848295,-666.185348,10066.800811
2667.789779,536.266849,-1332.370696,10140.821405
2667.790108,1532.190996,-518.144159,9918.759623
2667.790437,1149.143247,-740.205942,10140.821405
2667.790766,2757.943793,444.123565,8882.471304
2667.791095,2757.943793,-222.061783,8512.368333
2667.791425,3447.429741,1110.308913,9696.697840
2667.791754,3983.696590,666.185348,7624.121203
2667.792083,4366.744339,1110.308913,7920.203579
2667.792412,4290.134789,962.267725,8660.409521
2667.792741,4136.915689,-0.000000,8586.388927
2667.793070,3600.648841,-222.061783,8808.450710
2667.793399,3140.991542,-1184.329507,9400.615463
2667.793729,2834.553343,-1406.391290,10140.821405
2667.794058,2068.457845,-2072.576638,9474.636058
2667.794387,2528.115143,-1776.494261,9622.677246
2667.794716,2374.896044,-962.267725,10214.842000
2667.795045,2911.162892,-148.041188,9474.636058
2667.795374,3140.991542,-0.000000,8734.430116
2667.795703,3753.867940,888.247130,8586.388927
2667.796032,4519.963438,1480.411884,8512.368333
2667.796362,3983.696590,2072.576638,7772.162391
2667.796691,4060.306139,2146.597232,7846.182985
2667.797020,4213.525239,2294.638420,8512.368333
2667.797349,3677.258390,962.267725,7772.162391
2667.797678,2987.772442,-296.082377,8660.409521
2667.798007,2757.943793,-1258.350101,9696.697840
2667.798336,2451.505594,-2368.659014,9844.739029
2667.798666,2451.505594,-2368.659014,11103.089130
2667.798995,2834.553343,-2738.761985,11103.089130
2667.799324,3447.429741,-2220.617826,10955.047942
2667.799653,3983.696590,-592.164754,9992.780217
2667.799982,4979.620737,222.061783,9474.636058
2667.800311,5515.887586,1332.370696,8734.430116
2667.800640,5132.839837,2368.659014,7846.182985
2667.800969,5209.449386,2590.720797,7402.059420
2667.801299,4903.011187,3701.029710,7031.956449
2667.801628,4290.134789,2738.761985,7105.977043
2667.801957,3217.601092,1184.329507,7179.997637
2667.802286,1455.581446,-962.267725,9030.512492
2667.802615,306.438199,-3552.988522,10436.903782
2667.802944,-995.924147,-3775.050304,10881.027347
2667.803273,-1072.533697,-5255.462188,11843.295072
2667.803603,-1149.143247,-3256.906145,10955.047942
2667.803932,306.438199,-1628.453072,11325.150913
2667.804261,1149.143247,-74.020594,10066.800811
2667.804590,3294.210641,888.247130,10658.965565
2667.804919,5669.106685,1406.391290,8364.327145
2667.805248,6971.469032,1776.494261,8734.430116
2667.805577,6511.811733,1332.370696,8216.285956
2667.805906,5975.544884,1258.350101,6365.771101
2667.806236,5822.325785,2886.803174,7031.956449
2667.806565,5286.058936,1406.391290,7179.997637
2667.806894,4903.011187,3108.864956,5329.482782
2667.807223,4673.182538,2146.597232,6883.915261
2667.807552,5056.230287,1184.329507,6439.791695
2667.807881,3677.258390,-2442.679609,8956.491898
2667.808210,689.485948,-6513.812290,12287.418637
2667.808539,-1072.533697,-5625.565159,11029.068536
2667.808869,-1991.848295,-4663.297435,13841.851115
2667.809198,-1608.800546,-7105.977043,13471.748144
2667.809527,-919.314598,-222.061783,11251.130318
2667.809856,2145.067394,-444.123565,11917.315666
2667.810185,3830.477490,1480.411884,9030.512492
2667.810514,6894.859482,2072.576638,9326.594869
2667.810843,7737.564530,1480.411884,9696.697840
2667.811173,7890.783629,3404.947333,7328.038826
2667.811502,7890.783629,4737.318029,5477.523971
2667.811831,7584.345430,2072.576638,5403.503377
2667.812160,7814.174080,2590.720797,4589.276840
2667.812489,7431.126331,2294.638420,6587.832884
2667.812818,5822.325785,-0.000000,6809.894666
2667.813147,4443.353888,2220.617826,5329.482782
2667.813476,3753.867940,-2146.597232,9918.759623
2667.813806,-689.485948,-5107.421000,13397.727550
2667.814135,-3140.991542,-4811.338623,11917.315666
2667.814464,-2068.457845,-1480.411884,13989.892304
2667.814793,-1072.533697,-6957.935855,12361.439231
2667.815122,-1608.800546,1554.432478,10881.027347
2667.815451,1838.629195,-518.144159,11917.315666
2667.815780,0.000000,3182.885551,9104.533087
2667.816110,2757.943793,-592.164754,14582.057057
2667.816439,6971.469032,296.082377,7772.162391
2667.816768,10265.679673,2220.617826,8660.409521
2667.817097,6128.763984,888.247130,6069.688724
2667.817426,7354.516781,1776.494261,4663.297435
2667.817755,6511.811733,222.061783,9030.512492
2667.818084,6281.983084,888.247130,5847.626942
2667.818413,5898.935335,2664.741391,6143.709319
2667.818743,3524.039291,1258.350101,7994.224174
2667.819072,2834.553343,1332.370696,7476.080014
2667.819401,3600.648841,-74.020594,9622.677246
2667.819730,1225.752797,-3256.906145,10955.047942
2667.820059,689.485948,-2146.597232,11251.130318
2667.820388,0.000000,-3552.988522,13175.665768
2667.820717,-612.876398,-4071.132681,11917.315666
2667.821047,-766.095498,-814.226536,10436.903782
2667.821376,1149.143247,-1258.350101,11103.089130
2667.821705,1762.019645,1554.432478,8586.388927
2667.822034,3064.381992,1332.370696,8512.368333
2667.822363,4290.134789,888.247130,8438.347739
2667.822692,4826.401637,2220.617826,7920.203579
2667.823021,4979.620737,1184.329507,7105.977043
2667.823350,4519.963438,-1036.288319,6513.812290
2667.823680,3600.648841,-1776.494261,7920.203579
2667.824009,2604.724693,-1850.514855,9992.780217
2667.824338,2298.286494,-1480.411884,10066.800811
2667.824667,1225.752797,-888.247130,10807.006753
2667.824996,2911.162892,296.082377,10288.862594
2667.825325,2834.553343,1850.514855,9104.533087
2667.825654,2528.115143,370.102971,10140.821405
2667.825983,3524.039291,814.226536,8734.430116
2667.826312,4979.620737,1776.494261,8142.265362
2667.826641,5439.278036,1998.556043,8142.265362
2667.826970,5056.230287,1480.411884,8068.244768
2667.827299,3524.039291,-0.000000,8734.430116
2667.827628,3753.867940,-814.226536,8290.306550
2667.827957,2451.505594,296.082377,7105.977043
2667.828286,919.314598,-888.247130,9104.533087
2667.828615,-536.266849,-1554.432478,10436.903782
2667.828944,-766.095498,-1776.494261,10362.883188
2667.829273,-536.266849,-1702.473667,10436.903782
2667.829602,153.219100,-1702.473667,10140.821405
2667.829931,-306.438199,-1258.350101,10362.883188
2667.830260,-229.828649,-888.247130,11177.109724
2667.830589,1532.190996,370.102971,10288.862594
2667.830918,3830.477490,1332.370696,8734.430116
2667.831247,5286.058936,1998.556043,7698.141797
2667.831576,3983.696590,1332.370696,8216.285956
2667.831905,3370.820191,1332.370696,7328.038826
2667.832234,3907.087040,1110.308913,7476.080014
2667.832563,4443.353888,296.082377,7920.203579
2667.832892,2681.334243,-370.102971,8216.285956
2667.833221,689.485948,-1258.350101,9474.636058
2667.833550,-995.924147,-1480.411884,8734.430116
2667.833879,-383.047749,-1332.370696,9326.594869
2667.834208,-1762.019645,-962.267725,11029.068536
2667.834537,-1455.581446,-888.247130,10584.944971
2667.834866,-2298.286494,-518.144159,8808.450710
2667.835195,-2145.067394,2368.659014,10140.821405
2667.835524,0.000000,-1406.391290,10066.800811
2667.835853,-1685.410096,-888.247130,9326.594869
2667.836182,-1072.533697,-148.041188,9474.636058
2667.836511,153.219100,-0.000000,8808.450710
2667.836840,919.314598,888.247130,8512.368333
2667.837169,766.095498,-148.041188,8512.368333
2667.837498,1455.581446,-0.000000,8364.327145
2667.837826,1532.190996,666.185348,7254.018232
2667.838155,2374.896044,148.041188,6587.832884
2667.838484,1302.362347,-296.082377,8290.306550
2667.838813,1072.533697,-666.185348,9474.636058
2667.839142,0.000000,-222.061783,7994.224174
2667.839471,-689.485948,-0.000000,8290.306550
2667.839800,-995.924147,-888.247130,9696.697840
2667.840129,-1225.752797,-592.164754,10066.800811
2667.840458,-1149.143247,-0.000000,9770.718434
2667.840787,-459.657299,-518.144159,9104.533087
2667.841116,-1455.581446,-814.226536,9844.739029
2667.841445,-1225.752797,-1924.535449,10288.862594
2667.841774,229.828649,-1702.473667,10436.903782
2667.842103,919.314598,-0.000000,7550.100608
2667.842432,1532.190996,370.102971,8364.327145
2667.842761,1225.752797,-0.000000,8586.388927
2667.843090,1608.800546,592.164754,8290.306550
2667.843419,1762.019645,148.041188,8216.285956
2667.843748,1378.971896,222.061783,7402.059420
2667.844077,229.828649,-444.123565,9252.574275
2667.844406,-612.876398,-444.123565,10288.862594
2667.844735,-536.266849,222.061783,9474.636058
2667.845064,-1072.533697,-444.123565,9104.533087
2667.845393,-1915.238745,-666.185348,9844.739029
2667.845722,-919.314598,-296.082377,10288.862594
2667.846051,-306.438199,-222.061783,9252.574275
2667.846380,0.000000,-222.061783,8512.368333
2667.846709,-153.219100,-296.082377,8586.388927
2667.847038,-383.047749,-888.247130,9844.739029
2667.847367,459.657299,-888.247130,9622.677246
2667.847696,1378.971896,-148.041188,8438.347739
2667.848025,2145.067394,296.082377,7698.141797
2667.848354,1762.019645,1258.350101,7550.100608
2667.848683,2451.505594,1924.535449,8734.430116
2667.849012,1991.848295,814.226536,7920.203579
2667.849341,1915.238745,888.247130,8438.347739
2667.849670,383.047749,148.041188,9030.512492
2667.849998,-995.924147,-296.082377,9326.594869
2667.850327,0.000000,-962.267725,10066.800811
2667.850656,-766.095498,-0.000000,9474.636058
2667.850985,-1378.971896,-518.144159,9474.636058
2667.851314,-842.705048,-444.123565,10140.821405
2667.851643,-459.657299,-444.123565,8808.450710
2667.851972,-306.438199,-370.102971,9178.553681
2667.852301,0.000000,-2220.617826,10362.883188
2667.852630,-306.438199,-1110.308913,10584.944971
2667.852959,76.609550,-1406.391290,10140.821405
2667.853288,1149.143247,-222.061783,8512.368333
2667.853617,1302.362347,518.144159,8364.327145
2667.853946,2221.676944,222.061783,8216.285956
2667.854275,2987.772442,1480.411884,7772.162391
2667.854604,2221.676944,1258.350101,7846.182985
2667.854933,1455.581446,222.061783,8290.306550
2667.855262,306.438199,-1702.473667,9474.636058
2667.855591,-919.314598,-222.061783,9474.636058
2667.855920,-842.705048,-740.205942,9400.615463
2667.856249,-1762.019645,-1554.432478,9400.615463
2667.856578,-1685.410096,-740.205942,10066.800811
2667.856907,-536.266849,148.041188,9770.718434
2667.857236,612.876398,-296.082377,7994.224174
2667.857565,0.000000,-888.247130,8808.450710
2667.857894,842.705048,-1258.350101,10807.006753
2667.858223,1762.019645,296.082377,8660.409521
2667.858552,2681.334243,592.164754,8142.265362
2667.858881,2221.676944,814.226536,7105.977043
2667.859210,1532.190996,962.267725,8512.368333
2667.859539,1685.410096,962.267725,8956.491898
2667.859868,1378.971896,962.267725,7624.121203
2667.860197,1378.971896,-740.205942,7846.182985
2667.860526,-306.438199,-666.185348,8512.368333
2667.860855,-1378.971896,-1850.514855,10362.883188
2667.861184,-2068.457845,-1554.432478,9696.697840
2667.861513,-689.485948,-1258.350101,8660.409521
2667.861841,-1225.752797,-740.205942,9326.594869
2667.862170,-1149.143247,-740.205942,9918.759623
2667.862499,-459.657299,666.185348,8512.368333
2667.862828,229.828649,-0.000000,8808.450710
2667.863157,0.000000,-592.164754,9474.636058
2667.863486,-306.438199,-1036.288319,10807.006753
2667.863815,689.485948,592.164754,9400.615463
2667.864144,1149.143247,-0.000000,8290.306550
2667.864473,1455.581446,444.123565,8290.306550
2667.864802,1378.971896,888.247130,8956.491898
2667.865131,1225.752797,518.144159,8364.327145
2667.865460,1685.410096,740.205942,7328.038826
2667.865789,1302.362347,148.041188,7920.203579
2667.866118,-536.266849,-740.205942,9030.512492
2667.866447,-1149.143247,-888.247130,9474.636058
2667.866776,-1608.800546,-1406.391290,9770.718434
2667.867105,-1225.752797,-962.267725,9918.759623
2667.867434,-995.924147,-814.226536,10066.800811
2667.867763,-1225.752797,-0.000000,9844.739029
2667.868092,0.000000,444.123565,9104.533087
2667.868421,76.609550,-148.041188,9474.636058
2667.868750,0.000000,-888.247130,10510.924376
2667.869079,76.609550,-74.020594,10140.821405
2667.869408,1225.752797,-370.102971,10288.862594
2667.869737,1915.238745,1258.350101,7846.182985
2667.870066,2451.505594,962.267725,8586.388927
2667.870395,2681.334243,1258.350101,8512.368333
2667.870724,3064.381992,1850.514855,7254.018232
2667.871053,2145.067394,1110.308913,7846.182985
2667.871382,1762.019645,666.185348,8512.368333
2667.871711,383.047749,-148.041188,9104.533087
2667.872040,-612.876398,-370.102971,9252.574275
2667.872369,-1302.362347,-888.247130,9696.697840
2667.872698,-1532.190996,-888.247130,9918.759623
2667.873027,-1378.971896,-1110.308913,9770.718434
2667.873356,0.000000,-74.020594,9326.594869
2667.873684,-536.266849,-74.020594,8068.244768
2667.874013,-383.047749,-370.102971,9696.697840
2667.874342,-612.876398,-1628.453072,10288.862594
2667.874671,153.219100,-296.082377,9252.574275
2667.875000,1378.971896,296.082377,8290.306550
2667.875329,1838.629195,296.082377,8956.491898
2667.875658,2298.286494,222.061783,8512.368333
2667.875987,2374.896044,2146.597232,7698.141797
2667.876316,2681.334243,740.205942,8142.265362
2667.876645,1378.971896,1110.308913,7105.977043
2667.876974,612.876398,-222.061783,8956.491898
2667.877303,-766.095498,-222.061783,9104.533087
2667.877632,-1685.410096,-1406.391290,9326.594869
2667.877961,-1378.971896,-1702.473667,9992.780217
2667.878290,-1762.019645,-1480.411884,8216.285956
2667.878619,-1378.971896,-1406.391290,10066.800811
2667.878948,-1302.362347,-1036.288319,8882.471304
2667.879277,-459.657299,-444.123565,8734.430116
2667.879606,-842.705048,-888.247130,9400.615463
2667.879935,0.000000,-1258.350101,9178.553681
2667.880264,-612.876398,-74.020594,10436.903782
2667.880593,459.657299,-962.267725,10140.821405
2667.880922,153.219100,296.082377,7994.224174
2667.881251,383.047749,-0.000000,10584.944971
2667.881580,2451.505594,-0.000000,7550.100608
2667.881909,2604.724693,1998.556043,7254.018232
2667.882238,2681.334243,-0.000000,7624.121203
2667.882567,2374.896044,-148.041188,7105.977043
2667.882896,1225.752797,296.082377,8956.491898
2667.883225,76.609550,-0.000000,7402.059420
2667.883554,-383.047749,-740.205942,9474.636058
2667.883883,-1149.143247,-2146.597232,11029.068536
2667.884212,-689.485948,-296.082377,8956.491898
2667.884541,-306.438199,-1258.350101,9992.780217
2667.884870,76.609550,-1036.288319,9252.574275
2667.885199,536.266849,-888.247130,10584.944971
2667.885528,536.266849,-444.123565,10881.027347
2667.885856,1225.752797,592.164754,9548.656652
2667.886185,2145.067394,148.041188,9104.533087
2667.886514,1991.848295,962.267725,8808.450710
2667.886843,2068.457845,1480.411884,9326.594869
2667.887172,2451.505594,888.247130,8216.285956
2667.887501,1838.629195,370.102971,7994.224174
2667.887830,995.924147,-370.102971,9992.780217
2667.888159,-536.266849,-888.247130,9474.636058
2667.888488,-1455.581446,-888.247130,9622.677246
2667.888817,-2374.896044,-1554.432478,9918.759623
2667.889146,-1762.019645,-370.102971,9622.677246
2667.889475,-1532.190996,-1036.288319,10584.944971
2667.889804,-1072.533697,-0.000000,9030.512492
2667.890133,153.219100,-518.144159,9178.553681
2667.890462,229.828649,370.102971,9474.636058
2667.890791,1225.752797,-74.020594,8586.388927
2667.891120,2145.067394,814.226536,8290.306550
2667.891449,2451.505594,1258.350101,7624.121203
2667.891778,2298.286494,1998.556043,7772.162391
2667.892107,2145.067394,814.226536,8512.368333
2667.892436,2068.457845,666.185348,8734.430116
2667.892765,1302.362347,148.041188,7624.121203
2667.893094,229.828649,-666.185348,8142.265362
2667.893423,-1302.362347,-1036.288319,9474.636058
2667.893752,-2298.286494,-1628.453072,9474.636058
2667.894081,-1685.410096,-1850.514855,9844.739029
2667.894410,-689.485948,-1406.391290,8808.450710
2667.894739,-1149.143247,-962.267725,9252.574275
2667.895068,-1532.190996,-666.185348,9548.656652
2667.895397,-536.266849,148.041188,8734.430116
2667.895726,0.000000,-222.061783,8808.450710
2667.896055,0.000000,-1258.350101,9326.594869
2667.896384,536.266849,-592.164754,9252.574275
2667.896713,3064.381992,370.102971,9252.574275
2667.897042,3217.601092,1332.370696,6957.935855
2667.897371,2911.162892,592.164754,7105.977043
2667.897699,2604.724693,1702.473667,8216.285956
2667.898028,2145.067394,1110.308913,8216.285956
2667.898357,1762.019645,296.082377,8142.265362
2667.898686,689.485948,-592.164754,8586.388927
2667.899015,-536.266849,-1036.288319,9992.780217
2667.899344,-1532.190996,-2220.617826,9918.759623
2667.899673,-2221.676944,-1258.350101,10436.903782
2667.900002,-1608.800546,-1406.391290,10955.047942
2667.900331,-1915.238745,-888.247130,9844.739029
2667.900660,-766.095498,-74.020594,9844.739029
2667.900989,-536.266849,222.061783,9252.574275
2667.901318,0.000000,-592.164754,9844.739029
2667.901647,-766.095498,-814.226536,10362.883188
2667.901976,-229.828649,-666.185348,10732.986159
2667.902305,1225.752797,-0.000000,9770.718434
2667.902634,1991.848295,1480.411884,7105.977043
2667.902963,2604.724693,1480.411884,8438.347739
2667.903292,3140.991542,1702.473667,7624.121203
2667.903621,3524.039291,2516.700203,7624.121203
2667.903950,1915.238745,2072.576638,7920.203579
2667.904279,1302.362347,1184.329507,8512.368333
2667.904608,-842.705048,-74.020594,9622.677246
2667.904937,-1762.019645,-518.144159,9548.656652
2667.905266,-1838.629195,-1628.453072,10584.944971
2667.905595,-2451.505594,-1998.556043,9548.656652
2667.905924,-1685.410096,-1998.556043,10584.944971
2667.906253,-1608.800546,-592.164754,10436.903782
2667.906582,-1072.533697,148.041188,9252.574275
2667.906911,-383.047749,-1480.411884,10140.821405
2667.907240,-1455.581446,-1702.473667,11177.109724
2667.907569,-612.876398,-296.082377,11029.068536
2667.907898,306.438199,222.061783,10288.862594
2667.908227,1149.143247,-74.020594,9326.594869
2667.908556,2374.896044,592.164754,9030.512492
2667.908885,3830.477490,2146.597232,8068.244768
2667.909214,3217.601092,962.267725,5329.482782
2667.909542,3524.039291,1628.453072,5625.565159
2667.909871,2987.772442,1998.556043,7698.141797
2667.910200,995.924147,-0.000000,7772.162391
2667.910529,459.657299,-370.102971,8068.244768
2667.910858,-766.095498,-1924.535449,9400.615463
2667.911187,-2451.505594,-2812.782580,10881.027347
2667.911516,-1991.848295,-2146.597232,10955.047942
2667.911845,-1225.752797,-1036.288319,9474.636058
2667.912174,-919.314598,-1776.494261,9918.759623
2667.912503,-689.485948,-1036.288319,9918.759623
2667.912832,-919.314598,-1184.329507,10362.883188
2667.913161,76.609550,-74.020594,9178.553681
2667.913490,995.924147,-518.144159,9104.533087
2667.913819,1608.800546,666.185348,8882.471304
2667.914148,2374.896044,1110.308913,7105.977043
2667.914477,3524.039291,2146.597232,7179.997637
2667.914806,3753.867940,2368.659014,6143.709319
2667.915135,3753.867940,1406.391290,7031.956449
2667.915464,2374.896044,370.102971,7328.038826
2667.915793,383.047749,1036.288319,7920.203579
2667.916122,-995.924147,-1036.288319,9326.594869
2667.916451,-1455.581446,-2590.720797,10955.047942
2667.916780,-2987.772442,-1702.473667,10658.965565
2667.917109,-2221.676944,-1776.494261,10955.047942
2667.917438,-2145.067394,-1850.514855,9548.656652
2667.917767,-1532.190996,-962.267725,9696.697840
2667.918096,-1378.971896,-2294.638420,11695.253884
2667.918425,-1149.143247,-148.041188,9696.697840
2667.918754,0.000000,-518.144159,10436.903782
2667.919083,-612.876398,740.205942,9696.697840
2667.919412,-842.705048,1258.350101,9252.574275
2667.919741,842.705048,-0.000000,10807.006753
2667.920070,2221.676944,740.205942,7846.182985
2667.920399,2451.505594,666.185348,7476.080014
2667.920728,2911.162892,666.185348,7550.100608
2667.921057,2221.676944,1258.350101,7105.977043
2667.921386,766.095498,740.205942,8586.388927
2667.921714,0.000000,-0.000000,9030.512492
2667.922043,-1455.581446,-444.123565,9400.615463
2667.922372,-1991.848295,-2146.597232,10807.006753
2667.922701,-1915.238745,-962.267725,9770.718434
2667.923030,-1532.190996,-1406.391290,10066.800811
2667.923359,-1225.752797,-1628.453072,10362.883188
2667.923688,-995.924147,-1406.391290,10436.903782
2667.924017,-306.438199,-592.164754,10436.903782
2667.924346,153.219100,888.247130,8956.491898
2667.924675,1455.581446,370.102971,9474.636058
2667.925004,2604.724693,1332.370696,8882.471304
2667.925333,3524.039291,1258.350101,7476.080014
2667.925662,3370.820191,1332.370696,6809.894666
2667.925991,4136.915689,1702.473667,6809.894666
2667.926320,3217.601092,1110.308913,7328.038826
2667.926649,1685.410096,740.205942,7846.182985
2667.926978,1149.143247,-888.247130,7920.203579
2667.927306,-766.095498,-1554.432478,8734.430116
2667.927635,-1838.629195,-2368.659014,11029.068536
2667.927964,-1762.019645,-2220.617826,11177.109724
2667.928293,-1685.410096,-518.144159,9252.574275
2667.928622,-612.876398,-962.267725,9474.636058
2667.928951,-689.485948,-1702.473667,10362.883188
2667.929280,-536.266849,-222.061783,10066.800811
2667.929609,536.266849,-962.267725,10214.842000
2667.929938,2528.115143,148.041188,7994.224174
2667.930267,2987.772442,1480.411884,7772.162391
2667.930595,3294.210641,1776.494261,7179.997637
2667.930924,2911.162892,1628.453072,6957.935855
2667.931253,3064.381992,1480.411884,7550.100608
2667.931582,2528.115143,740.205942,6883.915261
2667.931911,1915.238745,296.082377,8586.388927
2667.932240,0.000000,-666.185348,9474.636058
2667.932569,-1762.019645,-1036.288319,8882.471304
2667.932898,-2528.115143,-2516.700203,11177.109724
2667.933227,-2681.334243,-1258.350101,9992.780217
2667.933556,-1378.971896,-888.247130,10362.883188
2667.933884,-1455.581446,-962.267725,9622.677246
2667.934213,-919.314598,-740.205942,10140.821405
2667.934542,-1762.019645,-1554.432478,10362.883188
2667.934871,-612.876398,-1036.288319,10362.883188
2667.935200,0.000000,-0.000000,9918.759623
2667.935529,229.828649,370.102971,9474.636058
2667.935858,459.657299,222.061783,9326.594869
2667.936187,1532.190996,666.185348,8438.347739
2667.936516,3677.258390,1332.370696,6957.935855
2667.936845,3830.477490,1258.350101,6217.729913
2667.937173,2681.334243,1406.391290,7328.038826
2667.937502,2145.067394,1184.329507,7624.121203
2667.937831,995.924147,592.164754,7846.182985
2667.938160,0.000000,-0.000000,8290.306550
2667.938489,-2298.286494,-1406.391290,9770.718434
2667.938818,-2374.896044,-2220.617826,11325.150913
2667.939147,-1685.410096,-1332.370696,9770.718434
2667.939476,-536.266849,-1480.411884,9992.780217
2667.939805,-995.924147,-2368.659014,9844.739029
2667.940134,-1225.752797,-1776.494261,11325.150913
2667.940462,-766.095498,-296.082377,10881.027347
2667.940791,76.609550,-0.000000,9622.677246
2667.941120,229.828649,-222.061783,9992.780217
2667.941449,2145.067394,296.082377,9696.697840
2667.941778,3064.381992,1554.432478,7920.203579
2667.942107,4290.134789,1998.556043,6809.894666
2667.942436,4366.744339,2368.659014,6069.688724
2667.942765,3677.258390,1850.514855,7476.080014
2667.943094,1991.848295,962.267725,8290.306550
2667.943423,153.219100,666.185348,7994.224174
2667.943751,-1302.362347,-1258.350101,9474.636058
2667.944080,-2451.505594,-1554.432478,10362.883188
2667.944409,-2068.457845,-2294.638420,10658.965565
2667.944738,-2068.457845,-1110.308913,9104.533087
2667.945067,-995.924147,-1850.514855,10214.842000
2667.945396,-1608.800546,-2072.576638,10881.027347
2667.945725,-1149.143247,-962.267725,10510.924376
2667.946054,-383.047749,-222.061783,9770.718434
2667.946383,-766.095498,592.164754,9474.636058
2667.946712,-995.924147,518.144159,9548.656652
2667.947040,-306.438199,-0.000000,9696.697840
2667.947369,1225.752797,888.247130,8438.347739
2667.947698,2451.505594,2072.576638,6809.894666
2667.948027,3677.258390,740.205942,6735.874072
2667.948356,1762.019645,1036.288319,7031.956449
2667.948685,842.705048,1184.329507,7698.141797
2667.949014,612.876398,592.164754,7105.977043
2667.949343,-612.876398,-296.082377,8512.368333
2667.949672,-1225.752797,-1702.473667,9474.636058
2667.950001,-1608.800546,-1406.391290,8808.450710
2667.950329,-1225.752797,-2442.679609,9844.739029
2667.950658,-1532.190996,-2516.700203,9992.780217
2667.950987,-612.876398,-2368.659014,10362.883188
2667.951316,-919.314598,-1628.453072,10584.944971
2667.951645,-153.219100,-444.123565,10510.924376
2667.951974,0.000000,592.164754,9400.615463
2667.952303,76.609550,-0.000000,10214.842000
2667.952632,1532.190996,740.205942,9400.615463
2667.952961,1838.629195,1036.288319,7624.121203
2667.953290,3447.429741,740.205942,7994.224174
2667.953618,3370.820191,1110.308913,6883.915261
2667.953947,2374.896044,888.247130,7920.203579
2667.954276,1608.800546,296.082377,7772.162391
2667.954605,459.657299,222.061783,7920.203579
2667.954934,-689.485948,-740.205942,9548.656652
2667.955263,-1532.190996,-888.247130,10510.924376
2667.955592,-1455.581446,-1776.494261,10288.862594
2667.955921,-1378.971896,-1110.308913,10658.965565
2667.956250,-1225.752797,-2294.638420,10362.883188
2667.956579,-1532.190996,-1554.432478,11251.130318
2667.956907,153.219100,-518.144159,10584.944971
2667.957236,919.314598,1258.350101,9104.533087
2667.957565,1455.581446,1998.556043,7772.162391
2667.957894,1608.800546,1184.329507,8216.285956
2667.958223,2451.505594,2886.803174,6809.894666
2667.958552,2068.457845,1480.411884,8216.285956
2667.958881,1915.238745,-0.000000,7476.080014
2667.959210,153.219100,592.164754,7624.121203
2667.959539,-383.047749,-296.082377,9400.615463
2667.959868,-229.828649,-814.226536,9326.594869
2667.960196,-1838.629195,-2516.700203,9770.718434
2667.960525,-2068.457845,-1110.308913,9770.718434
2667.960854,-1991.848295,-1036.288319,9696.697840
2667.961183,-1302.362347,-296.082377,9030.512492
2667.961512,-995.924147,-592.164754,8956.491898
2667.961841,-689.485948,-1110.308913,10288.862594
2667.962170,-459.657299,-1332.370696,10807.006753
2667.962499,1149.143247,-0.000000,9400.615463
2667.962828,1915.238745,370.102971,7994.224174
2667.963157,2221.676944,888.247130,7920.203579
2667.963485,2068.457845,1110.308913,7698.141797
2667.963814,2298.286494,1628.453072,7550.100608
2667.964143,2221.676944,592.164754,7328.038826
2667.964472,1455.581446,-74.020594,8068.244768
2667.964801,459.657299,-1110.308913,9770.718434
2667.965130,-459.657299,-740.205942,8142.265362
2667.965459,-689.485948,-814.226536,9178.553681
2667.965788,-995.924147,-1554.432478,9548.656652
2667.966117,-1455.581446,-592.164754,9474.636058
2667.966446,-1149.143247,-444.123565,10584.944971
2667.966774,0.000000,-518.144159,9770.718434
2667.967103,306.438199,-592.164754,9770.718434
2667.967432,153.219100,-1702.473667,10362.883188
2667.967761,995.924147,296.082377,9178.553681
2667.968090,1838.629195,222.061783,8808.450710
2667.968419,2757.943793,1258.350101,8438.347739
2667.968748,2298.286494,370.102971,8660.409521
2667.969077,2221.676944,1184.329507,8364.327145
2667.969406,2681.334243,1628.453072,7624.121203
2667.969735,1915.238745,518.144159,8956.491898
2667.970063,689.485948,-148.041188,8660.409521
2667.970392,459.657299,-0.000000,9104.533087
2667.970721,-612.876398,-740.205942,9474.636058
2667.971050,-842.705048,-814.226536,9548.656652
2667.971379,-1225.752797,-518.144159,10214.842000
2667.971708,-1455.581446,-592.164754,9474.636058
2667.972037,-766.095498,-0.000000,9622.677246
2667.972366,-1072.533697,-222.061783,9548.656652
2667.972695,-1149.143247,-1110.308913,9770.718434
2667.973024,-842.705048,-1110.308913,10510.924376
2667.973352,-306.438199,-888.247130,10066.800811
2667.973681,383.047749,-0.000000,8808.450710
2667.974010,536.266849,-74.020594,9844.739029
2667.974339,995.924147,-0.000000,9918.759623
2667.974668,1685.410096,1110.308913,7994.224174
2667.974997,2221.676944,1184.329507,7772.162391
2667.975326,1072.533697,814.226536,8068.244768
2667.975655,1072.533697,-0.000000,9178.553681
2667.975984,536.266849,-0.000000,8512.368333
2667.976313,-995.924147,296.082377,9400.615463
2667.976641,-995.924147,-814.226536,9696.697840
2667.976970,-1608.800546,-888.247130,9918.759623
2667.977299,-1149.143247,-592.164754,9770.718434
2667.977628,-842.705048,-518.144159,9326.594869
2667.977957,-612.876398,-1184.329507,9326.594869
2667.978286,-919.314598,-2368.659014,10658.965565
2667.978615,-306.438199,-370.102971,10510.924376
2667.978944,76.609550,-444.123565,9696.697840
2667.979273,995.924147,-222.061783,9400.615463
2667.979602,1532.190996,296.082377,7920.203579
2667.979930,2681.334243,1406.391290,8734.430116
2667.980259,2911.162892,1110.308913,6143.709319
2667.980588,3907.087040,1406.391290,6661.853478
2667.980917,2987.772442,1480.411884,7105.977043
2667.981246,2374.896044,370.102971,7550.100608
2667.981575,1072.533697,-0.000000,7624.121203
2667.981904,-459.657299,-0.000000,8142.265362
2667.982233,-1532.190996,-1480.411884,10362.883188
2667.982562,-1532.190996,-1628.453072,10140.821405
2667.982891,-1455.581446,-592.164754,9770.718434
2667.983219,-1225.752797,-1480.411884,9844.739029
2667.983548,-459.657299,-1628.453072,9622.677246
2667.983877,-1838.629195,-1406.391290,11103.089130
2667.984206,-766.095498,-1480.411884,11103.089130
2667.984535,459.657299,-592.164754,9400.615463
2667.984864,1302.362347,-0.000000,8142.265362
2667.985193,1838.629195,592.164754,9622.677246
2667.985522,1915.238745,1406.391290,7550.100608
2667.985851,2834.553343,2072.576638,7031.956449
2667.986180,2757.943793,1480.411884,6957.935855
2667.986508,1762.019645,888.247130,7994.224174
2667.986837,536.266849,-0.000000,8438.347739
2667.987166,0.000000,-444.123565,8364.327145
2667.987495,-2145.067394,-1110.308913,9030.512492
2667.987824,-3294.210641,-1776.494261,10288.862594
2667.988153,-1991.848295,-1036.288319,10955.047942
2667.988482,-1455.581446,-888.247130,10140.821405
2667.988811,-1149.143247,-814.226536,9474.636058
2667.989140,-1149.143247,-1480.411884,10066.800811
2667.989469,-1225.752797,-1776.494261,11547.212695
2667.989797,229.828649,-666.185348,11177.109724
2667.990126,1762.019645,-0.000000,9030.512492
2667.990455,1915.238745,666.185348,8808.450710
2667.990784,2451.505594,1184.329507,8216.285956
2667.991113,3140.991542,1998.556043,7254.018232
2667.991442,3600.648841,1628.453072,7328.038826
2667.991771,2374.896044,1110.308913,7031.956449
2667.992100,1532.190996,444.123565,9548.656652
2667.992429,-153.219100,-0.000000,8512.368333
2667.992758,-612.876398,-518.144159,8216.285956
2667.993086,-1991.848295,-1406.391290,9474.636058
2667.993415,-2987.772442,-1702.473667,11029.068536
2667.993744,-1302.362347,-2072.576638,10584.944971
2667.994073,-1302.362347,-888.247130,7698.141797
2667.994402,-536.266849,-1184.329507,8956.491898
2667.994731,-842.705048,-2368.659014,10510.924376
2667.995060,689.485948,-1850.514855,11103.089130
2667.995389,2298.286494,592.164754,7476.080014
2667.995718,4673.182538,1332.370696,7994.224174
2667.996047,2987.772442,1184.329507,7254.018232
2667.996375,3983.696590,1924.535449,7624.121203
2667.996704,3370.820191,2738.761985,6957.935855
2667.997033,2604.724693,1554.432478,6957.935855
2667.997362,1302.362347,-592.164754,9474.636058
2667.997691,-459.657299,-1628.453072,9252.574275
2667.998020,-1225.752797,-1554.432478,9326.594869
2667.998349,-2374.896044,-2368.659014,9030.512492
2667.998678,-2068.457845,-1850.514855,10510.924376
2667.999007,-2451.505594,-888.247130,9696.697840
2667.999336,-1072.533697,-444.123565,10140.821405
2667.999664,-995.924147,-0.000000,9178.553681
2667.999993,-153.219100,-740.205942,9992.780217
2668.000322,-383.047749,-1850.514855,10881.027347
2668.000651,0.000000,592.164754,9844.739029
2668.000980,1532.190996,962.267725,8216.285956
2668.001309,2451.505594,740.205942,8068.244768
2668.001638,1302.362347,1850.514855,7402.059420
2668.001967,2451.505594,1332.370696,8660.409521
2668.002296,2451.505594,1258.350101,7105.977043
2668.002625,2374.896044,1036.288319,7920.203579
2668.002953,76.609550,-0.000000,8882.471304
2668.003282,-766.095498,-296.082377,9474.636058
2668.003611,-2221.676944,-1998.556043,9770.718434
2668.003940,-1915.238745,-740.205942,9918.759623
2668.004269,-1378.971896,-1924.535449,9400.615463
2668.004598,-2757.943793,-1110.308913,9844.739029
2668.004927,-229.828649,296.082377,9474.636058
2668.005256,-383.047749,-592.164754,9178.553681
2668.005585,-919.314598,-1924.535449,9992.780217
2668.005914,0.000000,-1258.350101,11029.068536
2668.006242,1455.581446,444.123565,8956.491898
2668.006571,2757.943793,1258.350101,8068.244768
2668.006900,2145.067394,814.226536,7031.956449
2668.007229,2528.115143,1036.288319,9252.574275
2668.007558,2298.286494,1554.432478,7920.203579
2668.007887,2911.162892,1406.391290,6661.853478
2668.008216,1915.238745,-0.000000,7994.224174
2668.008545,229.828649,-370.102971,9400.615463
2668.008874,-1378.971896,-1258.350101,9326.594869
2668.009203,-1685.410096,-1702.473667,9844.739029
2668.009531,-1685.410096,-2294.638420,10732.986159
2668.009860,-1838.629195,-2072.576638,10288.862594
2668.010189,-1455.581446,-0.000000,9548.656652
2668.010518,-842.705048,-518.144159,9696.697840
2668.010847,-689.485948,-1036.288319,9326.594869
2668.011176,-842.705048,-962.267725,10807.006753
2668.011505,1149.143247,-592.164754,9992.780217
2668.011834,2145.067394,1110.308913,8142.265362
2668.012163,2987.772442,962.267725,7772.162391
2668.012492,2451.505594,1554.432478,7994.224174
2668.012820,2681.334243,1850.514855,8142.265362
2668.013149,2681.334243,1480.411884,7105.977043
2668.013478,2068.457845,2072.576638,6587.832884
2668.013807,153.219100,-444.123565,8956.491898
2668.014136,-1225.752797,-1036.288319,9252.574275
2668.014465,-2757.943793,-2368.659014,10140.821405
2668.014794,-2221.676944,-1850.514855,10436.903782
2668.015123,-2068.457845,-2072.576638,9548.656652
2668.015452,-1991.848295,-444.123565,9474.636058
2668.015781,-1302.362347,-0.000000,9770.718434
2668.016109,-919.314598,-74.020594,9918.759623
2668.016438,-1378.971896,-1332.370696,9918.759623
2668.016767,-842.705048,-1628.453072,10066.800811
2668.017096,153.219100,-1702.473667,10732.986159
2668.017425,1762.019645,-74.020594,8512.368333
2668.017754,2145.067394,222.061783,7994.224174
2668.018083,2451.505594,296.082377,8142.265362
2668.018412,2681.334243,1258.350101,7179.997637
2668.018741,4366.744339,2146.597232,6809.894666
2668.019070,2757.943793,1332.370696,7476.080014
2668.019398,1455.581446,-0.000000,8216.285956
2668.019727,-306.438199,-962.267725,8808.450710
2668.020056,-1532.190996,-1110.308913,9326.594869
2668.020385,-2451.505594,-2072.576638,10214.842000
2668.020714,-2681.334243,-2664.741391,10881.027347
2668.021043,-1378.971896,-2368.659014,10066.800811
2668.021372,-766.095498,-1110.308913,9548.656652
2668.021701,-306.438199,-888.247130,9178.553681
2668.022030,0.000000,-1554.432478,10288.862594
2668.022359,1915.238745,-518.144159,10066.800811
2668.022687,3830.477490,1258.350101,7328.038826
2668.023016,4060.306139,2146.597232,6957.935855
2668.023345,4596.572988,1332.370696,7846.182985
2668.023674,4136.915689,2368.659014,7846.182985
2668.024003,3983.696590,2368.659014,7254.018232
2668.024332,3064.381992,1776.494261,6957.935855
2668.024661,919.314598,-0.000000,8734.430116
2668.024990,-1378.971896,-1110.308913,10955.047942
2668.025319,-2145.067394,-1258.350101,10288.862594
2668.025648,-2911.162892,-1258.350101,10732.986159
2668.025976,-2604.724693,-3034.844362,11103.089130
2668.026305,-2757.943793,-1184.329507,9622.677246
2668.026634,-2221.676944,-0.000000,10955.047942
2668.026963,-1149.143247,-962.267725,8586.388927
2668.027292,-1149.143247,-74.020594,8882.471304
2668.027622,-306.438199,-962.267725,11621.233289
2668.027951,1455.581446,-74.020594,9178.553681
2668.028280,2528.115143,962.267725,7994.224174
2668.028609,3294.210641,1480.411884,6883.915261
2668.028938,2987.772442,2072.576638,6883.915261
2668.029267,2451.505594,2146.597232,8660.409521
2668.029596,2068.457845,1628.453072,7031.956449
2668.029925,766.095498,740.205942,7624.121203
2668.030254,-766.095498,-888.247130,9844.739029
2668.030583,-3064.381992,-1554.432478,9326.594869
2668.030912,-2834.553343,-2590.720797,11399.171507
2668.031242,-2681.334243,-1776.494261,10362.883188
2668.031571,-2298.286494,-1776.494261,9178.553681
2668.031900,-1762.019645,-1850.514855,10362.883188
2668.032229,-1455.581446,-222.061783,9178.553681
2668.032558,-689.485948,-370.102971,9178.553681
2668.032887,-766.095498,-2072.576638,9696.697840
2668.033216,-689.485948,-2442.679609,11325.150913
2668.033545,1225.752797,-1332.370696,10288.862594
2668.033874,3370.820191,1776.494261,7031.956449
2668.034203,3524.039291,962.267725,8142.265362
2668.034533,3677.258390,2442.679609,7105.977043
2668.034862,4519.963438,3256.906145,7624.121203
2668.035191,3983.696590,2738.761985,6957.935855
2668.035520,3447.429741,2516.700203,6883.915261
2668.035849,383.047749,-0.000000,9104.533087
2668.036178,-1532.190996,-1850.514855,9474.636058
2668.036507,-2681.334243,-1480.411884,10066.800811
2668.036836,-3370.820191,-3330.926739,10584.944971
2668.037165,-2068.457845,-3330.926739,10658.965565
2668.037494,-2374.896044,-1998.556043,10436.903782
2668.037824,-995.924147,-74.020594,10658.965565
2668.038153,-995.924147,-1110.308913,9326.594869
2668.038482,-766.095498,-592.164754,10362.883188
2668.038811,229.828649,-296.082377,11399.171507
2668.039140,1915.238745,-0.000000,9844.739029
2668.039469,3370.820191,1554.432478,7550.100608
2668.039798,4060.306139,1406.391290,7994.224174
2668.040127,3370.820191,2294.638420,7031.956449
2668.040456,4443.353888,2442.679609,7254.018232
2668.040785,3600.648841,2886.803174,6291.750507
2668.041115,2374.896044,1406.391290,7105.977043
2668.041444,0.000000,-0.000000,9326.594869
2668.041773,-2221.676944,-740.205942,9548.656652
2668.042102,-3370.820191,-3404.947333,11547.212695
2668.042431,-3753.867940,-2442.679609,10955.047942
2668.042760,-2757.943793,-2960.823768,9326.594869
2668.043089,-2681.334243,-2072.576638,11177.109724
2668.043418,-2374.896044,-814.226536,10214.842000
2668.043747,-1378.971896,-666.185348,9918.759623
2668.044076,-1302.362347,-1036.288319,9918.759623
2668.044406,-766.095498,592.164754,9992.780217
2668.044735,76.609550,-1036.288319,9918.759623
2668.045064,1455.581446,148.041188,9622.677246
2668.045393,2298.286494,740.205942,7994.224174
2668.045722,3983.696590,1702.473667,7105.977043
2668.046051,4213.525239,2442.679609,4885.359217
2668.046380,4519.963438,2738.761985,6513.812290
2668.046709,3370.820191,2368.659014,6291.750507
2668.047038,1685.410096,740.205942,7031.956449
2668.047367,0.000000,-0.000000,8734.430116
2668.047697,-1302.362347,-814.226536,8734.430116
2668.048026,-3294.210641,-2812.782580,10732.986159
2668.048355,-3217.601092,-2738.761985,11547.212695
2668.048684,-1838.629195,-2664.741391,10362.883188
2668.049013,-1915.238745,-1850.514855,10881.027347
2668.049342,-1149.143247,-1776.494261,10362.883188
2668.049671,-1838.629195,-1258.350101,11103.089130
2668.050000,-612.876398,-148.041188,10732.986159
2668.050329,1302.362347,1332.370696,10066.800811
2668.050658,2145.067394,888.247130,9030.512492
2668.050988,3447.429741,1258.350101,8734.430116
2668.051317,3830.477490,2368.659014,6735.874072
2668.051646,5439.278036,2516.700203,5995.668130
2668.051975,4903.011187,1554.432478,6291.750507
2668.052304,3294.210641,1406.391290,7105.977043
2668.052633,1685.410096,370.102971,8734.430116
2668.052962,-766.095498,-148.041188,8734.430116
2668.053291,-2451.505594,-1998.556043,9992.780217
2668.053620,-4213.525239,-3034.844362,11843.295072
2668.053949,-3064.381992,-2368.659014,10881.027347
2668.054279,-2604.724693,-1924.535449,10140.821405
2668.054608,-2451.505594,-2146.597232,10288.862594
2668.054937,-2298.286494,-1554.432478,10955.047942
2668.055266,-1762.019645,-1480.411884,11103.089130
2668.055595,-766.095498,444.123565,9548.656652
2668.055924,1225.752797,1036.288319,9030.512492
2668.056253,2068.457845,1332.370696,7698.141797
2668.056582,3600.648841,2590.720797,7254.018232
2668.056911,3447.429741,2072.576638,6735.874072
2668.057240,4596.572988,1924.535449,6439.791695
2668.057570,2987.772442,1184.329507,6735.874072
2668.057899,1302.362347,-444.123565,8512.368333
2668.058228,-1149.143247,-740.205942,9178.553681
2668.058557,-2145.067394,-1110.308913,9178.553681
2668.058886,-3447.429741,-1998.556043,11103.089130
2668.059215,-3524.039291,-1332.370696,10658.965565
2668.059544,-2834.553343,-2294.638420,10510.924376
2668.059873,-2221.676944,-1480.411884,10288.862594
2668.060202,-1838.629195,-1702.473667,9548.656652
2668.060531,-1685.410096,-1850.514855,10881.027347
2668.060860,-689.485948,-1702.473667,10140.821405
2668.061190,2374.896044,296.082377,10510.924376
2668.061519,3140.991542,1184.329507,6883.915261
2668.061848,4903.011187,2072.576638,7179.997637
2668.062177,4903.011187,2072.576638,6661.853478
2668.062506,5515.887586,2442.679609,6291.750507
2668.062835,4136.915689,1702.473667,6439.791695
2668.063164,4290.134789,1332.370696,7328.038826
2668.063493,3064.381992,-0.000000,7846.182985
2668.063822,536.266849,-0.000000,8734.430116
2668.064151,-1302.362347,-1998.556043,9400.615463
2668.064481,-3140.991542,-1850.514855,11251.130318
2668.064810,-2834.553343,-3478.967927,12213.398043
2668.065139,-2604.724693,-1776.494261,10436.903782
2668.065468,-1378.971896,-1184.329507,9844.739029
2668.065797,-1762.019645,-1184.329507,9622.677246
2668.066126,-2221.676944,-1776.494261,10732.986159
2668.066455,-842.705048,-444.123565,10881.027347
2668.066784,842.705048,148.041188,10584.944971
2668.067113,2298.286494,666.185348,8808.450710
2668.067442,2681.334243,1332.370696,8290.306550
2668.067772,3370.820191,2294.638420,6365.771101
2668.068101,4290.134789,2442.679609,6661.853478
2668.068430,4673.182538,1924.535449,6883.915261
2668.068759,2911.162892,2738.761985,7402.059420
2668.069088,1762.019645,962.267725,8290.306550
2668.069417,-766.095498,592.164754,7698.141797
2668.069746,-2757.943793,-444.123565,9844.739029
2668.070075,-2757.943793,-2812.782580,12361.439231
2668.070404,-2987.772442,-1998.556043,10658.965565
2668.070733,-1685.410096,-1628.453072,10436.903782
2668.071063,-1838.629195,-1110.308913,9696.697840
2668.071392,-2604.724693,-1110.308913,10214.842000
2668.071721,-2451.505594,-2146.597232,11695.253884
2668.072050,-689.485948,-592.164754,9844.739029
2668.072379,536.266849,148.041188,9326.594869
2668.072708,229.828649,-444.123565,9918.759623
2668.073037,1072.533697,148.041188,9992.780217
2668.073366,3217.601092,1184.329507,7105.977043
2668.073695,4979.620737,2072.576638,5921.647536
2668.074024,4749.792088,1480.411884,5477.523971
2668.074354,4673.182538,1776.494261,7105.977043
2668.074683,3524.039291,2146.597232,7254.018232
2668.075012,1378.971896,1110.308913,7179.997637
2668.075341,-995.924147,-1332.370696,9770.718434
2668.075670,-2834.553343,-2072.576638,10881.027347
2668.075999,-2911.162892,-3627.009116,11473.192101
2668.076328,-2604.724693,-3108.864956,9918.759623
2668.076657,-2374.896044,-3256.906145,9992.780217
2668.076986,-2451.505594,-3552.988522,11399.171507
2668.077315,-1378.971896,-1184.329507,10362.883188
2668.077645,-459.657299,-296.082377,10732.986159
2668.077974,459.657299,-1184.329507,9696.697840
2668.078303,1762.019645,592.164754,9992.780217
2668.078632,2681.334243,1924.535449,7179.997637
2668.078961,4443.353888,1776.494261,6513.812290
2668.079290,4596.572988,2886.803174,5847.626942
2668.079619,4903.011187,2146.597232,7105.977043
2668.079948,3140.991542,1702.473667,7105.977043
2668.080277,1991.848295,1110.308913,7105.977043
2668.080606,0.000000,740.205942,7550.100608
2668.080936,-2757.943793,-518.144159,10288.862594
2668.081265,-2834.553343,-2442.679609,11843.295072
2668.081594,-2451.505594,-2442.679609,9178.553681
2668.081923,-1991.848295,-2664.741391,10658.965565
2668.082252,-2528.115143,-2812.782580,9696.697840
2668.082581,-1838.629195,-888.247130,10140.821405
2668.082910,-2298.286494,-1036.288319,11103.089130
2668.083239,-842.705048,-518.144159,9844.739029
2668.083568,-842.705048,740.205942,9770.718434
2668.083897,-1685.410096,962.267725,10732.986159
2668.084227,689.485948,666.185348,11103.089130
2668.084556,1762.019645,1406.391290,7254.018232
2668.084885,4213.525239,1702.473667,6809.894666
2668.085214,3064.381992,1332.370696,7254.018232
2668.085543,2451.505594,2146.597232,7105.977043
2668.085872,2528.115143,1628.453072,7846.182985
2668.086201,995.924147,-148.041188,7846.182985
2668.086530,-766.095498,-0.000000,10140.821405
2668.086859,-2221.676944,-740.205942,10732.986159
2668.087188,-2834.553343,-3256.906145,10288.862594
2668.087518,-2987.772442,-3478.967927,11029.068536
2668.087847,-1915.238745,-2960.823768,10732.986159
2668.088176,-1838.629195,-2590.720797,11473.192101
2668.088505,76.609550,-1036.288319,11325.150913
2668.088834,1532.190996,370.102971,9104.533087
2668.089163,2604.724693,888.247130,8882.471304
2668.089492,3983.696590,2146.597232,7846.182985
2668.089821,4903.011187,2664.741391,6735.874072
2668.090150,4979.620737,2738.761985,6661.853478
2668.090479,4903.011187,2146.597232,6143.709319
2668.090809,3983.696590,1258.350101,7624.121203
2668.091138,2221.676944,-74.020594,8142.265362
2668.091467,-306.438199,-74.020594,7994.224174
2668.091796,-1762.019645,-1258.350101,10066.800811
2668.092125,-3294.210641,-2664.741391,11621.233289
2668.092454,-2145.067394,-2146.597232,10807.006753
2668.092783,-1685.410096,-1776.494261,9178.553681
2668.093112,-1762.019645,-2294.638420,10288.862594
2668.093441,-2451.505594,-3108.864956,11325.150913
2668.093770,-306.438199,-740.205942,10732.986159
2668.094099,1915.238745,1332.370696,7920.203579
2668.094429,3370.820191,1332.370696,8512.368333
2668.094758,3370.820191,2294.638420,8808.450710
2668.095087,4519.963438,3552.988522,6883.915261
2668.095416,4443.353888,1850.514855,6587.832884
2668.095745,2451.505594,1850.514855,7254.018232
2668.096074,1762.019645,1110.308913,9696.697840
2668.096403,-229.828649,-740.205942,8808.450710
2668.096732,-2451.505594,-888.247130,7402.059420
2668.097061,-2604.724693,-2220.617826,10288.862594
2668.097390,-3983.696590,-2960.823768,11177.109724
2668.097720,-3140.991542,-1776.494261,10140.821405
2668.098049,-1915.238745,-1184.329507,9548.656652
2668.098378,-2068.457845,-740.205942,8808.450710
2668.098707,-2221.676944,-1332.370696,10362.883188
2668.099036,-2145.067394,-1702.473667,10732.986159
2668.099365,-1532.190996,-1258.350101,10140.821405
2668.099694,0.000000,-518.144159,10066.800811
2668.100023,1302.362347,592.164754,8438.347739
2668.100352,2451.505594,444.123565,8290.306550
2668.100681,3064.381992,1702.473667,7105.977043
2668.101011,3907.087040,1924.535449,7031.956449
2668.101340,3524.039291,888.247130,7328.038826
2668.101669,3064.381992,1332.370696,7328.038826
2668.101998,1838.629195,1258.350101,7624.121203
2668.102327,842.705048,-666.185348,8364.327145
2668.102656,-919.314598,-888.247130,9400.615463
2668.102985,-2757.943793,-1332.370696,10584.944971
2668.103314,-2374.896044,-2294.638420,11103.089130
2668.103643,-1685.410096,-2516.700203,9918.759623
2668.103972,-1838.629195,-1184.329507,9696.697840
2668.104302,-1608.800546,-2442.679609,10807.006753
2668.104631,-1149.143247,-2590.720797,11473.192101
2668.104960,-153.219100,-592.164754,11029.068536
2668.105289,1302.362347,-0.000000,10066.800811
2668.105618,2145.067394,1332.370696,8290.306550
2668.105947,3600.648841,1406.391290,7624.121203
2668.106276,4290.134789,2294.638420,6957.935855
2668.106605,5592.497135,2368.659014,7105.977043
2668.106934,5286.058936,1702.473667,6735.874072
2668.107263,3600.648841,1184.329507,7920.203579
2668.107593,2757.943793,1850.514855,8068.244768
2668.107922,383.047749,592.164754,7920.203579
2668.108251,-1608.800546,-1258.350101,9548.656652
2668.108580,-2528.115143,-2368.659014,11103.089130
2668.108909,-2834.553343,-2220.617826,11547.212695
2668.109238,-2757.943793,-2072.576638,9178.553681
2668.109567,-2757.943793,-1924.535449,10214.842000
2668.109896,-2911.162892,-2516.700203,11547.212695
2668.110225,-2221.676944,-148.041188,10584.944971
2668.110554,-766.095498,222.061783,10362.883188
2668.110884,-306.438199,-370.102971,9400.615463
2668.111213,1532.190996,296.082377,10214.842000
2668.111542,2145.067394,1628.453072,8216.285956
2668.111871,2451.505594,1776.494261,7105.977043
2668.112200,3140.991542,1258.350101,7105.977043
2668.112529,3447.429741,1480.411884,6809.894666
2668.112858,2298.286494,1258.350101,8142.265362
2668.113187,842.705048,1628.453072,7402.059420
2668.113516,229.828649,-296.082377,8290.306550
2668.113845,-1991.848295,-518.144159,9400.615463
2668.114175,-2681.334243,-1332.370696,9178.553681
2668.114504,-1991.848295,-2072.576638,10881.027347
2668.114833,-2221.676944,-2812.782580,9622.677246
2668.115162,-1762.019645,-2368.659014,10140.821405
2668.115491,-2145.067394,-2294.638420,10510.924376
2668.115820,-1149.143247,-1036.288319,9992.780217
2668.116149,766.095498,-1406.391290,10436.903782
2668.116478,2068.457845,-0.000000,8142.265362
2668.116807,2528.115143,1480.411884,8142.265362
2668.117136,3907.087040,1332.370696,7328.038826
2668.117466,4826.401637,2072.576638,7105.977043
2668.117795,4596.572988,962.267725,7328.038826
2668.118124,3294.210641,1184.329507,6809.894666
2668.118453,2221.676944,1036.288319,7698.141797
2668.118782,1532.190996,592.164754,8290.306550
2668.119111,-306.438199,-0.000000,8512.368333
2668.119440,-2145.067394,-1702.473667,10510.924376
2668.119769,-2374.896044,-1924.535449,10807.006753
2668.120098,-2374.896044,-1924.535449,10362.883188
2668.120427,-2374.896044,-2516.700203,10510.924376
2668.120757,-2757.943793,-3034.844362,11473.192101
2668.121086,-842.705048,-1554.432478,11251.130318
2668.121415,1225.752797,296.082377,9622.677246
2668.121744,1378.971896,666.185348,8734.430116
2668.122073,2681.334243,1258.350101,8734.430116
2668.122402,3217.601092,2294.638420,8216.285956
2668.122731,3447.429741,2812.782580,7105.977043
2668.123060,3907.087040,2146.597232,7105.977043
2668.123389,2604.724693,1184.329507,8216.285956
2668.123718,1685.410096,148.041188,9178.553681
2668.124047,0.000000,-0.000000,8882.471304
2668.124377,-1762.019645,-0.000000,8512.368333
2668.124706,-2911.162892,-1258.350101,10732.986159
2668.125035,-3370.820191,-1702.473667,11103.089130
2668.125364,-2451.505594,-592.164754,10140.821405
2668.125693,-2068.457845,-2294.638420,9844.739029
2668.126022,-2068.457845,-1776.494261,9992.780217
2668.126351,-1915.238745,-1776.494261,11103.089130
2668.126680,-536.266849,-296.082377,9252.574275
2668.127009,995.924147,1406.391290,8660.409521
2668.127338,2911.162892,-0.000000,8068.244768
2668.127668,2528.115143,2738.761985,7550.100608
2668.127997,3907.087040,1406.391290,8882.471304
2668.128326,3064.381992,1332.370696,6291.750507
2668.128655,2681.334243,2294.638420,7772.162391
2668.128984,919.314598,-296.082377,8438.347739
2668.129313,0.000000,-666.185348,9178.553681
2668.129642,-1302.362347,-1702.473667,9770.718434
2668.129971,-1915.238745,-1998.556043,9178.553681
2668.130301,-2451.505594,-2368.659014,10362.883188
2668.130630,-2298.286494,-1480.411884,9696.697840
2668.130959,-1149.143247,-1258.350101,9400.615463
2668.131288,-536.266849,-1110.308913,9326.594869
2668.131617,-229.828649,-3034.844362,10214.842000
2668.131946,612.876398,-1110.308913,9992.780217
2668.132275,1991.848295,-0.000000,9030.512492
2668.132605,3600.648841,592.164754,7698.141797
2668.132934,2298.286494,1406.391290,7254.018232
2668.133263,2451.505594,1110.308913,9400.615463
2668.133592,2374.896044,666.185348,7698.141797
2668.133921,2987.772442,1406.391290,6809.894666
2668.134250,2374.896044,592.164754,7772.162391
2668.134579,536.266849,-0.000000,8216.285956
2668.134909,-459.657299,74.020594,9178.553681
2668.135238,-1225.752797,-962.267725,9178.553681
2668.135567,-1838.629195,-592.164754,9622.677246
2668.135896,-2221.676944,-1628.453072,10955.047942
2668.136225,-1838.629195,-370.102971,9474.636058
2668.136554,-1378.971896,-370.102971,8438.347739
2668.136883,-1455.581446,-666.185348,9326.594869
2668.137213,-1608.800546,-2220.617826,10584.944971
2668.137542,-842.705048,-1110.308913,10584.944971
2668.137871,536.266849,-518.144159,10288.862594
2668.138200,1072.533697,296.082377,7624.121203
2668.138529,1608.800546,1110.308913,9326.594869
2668.138858,1685.410096,1258.350101,8142.265362
2668.139187,3064.381992,2738.761985,7550.100608
2668.139517,2834.553343,1406.391290,7846.182985
2668.139846,2068.457845,1850.514855,6957.935855
2668.140175,919.314598,666.185348,9474.636058
2668.140504,-689.485948,222.061783,8956.491898
2668.140833,-1455.581446,-518.144159,8882.471304
2668.141162,-2604.724693,-1702.473667,11103.089130
2668.141491,-2221.676944,-2442.679609,11103.089130
2668.141820,-1685.410096,-1332.370696,9696.697840
2668.142150,-1302.362347,-1406.391290,9548.656652
2668.142479,-1838.629195,-1850.514855,9992.780217
2668.142808,-1149.143247,-2146.597232,10881.027347
2668.143137,383.047749,-1036.288319,10807.006753
2668.143466,2374.896044,814.226536,9104.533087
2668.143795,2757.943793,888.247130,9326.594869
2668.144124,2374.896044,1184.329507,7772.162391
2668.144454,4596.572988,1850.514855,8364.327145
2668.144783,4290.134789,2368.659014,7179.997637
2668.145112,3600.648841,1184.329507,6439.791695
2668.145441,2604.724693,740.205942,7550.100608
2668.145770,1915.238745,1036.288319,7846.182985
2668.146099,459.657299,-74.020594,8808.450710
2668.146428,-1608.800546,-1776.494261,9696.697840
2668.146758,-1608.800546,-2072.576638,10436.903782
2668.147087,-2068.457845,-2590.720797,10881.027347
2668.147416,-1532.190996,-2072.576638,9696.697840
2668.147745,-1072.533697,-1110.308913,9178.553681
2668.148074,-1302.362347,-1850.514855,9770.718434
2668.148403,-536.266849,-1332.370696,10881.027347
2668.148732,1072.533697,-592.164754,10288.862594
2668.149062,2681.334243,1406.391290,7179.997637
2668.149391,4060.306139,1480.411884,7402.059420
2668.149720,2604.724693,1850.514855,7550.100608
2668.150049,2451.505594,2294.638420,7402.059420
2668.150378,3064.381992,1776.494261,6513.812290
2668.150707,1838.629195,1110.308913,6957.935855
2668.151036,76.609550,-592.164754,9030.512492
2668.151366,-1532.190996,-666.185348,8956.491898
2668.151695,-2451.505594,-1258.350101,9770.718434
2668.152024,-3600.648841,-2294.638420,10584.944971
2668.152353,-3600.648841,-2516.700203,10807.006753
2668.152682,-3140.991542,-1406.391290,10362.883188
2668.153011,-2221.676944,-666.185348,9030.512492
2668.153340,-1915.238745,-740.205942,9696.697840
2668.153670,-2298.286494,-2516.700203,11103.089130
2668.153999,-1915.238745,-888.247130,10436.903782
2668.154328,76.609550,-888.247130,10732.986159
2668.154657,1225.752797,518.144159,7994.224174
2668.154986,2068.457845,814.226536,8216.285956
2668.155315,2604.724693,1036.288319,7846.182985
2668.155644,3830.477490,1850.514855,7179.997637
2668.155974,3524.039291,962.267725,7476.080014
2668.156303,1991.848295,296.082377,7920.203579
2668.156632,842.705048,-222.061783,8956.491898
2668.156961,-306.438199,-222.061783,8882.471304
2668.157290,-1685.410096,-1036.288319,9474.636058
2668.157619,-2834.553343,-1480.411884,10362.883188
2668.157948,-2068.457845,-1924.535449,11103.089130
2668.158278,-689.485948,-2368.659014,10362.883188
2668.158607,0.000000,-1480.411884,8882.471304
2668.158936,-459.657299,-1036.288319,9474.636058
2668.159265,536.266849,-1406.391290,10214.842000
2668.159594,2145.067394,1258.350101,8438.347739
2668.159923,4213.525239,1924.535449,6735.874072
2668.160252,4519.963438,1480.411884,7476.080014
2668.160581,3830.477490,1924.535449,9030.512492
2668.160911,3447.429741,2072.576638,7698.141797
2668.161240,2987.772442,2072.576638,6957.935855
2668.161569,2451.505594,1702.473667,7846.182985
2668.161898,919.314598,-740.205942,9844.739029
2668.162227,-1225.752797,-1406.391290,10214.842000
2668.162556,-2221.676944,-1776.494261,10140.821405
2668.162885,-2298.286494,-2516.700203,11399.171507
2668.163215,-2528.115143,-1998.556043,10807.006753
2668.163544,-2451.505594,-814.226536,9400.615463
2668.163873,-612.876398,-148.041188,9844.739029
2668.164202,-1378.971896,-74.020594,9474.636058
2668.164531,0.000000,-1036.288319,10214.842000
2668.164860,2068.457845,518.144159,8734.430116
2668.165189,2604.724693,1184.329507,8290.306550
2668.165519,4136.915689,1406.391290,7476.080014
2668.165848,2834.553343,1332.370696,8512.368333
2668.166177,1532.190996,1850.514855,8586.388927
2668.166506,2298.286494,1850.514855,7846.182985
2668.166835,1302.362347,518.144159,8364.327145
2668.167164,-229.828649,-74.020594,8808.450710
2668.167493,-1302.362347,-1850.514855,10066.800811
2668.167823,-2145.067394,-2072.576638,10510.924376
2668.168152,-2834.553343,-1924.535449,9992.780217
2668.168481,-3294.210641,-1406.391290,10510.924376
2668.168810,-2374.896044,-814.226536,10362.883188
2668.169139,-2221.676944,-814.226536,10955.047942
2668.169468,-1149.143247,-1332.370696,8364.327145
2668.169797,153.219100,-296.082377,7476.080014
2668.170127,153.219100,-2146.597232,11399.171507
2668.170456,919.314598,-0.000000,8438.347739
2668.170785,2987.772442,222.061783,8290.306550
2668.171114,2298.286494,1258.350101,6661.853478
2668.171443,3524.039291,1258.350101,7179.997637
2668.171772,2911.162892,962.267725,8660.409521
2668.172101,2834.553343,1406.391290,6439.791695
2668.172431,3677.258390,222.061783,7105.977043
2668.172760,1149.143247,814.226536,9326.594869
2668.173089,-612.876398,-1776.494261,9918.759623
2668.173418,-766.095498,-814.226536,9474.636058
2668.173747,-2221.676944,-1628.453072,9252.574275
2668.174076,-2451.505594,-1184.329507,10510.924376
2668.174405,-2298.286494,-2220.617826,11325.150913
2668.174735,-1685.410096,-888.247130,9992.780217
2668.175064,-766.095498,-740.205942,9474.636058
2668.175393,76.609550,-1850.514855,10362.883188
2668.175722,0.000000,-1332.370696,10214.842000
2668.176051,2221.676944,444.123565,9104.533087
2668.176380,3600.648841,1332.370696,8216.285956
2668.176709,3140.991542,1554.432478,7550.100608
2668.177039,3370.820191,3034.844362,8364.327145
2668.177368,3217.601092,2812.782580,7402.059420
2668.177697,2604.724693,2146.597232,7179.997637
2668.178026,1838.629195,1554.432478,7476.080014
2668.178355,0.000000,-0.000000,9326.594869
2668.178684,-2068.457845,-666.185348,9992.780217
2668.179013,-2451.505594,-1332.370696,9918.759623
2668.179342,-3524.039291,-2368.659014,11325.150913
2668.179672,-3677.258390,-2738.761985,10955.047942
2668.180001,-2757.943793,-1184.329507,9622.677246
2668.180330,-2528.115143,-370.102971,9548.656652
2668.180659,-1532.190996,-666.185348,9474.636058
2668.180988,-919.314598,-1406.391290,10510.924376
2668.181317,-919.314598,-1406.391290,10288.862594
2668.181646,1225.752797,-1850.514855,10955.047942
2668.181976,2451.505594,1258.350101,6439.791695
2668.182305,3600.648841,1184.329507,8216.285956
2668.182634,3447.429741,1776.494261,7031.956449
2668.182963,4903.011187,2664.741391,6735.874072
2668.183292,3753.867940,2294.638420,7402.059420
2668.183621,2834.553343,1850.514855,6587.832884
2668.183950,2221.676944,-0.000000,8216.285956
2668.184280,383.047749,-592.164754,8586.388927
2668.184609,-1991.848295,-1702.473667,9474.636058
2668.184938,-2834.553343,-2812.782580,11251.130318
2668.185267,-2911.162892,-3552.988522,11177.109724
2668.185596,-2451.505594,-2516.700203,10140.821405
2668.185925,-1378.971896,-1998.556043,9696.697840
2668.186254,-1225.752797,-1406.391290,9770.718434
2668.186584,306.438199,-2368.659014,10584.944971
2668.186913,2604.724693,-74.020594,9696.697840
2668.187242,3830.477490,1776.494261,7105.977043
2668.187571,4519.963438,2072.576638,7105.977043
2668.187900,4596.572988,1924.535449,7846.182985
2668.188229,4366.744339,2516.700203,7624.121203
2668.188558,4136.915689,1776.494261,6439.791695
2668.188888,3600.648841,1258.350101,7105.977043
2668.189217,1225.752797,-592.164754,9030.512492
2668.189546,-995.924147,-1036.288319,9770.718434
2668.189875,-2374.896044,-1332.370696,10140.821405
2668.190204,-3064.381992,-3404.947333,10658.965565
2668.190533,-3600.648841,-2516.700203,11251.130318
2668.190862,-3447.429741,-1702.473667,10362.883188
2668.191192,-2451.505594,-814.226536,8882.471304
2668.191521,-2221.676944,-0.000000,8512.368333
2668.191850,-1915.238745,-148.041188,9104.533087
2668.192179,-1991.848295,296.082377,9918.759623
2668.192508,-995.924147,1036.288319,9030.512492
2668.192837,-153.219100,1628.453072,7105.977043
2668.193166,-766.095498,1702.473667,8068.244768
2668.193496,-1455.581446,1554.432478,7698.141797
2668.193825,-1532.190996,1184.329507,8142.265362
2668.194154,-1991.848295,1184.329507,8142.265362
2668.194483,-2528.115143,-666.185348,9178.553681
2668.194812,-4136.915689,-1480.411884,9474.636058
2668.195141,-4979.620737,-1850.514855,9696.697840
2668.195470,-5745.716235,-888.247130,9178.553681
2668.195800,-4979.620737,-518.144159,8438.347739
2668.196129,-5056.230287,-1406.391290,10362.883188
2668.196458,-5439.278036,-1850.514855,10436.903782
2668.196787,-4979.620737,-888.247130,9992.780217
2668.197116,-4596.572988,-1480.411884,9770.718434
2668.197445,-4136.915689,-2220.617826,9622.677246
2668.197774,-3217.601092,-1480.411884,10288.862594
2668.198103,-2145.067394,222.061783,9030.512492
2668.198433,-1915.238745,1258.350101,9622.677246
2668.198762,-383.047749,1184.329507,9030.512492
2668.199091,0.000000,592.164754,8512.368333
2668.199420,459.657299,1110.308913,9474.636058
2668.199749,1685.410096,1554.432478,7328.038826
2668.200078,1915.238745,1184.329507,6587.832884
2668.200407,1838.629195,-74.020594,6883.915261
2668.200737,612.876398,666.185348,8364.327145
2668.201066,-995.924147,-888.247130,9252.574275
2668.201395,-1838.629195,370.102971,7846.182985
2668.201724,-2221.676944,-1258.350101,8882.471304
2668.202053,-3370.820191,-592.164754,9918.759623
2668.202382,-3447.429741,-1628.453072,9844.739029
2668.202711,-3830.477490,-666.185348,10288.862594
2668.203041,-3600.648841,-814.226536,9178.553681
2668.203370,-3140.991542,74.020594,9030.512492
2668.203699,-3600.648841,-1036.288319,9770.718434
2668.204028,-3447.429741,-1406.391290,9844.739029
2668.204357,-2451.505594,-2146.597232,9178.553681
2668.204686,-2451.505594,-1110.308913,9400.615463
2668.205015,-2528.115143,-0.000000,8808.450710
2668.205345,-1991.848295,444.123565,9104.533087
2668.205674,-1915.238745,444.123565,8142.265362
2668.206003,-1915.238745,-666.185348,8808.450710
2668.206332,-2068.457845,-296.082377,9104.533087
2668.206661,-2374.896044,740.205942,8216.285956
2668.206990,-2221.676944,740.205942,7772.162391
2668.207319,-2145.067394,148.041188,8216.285956
2668.207649,-2145.067394,-888.247130,8956.491898
2668.207978,-2451.505594,-1702.473667,9252.574275
2668.208307,-2911.162892,-74.020594,8734.430116
2668.208636,-3217.601092,814.226536,8364.327145
2668.208965,-2681.334243,740.205942,8586.388927
2668.209294,-2681.334243,444.123565,8808.450710
2668.209623,-2681.334243,-666.185348,9696.697840
2668.209953,-3447.429741,222.061783,9474.636058
2668.210282,-3064.381992,-74.020594,9326.594869
2668.210611,-4213.525239,-370.102971,9474.636058
2668.210940,-3983.696590,-962.267725,9992.780217
2668.211269,-3753.867940,-1702.473667,10214.842000
2668.211598,-3753.867940,-1258.350101,9178.553681
2668.211927,-3600.648841,-1480.411884,9178.553681
2668.212257,-2757.943793,-0.000000,8956.491898
2668.212586,-2451.505594,-0.000000,8216.285956
2668.212915,-2757.943793,592.164754,8956.491898
2668.213244,-3140.991542,148.041188,8734.430116
2668.213573,-2681.334243,444.123565,8882.471304
2668.213902,-2757.943793,-518.144159,8808.450710
2668.214231,-2451.505594,-222.061783,9400.615463
2668.214561,-2145.067394,-1110.308913,9104.533087
2668.214890,-2221.676944,-370.102971,9622.677246
2668.215219,-2221.676944,-296.082377,9548.656652
2668.215548,-1455.581446,222.061783,8882.471304
2668.215877,-1455.581446,666.185348,7994.224174
2668.216206,-1149.143247,444.123565,8142.265362
2668.216535,-1072.533697,-444.123565,8882.471304
2668.216864,-1608.800546,-666.185348,9252.574275
2668.217194,-2451.505594,-370.102971,8882.471304
2668.217523,-2911.162892,296.082377,9104.533087
2668.217852,-3370.820191,370.102971,8808.450710
2668.218181,-2987.772442,962.267725,8586.388927
2668.218510,-3140.991542,814.226536,8660.409521
2668.218839,-3600.648841,518.144159,8586.388927
2668.219168,-4060.306139,-444.123565,9104.533087
2668.219498,-4366.744339,-2146.597232,10362.883188
2668.219827,-4749.792088,-2812.782580,10955.047942
2668.220156,-4060.306139,-3034.844362,10510.924376
2668.220485,-2604.724693,-1924.535449,9918.759623
2668.220814,-1838.629195,-666.185348,9178.553681
2668.221143,-1455.581446,1184.329507,7846.182985
2668.221472,-306.438199,1480.411884,8512.368333
2668.221802,-612.876398,222.061783,9992.780217
2668.222131,0.000000,1776.494261,8290.306550
2668.222460,0.000000,1702.473667,7624.121203
2668.222789,-1532.190996,888.247130,7328.038826
2668.223118,-2374.896044,370.102971,8660.409521
2668.223447,-2834.553343,-888.247130,10140.821405
2668.223776,-2911.162892,-1554.432478,9400.615463
2668.224106,-2528.115143,-666.185348,8290.306550
2668.224435,-3064.381992,-592.164754,9474.636058
2668.224764,-4443.353888,-518.144159,9104.533087
2668.225093,-4060.306139,-666.185348,10436.903782
2668.225422,-3447.429741,-518.144159,9622.677246
2668.225751,-1762.019645,-962.267725,9326.594869
2668.226080,-1225.752797,-444.123565,9252.574275
2668.226410,-842.705048,888.247130,6809.894666
2668.226739,-995.924147,-444.123565,8660.409521
2668.227068,-1072.533697,-814.226536,9918.759623
2668.227397,229.828649,666.185348,8290.306550
2668.227726,383.047749,814.226536,8142.265362
2668.228055,0.000000,888.247130,7698.141797
2668.228384,-766.095498,962.267725,7994.224174
2668.228713,-1378.971896,148.041188,8956.491898
2668.229042,-1532.190996,-0.000000,8512.368333
2668.229371,-2451.505594,-444.123565,9474.636058
2668.229700,-3677.258390,-518.144159,9326.594869
2668.230030,-4443.353888,-0.000000,8438.347739
2668.230359,-5209.449386,-1406.391290,9326.594869
2668.230688,-4903.011187,-1480.411884,9326.594869
2668.231017,-4673.182538,-2294.638420,10436.903782
2668.231346,-4596.572988,-2368.659014,10362.883188
2668.231675,-4979.620737,-1850.514855,10214.842000
2668.232004,-4443.353888,-2516.700203,10584.944971
2668.232333,-3830.477490,-1480.411884,10140.821405
2668.232662,-3600.648841,148.041188,9844.739029
2668.232991,-2987.772442,-0.000000,10066.800811
2668.233320,-1991.848295,962.267725,9400.615463
2668.233649,-1455.581446,1924.535449,8734.430116
2668.233978,-1915.238745,1998.556043,7772.162391
2668.234308,-2298.286494,1924.535449,8068.244768
2668.234637,-1915.238745,1184.329507,8142.265362
2668.234966,-2298.286494,1480.411884,7328.038826
2668.235295,-2681.334243,1036.288319,7772.162391
2668.235624,-2528.115143,-0.000000,7698.141797
2668.235953,-2298.286494,296.082377,7476.080014
2668.236282,-3064.381992,-0.000000,7846.182985
2668.236611,-3064.381992,222.061783,7772.162391
2668.236940,-3140.991542,370.102971,8956.491898
2668.237269,-3447.429741,1184.329507,8882.471304
2668.237598,-3830.477490,2072.576638,9548.656652
2668.237927,-4366.744339,962.267725,10140.821405
2668.238256,-3983.696590,1184.329507,10214.842000
2668.238586,-3524.039291,740.205942,10066.800811
2668.238915,-3447.429741,666.185348,10436.903782
2668.239244,-2374.896044,148.041188,10436.903782
2668.239573,-1608.800546,962.267725,9326.594869
2668.239902,-612.876398,1332.370696,8586.388927
2668.240231,-1608.800546,1924.535449,8290.306550
2668.240560,1149.143247,-444.123565,12657.521608
2668.240889,1991.848295,2368.659014,7105.977043
2668.241218,4596.572988,3034.844362,7920.203579
2668.241547,4060.306139,3552.988522,5255.462188
2668.241876,4060.306139,4589.276840,6439.791695
2668.242205,2834.553343,4589.276840,8882.471304
2668.242534,2681.334243,4145.153275,7179.997637
2668.242863,1991.848295,2812.782580,10140.821405
2668.243193,-306.438199,2220.617826,9844.739029
2668.243522,-1378.971896,2072.576638,11103.089130
2668.243851,-2451.505594,518.144159,12583.501014
2668.244180,-1302.362347,1776.494261,9844.739029
2668.244509,-766.095498,444.123565,11473.192101
2668.244838,0.000000,1480.411884,10955.047942
2668.245167,1532.190996,3775.050304,8808.450710
2668.245496,1838.629195,2442.679609,7920.203579
2668.245825,2681.334243,4145.153275,7105.977043
2668.246154,3753.867940,6291.750507,6439.791695
2668.246483,2681.334243,4737.318029,6661.853478
2668.246812,2145.067394,5107.421000,7698.141797
2668.247141,1149.143247,4293.194464,8586.388927
2668.247471,-1532.190996,2960.823768,9104.533087
2668.247800,-3447.429741,2146.597232,9844.739029
2668.248129,-3370.820191,-0.000000,12213.398043
2668.248458,-4213.525239,1406.391290,10436.903782
2668.248787,-4060.306139,2368.659014,9770.718434
2668.249116,-4826.401637,1110.308913,10955.047942
2668.249445,-4519.963438,2294.638420,10955.047942
2668.249774,-3217.601092,2146.597232,10955.047942
2668.250103,-1915.238745,1924.535449,9622.677246
2668.250432,-919.314598,2590.720797,8660.409521
2668.250761,-995.924147,3256.906145,7698.141797
2668.251090,-1072.533697,3552.988522,9992.780217
2668.251419,2451.505594,2294.638420,11621.233289
2668.251748,3294.210641,5625.565159,3775.050304
2668.252078,5669.106685,4737.318029,9030.512492
2668.252407,2451.505594,5477.523971,6439.791695
2668.252736,4136.915689,7031.956449,7328.038826
2668.253065,1685.410096,6661.853478,6735.874072
2668.253394,2145.067394,5625.565159,7105.977043
2668.253723,1072.533697,5181.441594,9400.615463
2668.254052,0.000000,6069.688724,6735.874072
2668.254381,-1302.362347,962.267725,10732.986159
2668.254710,-3524.039291,-592.164754,12657.521608
2668.255039,-1608.800546,-74.020594,9770.718434
2668.255368,-1991.848295,-0.000000,11547.212695
2668.255697,-1762.019645,-148.041188,11547.212695
2668.256026,-1378.971896,3552.988522,10732.986159
2668.256356,1455.581446,1554.432478,9326.594869
2668.256685,2451.505594,5699.585753,7698.141797
2668.257014,3524.039291,4515.256246,7846.182985
2668.257343,4673.182538,4367.215058,7624.121203
2668.257672,3524.039291,6143.709319,6365.771101
2668.258001,2911.162892,5625.565159,7328.038826
2668.258330,766.095498,3552.988522,7105.977043
2668.258659,1455.581446,4515.256246,8586.388927
2668.258988,0.000000,2368.659014,9178.553681
2668.259317,-2374.896044,-1036.288319,12509.480420
2668.259646,-3830.477490,1036.288319,10066.800811
2668.259975,-2451.505594,-1110.308913,11473.192101
2668.260304,-3064.381992,370.102971,9992.780217
2668.260633,-1991.848295,2072.576638,11103.089130
2668.260963,-612.876398,2368.659014,8734.430116
2668.261292,-1378.971896,2886.803174,9918.759623
2668.261621,2451.505594,1036.288319,12361.439231
2668.261950,3447.429741,4367.215058,4811.338623
2668.262279,4136.915689,2886.803174,10214.842000
2668.262608,2221.676944,3330.926739,5773.606348
2668.262937,4749.792088,5181.441594,6439.791695
2668.263266,2757.943793,4885.359217,8216.285956
2668.263595,2221.676944,4293.194464,7179.997637
2668.263924,2145.067394,4959.379811,8808.450710
2668.264253,-1302.362347,1702.473667,8216.285956
2668.264582,-3753.867940,-3923.091493,12509.480420
2668.264911,-4826.401637,-0.000000,12139.377449
2668.265241,-2221.676944,-1924.535449,11621.233289
2668.265570,-4596.572988,-0.000000,9918.759623
2668.265899,-2374.896044,1998.556043,11325.150913
2668.266228,0.000000,3034.844362,8068.244768
2668.266557,306.438199,2664.741391,9474.636058
2668.266886,3753.867940,2664.741391,9918.759623
2668.267215,2681.334243,3701.029710,4441.235652
2668.267544,4596.572988,4071.132681,9844.739029
2668.267873,3524.039291,6439.791695,3701.029710
2668.268202,4979.620737,3849.070898,7105.977043
2668.268531,2145.067394,3404.947333,5625.565159
2668.268860,3217.601092,4663.297435,6217.729913
2668.269189,2221.676944,3182.885551,7179.997637
2668.269518,-306.438199,5107.421000,6809.894666
2668.269848,-4290.134789,-370.102971,11769.274478
2668.270177,-5822.325785,-2886.803174,14508.036463
2668.270506,-3370.820191,2664.741391,8586.388927
2668.270835,-2221.676944,-3478.967927,11177.109724
2668.271164,-3600.648841,222.061783,9548.656652
2668.271493,-1072.533697,3182.885551,12805.562797
2668.271822,-919.314598,2368.659014,8142.265362
2668.272151,-2451.505594,5033.400406,8512.368333
2668.272480,3294.210641,1332.370696,11917.315666
2668.272809,2834.553343,5329.482782,4367.215058
2668.273138,3064.381992,4589.276840,9178.553681
2668.273467,2681.334243,4663.297435,6069.688724
2668.273796,3600.648841,5995.668130,6587.832884
2668.274126,459.657299,4737.318029,8068.244768
2668.274455,-689.485948,7105.977043,5107.421000
2668.274784,459.657299,5773.606348,11769.274478
2668.275113,-1302.362347,3997.112087,6365.771101
2668.275442,-3370.820191,518.144159,11399.171507
2668.275771,-4290.134789,-962.267725,11991.336260
2668.276100,-2528.115143,2146.597232,9326.594869
2668.276429,-2604.724693,-3775.050304,11843.295072
2668.276758,-2451.505594,-0.000000,9770.718434
2668.277087,-1225.752797,2664.741391,13693.809927
2668.277416,0.000000,1924.535449,8216.285956
2668.277745,2221.676944,6291.750507,7254.018232
2668.278074,3753.867940,5847.626942,7624.121203
2668.278403,4519.963438,5181.441594,8660.409521
2668.278733,842.705048,4885.359217,9326.594869
2668.279062,995.924147,5107.421000,7994.224174
2668.279391,0.000000,3775.050304,7772.162391
2668.279720,995.924147,3997.112087,8808.450710
2668.280049,1838.629195,3256.906145,8734.430116
2668.280378,1685.410096,2812.782580,11029.068536
2668.280707,-612.876398,-0.000000,10510.924376
2668.281036,306.438199,666.185348,10436.903782
2668.281365,-306.438199,2368.659014,9178.553681
2668.281694,229.828649,2146.597232,8808.450710
2668.282023,-1072.533697,4515.256246,7550.100608
2668.282352,689.485948,3256.906145,9770.718434
2668.282681,1608.800546,2664.741391,8438.347739
2668.283011,2681.334243,3182.885551,8142.265362
2668.283340,2451.505594,1850.514855,8808.450710
2668.283669,2068.457845,444.123565,9474.636058
2668.283998,612.876398,1776.494261,9104.533087
2668.284327,76.609550,666.185348,9400.615463
2668.284656,-842.705048,1184.329507,10214.842000
2668.284985,-306.438199,2664.741391,10066.800811
2668.285314,-612.876398,1850.514855,9178.553681
2668.285643,-536.266849,592.164754,9548.656652
2668.285972,612.876398,-148.041188,10066.800811
2668.286301,766.095498,-370.102971,9400.615463
2668.286630,-842.705048,1258.350101,8882.471304
2668.286959,0.000000,1110.308913,8364.327145
2668.287289,2068.457845,1036.288319,7772.162391
2668.287618,2221.676944,1628.453072,7402.059420
2668.287947,689.485948,1184.329507,7550.100608
2668.288276,-766.095498,1110.308913,9252.574275
2668.288605,-689.485948,-1110.308913,9844.739029
2668.288934,689.485948,-222.061783,9622.677246
2668.289263,-306.438199,-592.164754,9326.594869
2668.289592,-2451.505594,-1554.432478,10955.047942
2668.289921,-2757.943793,-1184.329507,10584.944971
2668.290250,-1302.362347,-592.164754,10436.903782
2668.290579,-459.657299,-296.082377,8290.306550
2668.290908,-1072.533697,666.185348,9104.533087
2668.291237,-1072.533697,592.164754,9104.533087
2668.291566,536.266849,296.082377,7328.038826
2668.291896,1608.800546,740.205942,6069.688724
2668.292225,1532.190996,-0.000000,6217.729913
2668.292554,995.924147,-74.020594,7550.100608
2668.292883,383.047749,-962.267725,9030.512492
2668.293212,1302.362347,-1332.370696,8512.368333
2668.293541,-229.828649,-1110.308913,8586.388927
2668.293870,-1225.752797,-1628.453072,10584.944971
2668.294199,-1378.971896,-1850.514855,11251.130318
2668.294528,-459.657299,-1554.432478,10288.862594
2668.294857,76.609550,-518.144159,9326.594869
2668.295186,-842.705048,-0.000000,9696.697840
2668.295515,-919.314598,-148.041188,10362.883188
2668.295844,766.095498,-148.041188,10140.821405
2668.296174,2145.067394,-444.123565,8586.388927
2668.296503,1532.190996,518.144159,7846.182985
2668.296832,1072.533697,370.102971,8290.306550
2668.297161,1762.019645,-74.020594,8142.265362
2668.297490,2374.896044,296.082377,7105.977043
2668.297819,1608.800546,444.123565,6957.935855
2668.298148,229.828649,-0.000000,8956.491898
2668.298477,995.924147,-814.226536,9992.780217
2668.298806,1532.190996,-962.267725,9696.697840
2668.299135,689.485948,-370.102971,9104.533087
2668.299464,-766.095498,-444.123565,10362.883188
2668.299793,-229.828649,-1480.411884,11695.253884
2668.300122,306.438199,-222.061783,10140.821405
2668.300451,1149.143247,370.102971,9400.615463
2668.300781,0.000000,1184.329507,9400.615463
2668.301110,-76.609550,296.082377,9400.615463
2668.301439,842.705048,-0.000000,9400.615463
2668.301768,1378.971896,592.164754,7624.121203
2668.302097,0.000000,1036.288319,7550.100608
2668.302426,-536.266849,-666.185348,8512.368333
2668.302755,306.438199,-1258.350101,8586.388927
2668.303084,995.924147,-296.082377,7846.182985
2668.303413,383.047749,-666.185348,8290.306550
2668.303742,-306.438199,-1110.308913,9918.759623
2668.304071,306.438199,-592.164754,9992.780217
2668.304400,995.924147,370.102971,9474.636058
2668.304729,1072.533697,1184.329507,9400.615463
2668.305059,0.000000,962.267725,9844.739029
2668.305388,383.047749,518.144159,10214.842000
2668.305717,1685.410096,962.267725,8882.471304
2668.306046,689.485948,888.247130,8734.430116
2668.306375,-842.705048,592.164754,9696.697840
2668.306704,-689.485948,-222.061783,9326.594869
2668.307033,0.000000,-444.123565,8808.450710
2668.307362,-995.924147,370.102971,8142.265362
2668.307691,-1455.581446,-296.082377,8734.430116
2668.308020,-1302.362347,-1332.370696,9178.553681
2668.308349,306.438199,-962.267725,8882.471304
2668.308678,459.657299,-518.144159,8734.430116
2668.309007,153.219100,-1258.350101,9548.656652
2668.309336,766.095498,-296.082377,10436.903782
2668.309666,2451.505594,444.123565,8808.450710
2668.309995,2298.286494,2146.597232,8216.285956
2668.310324,1455.581446,2368.659014,9400.615463
2668.310653,1302.362347,1480.411884,9400.615463
2668.310982,2068.457845,814.226536,8808.450710
2668.311311,2068.457845,888.247130,8438.347739
2668.311640,76.609550,-222.061783,9178.553681
2668.311969,-1225.752797,-1258.350101,9770.718434
2668.312298,-766.095498,-2220.617826,10066.800811
2668.312627,-459.657299,-1480.411884,8512.368333
2668.312956,-1608.800546,-518.144159,8512.368333
2668.313285,-2068.457845,-888.247130,9326.594869
2668.313614,-612.876398,-2072.576638,10288.862594
2668.313944,153.219100,-1184.329507,8734.430116
2668.314273,919.314598,-518.144159,7994.224174
2668.314602,612.876398,444.123565,9548.656652
2668.314931,1302.362347,222.061783,9770.718434
2668.315260,2221.676944,1406.391290,8290.306550
2668.315589,2221.676944,1776.494261,7920.203579
2668.315918,1838.629195,1406.391290,8882.471304
2668.316247,842.705048,-222.061783,9104.533087
2668.316576,842.705048,-0.000000,8512.368333
2668.316905,229.828649,-666.185348,8808.450710
2668.317234,-1455.581446,-1628.453072,9104.533087
2668.317563,-2451.505594,-3182.885551,10288.862594
2668.317892,-2298.286494,-2812.782580,9770.718434
2668.318221,-1685.410096,-2368.659014,8364.327145
2668.318551,-2221.676944,-1702.473667,8660.409521
2668.318880,-2068.457845,-2368.659014,10066.800811
2668.319209,0.000000,-1480.411884,9474.636058
2668.319538,1532.190996,-148.041188,8438.347739
2668.319867,1532.190996,-370.102971,8734.430116
2668.320196,1608.800546,296.082377,9252.574275
2668.320525,3294.210641,-0.000000,9326.594869
2668.320854,3830.477490,1036.288319,7772.162391
2668.321183,2681.334243,1776.494261,7920.203579
2668.321512,919.314598,1554.432478,9622.677246
2668.321841,1302.362347,-222.061783,8956.491898
2668.322170,842.705048,296.082377,8364.327145
2668.322499,-536.266849,-1110.308913,8438.347739
2668.322829,-1455.581446,-1998.556043,9696.697840
2668.323158,-1762.019645,-2960.823768,10732.986159
2668.323487,-1991.848295,-3034.844362,10066.800811
2668.323816,-995.924147,-2146.597232,8216.285956
2668.324145,-1378.971896,-518.144159,9178.553681
2668.324474,0.000000,-888.247130,9844.739029
2668.324803,1838.629195,-444.123565,8586.388927
2668.325132,2757.943793,962.267725,7994.224174
2668.325461,2987.772442,1184.329507,8068.244768
2668.325790,2757.943793,1702.473667,8808.450710
2668.326119,3064.381992,1776.494261,8142.265362
2668.326448,2987.772442,2516.700203,7476.080014
2668.326777,1608.800546,2220.617826,8290.306550
2668.327106,612.876398,592.164754,8364.327145
2668.327436,76.609550,-814.226536,9474.636058
2668.327765,-1378.971896,-962.267725,8882.471304
2668.328094,-1991.848295,-962.267725,8734.430116
2668.328423,-3217.601092,-1924.535449,10510.924376
2668.328752,-2681.334243,-2664.741391,10584.944971
2668.329081,-1991.848295,-1628.453072,9400.615463
2668.329410,-1991.848295,-222.061783,9252.574275
2668.329739,-1685.410096,-148.041188,9252.574275
2668.330068,383.047749,-0.000000,10214.842000
2668.330397,2374.896044,666.185348,8438.347739
2668.330727,2987.772442,1184.329507,8586.388927
2668.331056,2374.896044,1850.514855,8586.388927
2668.331385,2451.505594,2146.597232,8364.327145
2668.331714,2911.162892,2516.700203,7920.203579
2668.332043,2068.457845,2072.576638,8290.306550
2668.332372,0.000000,1036.288319,9104.533087
2668.332701,-612.876398,-370.102971,9474.636058
2668.333031,-842.705048,-1184.329507,9326.594869
2668.333360,-1915.238745,-1702.473667,9622.677246
2668.333689,-3064.381992,-1924.535449,9992.780217
2668.334018,-3447.429741,-3182.885551,11103.089130
2668.334347,-2298.286494,-2886.803174,11103.089130
2668.334676,-995.924147,-1036.288319,9252.574275
2668.335005,-766.095498,-296.082377,9992.780217
2668.335335,536.266849,296.082377,10214.842000
2668.335664,3217.601092,740.205942,8734.430116
2668.335993,3983.696590,1406.391290,7698.141797
2668.336322,3217.601092,2146.597232,7624.121203
2668.336651,2834.553343,1554.432478,8734.430116
2668.336980,3524.039291,1554.432478,8142.265362
2668.337309,3447.429741,2368.659014,6661.853478
2668.337639,2681.334243,1554.432478,7179.997637
2668.337968,229.828649,666.185348,8808.450710
2668.338297,-536.266849,-1332.370696,9770.718434
2668.338626,-1149.143247,-2072.576638,8956.491898
2668.338955,-2298.286494,-2072.576638,9400.615463
2668.339284,-3370.820191,-2220.617826,10140.821405
2668.339613,-2451.505594,-2812.782580,11547.212695
2668.339943,-1838.629195,-1776.494261,9918.759623
2668.340272,-919.314598,-1110.308913,9696.697840
2668.340601,-153.219100,-0.000000,9252.574275
2668.340930,1685.410096,222.061783,9696.697840
2668.341259,3753.867940,1258.350101,8068.244768
2668.341588,3983.696590,1702.473667,7031.956449
2668.341917,2911.162892,2146.597232,7476.080014
2668.342247,2834.553343,1406.391290,8660.409521
2668.342576,2911.162892,2294.638420,7476.080014
2668.342905,2681.334243,1554.432478,6883.915261
2668.343234,612.876398,-148.041188,8512.368333
2668.343563,-1608.800546,-1480.411884,9548.656652
2668.343892,-1991.848295,-3404.947333,11029.068536
2668.344221,-2604.724693,-4071.132681,9622.677246
2668.344551,-3600.648841,-3404.947333,10288.862594
2668.344880,-3447.429741,-2812.782580,11177.109724
2668.345209,-2681.334243,-2960.823768,10584.944971
2668.345538,-1532.190996,-1628.453072,9474.636058
2668.345867,-459.657299,-444.123565,8808.450710
2668.346196,919.314598,222.061783,9548.656652
2668.346525,2068.457845,-0.000000,8512.368333
2668.346855,3524.039291,296.082377,7179.997637
2668.347184,3217.601092,1110.308913,7772.162391
2668.347513,2221.676944,1184.329507,7846.182985
2668.347842,2834.553343,-0.000000,7994.224174
2668.348171,2834.553343,518.144159,7550.100608
2668.348500,1685.410096,444.123565,7772.162391
2668.348829,-229.828649,-0.000000,8956.491898
2668.349159,-1302.362347,-1184.329507,9696.697840
2668.349488,-1685.410096,-1924.535449,9918.759623
2668.349817,-1762.019645,-1628.453072,9696.697840
2668.350146,-2757.943793,-2146.597232,9992.780217
2668.350475,-2528.115143,-1850.514855,10807.006753
2668.350804,-1532.190996,-888.247130,9918.759623
2668.351134,-995.924147,-592.164754,9400.615463
2668.351463,-612.876398,370.102971,9252.574275
2668.351792,1302.362347,-74.020594,9844.739029
2668.352121,3370.820191,1110.308913,8142.265362
2668.352450,3983.696590,1628.453072,7920.203579
2668.352779,2987.772442,2072.576638,8142.265362
2668.353108,2451.505594,1776.494261,9104.533087
2668.353438,3140.991542,2368.659014,7920.203579
2668.353767,3524.039291,1702.473667,7624.121203
2668.354096,2145.067394,2072.576638,8290.306550
2668.354425,0.000000,962.267725,8808.450710
2668.354754,-459.657299,-0.000000,10066.800811
2668.355083,-1225.752797,-518.144159,9696.697840
2668.355412,-1915.238745,-592.164754,9992.780217
2668.355742,-3140.991542,-1110.308913,10436.903782
2668.356071,-3064.381992,-1628.453072,11473.192101
2668.356400,-2374.896044,-1184.329507,10955.047942
2668.356729,-1991.848295,-74.020594,9104.533087
2668.357058,-1532.190996,-0.000000,9844.739029
2668.357387,306.438199,-148.041188,11251.130318
2668.357716,2145.067394,-444.123565,8438.347739
2668.358046,2451.505594,740.205942,7105.977043
2668.358375,2681.334243,1480.411884,8068.244768
2668.358704,2604.724693,592.164754,8586.388927
2668.359033,3370.820191,1554.432478,8290.306550
2668.359362,3370.820191,2664.741391,6809.894666
2668.359691,1915.238745,2294.638420,7328.038826
2668.360020,229.828649,1258.350101,8142.265362
2668.360350,-153.219100,-0.000000,9104.533087
2668.360679,-1225.752797,-1406.391290,9104.533087
2668.361008,-3524.039291,-2368.659014,9844.739029
2668.361337,-3217.601092,-2812.782580,10732.986159
2668.361666,-3753.867940,-3775.050304,11325.150913
2668.361995,-2834.553343,-2368.659014,10214.842000
2668.362324,-2987.772442,-1850.514855,9104.533087
2668.362654,-1608.800546,-1628.453072,10584.944971
2668.362983,229.828649,-592.164754,9622.677246
2668.363312,3600.648841,-0.000000,8734.430116
2668.363641,3600.648841,1702.473667,7179.997637
2668.363970,2451.505594,1184.329507,8512.368333
2668.364299,3524.039291,1554.432478,8512.368333
2668.364628,3983.696590,2072.576638,7031.956449
2668.364958,3370.820191,2146.597232,7920.203579
2668.365287,2374.896044,2294.638420,8512.368333
2668.365616,2298.286494,1924.535449,7550.100608
2668.365945,2068.457845,518.144159,8586.388927
2668.366274,-306.438199,-1036.288319,9252.574275
2668.366603,-2604.724693,-1406.391290,9844.739029
2668.366932,-3217.601092,-2368.659014,11843.295072
2668.367262,-3140.991542,-4515.256246,11325.150913
2668.367591,-3140.991542,-2442.679609,10140.821405
2668.367920,-2221.676944,-2368.659014,9622.677246
2668.368249,-2145.067394,-2146.597232,11695.253884
2668.368578,536.266849,-2738.761985,10288.862594
2668.368907,3830.477490,370.102971,8438.347739
2668.369236,3677.258390,2146.597232,7476.080014
2668.369566,3600.648841,1702.473667,8660.409521
2668.369895,3370.820191,1184.329507,8068.244768
2668.370224,4060.306139,2664.741391,6809.894666
2668.370553,2757.943793,2738.761985,7328.038826
2668.370882,2374.896044,2220.617826,8364.327145
2668.371211,1838.629195,2590.720797,6661.853478
2668.371540,2604.724693,1554.432478,6513.812290
2668.371870,-229.828649,-518.144159,7254.018232
2668.372199,-2911.162892,-6291.750507,11251.130318
2668.372528,-3677.258390,-4293.194464,10436.903782
2668.372857,-3217.601092,-4737.318029,11251.130318
2668.373186,-4213.525239,-4145.153275,9992.780217
2668.373515,-4596.572988,-1776.494261,11251.130318
2668.373844,-2451.505594,-2886.803174,11473.192101
2668.374174,-1838.629195,-888.247130,9178.553681
2668.374503,1608.800546,-148.041188,10881.027347
2668.374832,1685.410096,296.082377,8142.265362
2668.375161,4060.306139,1554.432478,9474.636058
2668.375490,4136.915689,1036.288319,7031.956449
2668.375819,2911.162892,962.267725,6439.791695
2668.376148,2374.896044,2886.803174,7994.224174
2668.376478,2451.505594,2368.659014,7105.977043
2668.376807,2987.772442,2368.659014,7328.038826
2668.377136,2068.457845,3182.885551,5847.626942
2668.377465,612.876398,1036.288319,7105.977043
2668.377794,-2604.724693,-1850.514855,9696.697840
2668.378123,-2374.896044,-5033.400406,12509.480420
2668.378452,-3140.991542,-1628.453072,10658.965565
2668.378782,-3447.429741,-4737.318029,11325.150913
2668.379111,-5286.058936,-1924.535449,10214.842000
2668.379440,-2834.553343,-2220.617826,13767.830521
2668.379769,0.000000,-444.123565,11251.130318
2668.380098,1455.581446,2442.679609,8142.265362
2668.380427,3370.820191,2886.803174,8364.327145
2668.380756,3907.087040,3478.967927,8808.450710
2668.381086,4136.915689,2812.782580,7550.100608
2668.381415,3370.820191,4293.194464,5033.400406
2668.381744,3064.381992,3256.906145,7105.977043
2668.382073,2528.115143,666.185348,8438.347739
2668.382402,3217.601092,2738.761985,6957.935855
2668.382731,2681.334243,3552.988522,6217.729913
2668.383060,766.095498,1850.514855,6513.812290
2668.383390,-689.485948,-888.247130,9548.656652
2668.383719,-1991.848295,-4145.153275,11325.150913
2668.384048,-3370.820191,-1554.432478,10584.944971
2668.384377,-4443.353888,-2442.679609,11695.253884
2668.384706,-4903.011187,-5625.565159,12435.459826
2668.385035,-2911.162892,-1480.411884,12287.418637
2668.385364,-842.705048,-1332.370696,9326.594869
2668.385694,-1455.581446,-1036.288319,10362.883188
2668.386023,842.705048,-740.205942,8956.491898
2668.386352,4366.744339,1184.329507,8290.306550
2668.386681,4366.744339,1998.556043,6217.729913
2668.387010,2221.676944,2368.659014,7105.977043
2668.387339,1991.848295,666.185348,7254.018232
2668.387668,3447.429741,1998.556043,7254.018232
2668.387998,3370.820191,-0.000000,6587.832884
2668.388327,2298.286494,2072.576638,6439.791695
2668.388656,383.047749,-1184.329507,9474.636058
2668.388985,-1762.019645,-4885.359217,11621.233289
2668.389314,-2145.067394,-1998.556043,9918.759623
2668.389643,-3294.210641,-2516.700203,11769.274478
2668.389972,-4979.620737,-3182.885551,11695.253884
2668.390302,-3907.087040,-1554.432478,11917.315666
2668.390631,-1991.848295,-2738.761985,8586.388927
2668.390960,-1225.752797,-814.226536,9548.656652
2668.391289,766.095498,-296.082377,10436.903782
2668.391618,3217.601092,-1332.370696,9252.574275
2668.391947,4443.353888,1110.308913,7328.038826
2668.392276,3600.648841,962.267725,6069.688724
2668.392606,2374.896044,1332.370696,7772.162391
2668.392935,2757.943793,2664.741391,7105.977043
2668.393264,4519.963438,1480.411884,6957.935855
2668.393593,3294.210641,1850.514855,6957.935855
2668.393922,1149.143247,3627.009116,6365.771101
2668.394251,1762.019645,740.205942,8142.265362
2668.394580,612.876398,-592.164754,9622.677246
2668.394910,-1302.362347,-2368.659014,11029.068536
2668.395239,-2374.896044,-2738.761985,9918.759623
2668.395568,-3983.696590,-2072.576638,12213.398043
2668.395897,-3600.648841,-6365.771101,12879.583391
2668.396226,-3217.601092,-2812.782580,10066.800811
2668.396555,-1991.848295,-1258.350101,10510.924376
2668.396884,-1072.533697,-148.041188,9696.697840
2668.397214,1608.800546,370.102971,8882.471304
2668.397543,3677.258390,1850.514855,7772.162391
2668.397872,3983.696590,1702.473667,7105.977043
2668.398201,2298.286494,1480.411884,8068.244768
2668.398530,2987.772442,-0.000000,6735.874072
2668.398859,4443.353888,888.247130,7550.100608
2668.399188,3370.820191,740.205942,7179.997637
2668.399518,1225.752797,222.061783,7846.182985
2668.399847,-1225.752797,-592.164754,10214.842000
2668.400176,-2068.457845,-2812.782580,10362.883188
2668.400505,-2681.334243,-666.185348,10140.821405
2668.400834,-3370.820191,-3478.967927,11473.192101
2668.401163,-4826.401637,-2368.659014,10436.903782
2668.401492,-3217.601092,-3108.864956,11177.109724
2668.401822,-2681.334243,-2368.659014,9104.533087
2668.402151,-2451.505594,-2146.597232,11621.233289
2668.402480,0.000000,-592.164754,11251.130318
2668.402809,3064.381992,-222.061783,7254.018232
2668.403138,4366.744339,1628.453072,6957.935855
2668.403467,1991.848295,2072.576638,6809.894666
2668.403796,2451.505594,1850.514855,9178.553681
2668.404126,2987.772442,4071.132681,6439.791695
2668.404455,4673.182538,2516.700203,6735.874072
2668.404784,2145.067394,2368.659014,7179.997637
2668.405113,766.095498,2738.761985,7402.059420
2668.405442,1225.752797,1628.453072,8142.265362
2668.405771,-229.828649,370.102971,8586.388927
2668.406100,-1685.410096,-1998.556043,10658.965565
2668.406430,-2604.724693,-814.226536,9992.780217
2668.406759,-2681.334243,-1702.473667,12731.542202
2668.407088,-2451.505594,-4515.256246,11029.068536
2668.407417,-2987.772442,-2368.659014,10510.924376
2668.407746,-689.485948,-444.123565,9918.759623
2668.408075,-229.828649,444.123565,9770.718434
2668.408405,2834.553343,1702.473667,9178.553681
2668.408734,3600.648841,2146.597232,7550.100608
2668.409063,2681.334243,2442.679609,8068.244768
2668.409392,2374.896044,1850.514855,8586.388927
2668.409721,3447.429741,1036.288319,6587.832884
2668.410050,3753.867940,2072.576638,8364.327145
2668.410379,2834.553343,1110.308913,7550.100608
2668.410709,1608.800546,2812.782580,7846.182985
2668.411038,1225.752797,-296.082377,9252.574275
2668.411367,-1072.533697,-1850.514855,10066.800811
2668.411696,-2221.676944,-2220.617826,9474.636058
2668.412025,-3600.648841,-2294.638420,11843.295072
2668.412354,-4060.306139,-5551.544565,12657.521608
2668.412683,-3524.039291,-2590.720797,9844.739029
2668.413013,-2987.772442,-2516.700203,10436.903782
2668.413342,-2374.896044,-1628.453072,12065.356855
2668.413671,153.219100,-592.164754,9548.656652
2668.414000,3907.087040,-296.082377,7846.182985
2668.414329,3600.648841,2442.679609,6735.874072
2668.414658,1915.238745,2146.597232,7254.018232
2668.414987,1762.019645,814.226536,7402.059420
2668.415317,3294.210641,2368.659014,6365.771101
2668.415646,3677.258390,1554.432478,7105.977043
2668.415975,1302.362347,1184.329507,6883.915261
2668.416304,-383.047749,-518.144159,8882.471304
2668.416633,-2374.896044,-3627.009116,10881.027347
2668.416962,-2298.286494,-2146.597232,9104.533087
2668.417291,-3753.867940,-2812.782580,10362.883188
2668.417621,-3294.210641,-3923.091493,11843.295072
2668.417950,-2834.553343,-1850.514855,10732.986159
2668.418279,-1532.190996,-2072.576638,8586.388927
2668.418608,-1072.533697,-74.020594,9252.574275
2668.418937,306.438199,-222.061783,10510.924376
2668.419266,3600.648841,222.061783,8956.491898
2668.419595,4903.011187,1332.370696,6291.750507
2668.419925,2757.943793,1036.288319,7105.977043
2668.420254,1915.238745,1406.391290,8438.347739
2668.420583,3064.381992,1850.514855,7624.121203
2668.420912,3830.477490,1702.473667,7105.977043
2668.421241,2451.505594,2294.638420,7328.038826
2668.421570,1455.581446,1332.370696,8216.285956
2668.421899,1302.362347,-1036.288319,9326.594869
2668.422229,-536.266849,-1628.453072,9844.739029
2668.422558,-1455.581446,-1554.432478,9474.636058
2668.422887,-2528.115143,-1184.329507,10955.047942
2668.423216,-2451.505594,-3108.864956,11695.253884
2668.423545,-1608.800546,-1554.432478,10066.800811
2668.423874,-842.705048,-1480.411884,9252.574275
2668.424203,-995.924147,-0.000000,10288.862594
2668.424533,995.924147,-1110.308913,9992.780217
2668.424862,2681.334243,296.082377,8882.471304
2668.425191,2911.162892,1554.432478,7328.038826
2668.425520,2145.067394,1332.370696,8290.306550
2668.425849,1378.971896,814.226536,8216.285956
2668.426178,2451.505594,370.102971,8290.306550
2668.426507,2068.457845,666.185348,7179.997637
2668.426837,995.924147,-0.000000,9178.553681
2668.427166,-842.705048,-444.123565,9770.718434
2668.427495,-1455.581446,-2368.659014,10732.986159
2668.427824,-2068.457845,-1036.288319,8882.471304
2668.428153,-2604.724693,-1184.329507,9918.759623
2668.428480,-2911.162892,-888.247130,10510.924376
2668.428809,-1302.362347,-2368.659014,10584.944971
2668.429138,-306.438199,-1258.350101,8808.450710
2668.429467,-612.876398,-1406.391290,8956.491898
2668.429796,-383.047749,-740.205942,9992.780217
2668.430125,1072.533697,-814.226536,8734.430116
2668.430454,2911.162892,740.205942,7698.141797
2668.430783,2757.943793,2442.679609,7994.224174
2668.431113,2145.067394,1406.391290,7846.182985
2668.431442,2068.457845,1776.494261,8068.244768
2668.431771,2911.162892,1850.514855,7550.100608
2668.432100,1762.019645,1554.432478,8290.306550
2668.432429,-229.828649,-0.000000,9474.636058
2668.432758,-842.705048,-740.205942,10140.821405
2668.433087,-459.657299,-1036.288319,9696.697840
2668.433416,-1685.410096,666.185348,9104.533087
2668.433745,-1685.410096,148.041188,9548.656652
2668.434074,-1378.971896,-0.000000,9918.759623
2668.434403,-306.438199,-0.000000,9104.533087
2668.434732,0.000000,-0.000000,9030.512492
2668.435061,0.000000,666.185348,9548.656652
2668.435391,766.095498,-0.000000,9918.759623
2668.435720,2068.457845,444.123565,9252.574275
2668.436049,2834.553343,1702.473667,7920.203579
2668.436378,2068.457845,1850.514855,8882.471304
2668.436707,1762.019645,888.247130,9178.553681
2668.437036,2221.676944,962.267725,8586.388927
2668.437365,2068.457845,814.226536,8216.285956
2668.437694,1608.800546,740.205942,8142.265362
2668.438023,459.657299,-74.020594,9918.759623
2668.438352,-766.095498,-1480.411884,10066.800811
2668.438681,-1149.143247,-740.205942,9252.574275
2668.439010,-2145.067394,-888.247130,9400.615463
2668.439340,-2757.943793,-1628.453072,10066.800811
2668.439669,-1915.238745,-2812.782580,11029.068536
2668.439998,-842.705048,-1776.494261,10066.800811
2668.440327,-1225.752797,-962.267725,9178.553681
2668.440656,-459.657299,-1184.329507,9992.780217
2668.440985,689.485948,-888.247130,9696.697840
2668.441314,2604.724693,740.205942,8512.368333
2668.441643,2451.505594,888.247130,7994.224174
2668.441972,1608.800546,1184.329507,8438.347739
2668.442301,1991.848295,518.144159,9178.553681
2668.442630,2834.553343,222.061783,8956.491898
2668.442959,1838.629195,666.185348,8142.265362
2668.443288,0.000000,592.164754,8216.285956
2668.443618,-689.485948,-888.247130,10214.842000
2668.443947,-995.924147,-740.205942,9400.615463
2668.444276,-1608.800546,-1184.329507,9030.512492
2668.444605,-2221.676944,-962.267725,9178.553681
2668.444934,-2757.943793,-1998.556043,10214.842000
2668.445263,-1225.752797,-2220.617826,10362.883188
2668.445592,0.000000,-1406.391290,8364.327145
2668.445921,0.000000,-444.123565,8512.368333
2668.446250,689.485948,-296.082377,9400.615463
2668.446579,2145.067394,592.164754,8808.450710
2668.446908,3524.039291,1110.308913,7476.080014
2668.447237,2911.162892,1480.411884,7402.059420
2668.447566,2987.772442,1406.391290,8586.388927
2668.447896,3140.991542,1184.329507,8216.285956
2668.448225,3217.601092,1480.411884,7254.018232
2668.448554,2374.896044,962.267725,7105.977043
2668.448883,0.000000,444.123565,9104.533087
2668.449212,-612.876398,-666.185348,9474.636058
2668.449541,-995.924147,-1554.432478,9474.636058
2668.449870,-2068.457845,-888.247130,9474.636058
2668.450199,-2528.115143,-1702.473667,10288.862594
2668.450528,-2451.505594,-3108.864956,10732.986159
2668.450857,-1685.410096,-2812.782580,9992.780217
2668.451186,-383.047749,-2368.659014,9696.697840
2668.451515,306.438199,-1184.329507,9326.594869
2668.451845,612.876398,-296.082377,10066.800811
2668.452174,2451.505594,222.061783,8364.327145
2668.452503,2834.553343,1702.473667,7698.141797
2668.452832,2068.457845,1850.514855,8290.306550
2668.453161,1685.410096,1850.514855,8142.265362
2668.453490,2374.896044,1258.350101,8586.388927
2668.453819,1838.629195,666.185348,8290.306550
2668.454148,0.000000,-0.000000,9178.553681
2668.454477,-1991.848295,-1184.329507,9992.780217
2668.454806,-1991.848295,-2738.761985,11029.068536
2668.455135,-2604.724693,-1110.308913,9992.780217
2668.455464,-2834.553343,-1258.350101,10066.800811
2668.455793,-3294.210641,-740.205942,9770.718434
2668.456123,-1762.019645,-888.247130,10510.924376
2668.456452,0.000000,-518.144159,9696.697840
2668.456781,766.095498,370.102971,8956.491898
2668.457110,1149.143247,666.185348,9400.615463
2668.457439,2298.286494,1406.391290,8512.368333
2668.457768,3524.039291,2146.597232,8142.265362
2668.458097,3370.820191,2664.741391,8290.306550
2668.458426,1991.848295,2220.617826,7994.224174
2668.458755,2221.676944,2442.679609,9030.512492
2668.459084,2987.772442,1776.494261,7550.100608
2668.459413,612.876398,1480.411884,7772.162391
2668.459742,-1455.581446,222.061783,9326.594869
2668.460072,-2221.676944,-666.185348,10436.903782
2668.460401,-1532.190996,-2886.803174,10881.027347
2668.460730,-2145.067394,-1554.432478,9326.594869
2668.461059,-1838.629195,-1332.370696,9696.697840
2668.461388,-1915.238745,-518.144159,9992.780217
2668.461717,0.000000,-592.164754,9474.636058
2668.462046,1991.848295,-222.061783,8438.347739
2668.462375,2451.505594,1702.473667,7920.203579
2668.462704,2834.553343,1184.329507,8660.409521
2668.463033,3294.210641,1332.370696,8290.306550
2668.463362,3064.381992,1258.350101,7846.182985
2668.463691,2681.334243,1702.473667,7920.203579
2668.464020,1915.238745,962.267725,7920.203579
2668.464350,1838.629195,-0.000000,8660.409521
2668.464679,1072.533697,-518.144159,8512.368333
2668.465008,-459.657299,-1702.473667,9326.594869
2668.465337,-2528.115143,-1110.308913,9696.697840
2668.465666,-2221.676944,-3552.988522,11177.109724
2668.465995,-3294.210641,-2368.659014,9548.656652
2668.466324,-2298.286494,-1554.432478,9992.780217
2668.466653,-2145.067394,-1554.432478,9770.718434
2668.466982,-1378.971896,-1850.514855,10436.903782
2668.467311,1608.800546,-1998.556043,9622.677246
2668.467640,2145.067394,-0.000000,7846.182985
2668.467969,2374.896044,814.226536,8956.491898
2668.468299,2451.505594,592.164754,8438.347739
2668.468628,2911.162892,1480.411884,7994.224174
2668.468957,2757.943793,2442.679609,7254.018232
2668.469286,1838.629195,2072.576638,7476.080014
2668.469615,1302.362347,740.205942,8586.388927
2668.469944,306.438199,-1258.350101,9474.636058
2668.470273,-536.266849,-1998.556043,9104.533087
2668.470602,-2528.115143,-1702.473667,9548.656652
2668.470931,-3524.039291,-2812.782580,10658.965565
2668.471260,-2911.162892,-2886.803174,10881.027347
2668.471589,-1915.238745,-1332.370696,10066.800811
2668.471918,-1762.019645,-1036.288319,8956.491898
2668.472247,-1532.190996,-444.123565,9178.553681
2668.472577,842.705048,-1406.391290,9400.615463
2668.472906,2604.724693,592.164754,8142.265362
2668.473235,2987.772442,888.247130,7624.121203
2668.473564,2681.334243,814.226536,8216.285956
2668.473893,2681.334243,1184.329507,7994.224174
2668.474222,3370.820191,1258.350101,8068.244768
2668.474551,2834.553343,1628.453072,7402.059420
2668.474880,1762.019645,1036.288319,7994.224174
2668.475209,1149.143247,-370.102971,9326.594869
2668.475538,383.047749,-1110.308913,9400.615463
2668.475867,-1302.362347,-1036.288319,9030.512492
2668.476196,-2604.724693,-1998.556043,10140.821405
2668.476526,-2604.724693,-3404.947333,11103.089130
2668.476855,-2068.457845,-2590.720797,10584.944971
2668.477184,-1455.581446,-1776.494261,9178.553681
2668.477513,-1915.238745,-592.164754,9918.759623
2668.477842,-459.657299,-666.185348,10066.800811
2668.478171,1378.971896,-518.144159,9030.512492
2668.478500,2604.724693,518.144159,7846.182985
2668.478829,2528.115143,1184.329507,7624.121203
2668.479158,1991.848295,962.267725,8734.430116
2668.479487,2604.724693,1184.329507,8438.347739
2668.479816,2604.724693,1924.535449,7402.059420
2668.480145,1915.238745,2146.597232,7772.162391
2668.480474,612.876398,814.226536,8734.430116
2668.480804,0.000000,-814.226536,9844.739029
2668.481133,-766.095498,-1258.350101,9178.553681
2668.481462,-2451.505594,-962.267725,8734.430116
2668.481791,-3217.601092,-1554.432478,11695.253884
2668.482120,-2911.162892,-3108.864956,11325.150913
2668.482449,-2068.457845,-2368.659014,9918.759623
2668.482778,-2068.457845,-888.247130,8956.491898
2668.483107,-1915.238745,-0.000000,9548.656652
2668.483436,-383.047749,-222.061783,9622.677246
2668.483765,2068.457845,-74.020594,8216.285956
2668.484094,3217.601092,1480.411884,7994.224174
2668.484423,2451.505594,1110.308913,7476.080014
2668.484752,2374.896044,1110.308913,8512.368333
2668.485082,3140.991542,1702.473667,7994.224174
2668.485411,2834.553343,2294.638420,7328.038826
2668.485740,1915.238745,2294.638420,8142.265362
2668.486069,1302.362347,1184.329507,8290.306550
2668.486398,1225.752797,148.041188,8956.491898
2668.486727,0.000000,-740.205942,9030.512492
2668.487056,-1762.019645,-666.185348,8808.450710
2668.487385,-2451.505594,-1480.411884,11029.068536
2668.487714,-2757.943793,-2516.700203,11473.192101
2668.488043,-1915.238745,-1184.329507,10066.800811
2668.488372,-1915.238745,-1332.370696,9696.697840
2668.488701,-1608.800546,-666.185348,10288.862594
2668.489031,689.485948,-1332.370696,9992.780217
2668.489360,2834.553343,-0.000000,7994.224174
2668.489689,3447.429741,1258.350101,7328.038826
2668.490018,2911.162892,1406.391290,8882.471304
2668.490347,2757.943793,1332.370696,8660.409521
2668.490676,3600.648841,1480.411884,8438.347739
2668.491005,2374.896044,2220.617826,7550.100608
2668.491334,2145.067394,2368.659014,8438.347739
2668.491663,1685.410096,1702.473667,7328.038826
2668.491992,2528.115143,444.123565,7994.224174
2668.492321,-306.438199,-148.041188,8142.265362
2668.492650,-1455.581446,-2960.823768,10436.903782
2668.492979,-3370.820191,-1480.411884,10362.883188
2668.493309,-2374.896044,-4441.235652,12065.356855
2668.493638,-3907.087040,-2368.659014,9770.718434
2668.493967,-3294.210641,-2072.576638,11547.212695
2668.494296,-2604.724693,-2072.576638,11325.150913
2668.494625,-919.314598,-962.267725,9474.636058
2668.494954,1838.629195,-148.041188,8882.471304
2668.495283,2374.896044,222.061783,8734.430116
2668.495612,2834.553343,962.267725,8734.430116
2668.495941,3753.867940,518.144159,7105.977043
2668.496270,3294.210641,1184.329507,7402.059420
2668.496599,2374.896044,2442.679609,7624.121203
2668.496928,1991.848295,1776.494261,7920.203579
2668.497258,2068.457845,1406.391290,7328.038826
2668.497587,1149.143247,-0.000000,7994.224174
2668.497916,-1302.362347,-1628.453072,9622.677246
2668.498245,-3753.867940,-1850.514855,9696.697840
2668.498574,-2987.772442,-3552.988522,11917.315666
2668.498903,-3447.429741,-3627.009116,10140.821405
2668.499232,-3677.258390,-1776.494261,10140.821405
2668.499561,-3217.601092,-2072.576638,10584.944971
2668.499890,-1915.238745,-1036.288319,9992.780217
2668.500219,612.876398,-1258.350101,8142.265362
2668.500548,3524.039291,444.123565,8438.347739
2668.500877,3064.381992,1480.411884,7476.080014
2668.501206,3524.039291,888.247130,8956.491898
2668.501536,3370.820191,1406.391290,7772.162391
2668.501865,3217.601092,2146.597232,7031.956449
2668.502194,2298.286494,2146.597232,8068.244768
2668.502523,2068.457845,1850.514855,7698.141797
2668.502852,2221.676944,1628.453072,8660.409521
2668.503181,2451.505594,1998.556043,6809.894666
2668.503510,1149.143247,1332.370696,7031.956449
2668.503839,-1225.752797,-2738.761985,9548.656652
2668.504168,-1915.238745,-4219.173869,11399.171507
2668.504497,-2298.286494,-2072.576638,9918.759623
2668.504826,-3830.477490,-4589.276840,10955.047942
2668.505155,-4290.134789,-2516.700203,11843.295072
2668.505485,-1991.848295,-2664.741391,12435.459826
2668.505814,76.609550,-1406.391290,9548.656652
2668.506143,1072.533697,1480.411884,9030.512492
2668.506472,2298.286494,814.226536,8808.450710
2668.506801,3983.696590,2516.700203,8956.491898
2668.507130,3677.258390,1480.411884,8290.306550
2668.507459,2911.162892,2368.659014,7328.038826
2668.507788,1762.019645,2294.638420,7994.224174
2668.508117,2374.896044,1480.411884,8438.347739
2668.508446,2145.067394,2146.597232,7179.997637
2668.508775,2374.896044,3330.926739,7179.997637
2668.509104,766.095498,888.247130,7031.956449
2668.509433,-842.705048,-1702.473667,9548.656652
2668.509763,-1915.238745,-3330.926739,10955.047942
2668.510092,-3217.601092,-2442.679609,10214.842000
2668.510421,-5132.839837,-4441.235652,11547.212695
2668.510750,-4749.792088,-3997.112087,11325.150913
2668.511079,-2604.724693,-2146.597232,12361.439231
2668.511408,-612.876398,-962.267725,10140.821405
2668.511737,0.000000,814.226536,9622.677246
2668.512066,3140.991542,962.267725,9474.636058
2668.512395,4136.915689,1998.556043,7920.203579
2668.512724,3217.601092,2516.700203,7402.059420
2668.513053,2528.115143,3330.926739,6439.791695
2668.513382,2221.676944,3182.885551,6883.915261
2668.513712,2911.162892,518.144159,8290.306550
2668.514041,2374.896044,1776.494261,5995.668130
2668.514370,1608.800546,2664.741391,7105.977043
2668.514699,306.438199,1184.329507,6809.894666
2668.515028,995.924147,-2146.597232,10288.862594
2668.515357,-1762.019645,-2886.803174,10658.965565
2668.515686,-2604.724693,-2812.782580,10066.800811
2668.516015,-4443.353888,-1628.453072,12065.356855
2668.516344,-3830.477490,-5847.626942,12731.542202
2668.516673,-2987.772442,-962.267725,10881.027347
2668.517002,0.000000,-1480.411884,10066.800811
2668.517331,536.266849,-0.000000,9400.615463
2668.517660,2374.896044,-0.000000,9548.656652
2668.517990,4519.963438,1332.370696,7254.018232
2668.518319,3677.258390,2738.761985,7328.038826
2668.518648,2068.457845,3330.926739,7846.182985
2668.518977,2374.896044,1998.556043,5995.668130
2668.519306,2911.162892,-0.000000,8734.430116
2668.519635,2145.067394,2146.597232,5773.606348
2668.519964,1608.800546,2664.741391,7550.100608
2668.520293,459.657299,-740.205942,8290.306550
2668.520622,-1838.629195,-4293.194464,10362.883188
2668.520951,-1532.190996,-3034.844362,11695.253884
2668.521280,-3370.820191,-1554.432478,10140.821405
2668.521609,-4673.182538,-5107.421000,13323.706956
2668.521938,-3830.477490,-2294.638420,10584.944971
2668.522268,-1302.362347,-1998.556043,12731.542202
2668.522597,-383.047749,-0.000000,9918.759623
2668.522926,536.266849,592.164754,9548.656652
2668.523255,3217.601092,-370.102971,9104.533087
2668.523584,4213.525239,1184.329507,7179.997637
2668.523913,3217.601092,2146.597232,7179.997637
2668.524242,1532.190996,1036.288319,7105.977043
2668.524571,2298.286494,2368.659014,7105.977043
2668.524900,3217.601092,1110.308913,7920.203579
2668.525229,2145.067394,888.247130,5995.668130
2668.525558,1072.533697,2812.782580,7179.997637
2668.525887,306.438199,-2442.679609,9696.697840
2668.526217,-842.705048,-3182.885551,11695.253884
2668.526546,-1685.410096,-2516.700203,8882.471304
2668.526875,-3217.601092,-1406.391290,11399.171507
2668.527204,-3907.087040,-3404.947333,11769.274478
2668.527533,-3064.381992,-2442.679609,10362.883188
2668.527862,-919.314598,-2368.659014,9622.677246
2668.528191,-689.485948,-222.061783,9252.574275
2668.528520,1991.848295,-1036.288319,10214.842000
2668.528849,4136.915689,-148.041188,8364.327145
2668.529178,3447.429741,1702.473667,6809.894666
2668.529507,2068.457845,1110.308913,8512.368333
2668.529836,1685.410096,2072.576638,7328.038826
2668.530165,3217.601092,1406.391290,8586.388927
2668.530495,3600.648841,1110.308913,7105.977043
2668.530824,1608.800546,2960.823768,6587.832884
2668.531153,1378.971896,1998.556043,8364.327145
2668.531482,919.314598,222.061783,8438.347739
2668.531811,459.657299,148.041188,9030.512492
2668.532140,-1072.533697,-2442.679609,10510.924376
2668.532469,-2834.553343,-370.102971,10214.842000
2668.532798,-3140.991542,-1998.556043,12657.521608
2668.533127,-3064.381992,-4737.318029,11325.150913
2668.533456,-2834.553343,-1110.308913,10955.047942
2668.533785,-1532.190996,-888.247130,10807.006753
2668.534114,-612.876398,-0.000000,9474.636058
2668.534443,1838.629195,1110.308913,8808.450710
2668.534772,3447.429741,2220.617826,7772.162391
2668.535101,2604.724693,2072.576638,7772.162391
2668.535430,1991.848295,1258.350101,8364.327145
2668.535759,2451.505594,1998.556043,6439.791695
2668.536088,3140.991542,1776.494261,7624.121203
2668.536417,1072.533697,2368.659014,7179.997637
2668.536746,842.705048,2590.720797,8660.409521
2668.537075,995.924147,888.247130,7031.956449
2668.537404,-459.657299,-888.247130,8216.285956
2668.537733,-3294.210641,-1998.556043,10658.965565
2668.538062,-3524.039291,-1850.514855,11399.171507
2668.538391,-3907.087040,-4811.338623,12435.459826
2668.538720,-3753.867940,-3330.926739,9548.656652
2668.539049,-2757.943793,-1998.556043,11917.315666
2668.539378,-1302.362347,-1480.411884,11251.130318
2668.539707,536.266849,-370.102971,9474.636058
2668.540036,3524.039291,-222.061783,8290.306550
2668.540365,3907.087040,2442.679609,7772.162391
2668.540695,2145.067394,1924.535449,8438.347739
2668.541024,2451.505594,2146.597232,7402.059420
2668.541353,3294.210641,2442.679609,7105.977043
2668.541682,2987.772442,592.164754,8068.244768
2668.542011,1838.629195,1554.432478,6587.832884
2668.542340,2374.896044,1406.391290,8586.388927
2668.542669,2221.676944,444.123565,7179.997637
2668.542998,1149.143247,-148.041188,8734.430116
2668.543327,-2068.457845,-2146.597232,10362.883188
2668.543656,-2528.115143,-2368.659014,10955.047942
2668.543985,-2757.943793,-2886.803174,11843.295072
2668.544314,-2987.772442,-5181.441594,11251.130318
2668.544643,-2987.772442,-2368.659014,11325.150913
2668.544972,-689.485948,-1184.329507,10510.924376
2668.545301,459.657299,-444.123565,8956.491898
2668.545630,2757.943793,1258.350101,8512.368333
2668.545959,3447.429741,1332.370696,7402.059420
2668.546288,2911.162892,1776.494261,8734.430116
2668.546617,3600.648841,1554.432478,7105.977043
2668.546946,3600.648841,2220.617826,5847.626942
2668.547275,2451.505594,1184.329507,8290.306550
2668.547604,1225.752797,1776.494261,7031.956449
2668.547933,1915.238745,1554.432478,8734.430116
2668.548262,1378.971896,370.102971,6735.874072
2668.548591,-459.657299,-2368.659014,8364.327145
2668.548920,-1149.143247,-3997.112087,10658.965565
2668.549249,-2681.334243,-2146.597232,10436.903782
2668.549578,-2834.553343,-4885.359217,12065.356855
2668.549907,-4060.306139,-3849.070898,10140.821405
2668.550236,-2911.162892,-1776.494261,12583.501014
2668.550565,-536.266849,-1110.308913,10436.903782
2668.550894,919.314598,222.061783,8512.368333
2668.551224,2528.115143,222.061783,7698.141797
2668.551553,3370.820191,1110.308913,8290.306550
2668.551882,2451.505594,666.185348,8290.306550
2668.552211,2987.772442,444.123565,6809.894666
2668.552540,2374.896044,1554.432478,6291.750507
2668.552869,1455.581446,1628.453072,7846.182985
2668.553198,689.485948,444.123565,7179.997637
2668.553527,459.657299,-740.205942,9326.594869
2668.553856,-995.924147,-3775.050304,9770.718434
2668.554185,-1991.848295,-1258.350101,9030.512492
2668.554514,-2834.553343,-2738.761985,11177.109724
2668.554843,-2757.943793,-3034.844362,10510.924376
2668.555172,-2374.896044,-1036.288319,10510.924376
2668.555501,-766.095498,-1332.370696,9622.677246
2668.555830,-536.266849,-148.041188,10288.862594
2668.556159,1915.238745,444.123565,9030.512492
2668.556488,4136.915689,1554.432478,7624.121203
2668.556817,3140.991542,2072.576638,7402.059420
2668.557146,1608.800546,1480.411884,8142.265362
2668.557475,1685.410096,1480.411884,7402.059420
2668.557804,2451.505594,2368.659014,7624.121203
2668.558133,2221.676944,1332.370696,7105.977043
2668.558462,1149.143247,2072.576638,7698.141797
2668.558791,995.924147,-1036.288319,9326.594869
2668.559120,-459.657299,-1850.514855,10214.842000
2668.559449,-1762.019645,-2072.576638,9400.615463
2668.559778,-2451.505594,-740.205942,10658.965565
2668.560107,-2528.115143,-2294.638420,11621.233289
2668.560436,-2068.457845,-592.164754,9622.677246
2668.560765,-612.876398,-814.226536,9844.739029
2668.561094,-229.828649,888.247130,8882.471304
2668.561423,153.219100,1036.288319,9548.656652
2668.561753,2374.896044,222.061783,9030.512492
2668.562082,2528.115143,2072.576638,7994.224174
2668.562411,1838.629195,1332.370696,8364.327145
2668.562740,1149.143247,592.164754,7550.100608
2668.563069,2145.067394,-74.020594,8586.388927
2668.563398,1608.800546,518.144159,8290.306550
2668.563727,766.095498,518.144159,8290.306550
2668.564056,-1302.362347,-222.061783,9844.739029
2668.564385,-1225.752797,-1258.350101,10658.965565
2668.564714,-1991.848295,-222.061783,9548.656652
2668.565043,-2374.896044,-888.247130,10214.842000
2668.565372,-2834.553343,-518.144159,10807.006753
2668.565701,-995.924147,-1702.473667,10807.006753
2668.566030,229.828649,-1258.350101,9252.574275
2668.566359,536.266849,-222.061783,9474.636058
