#time,accel_x,accel_y,accel_z
2635.642792,229.828649,-0.000000,9252.574275
2635.643122,536.266849,-222.061783,8882.471304
2635.643451,689.485948,-444.123565,8882.471304
2635.643780,229.828649,-518.144159,9104.533087
2635.644109,306.438199,-0.000000,9104.533087
2635.644438,229.828649,-0.000000,8956.491898
2635.644767,229.828649,-0.000000,8808.450710
2635.645097,306.438199,-148.041188,8956.491898
2635.645426,689.485948,-0.000000,8882.471304
2635.645755,306.438199,-222.061783,9030.512492
2635.646084,383.047749,-74.020594,8808.450710
2635.646413,153.219100,-0.000000,8882.471304
2635.646743,306.438199,-74.020594,8956.491898
2635.647072,383.047749,-74.020594,8956.491898
2635.647401,76.609550,-74.020594,9178.553681
2635.647730,229.828649,-444.123565,8956.491898
2635.648059,612.876398,-296.082377,9178.553681
2635.648389,842.705048,-370.102971,9178.553681
2635.648718,383.047749,-370.102971,8956.491898
2635.649047,153.219100,-148.041188,9104.533087
2635.649376,229.828649,-74.020594,9030.512492
2635.649705,459.657299,-222.061783,9104.533087
2635.650034,306.438199,-296.082377,9178.553681
2635.650364,383.047749,-296.082377,9178.553681
2635.650693,229.828649,-592.164754,9252.574275
2635.651022,229.828649,-444.123565,9252.574275
2635.651351,153.219100,-74.020594,9104.533087
2635.651680,459.657299,-148.041188,9178.553681
2635.652010,536.266849,-222.061783,8882.471304
2635.652339,612.876398,-0.000000,9104.533087
2635.652668,612.876398,-74.020594,9326.594869
2635.652997,842.705048,-74.020594,9104.533087
2635.653326,306.438199,-74.020594,9400.615463
2635.653655,229.828649,-74.020594,9104.533087
2635.653985,229.828649,-0.000000,9326.594869
2635.654314,306.438199,-74.020594,9030.512492
2635.654643,306.438199,-370.102971,9104.533087
2635.654972,612.876398,-222.061783,9104.533087
2635.655301,153.219100,-296.082377,9252.574275
2635.655631,383.047749,-148.041188,9104.533087
2635.655960,383.047749,-0.000000,9030.512492
2635.656289,229.828649,-0.000000,8956.491898
2635.656618,229.828649,-0.000000,8882.471304
2635.656947,536.266849,-0.000000,8882.471304
2635.657277,536.266849,-74.020594,8734.430116
2635.657606,0.000000,-592.164754,9178.553681
2635.657935,0.000000,-74.020594,9104.533087
2635.658264,306.438199,-148.041188,8808.450710
2635.658593,153.219100,-0.000000,8956.491898
2635.658922,306.438199,-222.061783,9030.512492
2635.659252,383.047749,-222.061783,8882.471304
2635.659581,383.047749,-222.061783,9104.533087
2635.659910,689.485948,-222.061783,9104.533087
2635.660239,0.000000,-148.041188,9104.533087
2635.660568,229.828649,-222.061783,9178.553681
2635.660898,306.438199,-74.020594,9104.533087
2635.661227,306.438199,-222.061783,9326.594869
2635.661556,459.657299,-296.082377,9178.553681
2635.661885,306.438199,-74.020594,9326.594869
2635.662214,459.657299,-222.061783,9474.636058
2635.662543,0.000000,-0.000000,9548.656652
2635.662873,306.438199,-296.082377,9252.574275
2635.663202,459.657299,-0.000000,9326.594869
2635.663531,306.438199,-222.061783,9252.574275
2635.663860,919.314598,-296.082377,9104.533087
2635.664189,76.609550,-222.061783,9326.594869
2635.664519,766.095498,-222.061783,9178.553681
2635.664848,459.657299,-222.061783,9326.594869
2635.665177,306.438199,-0.000000,8882.471304
2635.665506,459.657299,-74.020594,9104.533087
2635.665835,229.828649,-74.020594,9030.512492
2635.666165,383.047749,-148.041188,9178.553681
2635.666494,383.047749,-74.020594,9400.615463
2635.666823,536.266849,-0.000000,9178.553681
2635.667152,459.657299,-0.000000,8882.471304
2635.667481,306.438199,-0.000000,8956.491898
2635.667810,306.438199,-0.000000,8882.471304
2635.668140,306.438199,-0.000000,8882.471304
2635.668469,612.876398,-370.102971,9178.553681
2635.668798,383.047749,-296.082377,9104.533087
2635.669127,306.438199,-222.061783,8956.491898
2635.669456,-153.219100,-0.000000,9104.533087
2635.669786,0.000000,-148.041188,9030.512492
2635.670115,76.609550,-74.020594,9104.533087
2635.670444,306.438199,-222.061783,9104.533087
2635.670773,229.828649,-0.000000,9252.574275
2635.671102,383.047749,-518.144159,9178.553681
2635.671431,-229.828649,-222.061783,9252.574275
2635.671761,459.657299,-148.041188,9326.594869
2635.672090,459.657299,-74.020594,9104.533087
2635.672419,459.657299,-148.041188,9104.533087
2635.672748,383.047749,-148.041188,9178.553681
2635.673077,1072.533697,-222.061783,9400.615463
2635.673407,919.314598,-592.164754,9326.594869
2635.673736,229.828649,-222.061783,9326.594869
2635.674065,536.266849,-518.144159,9326.594869
2635.674394,229.828649,-148.041188,9252.574275
2635.674723,-306.438199,-74.020594,9400.615463
2635.675053,536.266849,-74.020594,9178.553681
2635.675382,459.657299,-0.000000,9178.553681
2635.675711,0.000000,-0.000000,9104.533087
2635.676040,383.047749,-148.041188,8882.471304
2635.676369,383.047749,-296.082377,8882.471304
2635.676698,383.047749,-296.082377,8586.388927
2635.677028,306.438199,-0.000000,9178.553681
2635.677357,536.266849,-0.000000,8882.471304
2635.677686,229.828649,-0.000000,8956.491898
2635.678015,153.219100,-74.020594,8808.450710
2635.678344,459.657299,-296.082377,8882.471304
2635.678674,459.657299,-148.041188,8586.388927
2635.679003,689.485948,-222.061783,9104.533087
2635.679332,306.438199,-296.082377,8882.471304
2635.679661,76.609550,-0.000000,8882.471304
2635.679990,0.000000,-0.000000,9030.512492
2635.680319,306.438199,-0.000000,8956.491898
2635.680649,306.438199,-0.000000,9030.512492
2635.680978,229.828649,-370.102971,8956.491898
2635.681307,229.828649,-370.102971,9178.553681
2635.681636,612.876398,-148.041188,9030.512492
2635.681965,229.828649,-148.041188,8956.491898
2635.682295,306.438199,-74.020594,9326.594869
2635.682624,306.438199,-222.061783,8956.491898
2635.682953,306.438199,-148.041188,9104.533087
2635.683282,229.828649,-518.144159,9326.594869
2635.683611,383.047749,-222.061783,8882.471304
2635.683941,689.485948,-222.061783,9178.553681
2635.684270,306.438199,-370.102971,9252.574275
2635.684599,229.828649,-222.061783,9252.574275
2635.684928,153.219100,-148.041188,9104.533087
2635.685257,383.047749,-296.082377,9104.533087
2635.685586,76.609550,-518.144159,9030.512492
2635.685916,919.314598,-296.082377,9400.615463
2635.686245,459.657299,-666.185348,9104.533087
2635.686574,229.828649,-0.000000,9178.553681
2635.686903,76.609550,-148.041188,8956.491898
2635.687232,229.828649,-74.020594,9104.533087
2635.687562,229.828649,296.082377,9252.574275
2635.687891,459.657299,-222.061783,9104.533087
2635.688220,536.266849,-370.102971,8956.491898
2635.688549,306.438199,-296.082377,8882.471304
2635.688878,229.828649,-0.000000,8882.471304
2635.689208,229.828649,-0.000000,8882.471304
2635.689537,383.047749,-74.020594,9104.533087
2635.689866,153.219100,-74.020594,8882.471304
2635.690195,229.828649,-0.000000,8882.471304
2635.690524,383.047749,-0.000000,9030.512492
2635.690853,-229.828649,-222.061783,8882.471304
2635.691183,229.828649,-0.000000,9178.553681
2635.691512,306.438199,-0.000000,8808.450710
2635.691841,383.047749,-0.000000,8882.471304
2635.692170,383.047749,-0.000000,8882.471304
2635.692499,229.828649,-518.144159,9030.512492
2635.692829,689.485948,-444.123565,9104.533087
2635.693158,1149.143247,-370.102971,9178.553681
2635.693487,153.219100,-370.102971,9030.512492
2635.693816,229.828649,-222.061783,9252.574275
2635.694145,306.438199,-148.041188,9104.533087
2635.694474,842.705048,-0.000000,9252.574275
2635.694804,459.657299,-296.082377,9400.615463
2635.695133,536.266849,-518.144159,8660.409521
2635.695462,612.876398,-296.082377,9178.553681
2635.695791,383.047749,-222.061783,9178.553681
2635.696120,536.266849,-148.041188,9104.533087
2635.696450,153.219100,-0.000000,9400.615463
2635.696779,383.047749,-296.082377,9474.636058
2635.697108,1302.362347,-1258.350101,9918.759623
2635.697437,1532.190996,-1110.308913,8956.491898
2635.697766,1532.190996,-222.061783,9696.697840
2635.698096,2068.457845,-518.144159,9400.615463
2635.698425,2145.067394,-0.000000,8808.450710
2635.698754,3140.991542,444.123565,8882.471304
2635.699083,4290.134789,-296.082377,8660.409521
2635.699412,4060.306139,-0.000000,8364.327145
2635.699741,3830.477490,592.164754,8660.409521
2635.700071,3600.648841,518.144159,7846.182985
2635.700400,2834.553343,-0.000000,9104.533087
2635.700729,3064.381992,-74.020594,8882.471304
2635.701058,1532.190996,-296.082377,9178.553681
2635.701387,1608.800546,-1480.411884,9844.739029
2635.701717,2681.334243,-1776.494261,9104.533087
2635.702046,1991.848295,-0.000000,9400.615463
2635.702375,1762.019645,-1184.329507,10214.842000
2635.702704,2987.772442,-1036.288319,9400.615463
2635.703033,3370.820191,296.082377,9252.574275
2635.703362,4903.011187,962.267725,8364.327145
2635.703692,4826.401637,888.247130,7698.141797
2635.704021,4673.182538,1406.391290,9252.574275
2635.704350,5362.668486,1258.350101,7476.080014
2635.704679,4443.353888,888.247130,7994.224174
2635.705008,3753.867940,592.164754,9326.594869
2635.705338,2757.943793,-74.020594,8512.368333
2635.705667,2068.457845,-444.123565,9474.636058
2635.705996,689.485948,-1258.350101,9622.677246
2635.706325,1532.190996,-1110.308913,10140.821405
2635.706654,459.657299,-1480.411884,9992.780217
2635.706984,1532.190996,-740.205942,9918.759623
2635.707313,1225.752797,-962.267725,10140.821405
2635.707642,3217.601092,666.185348,9400.615463
2635.707971,2987.772442,370.102971,9104.533087
2635.708300,4366.744339,1554.432478,9326.594869
2635.708629,4596.572988,814.226536,7994.224174
2635.708959,4519.963438,1258.350101,7994.224174
2635.709288,4290.134789,888.247130,9474.636058
2635.709617,4060.306139,-0.000000,8882.471304
2635.709946,3064.381992,-148.041188,9326.594869
2635.710275,2604.724693,-1702.473667,9844.739029
2635.710605,2145.067394,-1258.350101,10658.965565
2635.710934,1685.410096,-2220.617826,9696.697840
2635.711263,1991.848295,-1998.556043,10362.883188
2635.711592,2374.896044,-1258.350101,9918.759623
2635.711921,3907.087040,-444.123565,9474.636058
2635.712250,3753.867940,666.185348,8438.347739
2635.712580,4443.353888,1480.411884,8808.450710
2635.712909,4443.353888,2516.700203,7772.162391
2635.713238,4903.011187,2812.782580,7328.038826
2635.713567,4519.963438,2738.761985,7179.997637
2635.713896,4213.525239,2146.597232,7550.100608
2635.714226,4519.963438,888.247130,7772.162391
2635.714555,3294.210641,-444.123565,8734.430116
2635.714884,2987.772442,-1628.453072,9844.739029
2635.715213,1991.848295,-2664.741391,9770.718434
2635.715542,1685.410096,-3108.864956,10584.944971
2635.715872,2068.457845,-3108.864956,10807.006753
2635.716201,2911.162892,-2442.679609,10288.862594
2635.716530,3600.648841,-814.226536,10214.842000
2635.716859,4903.011187,592.164754,9770.718434
2635.717188,5745.716235,1850.514855,8956.491898
2635.717517,5898.935335,2664.741391,7994.224174
2635.717847,5286.058936,3034.844362,7920.203579
2635.718176,4596.572988,3701.029710,7105.977043
2635.718505,4443.353888,2960.823768,7031.956449
2635.718834,3370.820191,592.164754,7772.162391
2635.719163,1838.629195,-1406.391290,9252.574275
2635.719493,0.000000,-3552.988522,10510.924376
2635.719822,-995.924147,-4145.153275,11177.109724
2635.720151,-919.314598,-5181.441594,12065.356855
2635.720480,-842.705048,-2886.803174,10214.842000
2635.720809,0.000000,-1998.556043,11621.233289
2635.721138,536.266849,-592.164754,10510.924376
2635.721468,2451.505594,888.247130,10066.800811
2635.721797,4596.572988,962.267725,10955.047942
2635.722126,7048.078582,2368.659014,7920.203579
2635.722455,6894.859482,1258.350101,7772.162391
2635.722784,5745.716235,1258.350101,7105.977043
2635.723114,6205.373534,2738.761985,6587.832884
2635.723443,6052.154434,2590.720797,7105.977043
2635.723772,4826.401637,2442.679609,5773.606348
2635.724101,4903.011187,3404.947333,6809.894666
2635.724430,4903.011187,1332.370696,5995.668130
2635.724760,3983.696590,-1110.308913,7476.080014
2635.725089,383.047749,-5995.668130,11547.212695
2635.725418,-383.047749,-6439.791695,12879.583391
2635.725747,-1915.238745,-3404.947333,11917.315666
2635.726076,-995.924147,-7105.977043,13915.871710
2635.726405,-1991.848295,-1036.288319,10214.842000
2635.726735,2145.067394,-0.000000,12213.398043
2635.727064,3753.867940,1184.329507,10214.842000
2635.727393,6205.373534,2368.659014,8660.409521
2635.727722,7890.783629,1184.329507,9696.697840
2635.728051,7201.297681,2664.741391,7920.203579
2635.728381,8350.440928,4441.235652,5773.606348
2635.728710,7507.735880,1924.535449,5773.606348
2635.729039,7431.126331,1480.411884,5255.462188
2635.729368,7048.078582,2590.720797,6587.832884
2635.729697,5975.544884,370.102971,7031.956449
2635.730026,4213.525239,2442.679609,5255.462188
2635.730356,4060.306139,-2146.597232,10066.800811
2635.730685,-229.828649,-5329.482782,14285.974681
2635.731014,-2757.943793,-4441.235652,11769.274478
2635.731343,-2221.676944,-1406.391290,13989.892304
2635.731672,-1455.581446,-6439.791695,12731.542202
2635.732002,-1455.581446,1702.473667,11103.089130
2635.732331,2374.896044,-592.164754,12065.356855
2635.732660,229.828649,2590.720797,9104.533087
2635.732989,1532.190996,-74.020594,13915.871710
2635.733318,7431.126331,-296.082377,8142.265362
2635.733648,9882.631924,2072.576638,7994.224174
2635.733977,6358.592633,1480.411884,6587.832884
2635.734306,6971.469032,1258.350101,4367.215058
2635.734635,6818.249932,1776.494261,8882.471304
2635.734964,6511.811733,1184.329507,6587.832884
2635.735293,5515.887586,3034.844362,5551.544565
2635.735623,3370.820191,1924.535449,8586.388927
2635.735952,2451.505594,740.205942,7994.224174
2635.736281,1532.190996,-0.000000,9992.780217
2635.736610,0.000000,-3997.112087,11103.089130
2635.736940,-383.047749,-518.144159,10288.862594
2635.737269,-459.657299,-5033.400406,13841.851115
2635.737598,-1685.410096,-3256.906145,10510.924376
2635.737927,-383.047749,-0.000000,11325.150913
2635.738257,919.314598,-148.041188,10732.986159
2635.738586,1455.581446,1628.453072,8068.244768
2635.738915,2987.772442,370.102971,7920.203579
2635.739244,4060.306139,962.267725,8216.285956
2635.739574,3600.648841,1998.556043,6735.874072
2635.739903,3140.991542,222.061783,7476.080014
2635.740232,2834.553343,-592.164754,6957.935855
2635.740561,1991.848295,-962.267725,8216.285956
2635.740891,842.705048,-2072.576638,9104.533087
2635.741220,-1302.362347,-814.226536,10066.800811
2635.741549,-2145.067394,-1480.411884,10436.903782
2635.741879,-1149.143247,-74.020594,10362.883188
2635.742208,-995.924147,518.144159,9178.553681
2635.742537,-1149.143247,-814.226536,10214.842000
2635.742866,-1455.581446,-370.102971,9992.780217
2635.743196,-153.219100,-0.000000,9696.697840
2635.743525,306.438199,1110.308913,9104.533087
2635.743854,1302.362347,444.123565,8512.368333
2635.744183,1532.190996,-1036.288319,8734.430116
2635.744513,1532.190996,-1776.494261,8882.471304
2635.744842,1225.752797,-0.000000,8512.368333
2635.745171,1225.752797,518.144159,8290.306550
2635.745500,612.876398,666.185348,8290.306550
2635.745830,842.705048,-444.123565,9474.636058
2635.746159,76.609550,-1110.308913,9400.615463
2635.746488,-153.219100,-370.102971,9178.553681
2635.746818,76.609550,666.185348,9696.697840
2635.747147,229.828649,518.144159,10140.821405
2635.747476,383.047749,-222.061783,9622.677246
2635.747805,919.314598,370.102971,9696.697840
2635.748135,2221.676944,444.123565,8734.430116
2635.748464,2298.286494,518.144159,8586.388927
2635.748793,1915.238745,222.061783,8068.244768
2635.749122,2145.067394,-222.061783,9178.553681
2635.749452,2451.505594,-148.041188,9400.615463
2635.749781,2757.943793,-0.000000,8586.388927
2635.750110,2145.067394,962.267725,8142.265362
2635.750439,1455.581446,-148.041188,8290.306550
2635.750769,536.266849,-1036.288319,9178.553681
2635.751098,383.047749,-1110.308913,10066.800811
2635.751427,229.828649,-0.000000,9178.553681
2635.751757,0.000000,148.041188,9844.739029
2635.752086,-842.705048,666.185348,9844.739029
2635.752415,-1685.410096,-444.123565,9696.697840
2635.752744,-1149.143247,-518.144159,9474.636058
2635.753074,-612.876398,518.144159,8586.388927
2635.753403,0.000000,518.144159,9030.512492
2635.753732,76.609550,-74.020594,9178.553681
2635.754061,76.609550,-1924.535449,9770.718434
2635.754391,0.000000,-1702.473667,9178.553681
2635.754720,612.876398,-148.041188,8808.450710
2635.755049,689.485948,296.082377,8512.368333
2635.755378,459.657299,888.247130,8512.368333
2635.755708,153.219100,-0.000000,9104.533087
2635.756037,689.485948,-0.000000,8512.368333
2635.756366,536.266849,1406.391290,7254.018232
2635.756696,383.047749,148.041188,7846.182985
2635.757025,-229.828649,-0.000000,8734.430116
2635.757354,-1838.629195,-518.144159,9548.656652
2635.757683,-1608.800546,-1406.391290,10066.800811
2635.758013,-995.924147,-0.000000,9474.636058
2635.758342,-1302.362347,-222.061783,8882.471304
2635.758671,-842.705048,-148.041188,8586.388927
2635.759000,-689.485948,-1924.535449,9178.553681
2635.759330,-536.266849,-666.185348,9400.615463
2635.759659,995.924147,-370.102971,8882.471304
2635.759988,76.609550,-444.123565,8660.409521
2635.760317,-536.266849,-1850.514855,9548.656652
2635.760647,766.095498,-1850.514855,9696.697840
2635.760976,1378.971896,-740.205942,8364.327145
2635.761305,2068.457845,592.164754,8364.327145
2635.761635,1762.019645,888.247130,8808.450710
2635.761964,919.314598,962.267725,8956.491898
2635.762293,612.876398,370.102971,8586.388927
2635.762622,1532.190996,518.144159,8068.244768
2635.762952,1378.971896,370.102971,8512.368333
2635.763281,536.266849,-0.000000,8438.347739
2635.763610,-459.657299,-1628.453072,9548.656652
2635.763939,-1149.143247,-2146.597232,9622.677246
2635.764269,-459.657299,-1332.370696,9474.636058
2635.764598,0.000000,-444.123565,9400.615463
2635.764927,-536.266849,-148.041188,8882.471304
2635.765256,-229.828649,-592.164754,9400.615463
2635.765586,153.219100,-666.185348,10214.842000
2635.765915,1915.238745,888.247130,8586.388927
2635.766244,2068.457845,1184.329507,8216.285956
2635.766574,1915.238745,962.267725,8586.388927
2635.766903,1455.581446,666.185348,8808.450710
2635.767232,2221.676944,-592.164754,9252.574275
2635.767561,1685.410096,518.144159,8068.244768
2635.767891,536.266849,1036.288319,8364.327145
2635.768220,0.000000,148.041188,9326.594869
2635.768549,-383.047749,-592.164754,9844.739029
2635.768878,-229.828649,-740.205942,9474.636058
2635.769208,0.000000,-0.000000,8216.285956
2635.769537,0.000000,-370.102971,8956.491898
2635.769866,-383.047749,-370.102971,9548.656652
2635.770195,-1608.800546,-1110.308913,10214.842000
2635.770525,306.438199,-1184.329507,9992.780217
2635.770854,153.219100,148.041188,9030.512492
2635.771183,459.657299,1702.473667,8660.409521
2635.771513,229.828649,962.267725,9252.574275
2635.771842,0.000000,296.082377,9326.594869
2635.772171,536.266849,-0.000000,9178.553681
2635.772500,1685.410096,444.123565,8882.471304
2635.772830,689.485948,-0.000000,8956.491898
2635.773159,0.000000,-296.082377,8882.471304
2635.773488,-919.314598,-1776.494261,10140.821405
2635.773817,-612.876398,-1850.514855,9548.656652
2635.774147,76.609550,-444.123565,9178.553681
2635.774476,-229.828649,-444.123565,9770.718434
2635.774805,76.609550,-666.185348,9474.636058
2635.775134,-689.485948,-666.185348,9622.677246
2635.775464,-229.828649,-518.144159,9474.636058
2635.775793,459.657299,-0.000000,8660.409521
2635.776122,612.876398,518.144159,8734.430116
2635.776452,-153.219100,296.082377,8882.471304
2635.776781,-1072.533697,-962.267725,9992.780217
2635.777110,919.314598,-148.041188,8956.491898
2635.777439,536.266849,962.267725,8586.388927
2635.777769,-229.828649,296.082377,9326.594869
2635.778098,-383.047749,296.082377,9104.533087
2635.778427,-383.047749,-740.205942,8734.430116
2635.778756,766.095498,-74.020594,8216.285956
2635.779086,1149.143247,518.144159,7846.182985
2635.779415,842.705048,-740.205942,8956.491898
2635.779744,306.438199,-666.185348,8586.388927
2635.780074,1225.752797,-518.144159,9030.512492
2635.780403,1302.362347,-0.000000,8068.244768
2635.780732,1455.581446,222.061783,8216.285956
2635.781061,919.314598,740.205942,8512.368333
2635.781391,229.828649,-0.000000,9474.636058
2635.781720,842.705048,-888.247130,9622.677246
2635.782049,842.705048,592.164754,8660.409521
2635.782378,919.314598,296.082377,9030.512492
2635.782708,383.047749,-222.061783,9474.636058
2635.783037,0.000000,-1184.329507,9992.780217
2635.783366,306.438199,-1554.432478,9844.739029
2635.783695,612.876398,-296.082377,8882.471304
2635.784025,153.219100,-74.020594,9104.533087
2635.784354,459.657299,370.102971,9030.512492
2635.784683,919.314598,-222.061783,9474.636058
2635.785013,919.314598,-222.061783,9104.533087
2635.785342,2068.457845,1036.288319,7994.224174
2635.785671,1532.190996,1184.329507,8512.368333
2635.786000,1378.971896,-148.041188,9326.594869
2635.786330,383.047749,-962.267725,9474.636058
2635.786659,229.828649,-888.247130,9622.677246
2635.786988,229.828649,-222.061783,8808.450710
2635.787317,0.000000,296.082377,9474.636058
2635.787647,-612.876398,222.061783,9622.677246
2635.787976,-842.705048,-666.185348,9548.656652
2635.788305,-306.438199,-666.185348,9622.677246
2635.788634,306.438199,-0.000000,8956.491898
2635.788964,612.876398,296.082377,8956.491898
2635.789293,-459.657299,-74.020594,8882.471304
2635.789622,-766.095498,-1258.350101,9474.636058
2635.789952,-459.657299,-888.247130,9474.636058
2635.790281,-153.219100,-0.000000,8956.491898
2635.790610,0.000000,444.123565,8290.306550
2635.790939,-229.828649,148.041188,9030.512492
2635.791269,-383.047749,-296.082377,8808.450710
2635.791598,-229.828649,-444.123565,8660.409521
2635.791927,766.095498,666.185348,8438.347739
2635.792256,536.266849,518.144159,8364.327145
2635.792586,0.000000,-296.082377,8882.471304
2635.792915,-383.047749,-1702.473667,9548.656652
2635.793244,76.609550,-1258.350101,9400.615463
2635.793573,766.095498,-592.164754,8512.368333
2635.793903,842.705048,-0.000000,7994.224174
2635.794232,153.219100,-0.000000,8956.491898
2635.794561,383.047749,-592.164754,9400.615463
2635.794891,689.485948,-0.000000,8512.368333
2635.795220,1225.752797,666.185348,8660.409521
2635.795549,1225.752797,-222.061783,8734.430116
2635.795878,383.047749,-148.041188,9770.718434
2635.796208,229.828649,-518.144159,9770.718434
2635.796537,536.266849,-0.000000,9474.636058
2635.796866,612.876398,814.226536,8956.491898
2635.797195,0.000000,222.061783,9548.656652
2635.797525,-612.876398,148.041188,9992.780217
2635.797854,-536.266849,-518.144159,9770.718434
2635.798183,766.095498,740.205942,9104.533087
2635.798512,306.438199,-370.102971,8956.491898
2635.798842,383.047749,-296.082377,9770.718434
2635.799171,306.438199,-592.164754,9474.636058
2635.799500,76.609550,-1184.329507,9548.656652
2635.799830,1608.800546,-592.164754,8364.327145
2635.800159,2068.457845,1258.350101,8586.388927
2635.800488,1072.533697,740.205942,9030.512492
2635.800817,1302.362347,518.144159,9326.594869
2635.801147,1685.410096,-74.020594,8586.388927
2635.801476,1762.019645,1332.370696,7550.100608
2635.801805,1532.190996,370.102971,8586.388927
2635.802134,229.828649,-74.020594,9178.553681
2635.802464,-383.047749,-1998.556043,9474.636058
2635.802793,-612.876398,-1628.453072,9770.718434
2635.803122,-383.047749,-666.185348,9030.512492
2635.803451,0.000000,-74.020594,9252.574275
2635.803781,-919.314598,-0.000000,8882.471304
2635.804110,-919.314598,-1258.350101,9474.636058
2635.804439,-1149.143247,-1184.329507,9030.512492
2635.804769,919.314598,-0.000000,9104.533087
2635.805098,536.266849,-296.082377,8660.409521
2635.805427,-153.219100,-1258.350101,8438.347739
2635.805756,-306.438199,-1702.473667,9696.697840
2635.806086,0.000000,-1924.535449,9918.759623
2635.806415,306.438199,-222.061783,9030.512492
2635.806744,306.438199,-1110.308913,9326.594869
2635.807073,-612.876398,-888.247130,9030.512492
2635.807403,-766.095498,-444.123565,9474.636058
2635.807732,0.000000,222.061783,9178.553681
2635.808061,919.314598,1184.329507,7550.100608
2635.808390,1762.019645,962.267725,7920.203579
2635.808720,76.609550,666.185348,7994.224174
2635.809049,689.485948,-1258.350101,9400.615463
2635.809378,842.705048,-888.247130,8586.388927
2635.809708,-383.047749,370.102971,8956.491898
2635.810037,0.000000,-148.041188,9770.718434
2635.810366,-919.314598,-222.061783,9548.656652
2635.810695,-689.485948,-666.185348,9622.677246
2635.811025,612.876398,518.144159,9178.553681
2635.811354,1072.533697,444.123565,9326.594869
2635.811683,689.485948,370.102971,8364.327145
2635.812012,1072.533697,-148.041188,9474.636058
2635.812342,1225.752797,-0.000000,9400.615463
2635.812671,1838.629195,-0.000000,8142.265362
2635.813000,919.314598,962.267725,8734.430116
2635.813329,995.924147,222.061783,9474.636058
2635.813659,1149.143247,-518.144159,9178.553681
2635.813988,689.485948,-592.164754,9400.615463
2635.814317,842.705048,-518.144159,9400.615463
2635.814647,536.266849,-0.000000,9252.574275
2635.814976,306.438199,-0.000000,8882.471304
2635.815305,0.000000,-814.226536,9548.656652
2635.815634,229.828649,-1480.411884,9696.697840
2635.815964,689.485948,-222.061783,9326.594869
2635.816293,536.266849,444.123565,9400.615463
2635.816622,306.438199,222.061783,9178.553681
2635.816951,0.000000,370.102971,9622.677246
2635.817281,536.266849,370.102971,9178.553681
2635.817610,1072.533697,1332.370696,8290.306550
2635.817939,612.876398,1036.288319,8438.347739
2635.818268,689.485948,-148.041188,9326.594869
2635.818598,459.657299,-1258.350101,9696.697840
2635.818927,459.657299,-592.164754,8882.471304
2635.819256,995.924147,-518.144159,8882.471304
2635.819586,76.609550,-0.000000,9474.636058
2635.819915,0.000000,-0.000000,9770.718434
2635.820244,229.828649,-518.144159,9252.574275
2635.820573,842.705048,296.082377,8734.430116
2635.820903,766.095498,518.144159,8142.265362
2635.821232,919.314598,888.247130,8290.306550
2635.821561,459.657299,-222.061783,8734.430116
2635.821890,-459.657299,-1332.370696,9400.615463
2635.822220,-383.047749,-740.205942,9548.656652
2635.822549,-689.485948,-0.000000,8956.491898
2635.822878,-919.314598,-0.000000,8956.491898
2635.823207,-1225.752797,-666.185348,9548.656652
2635.823537,-1072.533697,-1110.308913,9178.553681
2635.823866,-842.705048,-0.000000,9474.636058
2635.824195,153.219100,296.082377,8142.265362
2635.824525,536.266849,148.041188,7920.203579
2635.824854,459.657299,-592.164754,8882.471304
2635.825183,919.314598,-1110.308913,9030.512492
2635.825512,1149.143247,-592.164754,8660.409521
2635.825842,842.705048,592.164754,8216.285956
2635.826171,1149.143247,740.205942,8438.347739
2635.826500,306.438199,370.102971,8808.450710
2635.826829,76.609550,-444.123565,8956.491898
2635.827159,766.095498,-0.000000,9104.533087
2635.827488,995.924147,296.082377,8512.368333
2635.827817,0.000000,-74.020594,8734.430116
2635.828146,-1302.362347,-1554.432478,9770.718434
2635.828476,-766.095498,-2294.638420,9992.780217
2635.828805,0.000000,-1110.308913,9326.594869
2635.829134,0.000000,-222.061783,9104.533087
2635.829464,-689.485948,-0.000000,9400.615463
2635.829793,-383.047749,-592.164754,9992.780217
2635.830122,-153.219100,-740.205942,9918.759623
2635.830451,766.095498,-0.000000,8512.368333
2635.830781,1302.362347,740.205942,8512.368333
2635.831110,2451.505594,-0.000000,8660.409521
2635.831439,1455.581446,-74.020594,9252.574275
2635.831768,1762.019645,-592.164754,9326.594869
2635.832098,1915.238745,296.082377,8586.388927
2635.832427,1378.971896,1110.308913,8586.388927
2635.832756,306.438199,1036.288319,9696.697840
2635.833085,0.000000,-0.000000,8956.491898
2635.833415,0.000000,-666.185348,9622.677246
2635.833744,383.047749,370.102971,8512.368333
2635.834073,536.266849,-74.020594,9030.512492
2635.834403,0.000000,-0.000000,9178.553681
2635.834732,-1072.533697,-1184.329507,9474.636058
2635.835061,0.000000,-1480.411884,10288.862594
2635.835390,153.219100,-740.205942,8808.450710
2635.835720,306.438199,296.082377,8808.450710
2635.836049,0.000000,296.082377,9696.697840
2635.836378,-842.705048,-0.000000,8882.471304
2635.836707,0.000000,370.102971,8882.471304
2635.837037,689.485948,888.247130,8660.409521
2635.837366,-306.438199,1258.350101,8586.388927
2635.837695,229.828649,-148.041188,9178.553681
2635.838024,536.266849,-1998.556043,8512.368333
2635.838354,0.000000,-1036.288319,9548.656652
2635.838683,229.828649,-666.185348,9400.615463
2635.839012,0.000000,296.082377,9178.553681
2635.839341,-536.266849,-444.123565,9548.656652
2635.839671,0.000000,-296.082377,9326.594869
2635.840000,1149.143247,-0.000000,8660.409521
2635.840329,1455.581446,148.041188,8734.430116
2635.840658,1072.533697,666.185348,8438.347739
2635.840987,766.095498,-740.205942,8956.491898
2635.841316,229.828649,-1406.391290,9252.574275
2635.841646,995.924147,-370.102971,8882.471304
2635.841975,766.095498,-0.000000,8586.388927
2635.842304,76.609550,-0.000000,8956.491898
2635.842633,0.000000,-296.082377,9696.697840
2635.842962,0.000000,-888.247130,9326.594869
2635.843292,76.609550,-0.000000,9252.574275
2635.843621,383.047749,-0.000000,8734.430116
2635.843950,-229.828649,-370.102971,8808.450710
2635.844279,0.000000,-740.205942,9622.677246
2635.844608,689.485948,-1480.411884,9844.739029
2635.844938,842.705048,-666.185348,8364.327145
2635.845267,1838.629195,148.041188,8882.471304
2635.845596,1149.143247,444.123565,8882.471304
2635.845925,536.266849,-0.000000,8512.368333
2635.846254,1072.533697,-0.000000,8882.471304
2635.846584,1762.019645,740.205942,7772.162391
2635.846913,1149.143247,1258.350101,7920.203579
2635.847242,1378.971896,296.082377,8586.388927
2635.847571,459.657299,-814.226536,9178.553681
2635.847900,76.609550,-1480.411884,9474.636058
2635.848230,-153.219100,-148.041188,8734.430116
2635.848559,-153.219100,-296.082377,9400.615463
2635.848888,-919.314598,-296.082377,9474.636058
2635.849217,-1838.629195,-814.226536,10214.842000
2635.849546,-689.485948,-1406.391290,9770.718434
2635.849875,153.219100,148.041188,9030.512492
2635.850205,0.000000,592.164754,9030.512492
2635.850534,459.657299,-0.000000,9548.656652
2635.850863,459.657299,-888.247130,9622.677246
2635.851192,995.924147,296.082377,8734.430116
2635.851521,1608.800546,-148.041188,8290.306550
2635.851851,842.705048,888.247130,8882.471304
2635.852180,766.095498,592.164754,9030.512492
2635.852509,0.000000,296.082377,9474.636058
2635.852838,0.000000,-222.061783,9326.594869
2635.853167,383.047749,-0.000000,8808.450710
2635.853497,0.000000,370.102971,8808.450710
2635.853826,-1455.581446,-1554.432478,10214.842000
2635.854155,-1532.190996,-2516.700203,10362.883188
2635.854484,-995.924147,-1554.432478,9918.759623
2635.854813,-612.876398,-0.000000,8882.471304
2635.855143,-919.314598,-0.000000,8734.430116
2635.855472,-1072.533697,370.102971,9474.636058
2635.855801,-306.438199,-370.102971,9400.615463
2635.856130,766.095498,444.123565,8882.471304
2635.856459,842.705048,814.226536,8364.327145
2635.856788,766.095498,518.144159,8734.430116
2635.857118,1072.533697,296.082377,9326.594869
2635.857447,1225.752797,-518.144159,9104.533087
2635.857776,1302.362347,-518.144159,8734.430116
2635.858105,1532.190996,740.205942,8438.347739
2635.858434,1608.800546,1036.288319,8734.430116
2635.858764,536.266849,666.185348,9400.615463
2635.859093,612.876398,-740.205942,9326.594869
2635.859422,919.314598,-74.020594,9030.512492
2635.859751,1225.752797,592.164754,8142.265362
2635.860080,689.485948,-74.020594,8586.388927
2635.860410,0.000000,-888.247130,9326.594869
2635.860739,0.000000,-2294.638420,10066.800811
2635.861068,612.876398,-1628.453072,9252.574275
2635.861397,383.047749,-74.020594,9178.553681
2635.861726,536.266849,-296.082377,9400.615463
2635.862056,153.219100,-0.000000,9474.636058
2635.862385,689.485948,-0.000000,9178.553681
2635.862714,1225.752797,592.164754,8586.388927
2635.863043,2145.067394,518.144159,8512.368333
2635.863372,1915.238745,370.102971,9030.512492
2635.863702,1455.581446,-1110.308913,9178.553681
2635.864031,1149.143247,-1036.288319,9400.615463
2635.864360,1762.019645,-518.144159,8660.409521
2635.864689,1455.581446,444.123565,8882.471304
2635.865018,612.876398,-0.000000,9178.553681
2635.865347,0.000000,-592.164754,9178.553681
2635.865677,919.314598,-444.123565,9474.636058
2635.866006,383.047749,370.102971,8660.409521
2635.866335,536.266849,222.061783,7772.162391
2635.866664,229.828649,-370.102971,9252.574275
2635.866993,229.828649,-888.247130,9548.656652
2635.867323,-383.047749,-1406.391290,9030.512492
2635.867652,-306.438199,-296.082377,8660.409521
2635.867981,0.000000,296.082377,8734.430116
2635.868310,-536.266849,370.102971,8808.450710
2635.868639,-766.095498,-592.164754,9178.553681
2635.868969,-842.705048,-370.102971,9326.594869
2635.869298,-459.657299,296.082377,8808.450710
2635.869627,0.000000,444.123565,8512.368333
2635.869956,-689.485948,-148.041188,8808.450710
2635.870285,-2068.457845,-1702.473667,10362.883188
2635.870615,-612.876398,-1184.329507,9548.656652
2635.870944,76.609550,-0.000000,9104.533087
2635.871273,-383.047749,296.082377,8734.430116
2635.871602,76.609550,148.041188,9622.677246
2635.871931,0.000000,-518.144159,9326.594869
2635.872261,229.828649,444.123565,8882.471304
2635.872590,1225.752797,222.061783,8142.265362
2635.872919,1378.971896,-0.000000,8142.265362
2635.873248,459.657299,-370.102971,8512.368333
2635.873577,459.657299,-1850.514855,9918.759623
2635.873906,-306.438199,-1702.473667,8734.430116
2635.874236,0.000000,-0.000000,7772.162391
2635.874565,-536.266849,-296.082377,9326.594869
2635.874894,-1455.581446,-74.020594,10066.800811
2635.875223,-1225.752797,-962.267725,10807.006753
2635.875552,-153.219100,-518.144159,9622.677246
2635.875882,766.095498,-0.000000,9104.533087
2635.876211,536.266849,-0.000000,9548.656652
2635.876540,459.657299,-0.000000,9178.553681
2635.876869,1072.533697,-592.164754,10362.883188
2635.877198,1762.019645,296.082377,8734.430116
2635.877528,2068.457845,1258.350101,7550.100608
2635.877857,2145.067394,1258.350101,9326.594869
2635.878186,1838.629195,888.247130,9178.553681
2635.878515,1302.362347,-0.000000,9030.512492
2635.878844,1762.019645,-0.000000,8290.306550
2635.879174,1838.629195,814.226536,7994.224174
2635.879503,919.314598,222.061783,8586.388927
2635.879832,153.219100,-888.247130,9622.677246
2635.880161,536.266849,-2072.576638,10140.821405
2635.880490,689.485948,-814.226536,9104.533087
2635.880820,76.609550,222.061783,9400.615463
2635.881149,-306.438199,-0.000000,9548.656652
2635.881478,-229.828649,-74.020594,9548.656652
2635.881807,383.047749,-518.144159,9400.615463
2635.882136,1072.533697,518.144159,8512.368333
2635.882465,1455.581446,518.144159,8142.265362
2635.882795,1225.752797,370.102971,9326.594869
2635.883124,1532.190996,-1184.329507,9474.636058
2635.883453,612.876398,-1332.370696,9474.636058
2635.883782,306.438199,-296.082377,8068.244768
2635.884111,383.047749,592.164754,8956.491898
2635.884441,0.000000,-0.000000,9548.656652
2635.884770,-995.924147,-222.061783,9770.718434
2635.885099,-842.705048,-370.102971,9474.636058
2635.885428,0.000000,-0.000000,8734.430116
2635.885757,-306.438199,592.164754,8660.409521
2635.886087,-842.705048,-370.102971,9474.636058
2635.886416,-689.485948,-1480.411884,9918.759623
2635.886745,-612.876398,-518.144159,9474.636058
2635.887074,0.000000,444.123565,8882.471304
2635.887403,-229.828649,-0.000000,8660.409521
2635.887733,-1072.533697,-0.000000,9178.553681
2635.888062,-995.924147,-1036.288319,9622.677246
2635.888391,-612.876398,-518.144159,9030.512492
2635.888720,0.000000,-0.000000,8438.347739
2635.889049,0.000000,-74.020594,8956.491898
2635.889378,-766.095498,-814.226536,9104.533087
2635.889708,-612.876398,-1924.535449,9770.718434
2635.890037,-229.828649,-888.247130,8808.450710
2635.890366,306.438199,222.061783,8438.347739
2635.890695,383.047749,814.226536,8512.368333
2635.891024,-306.438199,666.185348,9104.533087
2635.891354,229.828649,-370.102971,9474.636058
2635.891683,689.485948,-0.000000,8290.306550
2635.892012,1762.019645,888.247130,7624.121203
2635.892341,1225.752797,-0.000000,7846.182985
2635.892670,229.828649,-444.123565,9400.615463
2635.893000,76.609550,-1628.453072,9918.759623
2635.893329,229.828649,-1036.288319,8512.368333
2635.893658,459.657299,-148.041188,9326.594869
2635.893987,-306.438199,-370.102971,8882.471304
2635.894316,-995.924147,-592.164754,9696.697840
2635.894646,-76.609550,-1036.288319,10066.800811
2635.894975,612.876398,-222.061783,9030.512492
2635.895304,995.924147,592.164754,8512.368333
2635.895633,842.705048,370.102971,9030.512492
2635.895962,842.705048,-518.144159,9548.656652
2635.896292,1072.533697,-1110.308913,9622.677246
2635.896621,1762.019645,-0.000000,9030.512492
2635.896950,1991.848295,740.205942,8882.471304
2635.897279,1225.752797,814.226536,9178.553681
2635.897608,306.438199,370.102971,9030.512492
2635.897937,459.657299,-518.144159,10140.821405
2635.898267,1762.019645,-0.000000,9918.759623
2635.898596,1302.362347,-0.000000,8734.430116
2635.898925,689.485948,-148.041188,9770.718434
2635.899254,153.219100,-1406.391290,9326.594869
2635.899583,153.219100,-666.185348,9326.594869
2635.899913,459.657299,222.061783,9104.533087
2635.900242,0.000000,222.061783,8956.491898
2635.900571,0.000000,740.205942,9400.615463
2635.900900,-766.095498,-444.123565,9326.594869
2635.901229,0.000000,-222.061783,9474.636058
2635.901559,919.314598,296.082377,8512.368333
2635.901888,612.876398,814.226536,8512.368333
2635.902217,0.000000,-0.000000,9252.574275
2635.902546,153.219100,-1628.453072,9474.636058
2635.902875,229.828649,-888.247130,8734.430116
2635.903205,766.095498,-0.000000,8808.450710
2635.903534,689.485948,740.205942,8882.471304
2635.903863,0.000000,-0.000000,8808.450710
2635.904192,229.828649,-740.205942,9104.533087
2635.904521,229.828649,-222.061783,8216.285956
2635.904851,1225.752797,-0.000000,8142.265362
2635.905180,612.876398,-74.020594,7846.182985
2635.905509,76.609550,-888.247130,9030.512492
2635.905838,153.219100,-1332.370696,9622.677246
2635.906167,0.000000,-1036.288319,8956.491898
2635.906496,76.609550,-0.000000,9030.512492
2635.906826,-612.876398,444.123565,9696.697840
2635.907155,-1378.971896,-74.020594,9844.739029
2635.907484,-1455.581446,-962.267725,9918.759623
2635.907813,0.000000,-0.000000,8364.327145
2635.908142,383.047749,370.102971,9178.553681
2635.908472,0.000000,-814.226536,9252.574275
2635.908801,0.000000,-222.061783,9474.636058
2635.909130,459.657299,-1850.514855,9918.759623
2635.909459,536.266849,-0.000000,7328.038826
2635.909788,1455.581446,-0.000000,8660.409521
2635.910118,842.705048,-74.020594,8882.471304
2635.910447,1072.533697,296.082377,9178.553681
2635.910776,689.485948,-1110.308913,9326.594869
2635.911105,1455.581446,740.205942,7920.203579
2635.911434,1532.190996,1332.370696,8660.409521
2635.911764,612.876398,148.041188,8660.409521
2635.912093,0.000000,-962.267725,9696.697840
2635.912422,153.219100,-1480.411884,9474.636058
2635.912751,76.609550,-814.226536,8808.450710
2635.913080,76.609550,222.061783,9178.553681
2635.913409,-383.047749,-0.000000,9548.656652
2635.913739,-1072.533697,-370.102971,9548.656652
2635.914068,76.609550,-962.267725,9622.677246
2635.914397,612.876398,444.123565,8586.388927
2635.914726,1378.971896,518.144159,8734.430116
2635.915055,766.095498,296.082377,8438.347739
2635.915385,1149.143247,-962.267725,9548.656652
2635.915714,1532.190996,-74.020594,8882.471304
2635.916043,1378.971896,296.082377,8290.306550
2635.916372,1149.143247,1110.308913,8956.491898
2635.916701,612.876398,1184.329507,9104.533087
2635.917031,0.000000,370.102971,9252.574275
2635.917360,76.609550,-296.082377,9548.656652
2635.917689,1072.533697,296.082377,8438.347739
2635.918018,0.000000,222.061783,8734.430116
2635.918347,-536.266849,-1110.308913,9696.697840
2635.918677,-995.924147,-2294.638420,10288.862594
2635.919006,-1072.533697,-1036.288319,9696.697840
2635.919335,0.000000,-444.123565,9104.533087
2635.919664,-689.485948,148.041188,8882.471304
2635.919993,-612.876398,-0.000000,9622.677246
2635.920323,-306.438199,-1110.308913,9844.739029
2635.920652,536.266849,-518.144159,9104.533087
2635.920981,1225.752797,518.144159,8438.347739
2635.921310,1378.971896,370.102971,8142.265362
2635.921639,1378.971896,-148.041188,9104.533087
2635.921968,1225.752797,-592.164754,9326.594869
2635.922298,995.924147,-148.041188,8586.388927
2635.922627,1378.971896,222.061783,8512.368333
2635.922956,919.314598,1110.308913,8512.368333
2635.923285,229.828649,-0.000000,9178.553681
2635.923614,-383.047749,-814.226536,9474.636058
2635.923944,612.876398,-222.061783,8882.471304
2635.924273,1072.533697,148.041188,7846.182985
2635.924602,459.657299,518.144159,8734.430116
2635.924931,0.000000,-444.123565,9474.636058
2635.925260,0.000000,-1036.288319,9474.636058
2635.925590,536.266849,-592.164754,8956.491898
2635.925919,229.828649,148.041188,8882.471304
2635.926248,-383.047749,296.082377,9474.636058
2635.926577,-995.924147,222.061783,9474.636058
2635.926906,383.047749,-74.020594,9474.636058
2635.927236,995.924147,592.164754,8438.347739
2635.927565,1608.800546,962.267725,8290.306550
2635.927894,1455.581446,-0.000000,8734.430116
2635.928223,689.485948,-222.061783,9104.533087
2635.928552,995.924147,-888.247130,9474.636058
2635.928882,995.924147,-222.061783,8290.306550
2635.929211,536.266849,518.144159,8808.450710
2635.929540,-306.438199,518.144159,9844.739029
2635.929869,-1225.752797,-1110.308913,9770.718434
2635.930198,-459.657299,-1036.288319,9844.739029
2635.930527,0.000000,-0.000000,8512.368333
2635.930857,76.609550,-0.000000,9252.574275
2635.931186,-383.047749,-148.041188,9400.615463
2635.931515,-919.314598,-1332.370696,10362.883188
2635.931844,0.000000,-740.205942,10214.842000
2635.932173,383.047749,296.082377,7994.224174
2635.932503,536.266849,814.226536,8660.409521
2635.932832,536.266849,1036.288319,8882.471304
2635.933161,612.876398,148.041188,9178.553681
2635.933490,995.924147,-0.000000,8734.430116
2635.933819,1608.800546,740.205942,8142.265362
2635.934149,1149.143247,296.082377,8068.244768
2635.934478,383.047749,-222.061783,8512.368333
2635.934807,-383.047749,-1628.453072,9474.636058
2635.935136,-306.438199,-1480.411884,9696.697840
2635.935465,459.657299,-370.102971,9178.553681
2635.935795,-306.438199,-0.000000,9548.656652
2635.936124,-536.266849,148.041188,9844.739029
2635.936453,-383.047749,-962.267725,9992.780217
2635.936782,76.609550,-444.123565,9474.636058
2635.937111,842.705048,518.144159,8734.430116
2635.937440,919.314598,-0.000000,8660.409521
2635.937770,689.485948,-814.226536,8956.491898
2635.938099,229.828649,-1332.370696,9622.677246
2635.938428,1302.362347,-518.144159,8142.265362
2635.938757,1149.143247,1036.288319,7920.203579
2635.939086,1072.533697,962.267725,8290.306550
2635.939415,76.609550,296.082377,9326.594869
2635.939745,153.219100,-1110.308913,9252.574275
2635.940074,842.705048,-0.000000,7994.224174
2635.940403,919.314598,-592.164754,8290.306550
2635.940732,383.047749,-0.000000,8216.285956
2635.941061,0.000000,-1036.288319,9474.636058
2635.941390,0.000000,-2146.597232,10732.986159
2635.941720,842.705048,-814.226536,9992.780217
2635.942049,459.657299,296.082377,8808.450710
2635.942378,842.705048,740.205942,9030.512492
2635.942707,1149.143247,-222.061783,9474.636058
2635.943036,1685.410096,-296.082377,9326.594869
2635.943365,2068.457845,296.082377,7994.224174
2635.943694,1685.410096,814.226536,7550.100608
2635.944024,1302.362347,222.061783,8142.265362
2635.944353,459.657299,-666.185348,9178.553681
2635.944682,153.219100,-1702.473667,9030.512492
2635.945011,383.047749,-888.247130,8808.450710
2635.945340,-306.438199,-0.000000,9326.594869
2635.945669,-1149.143247,-666.185348,9474.636058
2635.945999,-1225.752797,-666.185348,9622.677246
2635.946328,-612.876398,-444.123565,9548.656652
2635.946657,76.609550,-0.000000,9030.512492
2635.946986,689.485948,-0.000000,8734.430116
2635.947315,1378.971896,370.102971,8660.409521
2635.947644,459.657299,-148.041188,9474.636058
2635.947974,1685.410096,-296.082377,8808.450710
2635.948303,1455.581446,296.082377,7772.162391
2635.948632,459.657299,814.226536,8734.430116
2635.948961,919.314598,814.226536,9104.533087
2635.949290,0.000000,-296.082377,9474.636058
2635.949619,-229.828649,-0.000000,8882.471304
2635.949949,0.000000,148.041188,9030.512492
2635.950278,-842.705048,-222.061783,9104.533087
2635.950607,-2221.676944,-962.267725,9326.594869
2635.950936,-1225.752797,-2368.659014,10510.924376
2635.951265,-1455.581446,-1850.514855,9770.718434
2635.951594,-1149.143247,-222.061783,9474.636058
2635.951923,-919.314598,-74.020594,10214.842000
2635.952253,-1072.533697,-0.000000,9474.636058
2635.952582,-612.876398,-222.061783,9992.780217
2635.952911,995.924147,-0.000000,8956.491898
2635.953240,1302.362347,1036.288319,7920.203579
2635.953569,1685.410096,1554.432478,8216.285956
2635.953898,1762.019645,-0.000000,8808.450710
2635.954228,919.314598,-370.102971,9400.615463
2635.954557,1072.533697,-0.000000,8956.491898
2635.954886,1455.581446,444.123565,7846.182985
2635.955215,0.000000,592.164754,8882.471304
2635.955544,-766.095498,-74.020594,9400.615463
2635.955873,-1072.533697,-1480.411884,9918.759623
2635.956203,76.609550,-1110.308913,9104.533087
2635.956532,0.000000,-0.000000,8512.368333
2635.956861,383.047749,-222.061783,8438.347739
2635.957190,-459.657299,-296.082377,9992.780217
2635.957519,306.438199,-1110.308913,9622.677246
2635.957848,1149.143247,-0.000000,8216.285956
2635.958178,919.314598,740.205942,8068.244768
2635.958507,383.047749,740.205942,8512.368333
2635.958836,0.000000,-296.082377,9622.677246
2635.959165,766.095498,-148.041188,8734.430116
2635.959494,1149.143247,370.102971,7698.141797
2635.959823,1302.362347,296.082377,8438.347739
2635.960152,842.705048,-666.185348,8882.471304
2635.960482,766.095498,-1110.308913,9770.718434
2635.960811,536.266849,-1702.473667,9548.656652
2635.961140,383.047749,-888.247130,8512.368333
2635.961469,1072.533697,518.144159,8882.471304
2635.961798,689.485948,814.226536,9474.636058
2635.962127,689.485948,-296.082377,9326.594869
2635.962457,1608.800546,-148.041188,9252.574275
2635.962786,1149.143247,666.185348,8512.368333
2635.963115,1225.752797,888.247130,8512.368333
2635.963444,0.000000,-370.102971,8808.450710
2635.963773,-612.876398,-814.226536,10066.800811
2635.964102,-536.266849,-1776.494261,10140.821405
2635.964432,-919.314598,-962.267725,9178.553681
2635.964761,-766.095498,-518.144159,9622.677246
2635.965090,-1608.800546,-296.082377,9918.759623
2635.965419,-1608.800546,-814.226536,9622.677246
2635.965748,-689.485948,-814.226536,9622.677246
2635.966077,229.828649,296.082377,8882.471304
2635.966406,919.314598,740.205942,8956.491898
2635.966736,1149.143247,-296.082377,8586.388927
2635.967065,919.314598,-814.226536,8512.368333
2635.967394,1455.581446,-222.061783,8364.327145
2635.967723,1762.019645,1110.308913,7550.100608
2635.968052,842.705048,1110.308913,7994.224174
2635.968381,76.609550,-370.102971,9400.615463
2635.968711,-536.266849,-1110.308913,9400.615463
2635.969040,-612.876398,-1184.329507,9178.553681
2635.969369,-536.266849,-1110.308913,8808.450710
2635.969698,-919.314598,-518.144159,8808.450710
2635.970027,-1072.533697,-1110.308913,9548.656652
2635.970356,-1225.752797,-2146.597232,10288.862594
2635.970686,-383.047749,-592.164754,9400.615463
2635.971015,842.705048,-0.000000,8438.347739
2635.971344,306.438199,814.226536,8216.285956
2635.971673,229.828649,-0.000000,9252.574275
2635.972002,766.095498,-74.020594,9400.615463
2635.972331,1532.190996,888.247130,8142.265362
2635.972661,2374.896044,1258.350101,8216.285956
2635.972990,2298.286494,740.205942,8142.265362
2635.973319,995.924147,-370.102971,9400.615463
2635.973648,1532.190996,-1258.350101,9992.780217
2635.973977,2145.067394,-1184.329507,8660.409521
2635.974306,995.924147,-148.041188,9030.512492
2635.974635,536.266849,148.041188,9474.636058
2635.974965,-229.828649,-444.123565,10140.821405
2635.975294,153.219100,-888.247130,9622.677246
2635.975623,919.314598,-370.102971,8586.388927
2635.975952,1302.362347,444.123565,9030.512492
2635.976281,842.705048,-0.000000,9178.553681
2635.976610,383.047749,-222.061783,9474.636058
2635.976940,689.485948,-740.205942,9474.636058
2635.977269,919.314598,-0.000000,8364.327145
2635.977598,689.485948,962.267725,8512.368333
2635.977927,612.876398,148.041188,9548.656652
2635.978256,0.000000,-0.000000,9252.574275
2635.978585,536.266849,-666.185348,9326.594869
2635.978915,1149.143247,444.123565,8142.265362
2635.979244,919.314598,518.144159,8586.388927
2635.979573,612.876398,-74.020594,9252.574275
2635.979902,689.485948,-518.144159,9252.574275
2635.980231,1302.362347,-814.226536,9548.656652
2635.980560,1072.533697,-0.000000,8068.244768
2635.980889,766.095498,1480.411884,8734.430116
2635.981219,0.000000,1036.288319,8808.450710
2635.981548,-229.828649,-222.061783,9326.594869
2635.981877,536.266849,148.041188,7920.203579
2635.982206,229.828649,296.082377,8142.265362
2635.982535,-689.485948,-0.000000,9326.594869
2635.982864,-612.876398,-1036.288319,9400.615463
2635.983194,-1455.581446,-2072.576638,9474.636058
2635.983523,-1302.362347,-1628.453072,9400.615463
2635.983852,-995.924147,-1036.288319,9696.697840
2635.984181,-1532.190996,222.061783,9030.512492
2635.984510,-1225.752797,-148.041188,9474.636058
2635.984839,-1532.190996,-1036.288319,9844.739029
2635.985169,-842.705048,-296.082377,9696.697840
2635.985498,612.876398,-0.000000,9400.615463
2635.985827,919.314598,74.020594,8438.347739
2635.986156,612.876398,-296.082377,8882.471304
2635.986485,919.314598,-444.123565,8808.450710
2635.986814,1685.410096,-74.020594,8586.388927
2635.987144,1762.019645,888.247130,7402.059420
2635.987473,995.924147,1776.494261,8956.491898
2635.987802,76.609550,-814.226536,9030.512492
2635.988131,-153.219100,-1036.288319,8956.491898
2635.988460,459.657299,-370.102971,8882.471304
2635.988789,76.609550,-296.082377,8438.347739
2635.989118,0.000000,-444.123565,8882.471304
2635.989448,-612.876398,-1184.329507,9696.697840
2635.989777,-842.705048,-1480.411884,10066.800811
2635.990106,-306.438199,-1184.329507,9548.656652
2635.990435,0.000000,222.061783,8734.430116
2635.990764,-306.438199,1110.308913,9252.574275
2635.991093,0.000000,-0.000000,10584.944971
2635.991423,536.266849,-592.164754,9918.759623
2635.991752,1608.800546,296.082377,8734.430116
2635.992081,2528.115143,666.185348,7920.203579
2635.992410,1762.019645,-0.000000,8364.327145
2635.992739,2298.286494,-444.123565,8660.409521
2635.993068,2221.676944,-0.000000,8660.409521
2635.993398,2374.896044,-74.020594,8290.306550
2635.993727,1762.019645,370.102971,7994.224174
2635.994056,842.705048,814.226536,9696.697840
2635.994385,383.047749,-444.123565,9474.636058
2635.994714,306.438199,-370.102971,9696.697840
2635.995043,229.828649,-370.102971,9622.677246
2635.995373,459.657299,592.164754,9252.574275
2635.995702,0.000000,-444.123565,9474.636058
2635.996031,-689.485948,-666.185348,10584.944971
2635.996360,0.000000,-1184.329507,10584.944971
2635.996689,536.266849,-74.020594,8882.471304
2635.997018,153.219100,1258.350101,9474.636058
2635.997347,0.000000,-0.000000,9548.656652
2635.997677,-459.657299,-740.205942,9696.697840
2635.998006,229.828649,-518.144159,8808.450710
2635.998335,919.314598,666.185348,7920.203579
2635.998664,919.314598,370.102971,8734.430116
2635.998993,153.219100,-740.205942,8290.306550
2635.999322,-612.876398,-962.267725,9918.759623
2635.999652,-306.438199,-666.185348,9400.615463
2635.999981,0.000000,-0.000000,8438.347739
2636.000310,-229.828649,888.247130,8956.491898
2636.000639,-766.095498,296.082377,9474.636058
2636.000968,-689.485948,-740.205942,9400.615463
2636.001297,0.000000,-0.000000,8956.491898
2636.001627,1072.533697,-0.000000,7994.224174
2636.001956,689.485948,666.185348,8216.285956
2636.002285,0.000000,-222.061783,8364.327145
2636.002614,-153.219100,-1184.329507,9400.615463
2636.002943,536.266849,-1184.329507,8586.388927
2636.003272,536.266849,370.102971,8142.265362
2636.003601,-383.047749,-0.000000,8512.368333
2636.003931,-919.314598,-296.082377,10214.842000
2636.004260,-1302.362347,-296.082377,9696.697840
2636.004589,0.000000,-666.185348,9104.533087
2636.004918,306.438199,296.082377,8882.471304
2636.005247,-383.047749,-222.061783,9474.636058
2636.005576,-306.438199,-592.164754,9992.780217
2636.005906,383.047749,-1110.308913,10140.821405
2636.006235,1149.143247,-518.144159,8660.409521
2636.006564,1225.752797,518.144159,8512.368333
2636.006893,1532.190996,370.102971,8808.450710
2636.007222,1149.143247,222.061783,9400.615463
2636.007551,1838.629195,-0.000000,8734.430116
2636.007881,2221.676944,-0.000000,8364.327145
2636.008210,1532.190996,814.226536,8438.347739
2636.008539,766.095498,-0.000000,8734.430116
2636.008868,76.609550,-1406.391290,10584.944971
2636.009197,0.000000,-814.226536,9992.780217
2636.009526,229.828649,-444.123565,9474.636058
2636.009856,0.000000,296.082377,8660.409521
2636.010185,-612.876398,370.102971,9548.656652
2636.010514,-766.095498,-0.000000,10362.883188
2636.010843,0.000000,-666.185348,9992.780217
2636.011172,995.924147,888.247130,8734.430116
2636.011501,1149.143247,1036.288319,8808.450710
2636.011830,919.314598,740.205942,8586.388927
2636.012160,919.314598,-518.144159,9326.594869
2636.012489,1685.410096,-666.185348,9104.533087
2636.012818,1762.019645,370.102971,7920.203579
2636.013147,1072.533697,1110.308913,8956.491898
2636.013476,1532.190996,222.061783,9400.615463
2636.013805,536.266849,-444.123565,8882.471304
2636.014135,536.266849,-740.205942,8882.471304
2636.014464,766.095498,222.061783,8808.450710
2636.014793,0.000000,-0.000000,8512.368333
2636.015122,-536.266849,-370.102971,8882.471304
2636.015451,-459.657299,-1702.473667,9622.677246
2636.015780,-536.266849,-1702.473667,9474.636058
2636.016110,-306.438199,-666.185348,8882.471304
2636.016439,-536.266849,-0.000000,8956.491898
2636.016768,-1149.143247,-74.020594,9548.656652
2636.017097,-689.485948,-1110.308913,9770.718434
2636.017426,0.000000,-888.247130,9326.594869
2636.017755,612.876398,-666.185348,8290.306550
2636.018084,0.000000,-222.061783,8512.368333
2636.018414,766.095498,-666.185348,9178.553681
2636.018743,766.095498,-1110.308913,9252.574275
2636.019072,995.924147,-296.082377,8808.450710
2636.019401,1685.410096,370.102971,8216.285956
2636.019730,919.314598,1184.329507,8660.409521
2636.020059,306.438199,-0.000000,9178.553681
2636.020389,0.000000,-740.205942,9400.615463
2636.020718,306.438199,-814.226536,9326.594869
2636.021047,76.609550,518.144159,8882.471304
2636.021376,153.219100,-0.000000,9252.574275
2636.021705,-536.266849,-592.164754,9696.697840
2636.022034,-536.266849,-1554.432478,10066.800811
2636.022364,229.828649,-1036.288319,9474.636058
2636.022693,-153.219100,370.102971,9252.574275
2636.023022,-1149.143247,814.226536,9104.533087
2636.023351,-306.438199,148.041188,9030.512492
2636.023680,229.828649,-444.123565,9400.615463
2636.024009,1149.143247,-0.000000,8364.327145
2636.024339,1455.581446,740.205942,7772.162391
2636.024668,1455.581446,296.082377,8956.491898
2636.024997,1455.581446,-74.020594,9030.512492
2636.025326,1838.629195,-888.247130,9252.574275
2636.025655,1685.410096,-518.144159,8290.306550
2636.025984,1072.533697,888.247130,8586.388927
2636.026313,689.485948,-0.000000,9326.594869
2636.026643,153.219100,-0.000000,9252.574275
2636.026972,995.924147,-592.164754,9178.553681
2636.027301,1149.143247,-222.061783,9252.574275
2636.027630,1378.971896,-296.082377,8586.388927
2636.027959,536.266849,222.061783,8882.471304
2636.028288,0.000000,-962.267725,9400.615463
2636.028618,229.828649,-740.205942,9696.697840
2636.028947,229.828649,592.164754,8808.450710
2636.029276,-229.828649,962.267725,8956.491898
2636.029605,-459.657299,-148.041188,9326.594869
2636.029934,-1302.362347,-740.205942,10658.965565
2636.030263,-459.657299,-962.267725,9844.739029
2636.030593,76.609550,-370.102971,8808.450710
2636.030922,76.609550,888.247130,8290.306550
2636.031251,-153.219100,148.041188,9474.636058
2636.031580,306.438199,-1332.370696,10362.883188
2636.031909,459.657299,-1184.329507,9474.636058
2636.032238,1378.971896,-370.102971,8438.347739
2636.032568,1072.533697,222.061783,8438.347739
2636.032897,536.266849,666.185348,9104.533087
2636.033226,0.000000,-296.082377,9474.636058
2636.033555,766.095498,-370.102971,9326.594869
2636.033884,612.876398,-0.000000,8956.491898
2636.034213,459.657299,592.164754,8364.327145
2636.034542,76.609550,-148.041188,9474.636058
2636.034872,-306.438199,-666.185348,9992.780217
2636.035201,0.000000,-666.185348,8808.450710
2636.035530,-306.438199,222.061783,8660.409521
2636.035859,-689.485948,-0.000000,9104.533087
2636.036188,-689.485948,-222.061783,8956.491898
2636.036517,-612.876398,-1406.391290,10066.800811
2636.036847,306.438199,-962.267725,9178.553681
2636.037176,1072.533697,-74.020594,8364.327145
2636.037505,612.876398,-148.041188,8808.450710
2636.037834,612.876398,-518.144159,9548.656652
2636.038163,383.047749,-962.267725,9400.615463
2636.038492,1532.190996,-740.205942,8438.347739
2636.038822,1225.752797,370.102971,8438.347739
2636.039151,766.095498,1184.329507,9474.636058
2636.039480,612.876398,-222.061783,9474.636058
2636.039809,842.705048,-444.123565,9548.656652
2636.040138,1225.752797,-444.123565,8882.471304
2636.040467,1225.752797,666.185348,8438.347739
2636.040796,0.000000,370.102971,9030.512492
2636.041125,0.000000,-518.144159,9844.739029
2636.041454,612.876398,-2146.597232,9400.615463
2636.041783,229.828649,-592.164754,8660.409521
2636.042112,0.000000,962.267725,8438.347739
2636.042441,0.000000,592.164754,9252.574275
2636.042770,-842.705048,-592.164754,9326.594869
2636.043099,-306.438199,-518.144159,9696.697840
2636.043428,76.609550,-370.102971,8512.368333
2636.043757,76.609550,-0.000000,8882.471304
2636.044086,0.000000,592.164754,9622.677246
2636.044415,153.219100,-962.267725,9844.739029
2636.044744,0.000000,-518.144159,9622.677246
2636.045073,76.609550,-0.000000,8882.471304
2636.045402,229.828649,814.226536,8808.450710
2636.045731,0.000000,370.102971,8734.430116
2636.046060,0.000000,-0.000000,9770.718434
2636.046389,153.219100,-592.164754,9474.636058
2636.046719,459.657299,222.061783,8438.347739
2636.047048,766.095498,370.102971,8512.368333
2636.047377,153.219100,-0.000000,8142.265362
2636.047706,0.000000,-518.144159,9400.615463
2636.048035,459.657299,-740.205942,8956.491898
2636.048364,536.266849,-148.041188,8290.306550
2636.048693,-612.876398,666.185348,9252.574275
2636.049022,-842.705048,-0.000000,9474.636058
2636.049351,-1532.190996,-1480.411884,10362.883188
2636.049680,-689.485948,-1184.329507,10066.800811
2636.050009,0.000000,-518.144159,8956.491898
2636.050338,0.000000,-0.000000,9474.636058
2636.050667,-766.095498,-592.164754,9844.739029
2636.050996,536.266849,-1628.453072,10214.842000
2636.051325,1455.581446,-666.185348,9400.615463
2636.051654,1915.238745,592.164754,7920.203579
2636.051983,1685.410096,666.185348,8586.388927
2636.052312,1149.143247,814.226536,8882.471304
2636.052641,1302.362347,-0.000000,9252.574275
2636.052970,2068.457845,-0.000000,8660.409521
2636.053299,2451.505594,-0.000000,8956.491898
2636.053628,1225.752797,-0.000000,8290.306550
2636.053957,459.657299,-296.082377,9030.512492
2636.054286,153.219100,-1554.432478,9770.718434
2636.054615,536.266849,-888.247130,9252.574275
2636.054944,306.438199,518.144159,9178.553681
2636.055273,-842.705048,148.041188,9326.594869
2636.055602,-229.828649,-518.144159,9474.636058
2636.055931,0.000000,-1258.350101,9178.553681
2636.056261,919.314598,-888.247130,8882.471304
2636.056590,1149.143247,518.144159,7846.182985
2636.056919,919.314598,444.123565,7994.224174
2636.057248,536.266849,-444.123565,9104.533087
2636.057577,1378.971896,-0.000000,8808.450710
2636.057906,1915.238745,962.267725,8216.285956
2636.058235,1532.190996,1184.329507,8216.285956
2636.058564,919.314598,1184.329507,8660.409521
2636.058893,306.438199,222.061783,9252.574275
2636.059222,229.828649,-444.123565,9622.677246
2636.059551,919.314598,-1036.288319,8882.471304
2636.059880,689.485948,-0.000000,8586.388927
2636.060209,0.000000,-222.061783,8216.285956
2636.060538,-383.047749,-1110.308913,9548.656652
2636.060867,0.000000,-1406.391290,9770.718434
2636.061196,0.000000,-370.102971,9030.512492
2636.061525,0.000000,740.205942,8956.491898
2636.061854,-766.095498,370.102971,9474.636058
2636.062183,-1532.190996,-444.123565,9992.780217
2636.062512,-229.828649,-740.205942,9992.780217
2636.062841,76.609550,-0.000000,8882.471304
2636.063170,-383.047749,666.185348,8290.306550
2636.063499,-153.219100,-0.000000,8660.409521
2636.063828,0.000000,-592.164754,9548.656652
2636.064157,-842.705048,-148.041188,8808.450710
2636.064486,-383.047749,-1776.494261,10584.944971
2636.064815,-153.219100,-0.000000,9770.718434
2636.065144,-689.485948,-592.164754,9104.533087
2636.065474,-689.485948,-1110.308913,9770.718434
2636.065803,153.219100,-1184.329507,9326.594869
2636.066132,689.485948,-0.000000,8364.327145
2636.066461,1225.752797,518.144159,7846.182985
2636.066790,383.047749,-444.123565,9326.594869
2636.067119,153.219100,-888.247130,9400.615463
2636.067448,919.314598,-74.020594,8586.388927
2636.067777,919.314598,666.185348,8216.285956
2636.068106,-383.047749,592.164754,8882.471304
2636.068435,-383.047749,-148.041188,9696.697840
2636.068764,-689.485948,-666.185348,9696.697840
2636.069093,0.000000,-888.247130,9178.553681
2636.069422,306.438199,-296.082377,8586.388927
2636.069751,229.828649,-0.000000,8808.450710
2636.070080,0.000000,-444.123565,8808.450710
2636.070409,842.705048,-1332.370696,9326.594869
2636.070738,995.924147,-962.267725,8438.347739
2636.071067,1608.800546,-0.000000,8142.265362
2636.071396,1302.362347,370.102971,8142.265362
2636.071725,1532.190996,-0.000000,8882.471304
2636.072054,1378.971896,-370.102971,8364.327145
2636.072383,1915.238745,666.185348,8660.409521
2636.072712,1762.019645,666.185348,8734.430116
2636.073041,1532.190996,888.247130,8956.491898
2636.073370,1149.143247,-0.000000,9104.533087
2636.073699,459.657299,-592.164754,9918.759623
2636.074028,229.828649,-666.185348,10066.800811
2636.074357,229.828649,666.185348,8808.450710
2636.074687,-689.485948,296.082377,9622.677246
2636.075016,-995.924147,-592.164754,9696.697840
2636.075345,-383.047749,-814.226536,10140.821405
2636.075674,0.000000,-888.247130,9178.553681
2636.076003,612.876398,296.082377,9178.553681
2636.076332,536.266849,-1110.308913,9548.656652
2636.076661,383.047749,-0.000000,9400.615463
2636.076990,1072.533697,-666.185348,9474.636058
2636.077319,1225.752797,1258.350101,8586.388927
2636.077648,1072.533697,1480.411884,8882.471304
2636.077977,1072.533697,740.205942,9252.574275
2636.078306,383.047749,-0.000000,9474.636058
2636.078635,919.314598,-74.020594,9474.636058
2636.078964,612.876398,370.102971,8956.491898
2636.079293,-153.219100,444.123565,8660.409521
2636.079622,-766.095498,-444.123565,8956.491898
2636.079951,-1149.143247,-1332.370696,9918.759623
2636.080280,-1149.143247,-1258.350101,9548.656652
2636.080609,-459.657299,-518.144159,8734.430116
2636.080938,-1225.752797,-0.000000,8882.471304
2636.081267,-1838.629195,-370.102971,9104.533087
2636.081596,-1378.971896,-1184.329507,10140.821405
2636.081925,-306.438199,-888.247130,9400.615463
2636.082254,612.876398,-74.020594,8290.306550
2636.082583,766.095498,962.267725,7994.224174
2636.082912,1072.533697,-0.000000,8734.430116
2636.083241,1149.143247,-888.247130,8882.471304
2636.083570,1838.629195,-518.144159,8290.306550
2636.083899,1455.581446,296.082377,7698.141797
2636.084229,919.314598,-0.000000,8512.368333
2636.084558,0.000000,-0.000000,9178.553681
2636.084887,-306.438199,-1332.370696,9400.615463
2636.085216,383.047749,-1036.288319,8882.471304
2636.085545,76.609550,-518.144159,9104.533087
2636.085874,-383.047749,-1332.370696,9252.574275
2636.086203,-919.314598,-444.123565,9326.594869
2636.086532,0.000000,-1406.391290,9696.697840
2636.086861,689.485948,-444.123565,8660.409521
2636.087190,919.314598,666.185348,8586.388927
2636.087519,0.000000,962.267725,8956.491898
2636.087848,1225.752797,666.185348,8660.409521
2636.088177,1762.019645,-222.061783,9400.615463
2636.088506,1838.629195,-0.000000,8364.327145
2636.088835,1991.848295,814.226536,8512.368333
2636.089164,1225.752797,592.164754,8512.368333
2636.089493,1225.752797,-888.247130,9252.574275
2636.089822,1072.533697,-370.102971,9104.533087
2636.090151,919.314598,-148.041188,9326.594869
2636.090480,995.924147,222.061783,9252.574275
2636.090809,229.828649,148.041188,9400.615463
2636.091138,0.000000,-296.082377,10066.800811
2636.091467,536.266849,-0.000000,9622.677246
2636.091796,842.705048,-0.000000,9030.512492
2636.092125,919.314598,222.061783,8808.450710
2636.092454,612.876398,-0.000000,8956.491898
2636.092783,842.705048,-74.020594,9696.697840
2636.093112,1455.581446,-444.123565,9252.574275
2636.093442,1225.752797,666.185348,8882.471304
2636.093771,612.876398,1184.329507,8660.409521
2636.094100,229.828649,592.164754,9178.553681
2636.094429,-459.657299,-222.061783,9918.759623
2636.094758,-153.219100,-1258.350101,9992.780217
2636.095087,-76.609550,-148.041188,8956.491898
2636.095416,0.000000,-296.082377,9252.574275
2636.095745,-383.047749,-222.061783,9104.533087
2636.096074,-766.095498,-814.226536,9622.677246
2636.096403,-383.047749,-1258.350101,10214.842000
2636.096732,229.828649,-222.061783,9178.553681
2636.097061,153.219100,444.123565,9030.512492
2636.097390,-842.705048,370.102971,9252.574275
2636.097719,-842.705048,-888.247130,9548.656652
2636.098048,-306.438199,-814.226536,9252.574275
2636.098377,153.219100,148.041188,8068.244768
2636.098706,306.438199,296.082377,8438.347739
2636.099035,-153.219100,-962.267725,8882.471304
2636.099364,-689.485948,-1036.288319,9104.533087
2636.099693,229.828649,-1258.350101,8808.450710
2636.100022,-229.828649,-0.000000,8142.265362
2636.100351,-306.438199,444.123565,8216.285956
2636.100680,-995.924147,-0.000000,9400.615463
2636.101009,-842.705048,-592.164754,9326.594869
2636.101338,0.000000,-370.102971,8364.327145
2636.101667,919.314598,-370.102971,8216.285956
2636.101996,306.438199,-0.000000,8290.306550
2636.102325,-153.219100,-148.041188,8216.285956
2636.102655,612.876398,-1406.391290,9622.677246
2636.102984,76.609550,-296.082377,8290.306550
2636.103313,842.705048,222.061783,8956.491898
2636.103642,306.438199,-0.000000,9104.533087
2636.103971,689.485948,296.082377,8660.409521
2636.104300,536.266849,-296.082377,9696.697840
2636.104629,1149.143247,222.061783,9178.553681
2636.104958,1225.752797,518.144159,8586.388927
2636.105287,766.095498,814.226536,8660.409521
2636.105616,1302.362347,-740.205942,9770.718434
2636.105945,1072.533697,-1406.391290,9252.574275
2636.106274,919.314598,-296.082377,9178.553681
2636.106603,1378.971896,444.123565,8808.450710
2636.106932,0.000000,-0.000000,9474.636058
2636.107261,-306.438199,-370.102971,10214.842000
2636.107590,536.266849,-1036.288319,10066.800811
2636.107919,229.828649,592.164754,9400.615463
2636.108248,919.314598,148.041188,8808.450710
2636.108577,1532.190996,518.144159,9400.615463
2636.108906,1608.800546,-666.185348,9400.615463
2636.109235,1685.410096,-222.061783,9104.533087
2636.109564,1685.410096,-0.000000,8364.327145
2636.109893,1455.581446,296.082377,9178.553681
2636.110222,1072.533697,962.267725,8660.409521
2636.110551,536.266849,-148.041188,9474.636058
2636.110880,536.266849,-222.061783,9474.636058
2636.111209,229.828649,-370.102971,9178.553681
2636.111538,0.000000,592.164754,8956.491898
2636.111867,-459.657299,-518.144159,8882.471304
2636.112197,-842.705048,-888.247130,9400.615463
2636.112526,-995.924147,-1554.432478,9696.697840
2636.112855,-383.047749,148.041188,8364.327145
2636.113184,-229.828649,962.267725,8734.430116
2636.113513,0.000000,-518.144159,9770.718434
2636.113842,-842.705048,-814.226536,9252.574275
2636.114171,-459.657299,-888.247130,9400.615463
2636.114500,459.657299,-814.226536,9178.553681
2636.114829,689.485948,-0.000000,8660.409521
2636.115158,0.000000,-74.020594,8364.327145
2636.115487,689.485948,-666.185348,9474.636058
2636.115816,1149.143247,-444.123565,9326.594869
2636.116145,1378.971896,1702.473667,7846.182985
2636.116474,1302.362347,1406.391290,8438.347739
2636.116803,153.219100,370.102971,8734.430116
2636.117132,76.609550,-666.185348,9400.615463
2636.117461,536.266849,-518.144159,9178.553681
2636.117790,-229.828649,-370.102971,8660.409521
2636.118119,0.000000,-518.144159,9178.553681
2636.118448,-1225.752797,-1332.370696,9622.677246
2636.118777,-919.314598,-1998.556043,10362.883188
2636.119106,-306.438199,-1406.391290,9326.594869
2636.119435,0.000000,-444.123565,8734.430116
2636.119764,-766.095498,-0.000000,9622.677246
2636.120093,0.000000,-148.041188,8882.471304
2636.120422,612.876398,-592.164754,9474.636058
2636.120751,1149.143247,-0.000000,8882.471304
2636.121080,1685.410096,1258.350101,8216.285956
2636.121410,1762.019645,1036.288319,8290.306550
2636.121739,1532.190996,148.041188,8956.491898
2636.122068,1838.629195,-0.000000,9474.636058
2636.122397,1608.800546,-0.000000,8734.430116
2636.122726,1378.971896,888.247130,8364.327145
2636.123055,76.609550,370.102971,9252.574275
2636.123384,-306.438199,-74.020594,9474.636058
2636.123713,0.000000,-888.247130,9548.656652
2636.124042,0.000000,-1110.308913,8808.450710
2636.124371,-459.657299,-74.020594,8956.491898
2636.124700,76.609550,-518.144159,9474.636058
2636.125029,-536.266849,-1110.308913,9548.656652
2636.125358,0.000000,-518.144159,8808.450710
2636.125687,919.314598,-74.020594,8882.471304
2636.126016,842.705048,1332.370696,7772.162391
2636.126345,0.000000,1850.514855,8290.306550
2636.126674,229.828649,-222.061783,9474.636058
2636.127003,383.047749,592.164754,9252.574275
2636.127332,766.095498,-0.000000,8512.368333
2636.127661,0.000000,148.041188,8956.491898
2636.127990,-306.438199,-1184.329507,9104.533087
2636.128319,-383.047749,-1628.453072,9918.759623
2636.128648,0.000000,-1850.514855,9844.739029
2636.128977,306.438199,-962.267725,8216.285956
2636.129306,459.657299,370.102971,9178.553681
2636.129635,0.000000,-0.000000,9474.636058
2636.129964,-383.047749,-1480.411884,9622.677246
2636.130293,536.266849,-814.226536,8956.491898
2636.130623,919.314598,-0.000000,8364.327145
2636.130952,689.485948,-74.020594,8734.430116
2636.131281,-306.438199,370.102971,9030.512492
2636.131610,229.828649,-740.205942,9992.780217
2636.131939,229.828649,-814.226536,9104.533087
2636.132268,383.047749,518.144159,7846.182985
2636.132597,0.000000,370.102971,9326.594869
2636.132926,-766.095498,-370.102971,9400.615463
2636.133255,-766.095498,-814.226536,9918.759623
2636.133584,306.438199,-74.020594,8734.430116
2636.133913,536.266849,-0.000000,8216.285956
2636.134242,536.266849,222.061783,8808.450710
2636.134571,689.485948,-518.144159,8808.450710
2636.134900,1608.800546,-814.226536,9400.615463
2636.135229,1762.019645,-296.082377,8882.471304
2636.135558,1378.971896,1110.308913,7920.203579
2636.135887,995.924147,1332.370696,8882.471304
2636.136216,766.095498,-370.102971,9178.553681
2636.136545,0.000000,-0.000000,9104.533087
2636.136874,919.314598,-1036.288319,9474.636058
2636.137203,919.314598,296.082377,8882.471304
2636.137532,153.219100,444.123565,9030.512492
2636.137861,0.000000,-888.247130,9104.533087
2636.138190,-229.828649,-1110.308913,9326.594869
2636.138519,0.000000,-1036.288319,9548.656652
2636.138848,0.000000,148.041188,8364.327145
2636.139177,0.000000,296.082377,9030.512492
2636.139506,0.000000,-444.123565,10066.800811
2636.139835,0.000000,-74.020594,10066.800811
2636.140165,0.000000,370.102971,9548.656652
2636.140494,842.705048,518.144159,8364.327145
2636.140823,1378.971896,518.144159,9326.594869
2636.141152,1072.533697,-296.082377,9770.718434
2636.141481,1608.800546,-296.082377,9474.636058
2636.141810,1991.848295,-0.000000,8586.388927
2636.142139,1149.143247,814.226536,8586.388927
2636.142468,766.095498,1184.329507,8734.430116
2636.142797,76.609550,-222.061783,9178.553681
2636.143126,153.219100,-74.020594,9548.656652
2636.143456,383.047749,-296.082377,8734.430116
2636.143785,0.000000,-666.185348,9474.636058
2636.144114,-689.485948,-296.082377,9474.636058
2636.144443,-995.924147,-1702.473667,9696.697840
2636.144772,-766.095498,-962.267725,9918.759623
2636.145101,0.000000,592.164754,8438.347739
2636.145430,-995.924147,222.061783,9178.553681
2636.145760,-1225.752797,-0.000000,10140.821405
2636.146089,-383.047749,-888.247130,10807.006753
2636.146418,-919.314598,-1184.329507,8882.471304
2636.146747,995.924147,370.102971,8438.347739
2636.147076,842.705048,-666.185348,8142.265362
2636.147405,842.705048,740.205942,8586.388927
2636.147734,1225.752797,-888.247130,9030.512492
2636.148063,1991.848295,-518.144159,7920.203579
2636.148393,1915.238745,814.226536,7328.038826
2636.148722,1762.019645,888.247130,8956.491898
2636.149051,76.609550,-296.082377,9104.533087
2636.149380,76.609550,-1036.288319,9178.553681
2636.149709,76.609550,-666.185348,8586.388927
2636.150038,229.828649,-592.164754,9104.533087
2636.150367,0.000000,-740.205942,9178.553681
2636.150697,-306.438199,-1406.391290,9474.636058
2636.151026,-383.047749,-1554.432478,10140.821405
2636.151355,0.000000,-592.164754,8808.450710
2636.151684,76.609550,296.082377,8438.347739
2636.152013,0.000000,222.061783,9252.574275
2636.152342,-153.219100,-222.061783,9474.636058
2636.152671,-306.438199,-962.267725,9844.739029
2636.153001,1302.362347,-962.267725,9548.656652
2636.153330,1378.971896,-0.000000,8216.285956
2636.153659,153.219100,666.185348,8660.409521
2636.153988,842.705048,-740.205942,9400.615463
2636.154317,1378.971896,-962.267725,9474.636058
2636.154646,1685.410096,1184.329507,7698.141797
2636.154975,1608.800546,1332.370696,8364.327145
2636.155304,459.657299,814.226536,9030.512492
2636.155634,0.000000,370.102971,9844.739029
2636.155963,536.266849,-148.041188,9252.574275
2636.156292,766.095498,666.185348,8438.347739
2636.156621,459.657299,518.144159,8734.430116
2636.156950,229.828649,1184.329507,9030.512492
2636.157279,-153.219100,-962.267725,10214.842000
2636.157608,153.219100,-1036.288319,9770.718434
2636.157938,0.000000,-296.082377,8290.306550
2636.158267,-536.266849,518.144159,9474.636058
2636.158596,-1378.971896,222.061783,9178.553681
2636.158925,-919.314598,-222.061783,9918.759623
2636.159254,-306.438199,-1184.329507,9844.739029
2636.159583,229.828649,-0.000000,9622.677246
2636.159912,-76.609550,444.123565,8882.471304
2636.160241,0.000000,-148.041188,8882.471304
2636.160571,459.657299,-666.185348,9400.615463
2636.160900,1149.143247,-518.144159,9400.615463
2636.161229,1225.752797,370.102971,8438.347739
2636.161558,383.047749,666.185348,8734.430116
2636.161887,0.000000,296.082377,9548.656652
2636.162216,-229.828649,-1036.288319,9696.697840
2636.162545,153.219100,-1554.432478,9622.677246
2636.162875,842.705048,-740.205942,9104.533087
2636.163204,229.828649,-222.061783,8438.347739
2636.163533,-306.438199,-666.185348,9030.512492
2636.163862,0.000000,-1332.370696,9548.656652
2636.164191,689.485948,-1480.411884,8808.450710
2636.164520,689.485948,370.102971,7920.203579
2636.164849,919.314598,-0.000000,8142.265362
2636.165179,-229.828649,-0.000000,9104.533087
2636.165508,0.000000,-592.164754,9474.636058
2636.165837,536.266849,-444.123565,8438.347739
2636.166166,383.047749,-222.061783,8512.368333
2636.166495,919.314598,-0.000000,8290.306550
2636.166824,689.485948,-444.123565,9400.615463
2636.167153,459.657299,-666.185348,9326.594869
2636.167482,842.705048,-518.144159,8808.450710
2636.167812,1378.971896,296.082377,8068.244768
2636.168141,842.705048,592.164754,8438.347739
2636.168470,1149.143247,592.164754,8586.388927
2636.168799,1149.143247,-518.144159,8956.491898
2636.169128,1532.190996,-0.000000,8586.388927
2636.169457,1608.800546,444.123565,7994.224174
2636.169786,1378.971896,222.061783,7179.997637
2636.170116,612.876398,-592.164754,9770.718434
2636.170445,536.266849,-740.205942,9474.636058
2636.170774,153.219100,-1406.391290,8882.471304
2636.171103,0.000000,-0.000000,9400.615463
2636.171432,-689.485948,370.102971,10066.800811
2636.171761,-1072.533697,-814.226536,10510.924376
2636.172090,-766.095498,-592.164754,9918.759623
2636.172420,0.000000,-0.000000,9252.574275
2636.172749,76.609550,888.247130,9178.553681
2636.173078,306.438199,666.185348,8956.491898
2636.173407,612.876398,444.123565,9918.759623
2636.173736,919.314598,-444.123565,9918.759623
2636.174065,1225.752797,-0.000000,9252.574275
2636.174394,995.924147,666.185348,8882.471304
2636.174723,306.438199,962.267725,9104.533087
2636.175053,153.219100,-0.000000,9400.615463
2636.175382,0.000000,-296.082377,9696.697840
2636.175711,76.609550,-0.000000,9178.553681
2636.176040,153.219100,-74.020594,8808.450710
2636.176369,-536.266849,-962.267725,9474.636058
2636.176698,-1378.971896,-1776.494261,10214.842000
2636.177027,-1149.143247,-1628.453072,10214.842000
2636.177357,-1072.533697,-296.082377,9326.594869
2636.177686,-1302.362347,296.082377,8882.471304
2636.178015,-1149.143247,296.082377,9622.677246
2636.178344,-1225.752797,-222.061783,9400.615463
2636.178673,-153.219100,-666.185348,9548.656652
2636.179002,383.047749,-148.041188,8364.327145
2636.179331,995.924147,296.082377,8290.306550
2636.179660,612.876398,-74.020594,7994.224174
2636.179990,612.876398,-444.123565,8808.450710
2636.180319,1149.143247,-370.102971,8438.347739
2636.180648,1608.800546,666.185348,7402.059420
2636.180977,842.705048,1702.473667,7846.182985
2636.181306,766.095498,-0.000000,8586.388927
2636.181635,0.000000,-222.061783,8438.347739
2636.181964,-919.314598,-0.000000,8586.388927
2636.182294,-766.095498,-148.041188,8068.244768
2636.182623,-1302.362347,-0.000000,7698.141797
2636.182952,-2451.505594,-888.247130,8956.491898
2636.183281,-2911.162892,-2516.700203,9918.759623
2636.183610,-3140.991542,-2590.720797,9992.780217
2636.183939,-3217.601092,-1258.350101,9474.636058
2636.184268,-3217.601092,-74.020594,9474.636058
2636.184598,-3370.820191,-296.082377,9474.636058
2636.184927,-2757.943793,-888.247130,9696.697840
2636.185256,-2221.676944,-666.185348,9474.636058
2636.185585,-1378.971896,-222.061783,9400.615463
2636.185914,-1838.629195,518.144159,8586.388927
2636.186243,-2068.457845,-518.144159,8660.409521
2636.186572,-1762.019645,-814.226536,9474.636058
2636.186901,-1455.581446,-888.247130,9548.656652
2636.187231,-1455.581446,-0.000000,8290.306550
2636.187560,-1072.533697,1110.308913,8142.265362
2636.187889,-1302.362347,1258.350101,7550.100608
2636.188218,-1225.752797,-0.000000,8512.368333
2636.188547,-1225.752797,-74.020594,9326.594869
2636.188876,-1608.800546,-222.061783,9030.512492
2636.189205,-2374.896044,518.144159,9252.574275
2636.189535,-2374.896044,296.082377,8882.471304
2636.189864,-1991.848295,-592.164754,9252.574275
2636.190193,-1762.019645,-962.267725,9770.718434
2636.190522,-2451.505594,-1554.432478,9844.739029
2636.190851,-2834.553343,-740.205942,9918.759623
2636.191180,-2987.772442,814.226536,9030.512492
2636.191509,-2528.115143,1628.453072,8216.285956
2636.191838,-2604.724693,888.247130,8586.388927
2636.192168,-2987.772442,296.082377,8808.450710
2636.192497,-3600.648841,-222.061783,8956.491898
2636.192826,-3140.991542,-0.000000,8808.450710
2636.193155,-3370.820191,-0.000000,8290.306550
2636.193484,-4366.744339,-814.226536,8734.430116
2636.193813,-5362.668486,-1480.411884,9400.615463
2636.194142,-5745.716235,-2146.597232,10881.027347
2636.194472,-5669.106685,-2442.679609,10510.924376
2636.194801,-4826.401637,-1850.514855,9474.636058
2636.195130,-4596.572988,-1406.391290,9548.656652
2636.195459,-3907.087040,-74.020594,9844.739029
2636.195788,-3677.258390,-0.000000,9548.656652
2636.196117,-2834.553343,1184.329507,8438.347739
2636.196446,-1991.848295,1776.494261,7846.182985
2636.196776,-1532.190996,814.226536,8290.306550
2636.197105,-1532.190996,518.144159,8142.265362
2636.197434,-2451.505594,-296.082377,9400.615463
2636.197763,-2451.505594,-740.205942,8882.471304
2636.198092,-2068.457845,-148.041188,8068.244768
2636.198421,-1685.410096,222.061783,8216.285956
2636.198750,-1762.019645,-0.000000,8512.368333
2636.199079,-1532.190996,-222.061783,8438.347739
2636.199409,-2221.676944,-740.205942,8586.388927
2636.199738,-1915.238745,-296.082377,8438.347739
2636.200067,-2681.334243,-740.205942,8956.491898
2636.200396,-3294.210641,-222.061783,9548.656652
2636.200725,-3370.820191,296.082377,9622.677246
2636.201054,-3064.381992,814.226536,9178.553681
2636.201383,-2911.162892,888.247130,8882.471304
2636.201713,-2834.553343,740.205942,9178.553681
2636.202042,-2221.676944,-592.164754,9474.636058
2636.202371,-2145.067394,-1332.370696,9770.718434
2636.202700,-1302.362347,-1480.411884,9844.739029
2636.203029,-919.314598,-1184.329507,9400.615463
2636.203358,-1225.752797,-74.020594,8438.347739
2636.203687,-1302.362347,-0.000000,9104.533087
2636.204017,-1149.143247,-370.102971,9770.718434
2636.204346,0.000000,666.185348,8956.491898
2636.204675,1455.581446,814.226536,7624.121203
2636.205004,229.828649,1332.370696,7328.038826
2636.205333,-1149.143247,1332.370696,7994.224174
2636.205662,-2145.067394,148.041188,9474.636058
2636.205991,-3753.867940,-666.185348,9548.656652
2636.206320,-3064.381992,-1998.556043,11103.089130
2636.206650,-3677.258390,-1628.453072,9326.594869
2636.206979,-4443.353888,-888.247130,9770.718434
2636.207308,-4903.011187,-1184.329507,10881.027347
2636.207637,-4673.182538,-1110.308913,10288.862594
2636.207966,-3907.087040,-1258.350101,11473.192101
2636.208295,-2911.162892,-296.082377,9474.636058
2636.208624,-1225.752797,-74.020594,8808.450710
2636.208954,-766.095498,518.144159,7624.121203
2636.209283,-1149.143247,222.061783,7698.141797
2636.209612,-1149.143247,-592.164754,10214.842000
2636.209941,0.000000,-74.020594,8216.285956
2636.210270,229.828649,1110.308913,7328.038826
2636.210599,-383.047749,1554.432478,7328.038826
2636.210928,-1608.800546,1332.370696,7920.203579
2636.211257,-2298.286494,-0.000000,9104.533087
2636.211587,-2221.676944,-0.000000,8956.491898
2636.211916,-2145.067394,444.123565,9400.615463
2636.212245,-3600.648841,444.123565,7550.100608
2636.212574,-4749.792088,-370.102971,8586.388927
2636.212903,-6052.154434,-888.247130,9770.718434
2636.213232,-5439.278036,-1628.453072,9992.780217
2636.213561,-5439.278036,-2886.803174,9844.739029
2636.213891,-4903.011187,-2220.617826,9992.780217
2636.214220,-4290.134789,-1998.556043,10214.842000
2636.214549,-4060.306139,-1850.514855,9326.594869
2636.214878,-3217.601092,-1406.391290,9400.615463
2636.215207,-2374.896044,518.144159,8956.491898
2636.215536,-1685.410096,592.164754,8734.430116
2636.215865,-1378.971896,962.267725,8808.450710
2636.216195,-1838.629195,1258.350101,8512.368333
2636.216524,-2451.505594,1110.308913,8438.347739
2636.216853,-2604.724693,370.102971,8438.347739
2636.217182,-2374.896044,888.247130,8438.347739
2636.217511,-2528.115143,666.185348,7920.203579
2636.217840,-2221.676944,666.185348,8438.347739
2636.218169,-2451.505594,-0.000000,8068.244768
2636.218498,-2528.115143,148.041188,8142.265362
2636.218828,-2528.115143,-0.000000,8512.368333
2636.219157,-2298.286494,518.144159,8068.244768
2636.219486,-2757.943793,370.102971,9178.553681
2636.219815,-3294.210641,1406.391290,8956.491898
2636.220144,-3600.648841,2294.638420,9770.718434
2636.220473,-3907.087040,1332.370696,10288.862594
2636.220802,-3524.039291,962.267725,10732.986159
2636.221132,-3447.429741,888.247130,10066.800811
2636.221461,-3753.867940,-0.000000,10807.006753
2636.221790,-2834.553343,-0.000000,10807.006753
2636.222119,-2068.457845,444.123565,10214.842000
2636.222448,-766.095498,814.226536,9844.739029
2636.222777,-766.095498,1702.473667,8142.265362
2636.223106,-383.047749,888.247130,10510.924376
2636.223435,1072.533697,888.247130,10955.047942
2636.223765,2834.553343,2590.720797,5403.503377
2636.224094,4213.525239,3404.947333,7994.224174
2636.224423,3830.477490,4737.318029,4811.338623
2636.224752,4290.134789,5403.503377,7254.018232
2636.225081,2911.162892,4293.194464,7994.224174
2636.225410,1762.019645,4441.235652,7772.162391
2636.225739,1608.800546,1036.288319,9992.780217
2636.226069,-383.047749,2516.700203,9770.718434
2636.226398,-2451.505594,1258.350101,11621.233289
2636.226727,-1991.848295,740.205942,11251.130318
2636.227056,-995.924147,1554.432478,9918.759623
2636.227385,-1149.143247,1406.391290,10807.006753
2636.227714,0.000000,1998.556043,10140.821405
2636.228043,612.876398,3552.988522,7994.224174
2636.228373,2221.676944,2368.659014,8290.306550
2636.228702,3753.867940,5329.482782,6513.812290
2636.229031,2681.334243,5625.565159,5699.585753
2636.229360,2374.896044,4737.318029,7772.162391
2636.229689,842.705048,5477.523971,7476.080014
2636.230018,0.000000,3552.988522,8956.491898
2636.230347,-1838.629195,2368.659014,8956.491898
2636.230676,-3140.991542,1258.350101,10436.903782
2636.231006,-3447.429741,-444.123565,12731.542202
2636.231335,-3677.258390,2368.659014,9252.574275
2636.231664,-3753.867940,2294.638420,9918.759623
2636.231993,-4213.525239,1850.514855,11325.150913
2636.232322,-3447.429741,2442.679609,10881.027347
2636.232651,-2834.553343,1776.494261,11103.089130
2636.232980,-1378.971896,2220.617826,9326.594869
2636.233310,-1072.533697,3330.926739,8734.430116
2636.233639,-995.924147,3701.029710,8364.327145
2636.233968,-842.705048,3108.864956,10881.027347
2636.234297,2757.943793,3256.906145,9400.615463
2636.234626,3907.087040,5699.585753,4663.297435
2636.234955,4519.963438,4811.338623,7105.977043
2636.235284,2604.724693,5181.441594,6291.750507
2636.235613,3447.429741,7179.997637,8290.306550
2636.235943,2221.676944,6069.688724,6957.935855
2636.236272,1915.238745,5403.503377,7031.956449
2636.236601,459.657299,5255.462188,8512.368333
2636.236930,0.000000,3627.009116,8438.347739
2636.237259,-2681.334243,444.123565,13471.748144
2636.237588,-2451.505594,-74.020594,11177.109724
2636.237917,-842.705048,-0.000000,11029.068536
2636.238247,-1838.629195,-1480.411884,12213.398043
2636.238576,-1762.019645,3404.947333,9252.574275
2636.238905,-612.876398,2072.576638,11103.089130
2636.239234,766.095498,2960.823768,8808.450710
2636.239563,3217.601092,4959.379811,8068.244768
2636.239892,4366.744339,3923.091493,7031.956449
2636.240221,3907.087040,4589.276840,7105.977043
2636.240551,2451.505594,5033.400406,7772.162391
2636.240880,2145.067394,4441.235652,6439.791695
2636.241209,383.047749,2516.700203,9030.512492
2636.241538,-1378.971896,296.082377,11843.295072
2636.241867,-2221.676944,222.061783,11621.233289
2636.242196,-2834.553343,-0.000000,12361.439231
2636.242525,-2604.724693,-888.247130,10510.924376
2636.242854,-1915.238745,1628.453072,10807.006753
2636.243183,-1532.190996,1258.350101,9548.656652
2636.243513,-1302.362347,2590.720797,9030.512492
2636.243842,-306.438199,1184.329507,10584.944971
2636.244171,3447.429741,1258.350101,9474.636058
2636.244500,4060.306139,3182.885551,5403.503377
2636.244829,3983.696590,3849.070898,7920.203579
2636.245158,2374.896044,3182.885551,5181.441594
2636.245487,4826.401637,5107.421000,7624.121203
2636.245816,3217.601092,4071.132681,6587.832884
2636.246146,2374.896044,5773.606348,5255.462188
2636.246475,1685.410096,3849.070898,8882.471304
2636.246804,-919.314598,1110.308913,7105.977043
2636.247133,-3677.258390,-3404.947333,12879.583391
2636.247462,-4213.525239,-740.205942,11695.253884
2636.247791,-2834.553343,-370.102971,10881.027347
2636.248120,-3370.820191,-1702.473667,11325.150913
2636.248449,-2451.505594,3256.906145,9770.718434
2636.248779,229.828649,3034.844362,8142.265362
2636.249108,76.609550,3256.906145,7846.182985
2636.249437,1838.629195,2368.659014,10732.986159
2636.249766,3217.601092,1258.350101,8882.471304
2636.250095,2987.772442,3701.029710,6587.832884
2636.250424,3753.867940,5773.606348,3404.947333
2636.250753,2987.772442,4145.153275,5255.462188
2636.251082,4366.744339,3034.844362,9696.697840
2636.251412,2528.115143,5921.647536,5921.647536
2636.251741,3064.381992,3849.070898,8290.306550
2636.252070,-1455.581446,4885.359217,7105.977043
2636.252399,-3830.477490,2146.597232,8734.430116
2636.252728,-4443.353888,-3849.070898,14952.160028
2636.253057,-5286.058936,4515.256246,10584.944971
2636.253386,-2374.896044,-3034.844362,12213.398043
2636.253715,-3983.696590,-1998.556043,9918.759623
2636.254045,-2451.505594,2886.803174,14434.015869
2636.254374,-1455.581446,2664.741391,8882.471304
2636.254703,-1991.848295,4515.256246,7550.100608
2636.255032,-229.828649,2812.782580,11103.089130
2636.255361,4290.134789,3182.885551,9474.636058
2636.255690,3524.039291,6809.894666,5033.400406
2636.256019,2834.553343,3627.009116,7254.018232
2636.256348,2145.067394,4737.318029,6217.729913
2636.256678,2604.724693,5329.482782,10066.800811
2636.257007,-766.095498,4959.379811,6513.812290
2636.257336,229.828649,7105.977043,8438.347739
2636.257665,-306.438199,3034.844362,9400.615463
2636.257994,-1149.143247,2294.638420,9104.533087
2636.258323,-3294.210641,-1850.514855,13471.748144
2636.258652,-3064.381992,370.102971,10732.986159
2636.258981,-1532.190996,-2960.823768,11473.192101
2636.259311,-1302.362347,-2294.638420,10881.027347
2636.259640,-153.219100,1850.514855,10881.027347
2636.259969,1225.752797,1998.556043,8068.244768
2636.260298,1455.581446,3701.029710,7105.977043
2636.260627,4213.525239,6143.709319,7846.182985
2636.260956,3677.258390,5181.441594,7031.956449
2636.261285,2528.115143,3552.988522,8586.388927
2636.261614,612.876398,3849.070898,8660.409521
2636.261943,306.438199,3256.906145,6883.915261
2636.262273,842.705048,1036.288319,9474.636058
2636.262602,-842.705048,-1776.494261,11547.212695
2636.262931,-536.266849,-2812.782580,13397.727550
2636.263260,-2068.457845,-1480.411884,11547.212695
2636.263589,-1378.971896,-3478.967927,11843.295072
2636.263918,-1762.019645,-148.041188,7920.203579
2636.264247,1225.752797,666.185348,9474.636058
2636.264576,919.314598,4071.132681,7772.162391
2636.264906,2987.772442,2442.679609,7179.997637
2636.265235,2987.772442,1850.514855,7105.977043
2636.265564,3600.648841,2590.720797,7105.977043
2636.265893,3524.039291,3330.926739,6957.935855
2636.266222,3753.867940,-518.144159,6661.853478
2636.266551,2374.896044,-666.185348,8734.430116
2636.266880,-306.438199,-518.144159,10066.800811
2636.267209,-1072.533697,-1332.370696,10362.883188
2636.267539,-1991.848295,-222.061783,9622.677246
2636.267868,-1608.800546,-2812.782580,11251.130318
2636.268197,-2068.457845,-0.000000,9918.759623
2636.268526,-2604.724693,-2146.597232,10436.903782
2636.268855,-3140.991542,-1628.453072,10732.986159
2636.269184,-612.876398,-1406.391290,10510.924376
2636.269513,2145.067394,-0.000000,7550.100608
2636.269842,2834.553343,-0.000000,7105.977043
2636.270172,2604.724693,-0.000000,7476.080014
2636.270501,2374.896044,-740.205942,6957.935855
2636.270830,1838.629195,-148.041188,7328.038826
2636.271159,1685.410096,888.247130,7846.182985
2636.271488,1378.971896,-0.000000,9622.677246
2636.271817,-536.266849,222.061783,9104.533087
2636.272146,-1072.533697,-2146.597232,10066.800811
2636.272475,-1991.848295,-2516.700203,10658.965565
2636.272805,-2451.505594,-3552.988522,11103.089130
2636.273134,-2604.724693,-3034.844362,11917.315666
2636.273463,-2757.943793,-3108.864956,11547.212695
2636.273792,-1302.362347,-2368.659014,10140.821405
2636.274121,766.095498,-1554.432478,9030.512492
2636.274450,1072.533697,962.267725,7105.977043
2636.274779,1302.362347,1850.514855,6809.894666
2636.275108,1302.362347,2072.576638,7031.956449
2636.275438,1915.238745,1480.411884,6957.935855
2636.275767,3064.381992,592.164754,7031.956449
2636.276096,1149.143247,-1110.308913,8364.327145
2636.276425,-153.219100,-2886.803174,9844.739029
2636.276754,-1762.019645,-1702.473667,10214.842000
2636.277083,-1378.971896,-2072.576638,10955.047942
2636.277412,-1532.190996,-0.000000,10066.800811
2636.277741,-995.924147,962.267725,9548.656652
2636.278071,-995.924147,2294.638420,9474.636058
2636.278400,-842.705048,1702.473667,8734.430116
2636.278729,1302.362347,740.205942,8364.327145
2636.279058,3140.991542,-0.000000,8216.285956
2636.279387,2604.724693,370.102971,7846.182985
2636.279716,1455.581446,-222.061783,7994.224174
2636.280045,76.609550,-0.000000,8364.327145
2636.280374,1532.190996,-148.041188,8364.327145
2636.280703,1378.971896,1036.288319,8438.347739
2636.281033,842.705048,962.267725,8808.450710
2636.281362,0.000000,518.144159,9622.677246
2636.281691,0.000000,1554.432478,9400.615463
2636.282020,0.000000,222.061783,9622.677246
2636.282349,306.438199,-148.041188,9770.718434
2636.282678,-153.219100,-222.061783,11547.212695
2636.283007,-306.438199,-296.082377,10732.986159
2636.283336,153.219100,-74.020594,9992.780217
2636.283666,1072.533697,740.205942,8956.491898
2636.283995,1915.238745,888.247130,8882.471304
2636.284324,1685.410096,1850.514855,7994.224174
2636.284653,1225.752797,1998.556043,8068.244768
2636.284982,1915.238745,1554.432478,8512.368333
2636.285311,1532.190996,-0.000000,8438.347739
2636.285640,1762.019645,-666.185348,8734.430116
2636.285969,612.876398,-1998.556043,10214.842000
2636.286299,-612.876398,-1776.494261,10732.986159
2636.286628,-1149.143247,-1554.432478,10140.821405
2636.286957,306.438199,-666.185348,10362.883188
2636.287286,-153.219100,1110.308913,10066.800811
2636.287615,76.609550,1258.350101,9844.739029
2636.287944,0.000000,1924.535449,9030.512492
2636.288273,919.314598,1998.556043,7698.141797
2636.288602,1685.410096,814.226536,8512.368333
2636.288932,1378.971896,-296.082377,8882.471304
2636.289261,536.266849,-1184.329507,9030.512492
2636.289590,-229.828649,-1924.535449,8734.430116
2636.289919,0.000000,-1702.473667,8882.471304
2636.290248,0.000000,-1776.494261,9178.553681
2636.290577,-229.828649,-666.185348,8586.388927
2636.290906,-689.485948,-518.144159,8660.409521
2636.291235,-383.047749,148.041188,8438.347739
2636.291565,459.657299,370.102971,8290.306550
2636.291894,766.095498,148.041188,8808.450710
2636.292223,229.828649,-740.205942,8956.491898
2636.292552,0.000000,-1480.411884,9252.574275
2636.292881,-383.047749,-1332.370696,9104.533087
2636.293210,0.000000,-666.185348,8956.491898
2636.293539,-383.047749,-1110.308913,8956.491898
2636.293868,76.609550,-370.102971,9252.574275
2636.294198,-459.657299,-0.000000,8586.388927
2636.294527,-689.485948,-0.000000,7624.121203
2636.294856,536.266849,-370.102971,7994.224174
2636.295185,1149.143247,-518.144159,8586.388927
2636.295514,536.266849,-1332.370696,8734.430116
2636.295843,0.000000,-1406.391290,9178.553681
2636.296172,-842.705048,-1850.514855,9770.718434
2636.296501,383.047749,-1554.432478,9326.594869
2636.296831,536.266849,-666.185348,9474.636058
2636.297160,153.219100,-222.061783,9548.656652
2636.297489,306.438199,518.144159,9178.553681
2636.297818,536.266849,814.226536,8882.471304
2636.298147,1072.533697,-0.000000,8512.368333
2636.298476,536.266849,-222.061783,8956.491898
2636.298805,689.485948,-1406.391290,9400.615463
2636.299134,-306.438199,-1258.350101,9474.636058
2636.299464,-459.657299,-1036.288319,9696.697840
2636.299793,0.000000,-1628.453072,9548.656652
2636.300122,153.219100,-296.082377,9178.553681
2636.300451,0.000000,222.061783,9548.656652
2636.300780,383.047749,370.102971,8660.409521
2636.301109,1072.533697,888.247130,8068.244768
2636.301438,1915.238745,370.102971,8512.368333
2636.301767,2221.676944,148.041188,8808.450710
2636.302096,1225.752797,-74.020594,9326.594869
2636.302426,383.047749,-518.144159,9622.677246
2636.302755,306.438199,-518.144159,9474.636058
2636.303084,1072.533697,-370.102971,9474.636058
2636.303413,919.314598,-222.061783,8808.450710
2636.303742,-306.438199,814.226536,9030.512492
2636.304071,-229.828649,1036.288319,8882.471304
2636.304400,0.000000,296.082377,8438.347739
2636.304729,612.876398,-0.000000,8216.285956
2636.305059,919.314598,-592.164754,8808.450710
2636.305388,153.219100,-1332.370696,8882.471304
2636.305717,-536.266849,-1406.391290,9178.553681
2636.306046,76.609550,-1480.411884,9548.656652
2636.306375,612.876398,-592.164754,8660.409521
2636.306704,995.924147,370.102971,9326.594869
2636.307033,229.828649,1036.288319,8586.388927
2636.307362,306.438199,1628.453072,8586.388927
2636.307692,1225.752797,2072.576638,7994.224174
2636.308021,1991.848295,1184.329507,8216.285956
2636.308350,1378.971896,148.041188,9474.636058
2636.308679,766.095498,-592.164754,9326.594869
2636.309008,-229.828649,-888.247130,9400.615463
2636.309337,-536.266849,-962.267725,9104.533087
2636.309666,-536.266849,-666.185348,9252.574275
2636.309995,-919.314598,-740.205942,9178.553681
2636.310325,-995.924147,296.082377,9252.574275
2636.310654,-689.485948,666.185348,8734.430116
2636.310983,76.609550,222.061783,8290.306550
2636.311312,383.047749,-0.000000,9030.512492
2636.311641,-306.438199,-444.123565,9326.594869
2636.311970,-689.485948,-888.247130,9918.759623
2636.312299,-689.485948,-1036.288319,9548.656652
2636.312628,229.828649,-666.185348,9400.615463
2636.312958,919.314598,-74.020594,9400.615463
2636.313287,536.266849,592.164754,9474.636058
2636.313616,459.657299,962.267725,8808.450710
2636.313945,689.485948,2072.576638,8142.265362
2636.314274,2221.676944,1628.453072,7772.162391
2636.314603,2221.676944,814.226536,8364.327145
2636.314932,1455.581446,-148.041188,9400.615463
2636.315261,689.485948,-1110.308913,9696.697840
2636.315591,229.828649,-1184.329507,9326.594869
2636.315920,229.828649,-370.102971,9696.697840
2636.316249,-459.657299,-222.061783,9992.780217
2636.316578,-459.657299,-148.041188,9918.759623
2636.316907,-459.657299,666.185348,9770.718434
2636.317236,-153.219100,148.041188,9030.512492
2636.317565,919.314598,-740.205942,9474.636058
2636.317894,689.485948,-592.164754,9178.553681
2636.318224,995.924147,-962.267725,10288.862594
2636.318553,306.438199,-962.267725,9622.677246
2636.318882,383.047749,-1258.350101,9474.636058
2636.319211,919.314598,-740.205942,9252.574275
2636.319540,1225.752797,-148.041188,8882.471304
2636.319869,612.876398,-0.000000,9104.533087
2636.320198,0.000000,370.102971,8068.244768
2636.320527,919.314598,370.102971,7920.203579
2636.320856,1302.362347,-0.000000,8142.265362
2636.321186,612.876398,-666.185348,8512.368333
2636.321515,0.000000,-1628.453072,9548.656652
2636.321844,-612.876398,-1998.556043,9622.677246
2636.322173,76.609550,-1776.494261,8734.430116
2636.322502,0.000000,-1406.391290,9104.533087
2636.322831,76.609550,-814.226536,9252.574275
2636.323160,-383.047749,148.041188,8808.450710
2636.323489,-383.047749,962.267725,8290.306550
2636.323819,229.828649,-74.020594,8216.285956
2636.324148,1149.143247,-296.082377,8068.244768
2636.324477,383.047749,-1184.329507,8882.471304
2636.324806,229.828649,-2368.659014,9474.636058
2636.325135,-919.314598,-2516.700203,9474.636058
2636.325464,-383.047749,-2146.597232,8882.471304
2636.325793,0.000000,-814.226536,8808.450710
2636.326122,-306.438199,-0.000000,8882.471304
2636.326452,0.000000,296.082377,8808.450710
2636.326781,-383.047749,1332.370696,8068.244768
2636.327110,1149.143247,1184.329507,8290.306550
2636.327439,1225.752797,-0.000000,8586.388927
2636.327768,919.314598,-1036.288319,9178.553681
2636.328097,229.828649,-1184.329507,10362.883188
2636.328426,0.000000,-1036.288319,9252.574275
2636.328755,459.657299,-814.226536,9696.697840
2636.329085,383.047749,444.123565,9400.615463
2636.329414,0.000000,-74.020594,9474.636058
2636.329743,-383.047749,962.267725,9474.636058
2636.330072,0.000000,1258.350101,8216.285956
2636.330401,689.485948,592.164754,8956.491898
2636.330730,842.705048,222.061783,8956.491898
2636.331059,383.047749,-814.226536,9474.636058
2636.331388,0.000000,-962.267725,9770.718434
2636.331718,-153.219100,-1036.288319,9844.739029
2636.332047,306.438199,-74.020594,9548.656652
2636.332376,1149.143247,814.226536,9548.656652
2636.332705,919.314598,1406.391290,9252.574275
2636.333034,612.876398,1998.556043,8586.388927
2636.333363,1072.533697,2146.597232,8438.347739
2636.333692,1915.238745,1702.473667,8438.347739
2636.334021,2068.457845,1628.453072,8586.388927
2636.334351,1378.971896,-444.123565,9548.656652
2636.334680,536.266849,-518.144159,9400.615463
2636.335009,229.828649,-1184.329507,9548.656652
2636.335338,76.609550,-740.205942,9400.615463
2636.335667,459.657299,-74.020594,9474.636058
2636.335996,-383.047749,444.123565,9474.636058
2636.336325,-306.438199,962.267725,8512.368333
2636.336654,0.000000,1110.308913,8438.347739
2636.336984,459.657299,444.123565,8142.265362
2636.337313,612.876398,-222.061783,9104.533087
2636.337642,0.000000,-1036.288319,10066.800811
2636.337971,-612.876398,-1480.411884,10066.800811
2636.338300,-306.438199,-1776.494261,9696.697840
2636.338629,-459.657299,-1332.370696,9474.636058
2636.338958,153.219100,-0.000000,9474.636058
2636.339287,-306.438199,1110.308913,8660.409521
2636.339616,-153.219100,1332.370696,8142.265362
2636.339946,842.705048,888.247130,8290.306550
2636.340275,1455.581446,222.061783,8438.347739
2636.340604,1149.143247,-888.247130,8734.430116
2636.340933,383.047749,-1406.391290,9400.615463
2636.341262,0.000000,-1480.411884,9696.697840
2636.341591,0.000000,-1332.370696,9474.636058
2636.341920,76.609550,-592.164754,9474.636058
2636.342253,0.000000,444.123565,9104.533087
2636.342582,229.828649,888.247130,8512.368333
2636.342911,153.219100,1554.432478,8586.388927
2636.343240,766.095498,740.205942,8734.430116
2636.343569,842.705048,-370.102971,8956.491898
2636.343899,383.047749,-518.144159,9326.594869
2636.344228,0.000000,-1998.556043,9474.636058
2636.344557,-383.047749,-1332.370696,9548.656652
2636.344886,0.000000,-1184.329507,9326.594869
2636.345215,459.657299,-592.164754,9104.533087
2636.345544,0.000000,740.205942,8956.491898
2636.345873,153.219100,592.164754,8808.450710
2636.346202,536.266849,740.205942,8290.306550
2636.346532,1455.581446,518.144159,8216.285956
2636.346861,1915.238745,-0.000000,8290.306550
2636.347190,1378.971896,-518.144159,8808.450710
2636.347519,842.705048,-962.267725,9548.656652
2636.347848,536.266849,-1184.329507,9252.574275
2636.348177,689.485948,-888.247130,9474.636058
2636.348506,842.705048,-518.144159,9474.636058
2636.348835,689.485948,592.164754,9326.594869
2636.349165,0.000000,962.267725,8956.491898
2636.349494,153.219100,518.144159,8290.306550
2636.349823,459.657299,-0.000000,8586.388927
2636.350152,842.705048,-592.164754,9104.533087
2636.350481,0.000000,-2220.617826,9548.656652
2636.350810,-536.266849,-2220.617826,10436.903782
2636.351139,-766.095498,-2368.659014,9844.739029
2636.351468,0.000000,-2072.576638,8956.491898
2636.351798,229.828649,-222.061783,9548.656652
2636.352127,0.000000,592.164754,9178.553681
2636.352456,0.000000,1480.411884,8734.430116
2636.352785,1302.362347,1406.391290,8586.388927
2636.353114,2068.457845,666.185348,8512.368333
2636.353443,1838.629195,-148.041188,8660.409521
2636.353772,766.095498,-1406.391290,10362.883188
2636.354101,229.828649,-1554.432478,9474.636058
2636.354431,76.609550,-1924.535449,9252.574275
2636.354760,689.485948,-814.226536,9178.553681
2636.355089,229.828649,-296.082377,8882.471304
2636.355418,-306.438199,666.185348,9252.574275
2636.355747,-919.314598,592.164754,8364.327145
2636.356076,-306.438199,962.267725,7994.224174
2636.356405,0.000000,592.164754,8734.430116
2636.356735,-383.047749,-296.082377,9178.553681
2636.357064,-1302.362347,-1554.432478,9844.739029
2636.357393,-995.924147,-2442.679609,9992.780217
2636.357722,0.000000,-1998.556043,9622.677246
2636.358051,0.000000,-814.226536,9696.697840
2636.358380,229.828649,518.144159,8364.327145
2636.358709,76.609550,1702.473667,8290.306550
2636.359038,766.095498,2146.597232,7920.203579
2636.359368,1838.629195,1998.556043,7402.059420
2636.359697,2604.724693,1628.453072,7624.121203
2636.360026,1915.238745,-148.041188,8660.409521
2636.360355,76.609550,-888.247130,9178.553681
2636.360684,229.828649,-1924.535449,9474.636058
2636.361013,76.609550,-1406.391290,8956.491898
2636.361342,0.000000,-222.061783,9104.533087
2636.361671,0.000000,-0.000000,9770.718434
2636.362001,-229.828649,1036.288319,8734.430116
2636.362330,0.000000,1258.350101,8216.285956
2636.362659,689.485948,814.226536,8808.450710
2636.362988,1149.143247,370.102971,8882.471304
2636.363317,689.485948,-0.000000,9474.636058
2636.363646,0.000000,-1184.329507,9918.759623
2636.363975,0.000000,-1480.411884,10066.800811
2636.364304,459.657299,-1628.453072,9844.739029
2636.364634,1072.533697,-0.000000,9622.677246
2636.364963,689.485948,444.123565,9104.533087
2636.365292,0.000000,740.205942,8512.368333
2636.365621,306.438199,666.185348,9178.553681
2636.365950,1455.581446,962.267725,8808.450710
2636.366279,1762.019645,-0.000000,8364.327145
2636.366608,766.095498,-962.267725,9474.636058
2636.366937,0.000000,-2072.576638,10140.821405
2636.367267,459.657299,-2220.617826,9844.739029
2636.367596,229.828649,-1258.350101,9104.533087
2636.367925,842.705048,-148.041188,8956.491898
2636.368254,306.438199,1258.350101,9104.533087
2636.368583,-153.219100,1258.350101,8586.388927
2636.368912,689.485948,1332.370696,8068.244768
2636.369241,919.314598,370.102971,8142.265362
2636.369570,536.266849,-222.061783,9178.553681
2636.369900,-766.095498,-1554.432478,9696.697840
2636.370229,-1455.581446,-2442.679609,10288.862594
2636.370558,-689.485948,-2960.823768,9622.677246
2636.370887,-229.828649,-1480.411884,9474.636058
2636.371216,76.609550,-1332.370696,9918.759623
2636.371545,0.000000,-0.000000,9474.636058
2636.371874,153.219100,1036.288319,8364.327145
2636.372203,1532.190996,1332.370696,7994.224174
2636.372533,1762.019645,1184.329507,7550.100608
2636.372862,1762.019645,-148.041188,8290.306550
2636.373191,766.095498,-1110.308913,8660.409521
2636.373520,766.095498,-1480.411884,9326.594869
2636.373849,229.828649,-2368.659014,8734.430116
2636.374178,766.095498,-1480.411884,8290.306550
2636.374507,-306.438199,-296.082377,9696.697840
2636.374837,-612.876398,518.144159,9030.512492
2636.375166,-919.314598,962.267725,8142.265362
2636.375495,0.000000,962.267725,8216.285956
2636.375824,459.657299,-222.061783,9178.553681
2636.376153,-306.438199,-1258.350101,9918.759623
2636.376482,-1149.143247,-2294.638420,10288.862594
2636.376811,-689.485948,-2294.638420,9400.615463
2636.377140,0.000000,-2146.597232,9548.656652
2636.377470,536.266849,-296.082377,9178.553681
2636.377799,306.438199,888.247130,9178.553681
2636.378128,0.000000,1480.411884,8882.471304
2636.378457,536.266849,1776.494261,7772.162391
2636.378786,1991.848295,1924.535449,7624.121203
2636.379115,1378.971896,740.205942,8660.409521
2636.379444,842.705048,-518.144159,8808.450710
2636.379773,0.000000,-1554.432478,9474.636058
2636.380103,-229.828649,-1998.556043,9770.718434
2636.380432,229.828649,-2072.576638,9844.739029
2636.380761,383.047749,-888.247130,9326.594869
2636.381090,76.609550,-0.000000,9030.512492
2636.381419,153.219100,1332.370696,8882.471304
2636.381748,383.047749,1332.370696,8586.388927
2636.382077,1225.752797,1258.350101,8068.244768
2636.382406,1532.190996,666.185348,8808.450710
2636.382736,1149.143247,-814.226536,10066.800811
2636.383065,0.000000,-1554.432478,9770.718434
2636.383394,0.000000,-1480.411884,9622.677246
2636.383723,612.876398,-962.267725,9622.677246
2636.384052,306.438199,-0.000000,9548.656652
2636.384381,0.000000,962.267725,9326.594869
2636.384710,-153.219100,1924.535449,8586.388927
2636.385039,612.876398,2072.576638,8512.368333
2636.385369,1302.362347,814.226536,8438.347739
2636.385698,1302.362347,-0.000000,9104.533087
2636.386027,766.095498,-1110.308913,9844.739029
2636.386356,76.609550,-1406.391290,9326.594869
2636.386685,229.828649,-1480.411884,9474.636058
2636.387014,459.657299,-888.247130,9400.615463
2636.387343,689.485948,592.164754,8882.471304
2636.387672,0.000000,888.247130,9178.553681
2636.388002,229.828649,1480.411884,8512.368333
2636.388331,306.438199,1036.288319,8438.347739
2636.388660,612.876398,666.185348,8364.327145
2636.388989,459.657299,-370.102971,9252.574275
2636.389318,-459.657299,-1480.411884,9474.636058
2636.389647,-1072.533697,-1776.494261,9548.656652
2636.389976,-612.876398,-2442.679609,9474.636058
2636.390305,-612.876398,-1776.494261,9104.533087
2636.390635,-383.047749,-0.000000,9474.636058
2636.390964,-536.266849,962.267725,8290.306550
2636.391293,-383.047749,1332.370696,7846.182985
2636.391622,612.876398,1110.308913,8142.265362
2636.391951,1455.581446,888.247130,8586.388927
2636.392280,842.705048,-296.082377,9474.636058
2636.392609,0.000000,-1554.432478,9178.553681
2636.392939,0.000000,-2442.679609,9622.677246
2636.393268,229.828649,-1258.350101,9918.759623
2636.393597,612.876398,-740.205942,9252.574275
2636.393926,536.266849,-0.000000,9252.574275
2636.394255,842.705048,1184.329507,8882.471304
2636.394584,919.314598,1110.308913,8734.430116
2636.394913,1685.410096,962.267725,8364.327145
2636.395242,1838.629195,740.205942,8142.265362
2636.395572,1149.143247,-666.185348,8956.491898
2636.395901,0.000000,-888.247130,9770.718434
2636.396230,-612.876398,-1110.308913,9770.718434
2636.396559,-306.438199,-1850.514855,9548.656652
2636.396888,-306.438199,-222.061783,9474.636058
2636.397217,-536.266849,222.061783,10140.821405
2636.397546,-383.047749,222.061783,9326.594869
2636.397875,-383.047749,962.267725,9252.574275
2636.398205,1149.143247,222.061783,8808.450710
2636.398534,1532.190996,518.144159,8290.306550
2636.398863,1225.752797,-1036.288319,9474.636058
2636.399192,1149.143247,-1258.350101,9326.594869
2636.399521,689.485948,-1110.308913,8808.450710
2636.399850,995.924147,-740.205942,9252.574275
2636.400179,1915.238745,-148.041188,8512.368333
2636.400508,459.657299,1036.288319,8808.450710
2636.400838,383.047749,1110.308913,8364.327145
2636.401167,612.876398,962.267725,7846.182985
2636.401496,1302.362347,-222.061783,7994.224174
2636.401825,919.314598,-518.144159,9030.512492
2636.402154,-383.047749,-1998.556043,9400.615463
2636.402483,-1302.362347,-2072.576638,9918.759623
2636.402812,-842.705048,-1480.411884,8956.491898
2636.403141,-612.876398,-1702.473667,9104.533087
2636.403471,-536.266849,-740.205942,9918.759623
2636.403800,-995.924147,-370.102971,9178.553681
2636.404129,-536.266849,-0.000000,8660.409521
2636.404458,536.266849,888.247130,8216.285956
2636.404787,1378.971896,222.061783,8290.306550
2636.405116,1149.143247,-666.185348,9104.533087
2636.405445,383.047749,-814.226536,8882.471304
2636.405774,-153.219100,-1702.473667,9548.656652
2636.406104,459.657299,-1554.432478,9474.636058
2636.406433,766.095498,-666.185348,9400.615463
2636.406762,306.438199,-0.000000,9474.636058
2636.407091,0.000000,1258.350101,8956.491898
2636.407420,0.000000,1258.350101,8660.409521
2636.407749,689.485948,814.226536,8808.450710
2636.408078,766.095498,1184.329507,8438.347739
2636.408407,766.095498,-0.000000,8734.430116
2636.408737,-153.219100,-592.164754,9992.780217
2636.409066,-612.876398,-962.267725,9844.739029
2636.409395,-229.828649,-666.185348,9696.697840
2636.409724,0.000000,-0.000000,9400.615463
2636.410053,-153.219100,518.144159,9548.656652
2636.410382,-229.828649,1184.329507,9474.636058
2636.410711,612.876398,1258.350101,8808.450710
2636.411040,1072.533697,1406.391290,8660.409521
2636.411370,1991.848295,592.164754,8586.388927
2636.411699,1455.581446,888.247130,8956.491898
2636.412028,459.657299,148.041188,9474.636058
2636.412357,995.924147,-0.000000,9474.636058
2636.412686,1225.752797,222.061783,9178.553681
2636.413015,1072.533697,740.205942,9326.594869
2636.413344,842.705048,370.102971,9252.574275
2636.413674,383.047749,740.205942,9104.533087
2636.414003,459.657299,1480.411884,8882.471304
2636.414332,1302.362347,740.205942,7772.162391
2636.414661,689.485948,-74.020594,9178.553681
2636.414990,0.000000,-444.123565,9474.636058
2636.415319,-689.485948,-1702.473667,9474.636058
2636.415648,-766.095498,-2072.576638,9770.718434
2636.415977,-612.876398,-1628.453072,9696.697840
2636.416307,229.828649,-1110.308913,9548.656652
2636.416636,-383.047749,370.102971,9178.553681
2636.416965,-229.828649,296.082377,9104.533087
2636.417294,612.876398,592.164754,8808.450710
2636.417623,1685.410096,296.082377,8586.388927
2636.417952,1685.410096,-0.000000,8956.491898
2636.418281,1225.752797,-666.185348,9474.636058
2636.418610,229.828649,-1110.308913,9548.656652
2636.418940,383.047749,-1924.535449,9548.656652
2636.419269,459.657299,-962.267725,9178.553681
2636.419598,306.438199,-666.185348,9252.574275
2636.419927,0.000000,-0.000000,9178.553681
2636.420256,-842.705048,888.247130,9178.553681
2636.420585,306.438199,-0.000000,8734.430116
2636.420914,536.266849,-74.020594,8364.327145
2636.421243,306.438199,-1036.288319,9326.594869
2636.421573,-536.266849,-1554.432478,9548.656652
2636.421902,-995.924147,-2146.597232,9178.553681
2636.422231,-306.438199,-1628.453072,9474.636058
2636.422560,306.438199,-518.144159,8882.471304
2636.422889,612.876398,148.041188,8734.430116
2636.423218,383.047749,1036.288319,8808.450710
2636.423547,459.657299,1480.411884,7920.203579
2636.423876,1608.800546,1258.350101,7846.182985
2636.424206,1685.410096,888.247130,7550.100608
2636.424535,842.705048,-148.041188,8438.347739
2636.424864,153.219100,-1110.308913,9474.636058
2636.425193,-995.924147,-1258.350101,9696.697840
2636.425522,76.609550,-1924.535449,9474.636058
2636.425851,153.219100,-814.226536,9030.512492
2636.426180,76.609550,-74.020594,9178.553681
2636.426509,-459.657299,888.247130,8734.430116
2636.426839,-459.657299,296.082377,8364.327145
2636.427168,689.485948,222.061783,8290.306550
2636.427497,1302.362347,-0.000000,8808.450710
2636.427826,1149.143247,-444.123565,9400.615463
2636.428155,229.828649,-1036.288319,9252.574275
2636.428484,76.609550,-1332.370696,9770.718434
2636.428813,612.876398,-1110.308913,9622.677246
2636.429142,1302.362347,-666.185348,9548.656652
2636.429472,689.485948,-0.000000,9474.636058
2636.429801,76.609550,-0.000000,9696.697840
2636.430130,153.219100,962.267725,8512.368333
2636.430459,1225.752797,888.247130,8216.285956
2636.430788,1302.362347,-0.000000,9030.512492
2636.431117,689.485948,-962.267725,9622.677246
2636.431446,-306.438199,-1628.453072,9770.718434
2636.431776,-306.438199,-2146.597232,9696.697840
2636.432105,153.219100,-740.205942,9326.594869
2636.432434,383.047749,-148.041188,8956.491898
2636.432763,229.828649,370.102971,9178.553681
2636.433092,0.000000,1036.288319,9400.615463
2636.433421,689.485948,1036.288319,8438.347739
2636.433750,1608.800546,370.102971,7920.203579
2636.434079,919.314598,370.102971,8882.471304
2636.434409,1225.752797,-1258.350101,9844.739029
2636.434738,0.000000,-1480.411884,9326.594869
2636.435067,-459.657299,-1332.370696,9252.574275
2636.435396,229.828649,-518.144159,9474.636058
2636.435725,-383.047749,666.185348,9326.594869
2636.436054,-612.876398,1110.308913,9030.512492
2636.436383,-459.657299,1554.432478,8364.327145
2636.436712,153.219100,370.102971,8142.265362
2636.437042,689.485948,-0.000000,8512.368333
2636.437371,612.876398,-444.123565,9030.512492
2636.437700,-459.657299,-888.247130,9326.594869
2636.438029,-536.266849,-1332.370696,9622.677246
2636.438358,76.609550,-1110.308913,9104.533087
2636.438687,306.438199,-666.185348,9252.574275
2636.439016,919.314598,740.205942,8734.430116
2636.439345,-995.924147,1332.370696,8290.306550
2636.439675,-153.219100,1184.329507,9104.533087
2636.440004,1225.752797,1036.288319,8142.265362
2636.440333,1302.362347,-74.020594,8364.327145
2636.440662,383.047749,-888.247130,8882.471304
2636.440991,-306.438199,-740.205942,9474.636058
2636.441320,-919.314598,-1258.350101,10362.883188
2636.441649,-153.219100,-1110.308913,9400.615463
2636.441978,612.876398,-1258.350101,9178.553681
2636.442308,76.609550,592.164754,9178.553681
2636.442637,0.000000,1258.350101,8142.265362
2636.442966,76.609550,814.226536,8438.347739
2636.443295,766.095498,1036.288319,8068.244768
2636.443624,1838.629195,-0.000000,9104.533087
2636.443953,1378.971896,-444.123565,9326.594869
2636.444282,306.438199,-1332.370696,10066.800811
2636.444612,153.219100,-962.267725,9474.636058
2636.444941,306.438199,-962.267725,9326.594869
2636.445270,612.876398,-0.000000,9400.615463
2636.445599,536.266849,-296.082377,9400.615463
2636.445928,0.000000,370.102971,8882.471304
2636.446257,536.266849,518.144159,8290.306550
2636.446586,1072.533697,444.123565,8808.450710
2636.446916,1149.143247,444.123565,8586.388927
2636.447245,536.266849,-962.267725,9474.636058
2636.447574,-306.438199,-1332.370696,9770.718434
2636.447903,-383.047749,-1480.411884,9992.780217
2636.448232,766.095498,-1554.432478,9474.636058
2636.448561,689.485948,-370.102971,8512.368333
2636.448890,229.828649,148.041188,8734.430116
2636.449220,-306.438199,740.205942,8882.471304
2636.449549,229.828649,1184.329507,8586.388927
2636.449878,1149.143247,888.247130,8364.327145
2636.450207,1302.362347,518.144159,8216.285956
2636.450536,459.657299,-962.267725,10140.821405
2636.450865,-1225.752797,-1776.494261,10362.883188
2636.451194,0.000000,-2220.617826,10066.800811
2636.451524,153.219100,-1480.411884,9548.656652
2636.451853,383.047749,-0.000000,9252.574275
2636.452182,0.000000,444.123565,9400.615463
2636.452511,-383.047749,888.247130,8512.368333
2636.452840,536.266849,740.205942,7846.182985
2636.453169,766.095498,-0.000000,7994.224174
2636.453498,842.705048,-222.061783,8882.471304
2636.453828,0.000000,-740.205942,9326.594869
2636.454157,-919.314598,-1628.453072,9548.656652
2636.454486,-306.438199,-1554.432478,9104.533087
2636.454815,0.000000,-1036.288319,8734.430116
2636.455144,-306.438199,-148.041188,9030.512492
2636.455473,76.609550,444.123565,9104.533087
2636.455803,76.609550,814.226536,8290.306550
2636.456132,612.876398,740.205942,8142.265362
2636.456461,1532.190996,222.061783,8142.265362
2636.456790,766.095498,-222.061783,8660.409521
2636.457119,0.000000,-814.226536,9622.677246
2636.457448,0.000000,-1776.494261,9622.677246
2636.457777,612.876398,-1776.494261,9474.636058
2636.458107,919.314598,-740.205942,8956.491898
2636.458436,536.266849,-0.000000,9104.533087
2636.458765,-229.828649,962.267725,8364.327145
2636.459094,229.828649,592.164754,8956.491898
2636.459423,1225.752797,814.226536,7254.018232
2636.459752,1608.800546,-0.000000,8660.409521
2636.460081,459.657299,-666.185348,9178.553681
2636.460411,76.609550,-1776.494261,9696.697840
2636.460740,-536.266849,-1480.411884,9992.780217
2636.461069,0.000000,-1628.453072,8956.491898
2636.461398,0.000000,-444.123565,9622.677246
2636.461727,0.000000,-0.000000,9696.697840
2636.462056,459.657299,962.267725,9030.512492
2636.462385,536.266849,1110.308913,8142.265362
2636.462715,1608.800546,1406.391290,8586.388927
2636.463044,2451.505594,1036.288319,8364.327145
2636.463373,1225.752797,-296.082377,9252.574275
2636.463702,536.266849,-518.144159,9770.718434
2636.464031,153.219100,-1406.391290,9696.697840
2636.464360,612.876398,-370.102971,9474.636058
2636.464690,383.047749,592.164754,8808.450710
2636.465019,0.000000,1110.308913,9844.739029
2636.465348,-766.095498,888.247130,9622.677246
2636.465677,-383.047749,666.185348,9030.512492
2636.466006,0.000000,-222.061783,8882.471304
2636.466335,536.266849,222.061783,8808.450710
2636.466664,-612.876398,-1036.288319,9844.739029
2636.466994,-766.095498,-1332.370696,9696.697840
2636.467323,-536.266849,-1702.473667,9474.636058
2636.467652,383.047749,-888.247130,8808.450710
2636.467981,842.705048,-0.000000,9178.553681
2636.468310,0.000000,1332.370696,8512.368333
2636.468639,0.000000,1110.308913,8438.347739
2636.468968,919.314598,1332.370696,8438.347739
2636.469298,1685.410096,-0.000000,8142.265362
2636.469627,842.705048,-74.020594,9474.636058
2636.469956,306.438199,-1480.411884,9030.512492
2636.470285,-536.266849,-1776.494261,9548.656652
2636.470614,0.000000,-1702.473667,9696.697840
2636.470943,0.000000,-1332.370696,8882.471304
2636.471272,-306.438199,148.041188,9474.636058
2636.471602,-689.485948,1036.288319,9030.512492
2636.471931,-536.266849,1184.329507,8586.388927
2636.472260,383.047749,740.205942,8216.285956
2636.472589,1149.143247,-0.000000,8364.327145
2636.472918,766.095498,-518.144159,9474.636058
2636.473247,-383.047749,-1110.308913,9548.656652
2636.473577,-689.485948,-1628.453072,9918.759623
2636.473906,612.876398,-1258.350101,9474.636058
2636.474235,689.485948,-222.061783,9178.553681
2636.474564,995.924147,370.102971,9474.636058
2636.474893,536.266849,1258.350101,9178.553681
2636.475222,766.095498,1332.370696,8216.285956
2636.475551,1762.019645,1258.350101,7920.203579
2636.475881,1608.800546,370.102971,8512.368333
2636.476210,1378.971896,-74.020594,9104.533087
2636.476539,459.657299,-518.144159,9548.656652
2636.476868,-383.047749,-814.226536,9696.697840
2636.477197,153.219100,-888.247130,9030.512492
2636.477526,612.876398,-370.102971,9548.656652
2636.477855,0.000000,148.041188,9326.594869
2636.478185,0.000000,518.144159,8660.409521
2636.478514,-153.219100,1406.391290,8512.368333
2636.478843,1072.533697,-592.164754,8438.347739
2636.479172,995.924147,-222.061783,8882.471304
2636.479501,536.266849,-962.267725,9178.553681
2636.479830,-536.266849,-1554.432478,9548.656652
2636.480159,-536.266849,-1998.556043,9548.656652
2636.480489,0.000000,-1480.411884,9326.594869
2636.480818,536.266849,-1184.329507,9030.512492
