#time,accel_x,accel_y,accel_z
2393.338050,689.485948,-296.082377,8734.430116
2393.338379,766.095498,-148.041188,9326.594869
2393.338709,306.438199,-148.041188,9104.533087
2393.339038,76.609550,-222.061783,9104.533087
2393.339367,229.828649,-0.000000,9178.553681
2393.339696,459.657299,-0.000000,8956.491898
2393.340025,0.000000,-148.041188,9030.512492
2393.340354,612.876398,-74.020594,9252.574275
2393.340683,689.485948,-222.061783,8956.491898
2393.341012,0.000000,-0.000000,9030.512492
2393.341341,229.828649,-74.020594,8882.471304
2393.341671,153.219100,-74.020594,9104.533087
2393.342000,0.000000,-0.000000,8808.450710
2393.342329,0.000000,-0.000000,9030.512492
2393.342658,536.266849,222.061783,9178.553681
2393.342987,459.657299,-370.102971,9030.512492
2393.343316,306.438199,-74.020594,9030.512492
2393.343645,229.828649,-0.000000,9030.512492
2393.343974,229.828649,-222.061783,8882.471304
2393.344304,229.828649,-222.061783,9104.533087
2393.344633,612.876398,-148.041188,8882.471304
2393.344962,306.438199,296.082377,9622.677246
2393.345291,383.047749,-296.082377,9326.594869
2393.345620,306.438199,-444.123565,8882.471304
2393.345949,229.828649,-148.041188,9030.512492
2393.346278,383.047749,-222.061783,9252.574275
2393.346607,459.657299,-148.041188,9326.594869
2393.346936,842.705048,-296.082377,9400.615463
2393.347266,689.485948,-222.061783,9326.594869
2393.347595,842.705048,-148.041188,9104.533087
2393.347924,383.047749,-148.041188,9326.594869
2393.348253,306.438199,-296.082377,9400.615463
2393.348582,536.266849,-74.020594,9178.553681
2393.348911,383.047749,-148.041188,9178.553681
2393.349240,766.095498,-444.123565,9030.512492
2393.349569,459.657299,-222.061783,9178.553681
2393.349898,229.828649,-148.041188,9326.594869
2393.350228,306.438199,-74.020594,9178.553681
2393.350557,306.438199,-0.000000,8956.491898
2393.350886,306.438199,-0.000000,9030.512492
2393.351215,229.828649,-0.000000,8882.471304
2393.351544,536.266849,-0.000000,9104.533087
2393.351873,306.438199,-296.082377,8956.491898
2393.352202,0.000000,-0.000000,9178.553681
2393.352531,0.000000,-0.000000,8956.491898
2393.352860,306.438199,-0.000000,9030.512492
2393.353190,306.438199,-0.000000,8956.491898
2393.353519,306.438199,-0.000000,8808.450710
2393.353848,612.876398,-222.061783,8734.430116
2393.354177,153.219100,-148.041188,9252.574275
2393.354506,536.266849,-74.020594,9400.615463
2393.354835,459.657299,-222.061783,8882.471304
2393.355164,383.047749,-222.061783,8808.450710
2393.355493,229.828649,-148.041188,9030.512492
2393.355823,306.438199,-222.061783,9030.512492
2393.356152,536.266849,-222.061783,9474.636058
2393.356481,459.657299,-222.061783,9178.553681
2393.356810,459.657299,-296.082377,9400.615463
2393.357139,229.828649,-296.082377,9178.553681
2393.357468,229.828649,-148.041188,9400.615463
2393.357797,459.657299,-148.041188,9104.533087
2393.358126,306.438199,-148.041188,9178.553681
2393.358455,76.609550,370.102971,9252.574275
2393.358785,536.266849,-222.061783,9178.553681
2393.359114,383.047749,-222.061783,9104.533087
2393.359443,306.438199,-444.123565,9178.553681
2393.359772,229.828649,-222.061783,9178.553681
2393.360101,229.828649,-148.041188,9178.553681
2393.360430,383.047749,-148.041188,9030.512492
2393.360759,306.438199,-296.082377,9030.512492
2393.361088,306.438199,-518.144159,9030.512492
2393.361417,76.609550,-222.061783,8882.471304
2393.361747,76.609550,-222.061783,9030.512492
2393.362076,153.219100,-148.041188,8882.471304
2393.362405,536.266849,-0.000000,8808.450710
2393.362734,229.828649,-0.000000,9030.512492
2393.363063,153.219100,-222.061783,8956.491898
2393.363392,536.266849,-518.144159,8882.471304
2393.363721,842.705048,-222.061783,8882.471304
2393.364050,76.609550,-74.020594,9252.574275
2393.364379,153.219100,-0.000000,9104.533087
2393.364709,76.609550,-74.020594,9030.512492
2393.365038,76.609550,-0.000000,8882.471304
2393.365367,383.047749,-0.000000,9030.512492
2393.365696,306.438199,296.082377,8808.450710
2393.366025,689.485948,-0.000000,8956.491898
2393.366354,153.219100,-222.061783,9104.533087
2393.366683,383.047749,-222.061783,9104.533087
2393.367012,612.876398,-888.247130,9622.677246
2393.367342,1532.190996,-1110.308913,9474.636058
2393.367671,1608.800546,-740.205942,9474.636058
2393.368000,1685.410096,-148.041188,9400.615463
2393.368329,2451.505594,-444.123565,8956.491898
2393.368658,3064.381992,148.041188,8734.430116
2393.368987,3447.429741,-74.020594,8956.491898
2393.369316,3983.696590,-0.000000,8660.409521
2393.369645,3064.381992,370.102971,8882.471304
2393.369974,2987.772442,444.123565,8882.471304
2393.370304,3064.381992,-296.082377,9178.553681
2393.370633,3217.601092,-592.164754,9104.533087
2393.370962,1915.238745,-666.185348,9030.512492
2393.371291,1762.019645,-1184.329507,10214.842000
2393.371620,2451.505594,-1702.473667,9326.594869
2393.371949,2681.334243,-74.020594,9252.574275
2393.372278,2451.505594,-518.144159,9844.739029
2393.372607,3217.601092,-1332.370696,9474.636058
2393.372936,3370.820191,222.061783,9252.574275
2393.373266,5056.230287,740.205942,8586.388927
2393.373595,5056.230287,666.185348,7402.059420
2393.373924,4213.525239,1406.391290,8882.471304
2393.374253,5132.839837,814.226536,8512.368333
2393.374582,4366.744339,666.185348,7402.059420
2393.374911,3294.210641,370.102971,9474.636058
2393.375240,2451.505594,-0.000000,8068.244768
2393.375569,919.314598,666.185348,9400.615463
2393.375899,153.219100,-1110.308913,9400.615463
2393.376228,76.609550,-518.144159,9474.636058
2393.376557,0.000000,-888.247130,9548.656652
2393.376886,-919.314598,-1332.370696,9400.615463
2393.377215,-229.828649,-888.247130,9696.697840
2393.377544,-1149.143247,-888.247130,9548.656652
2393.377873,459.657299,-148.041188,7772.162391
2393.378202,383.047749,-370.102971,10214.842000
2393.378531,1072.533697,962.267725,8586.388927
2393.378861,1149.143247,-0.000000,8216.285956
2393.379190,2221.676944,1258.350101,9474.636058
2393.379519,1302.362347,-0.000000,8142.265362
2393.379848,1838.629195,518.144159,9030.512492
2393.380177,919.314598,-444.123565,8142.265362
2393.380506,842.705048,-370.102971,9622.677246
2393.380835,-306.438199,-1184.329507,8734.430116
2393.381164,0.000000,-1110.308913,9474.636058
2393.381493,-612.876398,-1628.453072,9918.759623
2393.381823,-919.314598,-1110.308913,9474.636058
2393.382152,0.000000,-1036.288319,9474.636058
2393.382481,-383.047749,-1258.350101,9252.574275
2393.382810,612.876398,-0.000000,9992.780217
2393.383139,459.657299,-518.144159,8734.430116
2393.383468,995.924147,592.164754,8808.450710
2393.383797,1455.581446,-0.000000,9104.533087
2393.384126,1838.629195,1332.370696,8290.306550
2393.384455,1378.971896,592.164754,7920.203579
2393.384785,2068.457845,666.185348,8438.347739
2393.385114,1532.190996,1258.350101,7846.182985
2393.385443,766.095498,1184.329507,8216.285956
2393.385772,536.266849,1036.288319,8290.306550
2393.386101,0.000000,-0.000000,8290.306550
2393.386430,0.000000,296.082377,8882.471304
2393.386759,-1378.971896,-370.102971,9178.553681
2393.387088,-1149.143247,-518.144159,9252.574275
2393.387418,-1302.362347,-518.144159,9400.615463
2393.387747,-1149.143247,-814.226536,9770.718434
2393.388076,-1149.143247,-666.185348,9696.697840
2393.388405,-689.485948,-740.205942,9918.759623
2393.388734,0.000000,-1184.329507,9918.759623
2393.389063,-306.438199,-370.102971,9696.697840
2393.389392,766.095498,-592.164754,9992.780217
2393.389721,1302.362347,-370.102971,10140.821405
2393.390050,2298.286494,444.123565,9178.553681
2393.390380,2834.553343,814.226536,8808.450710
2393.390709,2987.772442,1184.329507,8438.347739
2393.391038,4443.353888,1406.391290,8364.327145
2393.391367,3294.210641,1702.473667,8216.285956
2393.391696,2145.067394,1554.432478,8512.368333
2393.392025,1685.410096,814.226536,8364.327145
2393.392354,842.705048,666.185348,8660.409521
2393.392683,-229.828649,-148.041188,9326.594869
2393.393012,-612.876398,-888.247130,9770.718434
2393.393342,-919.314598,-1036.288319,9696.697840
2393.393671,-1455.581446,-1406.391290,9844.739029
2393.394000,-919.314598,-962.267725,9696.697840
2393.394329,-1072.533697,-1184.329507,9474.636058
2393.394658,-612.876398,-1036.288319,9400.615463
2393.394987,-459.657299,-814.226536,9548.656652
2393.395316,-459.657299,-962.267725,9474.636058
2393.395645,0.000000,-370.102971,8882.471304
2393.395974,229.828649,-1110.308913,9178.553681
2393.396304,153.219100,-888.247130,8956.491898
2393.396633,536.266849,-592.164754,8586.388927
2393.396962,459.657299,-814.226536,8438.347739
2393.397291,536.266849,-444.123565,8216.285956
2393.397620,229.828649,-74.020594,8438.347739
2393.397949,229.828649,-518.144159,8734.430116
2393.398278,0.000000,-666.185348,8808.450710
2393.398607,0.000000,-814.226536,8734.430116
2393.398937,-612.876398,-740.205942,8808.450710
2393.399266,-306.438199,-222.061783,9030.512492
2393.399595,-306.438199,-222.061783,8734.430116
2393.399924,-919.314598,-296.082377,9178.553681
2393.400253,76.609550,-296.082377,9104.533087
2393.400582,-229.828649,-0.000000,8512.368333
2393.400911,-306.438199,370.102971,8882.471304
2393.401240,76.609550,666.185348,9104.533087
2393.401569,306.438199,1110.308913,8586.388927
2393.401899,306.438199,962.267725,8364.327145
2393.402228,153.219100,814.226536,8882.471304
2393.402557,0.000000,222.061783,8734.430116
2393.402886,0.000000,518.144159,9030.512492
2393.403215,-459.657299,-518.144159,9400.615463
2393.403544,-689.485948,-296.082377,9548.656652
2393.403873,-459.657299,-666.185348,9622.677246
2393.404202,-229.828649,-592.164754,10140.821405
2393.404531,-229.828649,-962.267725,9918.759623
2393.404861,766.095498,-740.205942,10214.842000
2393.405190,689.485948,-592.164754,10288.862594
2393.405519,1149.143247,-444.123565,10584.944971
2393.405848,1762.019645,-0.000000,9622.677246
2393.406177,2374.896044,592.164754,9326.594869
2393.406506,3294.210641,1480.411884,8734.430116
2393.406835,3600.648841,1998.556043,8142.265362
2393.407164,3370.820191,2072.576638,8216.285956
2393.407494,3064.381992,1924.535449,8216.285956
2393.407823,2298.286494,1110.308913,8290.306550
2393.408152,1072.533697,296.082377,8512.368333
2393.408481,153.219100,-518.144159,9178.553681
2393.408810,-766.095498,-1036.288319,9474.636058
2393.409139,-919.314598,-1332.370696,9474.636058
2393.409468,-842.705048,-1480.411884,9400.615463
2393.409797,-995.924147,-1406.391290,9400.615463
2393.410126,-1149.143247,-1184.329507,9770.718434
2393.410456,-1072.533697,-1184.329507,9918.759623
2393.410785,-689.485948,-1258.350101,9992.780217
2393.411114,-153.219100,-814.226536,9474.636058
2393.411443,-153.219100,-1036.288319,9326.594869
2393.411772,0.000000,-888.247130,9474.636058
2393.412101,0.000000,-518.144159,9030.512492
2393.412430,459.657299,-740.205942,8734.430116
2393.412759,995.924147,-148.041188,9400.615463
2393.413088,1455.581446,-0.000000,8512.368333
2393.413418,995.924147,-0.000000,8068.244768
2393.413747,842.705048,222.061783,8216.285956
2393.414076,383.047749,222.061783,8290.306550
2393.414405,383.047749,-0.000000,7698.141797
2393.414734,0.000000,-74.020594,8882.471304
2393.415063,-229.828649,-518.144159,8808.450710
2393.415393,153.219100,-592.164754,8808.450710
2393.415722,-612.876398,-296.082377,8956.491898
2393.416051,-306.438199,-0.000000,9030.512492
2393.416380,-153.219100,148.041188,9104.533087
2393.416709,-153.219100,518.144159,8882.471304
2393.417038,-383.047749,222.061783,9104.533087
2393.417368,-306.438199,222.061783,8808.450710
2393.417697,0.000000,-148.041188,8808.450710
2393.418026,-229.828649,-0.000000,8808.450710
2393.418355,-229.828649,-0.000000,8808.450710
2393.418684,0.000000,-0.000000,8586.388927
2393.419013,-229.828649,-0.000000,9030.512492
2393.419343,0.000000,-592.164754,9178.553681
2393.419672,0.000000,-370.102971,9252.574275
2393.420001,0.000000,-666.185348,9918.759623
2393.420330,76.609550,-592.164754,9622.677246
2393.420659,459.657299,-370.102971,9770.718434
2393.420988,612.876398,-148.041188,10214.842000
2393.421317,1149.143247,-74.020594,9770.718434
2393.421647,2145.067394,444.123565,9622.677246
2393.421976,2528.115143,666.185348,8586.388927
2393.422305,3140.991542,1184.329507,9104.533087
2393.422634,2987.772442,1184.329507,8586.388927
2393.422963,2757.943793,1258.350101,8660.409521
2393.423292,2068.457845,1184.329507,8512.368333
2393.423622,1378.971896,666.185348,8438.347739
2393.423951,0.000000,370.102971,9326.594869
2393.424280,-689.485948,-666.185348,9548.656652
2393.424609,-995.924147,-962.267725,9474.636058
2393.424938,-842.705048,-1258.350101,9696.697840
2393.425267,-689.485948,-962.267725,9474.636058
2393.425597,-842.705048,-1184.329507,9474.636058
2393.425926,-766.095498,-1332.370696,9474.636058
2393.426255,-689.485948,-1628.453072,9844.739029
2393.426584,-842.705048,-1554.432478,9918.759623
2393.426913,-229.828649,-1184.329507,9770.718434
2393.427242,0.000000,-1184.329507,9918.759623
2393.427572,0.000000,-592.164754,9326.594869
2393.427901,76.609550,-666.185348,9252.574275
2393.428230,76.609550,-518.144159,9252.574275
2393.428559,612.876398,-222.061783,8808.450710
2393.428888,919.314598,-592.164754,8364.327145
2393.429217,1608.800546,-0.000000,7920.203579
2393.429546,1149.143247,666.185348,7698.141797
2393.429876,1225.752797,148.041188,7328.038826
2393.430205,689.485948,518.144159,7402.059420
2393.430534,612.876398,296.082377,7920.203579
2393.430863,229.828649,296.082377,7994.224174
2393.431192,76.609550,-222.061783,8660.409521
2393.431521,-229.828649,-222.061783,8734.430116
2393.431851,-459.657299,-148.041188,8882.471304
2393.432180,-383.047749,-74.020594,8734.430116
2393.432509,-536.266849,148.041188,9030.512492
2393.432838,-306.438199,148.041188,8660.409521
2393.433167,0.000000,-0.000000,8808.450710
2393.433496,0.000000,-148.041188,9178.553681
2393.433826,-229.828649,-370.102971,9104.533087
2393.434155,-459.657299,-518.144159,8956.491898
2393.434484,-306.438199,-518.144159,9474.636058
2393.434813,-459.657299,-518.144159,9770.718434
2393.435142,-306.438199,-370.102971,9400.615463
2393.435471,-612.876398,-740.205942,10214.842000
2393.435800,1225.752797,-666.185348,10436.903782
2393.436130,536.266849,-666.185348,10140.821405
2393.436459,229.828649,-444.123565,10658.965565
2393.436788,919.314598,-296.082377,10510.924376
2393.437117,995.924147,148.041188,10288.862594
2393.437446,1838.629195,740.205942,9696.697840
2393.437775,3140.991542,1702.473667,9326.594869
2393.438105,3370.820191,2368.659014,8364.327145
2393.438434,2987.772442,2368.659014,8068.244768
2393.438763,2451.505594,1702.473667,8586.388927
2393.439092,1608.800546,1702.473667,8290.306550
2393.439421,1149.143247,592.164754,8660.409521
2393.439750,0.000000,-296.082377,9252.574275
2393.440080,-689.485948,-1554.432478,9696.697840
2393.440409,-1149.143247,-1554.432478,9400.615463
2393.440738,-689.485948,-1406.391290,9474.636058
2393.441067,-919.314598,-1702.473667,9696.697840
2393.441396,-919.314598,-1184.329507,9326.594869
2393.441725,-842.705048,-962.267725,10214.842000
2393.442055,-383.047749,-1184.329507,9622.677246
2393.442384,0.000000,-962.267725,9548.656652
2393.442713,0.000000,-592.164754,9622.677246
2393.443042,0.000000,-148.041188,9104.533087
2393.443371,153.219100,-740.205942,9400.615463
2393.443700,0.000000,-814.226536,8660.409521
2393.444029,536.266849,-1036.288319,8734.430116
2393.444359,842.705048,-740.205942,8290.306550
2393.444688,1532.190996,-0.000000,7550.100608
2393.445017,1915.238745,-74.020594,7624.121203
2393.445346,1378.971896,-74.020594,6957.935855
2393.445675,1532.190996,296.082377,7476.080014
2393.446004,689.485948,-74.020594,8290.306550
2393.446334,306.438199,-0.000000,7846.182985
2393.446663,0.000000,-74.020594,8438.347739
2393.446992,-536.266849,-370.102971,8808.450710
2393.447321,-612.876398,-444.123565,8734.430116
2393.447650,-306.438199,-0.000000,9400.615463
2393.447979,-536.266849,370.102971,9104.533087
2393.448309,-306.438199,296.082377,9178.553681
2393.448638,-383.047749,148.041188,8734.430116
2393.448967,-306.438199,-74.020594,9178.553681
2393.449296,0.000000,-518.144159,9252.574275
2393.449625,76.609550,-518.144159,8956.491898
2393.449954,76.609550,-814.226536,9474.636058
2393.450283,-306.438199,-666.185348,9400.615463
2393.450613,0.000000,-518.144159,9326.594869
2393.450942,153.219100,-962.267725,9548.656652
2393.451271,229.828649,-740.205942,9844.739029
2393.451600,1072.533697,-370.102971,9844.739029
2393.451929,1378.971896,888.247130,9844.739029
2393.452258,1532.190996,296.082377,9622.677246
2393.452588,2451.505594,1554.432478,9178.553681
2393.452917,2987.772442,1406.391290,8808.450710
2393.453246,2834.553343,1554.432478,8882.471304
2393.453575,2451.505594,1628.453072,8734.430116
2393.453904,2451.505594,2072.576638,8438.347739
2393.454233,1838.629195,814.226536,8586.388927
2393.454563,1149.143247,-148.041188,8808.450710
2393.454892,0.000000,-148.041188,9252.574275
2393.455221,-612.876398,-666.185348,9474.636058
2393.455550,-1149.143247,-1258.350101,9992.780217
2393.455879,-995.924147,-1110.308913,9030.512492
2393.456208,-1149.143247,-1036.288319,9770.718434
2393.456538,-995.924147,-1258.350101,9918.759623
2393.456867,-383.047749,-740.205942,9844.739029
2393.457196,-689.485948,-1184.329507,9622.677246
2393.457525,-766.095498,-888.247130,9770.718434
2393.457854,-383.047749,-888.247130,10066.800811
2393.458183,-306.438199,-740.205942,9474.636058
2393.458512,-459.657299,-1036.288319,9548.656652
2393.458842,-612.876398,-1110.308913,9696.697840
2393.459171,153.219100,-814.226536,9326.594869
2393.459500,153.219100,-444.123565,9326.594869
2393.459829,383.047749,-222.061783,8808.450710
2393.460158,995.924147,-0.000000,7772.162391
2393.460487,1378.971896,296.082377,7846.182985
2393.460817,1225.752797,444.123565,7328.038826
2393.461146,1532.190996,592.164754,7179.997637
2393.461475,1225.752797,222.061783,8438.347739
2393.461804,612.876398,148.041188,7772.162391
2393.462133,229.828649,370.102971,8216.285956
2393.462462,-383.047749,-148.041188,8734.430116
2393.462792,-766.095498,-74.020594,9030.512492
2393.463121,-612.876398,-74.020594,9030.512492
2393.463450,-229.828649,-222.061783,8586.388927
2393.463779,0.000000,-0.000000,9030.512492
2393.464108,-306.438199,-74.020594,9030.512492
2393.464437,-306.438199,-0.000000,8882.471304
2393.464767,-383.047749,-0.000000,9104.533087
2393.465096,-383.047749,-518.144159,9030.512492
2393.465425,0.000000,-814.226536,9252.574275
2393.465754,-153.219100,-962.267725,9622.677246
2393.466083,0.000000,-740.205942,9474.636058
2393.466412,0.000000,-814.226536,9696.697840
2393.466741,459.657299,-888.247130,9770.718434
2393.467071,919.314598,-518.144159,9844.739029
2393.467400,1302.362347,-0.000000,9548.656652
2393.467729,2374.896044,222.061783,9548.656652
2393.468058,2757.943793,1036.288319,9104.533087
2393.468387,2911.162892,1702.473667,8586.388927
2393.468716,2911.162892,1702.473667,8882.471304
2393.469046,2451.505594,1480.411884,8438.347739
2393.469375,1991.848295,1406.391290,8586.388927
2393.469704,1225.752797,888.247130,8660.409521
2393.470033,919.314598,-222.061783,9696.697840
2393.470362,-612.876398,-666.185348,9400.615463
2393.470691,-612.876398,-1332.370696,10214.842000
2393.471021,-995.924147,-1776.494261,9918.759623
2393.471350,-995.924147,-1184.329507,9474.636058
2393.471679,-919.314598,-1036.288319,9474.636058
2393.472008,-919.314598,-962.267725,9474.636058
2393.472337,-383.047749,-814.226536,9918.759623
2393.472666,-1072.533697,-888.247130,9474.636058
2393.472995,76.609550,-962.267725,9622.677246
2393.473325,76.609550,-370.102971,9770.718434
2393.473654,-306.438199,-74.020594,8882.471304
2393.473983,0.000000,-592.164754,9474.636058
2393.474312,0.000000,-370.102971,9326.594869
2393.474641,229.828649,-740.205942,9178.553681
2393.474970,1149.143247,-0.000000,8586.388927
2393.475300,1302.362347,518.144159,8290.306550
2393.475629,1072.533697,592.164754,7698.141797
2393.475958,1302.362347,444.123565,7402.059420
2393.476287,1455.581446,370.102971,7698.141797
2393.476616,1072.533697,296.082377,7772.162391
2393.476945,995.924147,-0.000000,7772.162391
2393.477275,229.828649,-444.123565,8586.388927
2393.477604,0.000000,-370.102971,8512.368333
2393.477933,-766.095498,-444.123565,8956.491898
2393.478262,-612.876398,-222.061783,9178.553681
2393.478591,-766.095498,-0.000000,9030.512492
2393.478920,-306.438199,148.041188,9030.512492
2393.479250,-766.095498,-0.000000,9030.512492
2393.479579,-229.828649,-518.144159,8956.491898
2393.479908,-383.047749,-592.164754,9178.553681
2393.480237,-612.876398,-444.123565,9178.553681
2393.480566,-306.438199,-444.123565,9326.594869
2393.480895,0.000000,-370.102971,9326.594869
2393.481224,0.000000,-222.061783,9474.636058
2393.481554,306.438199,-518.144159,9548.656652
2393.481883,842.705048,-444.123565,9474.636058
2393.482212,0.000000,-518.144159,9548.656652
2393.482541,842.705048,-296.082377,9770.718434
2393.482870,1225.752797,222.061783,9474.636058
2393.483199,1302.362347,740.205942,9474.636058
2393.483529,2068.457845,888.247130,9400.615463
2393.483858,2451.505594,1110.308913,9474.636058
2393.484187,2451.505594,888.247130,9178.553681
2393.484516,1838.629195,888.247130,8956.491898
2393.484845,1838.629195,1184.329507,8734.430116
2393.485174,995.924147,962.267725,8660.409521
2393.485504,536.266849,296.082377,9252.574275
2393.485833,0.000000,-74.020594,9104.533087
2393.486162,-306.438199,-740.205942,9178.553681
2393.486491,-306.438199,-962.267725,9474.636058
2393.486820,-153.219100,-1258.350101,9474.636058
2393.487149,-766.095498,-1184.329507,9326.594869
2393.487478,-766.095498,-1258.350101,9622.677246
2393.487808,-306.438199,-1110.308913,9548.656652
2393.488137,-383.047749,-1036.288319,9474.636058
2393.488466,0.000000,-814.226536,9474.636058
2393.488795,-383.047749,-666.185348,9918.759623
2393.489124,-76.609550,-1036.288319,9178.553681
2393.489453,229.828649,-888.247130,9030.512492
2393.489783,306.438199,-666.185348,9548.656652
2393.490112,995.924147,-370.102971,8734.430116
2393.490441,1455.581446,296.082377,7698.141797
2393.490770,1455.581446,518.144159,7476.080014
2393.491099,842.705048,814.226536,8290.306550
2393.491428,1072.533697,-0.000000,7994.224174
2393.491758,919.314598,-222.061783,7920.203579
2393.492087,306.438199,-444.123565,8290.306550
2393.492416,0.000000,-666.185348,8660.409521
2393.492745,-459.657299,-814.226536,8808.450710
2393.493074,-689.485948,-888.247130,9326.594869
2393.493403,0.000000,-666.185348,9104.533087
2393.493733,-229.828649,-296.082377,8808.450710
2393.494062,-459.657299,74.020594,8956.491898
2393.494391,0.000000,814.226536,8512.368333
2393.494720,306.438199,592.164754,8364.327145
2393.495049,153.219100,370.102971,8660.409521
2393.495378,229.828649,444.123565,8808.450710
2393.495707,229.828649,-74.020594,8586.388927
2393.496037,76.609550,-0.000000,8882.471304
2393.496366,0.000000,-740.205942,9400.615463
2393.496695,0.000000,-518.144159,9178.553681
2393.497024,-459.657299,-888.247130,9696.697840
2393.497353,0.000000,-1036.288319,9844.739029
2393.497682,536.266849,-962.267725,9918.759623
2393.498012,459.657299,-296.082377,10362.883188
2393.498341,919.314598,-0.000000,9992.780217
2393.498670,1685.410096,370.102971,9770.718434
2393.498999,1991.848295,1184.329507,9104.533087
2393.499328,2528.115143,1480.411884,8808.450710
2393.499657,2451.505594,1776.494261,8438.347739
2393.499987,2374.896044,1258.350101,8364.327145
2393.500316,2374.896044,814.226536,8438.347739
2393.500645,1532.190996,518.144159,8882.471304
2393.500974,229.828649,-222.061783,9178.553681
2393.501303,-306.438199,-814.226536,9474.636058
2393.501632,-766.095498,-1184.329507,9696.697840
2393.501961,-842.705048,-1850.514855,9696.697840
2393.502291,-995.924147,-1332.370696,9696.697840
2393.502620,-383.047749,-1702.473667,10066.800811
2393.502949,-612.876398,-962.267725,9548.656652
2393.503278,-459.657299,-962.267725,10436.903782
2393.503607,-536.266849,-592.164754,9696.697840
2393.503936,0.000000,-444.123565,9474.636058
2393.504266,0.000000,-370.102971,9622.677246
2393.504595,-306.438199,-888.247130,9548.656652
2393.504924,306.438199,-1184.329507,8956.491898
2393.505253,766.095498,-814.226536,9178.553681
2393.505582,1072.533697,-518.144159,8364.327145
2393.505911,1072.533697,-148.041188,8290.306550
2393.506241,1302.362347,-0.000000,7994.224174
2393.506570,919.314598,370.102971,8068.244768
2393.506899,919.314598,-74.020594,7920.203579
2393.507228,1149.143247,-74.020594,8364.327145
2393.507557,229.828649,-74.020594,8438.347739
2393.507886,383.047749,-222.061783,8364.327145
2393.508216,76.609550,-0.000000,8364.327145
2393.508545,0.000000,296.082377,8734.430116
2393.508874,0.000000,444.123565,8660.409521
2393.509203,76.609550,444.123565,8808.450710
2393.509532,0.000000,-0.000000,8882.471304
2393.509861,-459.657299,-0.000000,9030.512492
2393.510190,-229.828649,-74.020594,8364.327145
2393.510520,-306.438199,-222.061783,8734.430116
2393.510849,-306.438199,-518.144159,9104.533087
2393.511178,0.000000,-296.082377,8734.430116
2393.511507,0.000000,-740.205942,8956.491898
2393.511836,0.000000,-740.205942,9474.636058
2393.512165,0.000000,-666.185348,9696.697840
2393.512494,383.047749,-444.123565,9696.697840
2393.512823,689.485948,-370.102971,9918.759623
2393.513152,995.924147,-148.041188,9844.739029
2393.513481,1378.971896,-0.000000,9696.697840
2393.513810,1838.629195,666.185348,10214.842000
2393.514139,1838.629195,666.185348,9548.656652
2393.514468,2451.505594,296.082377,9104.533087
2393.514798,2068.457845,666.185348,9252.574275
2393.515127,1915.238745,888.247130,9400.615463
2393.515456,1608.800546,814.226536,8956.491898
2393.515785,995.924147,740.205942,8956.491898
2393.516114,612.876398,222.061783,9474.636058
2393.516443,383.047749,-296.082377,9104.533087
2393.516772,-536.266849,-814.226536,9474.636058
2393.517101,-1072.533697,-1110.308913,9770.718434
2393.517430,-842.705048,-888.247130,9548.656652
2393.517759,-1149.143247,-740.205942,9400.615463
2393.518088,-1072.533697,-962.267725,9474.636058
2393.518417,-689.485948,-814.226536,9474.636058
2393.518746,-1225.752797,-888.247130,9104.533087
2393.519075,229.828649,-1036.288319,9696.697840
2393.519404,0.000000,-518.144159,9548.656652
2393.519733,0.000000,-370.102971,8882.471304
2393.520062,0.000000,-592.164754,8956.491898
2393.520391,76.609550,-740.205942,9104.533087
2393.520720,459.657299,-222.061783,8512.368333
2393.521049,1149.143247,-74.020594,8142.265362
2393.521378,1455.581446,592.164754,8438.347739
2393.521707,1302.362347,-0.000000,8216.285956
2393.522036,842.705048,-0.000000,8438.347739
2393.522365,766.095498,222.061783,7994.224174
2393.522695,229.828649,-74.020594,8142.265362
2393.523024,76.609550,-222.061783,8882.471304
2393.523353,-229.828649,-0.000000,8364.327145
2393.523682,-459.657299,-0.000000,8882.471304
2393.524011,-306.438199,-444.123565,8142.265362
2393.524340,-229.828649,-74.020594,8956.491898
2393.524669,-383.047749,-0.000000,8660.409521
2393.524998,-306.438199,222.061783,8734.430116
2393.525327,76.609550,-0.000000,8882.471304
2393.525656,0.000000,370.102971,8364.327145
2393.525985,229.828649,-74.020594,9178.553681
2393.526314,0.000000,-0.000000,9178.553681
2393.526643,-306.438199,-0.000000,9104.533087
2393.526972,229.828649,-296.082377,9252.574275
2393.527301,0.000000,-444.123565,9400.615463
2393.527630,153.219100,-518.144159,9622.677246
2393.527959,689.485948,-740.205942,9548.656652
2393.528288,612.876398,-814.226536,9918.759623
2393.528617,383.047749,-222.061783,10214.842000
2393.528946,995.924147,-0.000000,9696.697840
2393.529275,1608.800546,518.144159,9622.677246
2393.529604,2145.067394,888.247130,9548.656652
2393.529933,1915.238745,1184.329507,9030.512492
2393.530262,2374.896044,1258.350101,9030.512492
2393.530592,2451.505594,1258.350101,9178.553681
2393.530921,1838.629195,1110.308913,8808.450710
2393.531250,1302.362347,740.205942,8660.409521
2393.531579,842.705048,222.061783,9178.553681
2393.531908,153.219100,-74.020594,9178.553681
2393.532237,-383.047749,-222.061783,9252.574275
2393.532566,-536.266849,-1628.453072,9770.718434
2393.532895,-842.705048,-1036.288319,9622.677246
2393.533224,-919.314598,-1554.432478,9104.533087
2393.533553,-1072.533697,-1332.370696,9474.636058
2393.533882,-766.095498,-1184.329507,9474.636058
2393.534211,-383.047749,-962.267725,9326.594869
2393.534540,0.000000,-1036.288319,9326.594869
2393.534869,383.047749,-814.226536,9400.615463
2393.535198,842.705048,-814.226536,8808.450710
2393.535527,1149.143247,-518.144159,7994.224174
2393.535856,1378.971896,-148.041188,8512.368333
2393.536185,1302.362347,-0.000000,8364.327145
2393.536514,1302.362347,-222.061783,8364.327145
2393.536843,919.314598,-296.082377,8438.347739
2393.537172,842.705048,-0.000000,8364.327145
2393.537501,153.219100,-666.185348,8586.388927
2393.537830,0.000000,-518.144159,9104.533087
2393.538159,-689.485948,-740.205942,8882.471304
2393.538489,-842.705048,-370.102971,8660.409521
2393.538818,-459.657299,-222.061783,9104.533087
2393.539147,-766.095498,-296.082377,8512.368333
2393.539476,-229.828649,-0.000000,8734.430116
2393.539805,-383.047749,-0.000000,8956.491898
2393.540134,0.000000,296.082377,8438.347739
2393.540463,229.828649,370.102971,8290.306550
2393.540792,229.828649,592.164754,8364.327145
2393.541121,153.219100,370.102971,8438.347739
2393.541450,383.047749,-0.000000,8660.409521
2393.541779,536.266849,-370.102971,8586.388927
2393.542108,76.609550,-148.041188,8808.450710
2393.542437,229.828649,-370.102971,9104.533087
2393.542766,-229.828649,-0.000000,9770.718434
2393.543095,0.000000,-296.082377,9844.739029
2393.543424,229.828649,-444.123565,9696.697840
2393.543753,229.828649,-592.164754,9770.718434
2393.544082,689.485948,-296.082377,10140.821405
2393.544411,766.095498,-74.020594,10288.862594
2393.544740,919.314598,-0.000000,9622.677246
2393.545069,1532.190996,296.082377,9696.697840
2393.545398,2298.286494,518.144159,9326.594869
2393.545727,2298.286494,962.267725,8882.471304
2393.546056,2068.457845,888.247130,9178.553681
2393.546385,2145.067394,888.247130,9104.533087
2393.546715,2145.067394,740.205942,8734.430116
2393.547044,1302.362347,148.041188,9326.594869
2393.547373,153.219100,-0.000000,8512.368333
2393.547702,-306.438199,-296.082377,9104.533087
2393.548031,-766.095498,-592.164754,9474.636058
2393.548360,-1072.533697,-962.267725,9696.697840
2393.548689,-1532.190996,-1554.432478,9400.615463
2393.549018,-1149.143247,-1480.411884,9844.739029
2393.549347,-1915.238745,-1184.329507,9696.697840
2393.549676,-1149.143247,-1110.308913,9474.636058
2393.550005,-459.657299,-1036.288319,9474.636058
2393.550334,0.000000,-666.185348,9548.656652
2393.550663,76.609550,-370.102971,9178.553681
2393.550992,995.924147,-740.205942,9030.512492
2393.551321,1455.581446,-444.123565,8438.347739
2393.551650,1915.238745,-0.000000,8142.265362
2393.551979,1225.752797,296.082377,8068.244768
2393.552308,1378.971896,296.082377,7994.224174
2393.552637,995.924147,370.102971,7994.224174
2393.552966,995.924147,-0.000000,7846.182985
2393.553295,536.266849,-0.000000,8142.265362
2393.553624,-459.657299,-518.144159,8438.347739
2393.553953,-153.219100,-592.164754,8216.285956
2393.554282,-689.485948,-666.185348,8660.409521
2393.554612,-383.047749,-296.082377,8882.471304
2393.554941,-536.266849,-222.061783,8586.388927
2393.555270,-689.485948,-148.041188,8882.471304
2393.555599,-689.485948,-222.061783,8882.471304
2393.555928,-459.657299,296.082377,8808.450710
2393.556257,229.828649,-0.000000,8808.450710
2393.556586,0.000000,-0.000000,9104.533087
2393.556915,76.609550,296.082377,8586.388927
2393.557244,153.219100,-0.000000,8882.471304
2393.557573,153.219100,-0.000000,9178.553681
2393.557902,153.219100,-592.164754,9474.636058
2393.558231,306.438199,-518.144159,9474.636058
2393.558560,383.047749,-666.185348,9992.780217
2393.558889,76.609550,-888.247130,9992.780217
2393.559218,306.438199,-592.164754,9696.697840
2393.559547,153.219100,-222.061783,10288.862594
2393.559876,612.876398,-296.082377,9992.780217
2393.560205,1072.533697,-0.000000,9844.739029
2393.560534,2068.457845,296.082377,9548.656652
2393.560863,1991.848295,370.102971,9178.553681
2393.561192,2145.067394,1110.308913,9474.636058
2393.561521,2068.457845,1258.350101,8956.491898
2393.561850,2068.457845,1110.308913,8734.430116
2393.562179,1455.581446,740.205942,8882.471304
2393.562509,1838.629195,-0.000000,8882.471304
2393.562838,612.876398,-148.041188,9104.533087
2393.563167,0.000000,-370.102971,9696.697840
2393.563496,0.000000,-666.185348,9326.594869
2393.563825,-766.095498,-814.226536,9474.636058
2393.564154,-766.095498,-1036.288319,9474.636058
2393.564483,-919.314598,-1110.308913,9252.574275
2393.564812,-459.657299,-1258.350101,9252.574275
2393.565141,-383.047749,-1258.350101,9400.615463
2393.565470,-306.438199,-962.267725,8956.491898
2393.565799,0.000000,-814.226536,9178.553681
2393.566128,612.876398,-444.123565,8734.430116
2393.566457,1072.533697,-296.082377,8438.347739
2393.566786,1149.143247,-370.102971,8512.368333
2393.567115,1225.752797,-444.123565,7994.224174
2393.567444,1149.143247,-222.061783,8142.265362
2393.567773,766.095498,-148.041188,7994.224174
2393.568102,919.314598,-296.082377,8290.306550
2393.568431,0.000000,-370.102971,8364.327145
2393.568760,0.000000,-444.123565,8586.388927
2393.569089,-536.266849,-296.082377,8808.450710
2393.569418,-229.828649,-518.144159,8586.388927
2393.569747,-383.047749,-740.205942,8808.450710
2393.570076,0.000000,-444.123565,9252.574275
2393.570406,0.000000,-0.000000,9178.553681
2393.570735,0.000000,-0.000000,8364.327145
2393.571064,0.000000,444.123565,9104.533087
2393.571393,153.219100,666.185348,8808.450710
2393.571722,76.609550,370.102971,8660.409521
2393.572051,153.219100,-148.041188,9104.533087
2393.572380,229.828649,-0.000000,9622.677246
2393.572709,383.047749,-148.041188,9030.512492
2393.573038,0.000000,-296.082377,9474.636058
2393.573367,76.609550,-296.082377,9696.697840
2393.573696,76.609550,-222.061783,9474.636058
2393.574025,306.438199,-518.144159,9326.594869
2393.574354,766.095498,-444.123565,10288.862594
2393.574683,1378.971896,-0.000000,9844.739029
2393.575012,1455.581446,-0.000000,9696.697840
2393.575341,1378.971896,-0.000000,9770.718434
2393.575670,1608.800546,666.185348,9400.615463
2393.575999,2145.067394,888.247130,9030.512492
2393.576328,2528.115143,592.164754,9326.594869
2393.576657,2221.676944,518.144159,9400.615463
2393.576986,1991.848295,444.123565,8956.491898
2393.577315,1608.800546,370.102971,8734.430116
2393.577644,1149.143247,370.102971,8882.471304
2393.577973,459.657299,-0.000000,8882.471304
2393.578302,-229.828649,-370.102971,9178.553681
2393.578632,-612.876398,-1036.288319,9474.636058
2393.578961,-995.924147,-1184.329507,9770.718434
2393.579290,-919.314598,-1258.350101,9474.636058
2393.579619,-1225.752797,-1406.391290,9622.677246
2393.579948,-1149.143247,-1258.350101,9474.636058
2393.580277,-842.705048,-1184.329507,9326.594869
2393.580606,-766.095498,-1184.329507,9548.656652
2393.580935,-306.438199,-1036.288319,9474.636058
2393.581264,0.000000,-888.247130,9474.636058
2393.581593,0.000000,-814.226536,8956.491898
2393.581922,995.924147,-518.144159,8586.388927
2393.582251,1225.752797,-148.041188,8586.388927
2393.582580,1225.752797,-0.000000,8364.327145
2393.582909,1532.190996,-0.000000,8142.265362
2393.583238,1378.971896,-0.000000,8142.265362
2393.583567,1072.533697,-296.082377,8216.285956
2393.583896,842.705048,-148.041188,7994.224174
2393.584225,689.485948,-74.020594,8364.327145
2393.584554,0.000000,-370.102971,8512.368333
2393.584883,-383.047749,-74.020594,8734.430116
2393.585212,-383.047749,-148.041188,8586.388927
2393.585541,-306.438199,-518.144159,8586.388927
2393.585870,0.000000,-148.041188,8734.430116
2393.586199,-383.047749,-148.041188,8956.491898
2393.586529,-689.485948,296.082377,8882.471304
2393.586858,-306.438199,370.102971,8882.471304
2393.587187,0.000000,370.102971,8438.347739
2393.587516,0.000000,222.061783,8734.430116
2393.587845,0.000000,-74.020594,9030.512492
2393.588174,-459.657299,-444.123565,9030.512492
2393.588503,0.000000,-518.144159,8956.491898
2393.588832,0.000000,-592.164754,9548.656652
2393.589161,0.000000,-370.102971,9696.697840
2393.589490,0.000000,-814.226536,9622.677246
2393.589819,76.609550,-740.205942,9992.780217
2393.590148,919.314598,-370.102971,10214.842000
2393.590477,766.095498,-666.185348,9474.636058
2393.590806,1072.533697,-222.061783,10362.883188
2393.591135,1608.800546,-0.000000,9992.780217
2393.591464,2068.457845,888.247130,9326.594869
2393.591793,2298.286494,1110.308913,9252.574275
2393.592122,2374.896044,1184.329507,9104.533087
2393.592451,2374.896044,1184.329507,8808.450710
2393.592780,1762.019645,962.267725,8882.471304
2393.593109,1532.190996,518.144159,9474.636058
2393.593438,919.314598,-0.000000,8956.491898
2393.593767,76.609550,-370.102971,9178.553681
2393.594096,-383.047749,-814.226536,9548.656652
2393.594426,-995.924147,-814.226536,9474.636058
2393.594755,-306.438199,-1110.308913,9548.656652
2393.595084,-536.266849,-1406.391290,9696.697840
2393.595413,-689.485948,-1776.494261,9622.677246
2393.595742,-919.314598,-1036.288319,9104.533087
2393.596071,-459.657299,-888.247130,9400.615463
2393.596400,-229.828649,-666.185348,9474.636058
2393.596729,153.219100,-370.102971,8956.491898
2393.597058,306.438199,-592.164754,8808.450710
2393.597387,536.266849,-370.102971,8882.471304
2393.597716,995.924147,-74.020594,8290.306550
2393.598045,1302.362347,-0.000000,8142.265362
2393.598374,1149.143247,-74.020594,7994.224174
2393.598703,1149.143247,-0.000000,7920.203579
2393.599032,536.266849,-148.041188,7846.182985
2393.599361,229.828649,-0.000000,8512.368333
2393.599690,-153.219100,-444.123565,8512.368333
2393.600019,0.000000,-740.205942,8734.430116
2393.600348,-229.828649,-592.164754,8956.491898
2393.600677,-612.876398,-518.144159,8586.388927
2393.601006,-689.485948,-222.061783,8586.388927
2393.601335,-306.438199,-0.000000,8882.471304
2393.601664,0.000000,-148.041188,8734.430116
2393.601993,-383.047749,-0.000000,8734.430116
2393.602323,383.047749,370.102971,9178.553681
2393.602652,0.000000,-0.000000,9030.512492
2393.602981,76.609550,-0.000000,8882.471304
2393.603310,153.219100,296.082377,9178.553681
2393.603639,76.609550,-0.000000,9104.533087
2393.603968,459.657299,-296.082377,9326.594869
2393.604297,0.000000,-222.061783,9992.780217
2393.604626,229.828649,-222.061783,9992.780217
2393.604955,919.314598,-296.082377,9992.780217
2393.605284,229.828649,-0.000000,10066.800811
2393.605613,536.266849,-148.041188,10066.800811
2393.605942,766.095498,-0.000000,9622.677246
2393.606271,1225.752797,444.123565,9770.718434
2393.606600,1991.848295,370.102971,9548.656652
2393.606929,2221.676944,444.123565,9474.636058
2393.607258,1991.848295,1036.288319,9178.553681
2393.607587,1838.629195,1036.288319,9326.594869
2393.607916,1762.019645,962.267725,8808.450710
2393.608245,1532.190996,962.267725,8660.409521
2393.608574,1149.143247,518.144159,8956.491898
2393.608903,76.609550,444.123565,9252.574275
2393.609232,-229.828649,-518.144159,8808.450710
2393.609561,-536.266849,-1036.288319,9252.574275
2393.609890,-919.314598,-518.144159,9474.636058
2393.610219,-1378.971896,-1110.308913,9252.574275
2393.610549,-1225.752797,-1332.370696,9548.656652
2393.610878,-1072.533697,-1332.370696,9696.697840
2393.611207,-612.876398,-888.247130,9326.594869
2393.611536,-612.876398,-1406.391290,9474.636058
2393.611865,-76.609550,-1184.329507,9992.780217
2393.612194,0.000000,-592.164754,8956.491898
2393.612523,0.000000,-814.226536,8882.471304
2393.612852,459.657299,-814.226536,9474.636058
2393.613181,919.314598,-148.041188,8734.430116
2393.613510,1455.581446,-296.082377,7994.224174
2393.613839,1762.019645,-222.061783,7476.080014
2393.614168,1838.629195,-0.000000,7772.162391
2393.614497,1302.362347,370.102971,7994.224174
2393.614826,842.705048,296.082377,7920.203579
2393.615155,229.828649,-370.102971,8364.327145
2393.615484,0.000000,-296.082377,8438.347739
2393.615813,-1302.362347,-518.144159,8956.491898
2393.616142,-995.924147,-888.247130,9474.636058
2393.616471,-689.485948,-666.185348,8734.430116
2393.616800,-919.314598,-444.123565,9178.553681
2393.617129,-536.266849,148.041188,9252.574275
2393.617458,-229.828649,222.061783,8882.471304
2393.617787,-229.828649,444.123565,8808.450710
2393.618116,-229.828649,370.102971,9326.594869
2393.618445,459.657299,666.185348,9252.574275
2393.618774,0.000000,-222.061783,8734.430116
2393.619103,612.876398,-0.000000,9030.512492
2393.619433,306.438199,-0.000000,9178.553681
2393.619762,229.828649,-0.000000,8956.491898
2393.620091,306.438199,-296.082377,9474.636058
2393.620420,689.485948,-444.123565,9844.739029
2393.620749,536.266849,-74.020594,9474.636058
2393.621078,689.485948,-296.082377,9992.780217
2393.621407,766.095498,-148.041188,9696.697840
2393.621736,1225.752797,-0.000000,9844.739029
2393.622065,1762.019645,-0.000000,9696.697840
2393.622394,2068.457845,814.226536,9400.615463
2393.622723,2451.505594,666.185348,9178.553681
2393.623052,2374.896044,740.205942,8808.450710
2393.623381,2528.115143,1184.329507,9178.553681
2393.623710,2068.457845,444.123565,8660.409521
2393.624039,1149.143247,518.144159,8882.471304
2393.624368,229.828649,-0.000000,9252.574275
2393.624697,-229.828649,-444.123565,9178.553681
2393.625026,-459.657299,-962.267725,9474.636058
2393.625355,-1532.190996,-1184.329507,9548.656652
2393.625684,-1455.581446,-888.247130,9992.780217
2393.626013,-766.095498,-1110.308913,9770.718434
2393.626342,-1378.971896,-1258.350101,9770.718434
2393.626671,-995.924147,-1110.308913,9474.636058
2393.627000,-459.657299,-1110.308913,9400.615463
2393.627329,-229.828649,-814.226536,9548.656652
2393.627658,0.000000,-888.247130,8734.430116
2393.627987,689.485948,-666.185348,9474.636058
2393.628316,689.485948,-518.144159,8882.471304
2393.628645,1302.362347,-74.020594,8216.285956
2393.628974,1378.971896,222.061783,7846.182985
2393.629304,1455.581446,592.164754,7772.162391
2393.629633,1225.752797,592.164754,8068.244768
2393.629962,995.924147,370.102971,7550.100608
2393.630291,1149.143247,-0.000000,7920.203579
2393.630620,-459.657299,-592.164754,8438.347739
2393.630949,-383.047749,-148.041188,8216.285956
2393.631278,-689.485948,-666.185348,8734.430116
2393.631607,-766.095498,-592.164754,8808.450710
2393.631936,-689.485948,-370.102971,8808.450710
2393.632265,-612.876398,-296.082377,8660.409521
2393.632594,-306.438199,-0.000000,8660.409521
2393.632923,-153.219100,-0.000000,9326.594869
2393.633252,0.000000,-0.000000,8364.327145
2393.633581,153.219100,-0.000000,8956.491898
2393.633910,383.047749,296.082377,8808.450710
2393.634239,459.657299,296.082377,8438.347739
2393.634568,536.266849,-0.000000,9400.615463
2393.634897,766.095498,-148.041188,9400.615463
2393.635226,229.828649,-222.061783,9400.615463
2393.635555,0.000000,-518.144159,9696.697840
2393.635884,383.047749,-518.144159,10140.821405
2393.636213,306.438199,-518.144159,10066.800811
2393.636542,383.047749,-148.041188,10140.821405
2393.636871,995.924147,-296.082377,10214.842000
2393.637200,1455.581446,-0.000000,10140.821405
2393.637529,995.924147,296.082377,9770.718434
2393.637858,2145.067394,740.205942,9178.553681
2393.638187,2374.896044,1258.350101,9252.574275
2393.638516,2145.067394,1332.370696,8882.471304
2393.638846,1838.629195,1184.329507,8734.430116
2393.639175,1532.190996,888.247130,9030.512492
2393.639504,766.095498,444.123565,8734.430116
2393.639833,0.000000,-222.061783,9252.574275
2393.640162,-612.876398,-592.164754,9326.594869
2393.640491,-919.314598,-888.247130,9474.636058
2393.640820,-995.924147,-1110.308913,9548.656652
2393.641149,-1225.752797,-1184.329507,9474.636058
2393.641478,-383.047749,-1036.288319,9400.615463
2393.641807,-1608.800546,-740.205942,9104.533087
2393.642136,-842.705048,-962.267725,9474.636058
2393.642465,-612.876398,-666.185348,9474.636058
2393.642794,0.000000,-666.185348,9030.512492
2393.643123,0.000000,-592.164754,9400.615463
2393.643452,0.000000,-814.226536,9104.533087
2393.643781,536.266849,-296.082377,8438.347739
2393.644110,766.095498,-296.082377,8216.285956
2393.644439,1991.848295,-0.000000,7624.121203
2393.644768,1378.971896,370.102971,7550.100608
2393.645097,1149.143247,-0.000000,7920.203579
2393.645426,1302.362347,-0.000000,7920.203579
2393.645755,536.266849,-148.041188,7920.203579
2393.646084,153.219100,-222.061783,8660.409521
2393.646413,229.828649,-370.102971,8290.306550
2393.646742,-766.095498,-222.061783,9178.553681
2393.647071,-536.266849,-296.082377,9030.512492
2393.647400,-459.657299,-74.020594,8956.491898
2393.647729,-459.657299,-0.000000,8734.430116
2393.648058,-459.657299,296.082377,8956.491898
2393.648387,0.000000,-0.000000,8956.491898
2393.648717,0.000000,-0.000000,8956.491898
2393.649046,0.000000,-148.041188,9030.512492
2393.649375,-229.828649,-148.041188,9178.553681
2393.649704,-383.047749,-74.020594,8956.491898
2393.650033,0.000000,-222.061783,9104.533087
2393.650362,0.000000,-592.164754,9400.615463
2393.650691,-536.266849,-296.082377,9696.697840
2393.651020,689.485948,-444.123565,9622.677246
2393.651349,459.657299,-0.000000,10066.800811
2393.651678,1072.533697,-0.000000,9918.759623
2393.652007,1225.752797,370.102971,9548.656652
2393.652336,1532.190996,370.102971,9696.697840
2393.652665,1915.238745,814.226536,9474.636058
2393.652994,2298.286494,1184.329507,8808.450710
2393.653323,2374.896044,148.041188,8808.450710
2393.653652,2681.334243,888.247130,8956.491898
2393.653981,1685.410096,888.247130,8882.471304
2393.654310,1302.362347,592.164754,9104.533087
2393.654639,995.924147,-0.000000,9326.594869
2393.654968,229.828649,-0.000000,9030.512492
2393.655297,-229.828649,-592.164754,9326.594869
2393.655626,-766.095498,-1184.329507,9770.718434
2393.655955,-1149.143247,-888.247130,9622.677246
2393.656284,-919.314598,-1110.308913,9252.574275
2393.656613,-766.095498,-740.205942,9622.677246
2393.656942,-766.095498,-888.247130,9548.656652
2393.657271,-612.876398,-962.267725,9474.636058
2393.657600,-689.485948,-1184.329507,9622.677246
2393.657929,-612.876398,-962.267725,9474.636058
2393.658259,0.000000,-1110.308913,9178.553681
2393.658588,536.266849,-740.205942,9178.553681
2393.658917,689.485948,-518.144159,9104.533087
2393.659246,995.924147,-222.061783,8586.388927
2393.659575,1225.752797,-148.041188,8660.409521
2393.659904,1072.533697,296.082377,8438.347739
2393.660233,1532.190996,222.061783,8216.285956
2393.660562,1455.581446,-74.020594,7846.182985
2393.660891,459.657299,-148.041188,8216.285956
2393.661220,383.047749,-0.000000,8364.327145
2393.661549,0.000000,-74.020594,8586.388927
2393.661878,-383.047749,-148.041188,8734.430116
2393.662207,-536.266849,-518.144159,9252.574275
2393.662536,-1455.581446,148.041188,9326.594869
2393.662865,-536.266849,-0.000000,9104.533087
2393.663194,-153.219100,-0.000000,8734.430116
2393.663523,-306.438199,222.061783,8660.409521
2393.663852,0.000000,296.082377,8882.471304
2393.664181,-306.438199,148.041188,8734.430116
2393.664510,-306.438199,-0.000000,8586.388927
2393.664839,0.000000,222.061783,8660.409521
2393.665168,459.657299,296.082377,9104.533087
2393.665497,-459.657299,-148.041188,9178.553681
2393.665826,459.657299,-444.123565,9030.512492
2393.666155,536.266849,-518.144159,9474.636058
2393.666484,383.047749,-444.123565,9326.594869
2393.666813,383.047749,-296.082377,9696.697840
2393.667142,689.485948,-370.102971,9992.780217
2393.667471,919.314598,-666.185348,9844.739029
2393.667800,1225.752797,-222.061783,9918.759623
2393.668130,1838.629195,-0.000000,9770.718434
2393.668459,1762.019645,-0.000000,9474.636058
2393.668788,1838.629195,740.205942,9104.533087
2393.669117,2068.457845,740.205942,9400.615463
2393.669446,1762.019645,814.226536,8956.491898
2393.669775,1532.190996,814.226536,9104.533087
2393.670104,842.705048,148.041188,9400.615463
2393.670433,306.438199,-0.000000,9326.594869
2393.670762,0.000000,-518.144159,9178.553681
2393.671091,-842.705048,-888.247130,9622.677246
2393.671420,-995.924147,-1184.329507,9696.697840
2393.671749,-842.705048,-1406.391290,9474.636058
2393.672078,-766.095498,-1110.308913,9622.677246
2393.672407,-842.705048,-1406.391290,9844.739029
2393.672736,-766.095498,-962.267725,9474.636058
2393.673065,-842.705048,-740.205942,9622.677246
2393.673394,0.000000,-666.185348,9326.594869
2393.673723,0.000000,-592.164754,9178.553681
2393.674052,0.000000,-444.123565,8956.491898
2393.674381,1149.143247,-814.226536,8956.491898
2393.674710,1455.581446,-74.020594,8142.265362
2393.675039,1532.190996,-0.000000,8290.306550
2393.675368,2068.457845,-0.000000,7920.203579
2393.675697,1532.190996,296.082377,7920.203579
2393.676026,1455.581446,148.041188,7698.141797
2393.676355,842.705048,-0.000000,7772.162391
2393.676684,383.047749,-74.020594,8142.265362
2393.677013,76.609550,-666.185348,7920.203579
2393.677342,-306.438199,-444.123565,8364.327145
2393.677672,-1302.362347,-592.164754,9030.512492
2393.678001,-536.266849,-222.061783,8512.368333
2393.678330,-689.485948,-0.000000,8734.430116
2393.678659,-383.047749,-0.000000,8956.491898
2393.678988,0.000000,444.123565,8512.368333
2393.679317,76.609550,-0.000000,9030.512492
2393.679646,-1149.143247,370.102971,9252.574275
2393.679975,-229.828649,222.061783,8586.388927
2393.680304,0.000000,-74.020594,8956.491898
2393.680633,0.000000,-370.102971,9178.553681
2393.680962,-153.219100,-444.123565,9474.636058
2393.681291,-229.828649,-444.123565,9770.718434
2393.681620,0.000000,-666.185348,9918.759623
2393.681949,536.266849,-592.164754,10066.800811
2393.682278,612.876398,-444.123565,10066.800811
2393.682607,536.266849,-74.020594,10214.842000
2393.682936,995.924147,-0.000000,9844.739029
2393.683265,1685.410096,592.164754,9622.677246
2393.683594,2298.286494,740.205942,9474.636058
2393.683923,2451.505594,962.267725,9178.553681
2393.684252,1608.800546,1036.288319,8734.430116
2393.684581,2451.505594,1332.370696,9178.553681
2393.684910,1762.019645,962.267725,8882.471304
2393.685239,1149.143247,592.164754,8808.450710
2393.685568,536.266849,-0.000000,9030.512492
2393.685897,-306.438199,-444.123565,9326.594869
2393.686226,-383.047749,-1184.329507,9474.636058
2393.686555,-612.876398,-1332.370696,9400.615463
2393.686884,-1072.533697,-1110.308913,9474.636058
2393.687213,-766.095498,-962.267725,9474.636058
2393.687543,-842.705048,-1036.288319,9474.636058
2393.687872,-919.314598,-888.247130,9548.656652
2393.688201,0.000000,-1258.350101,9622.677246
2393.688530,0.000000,-888.247130,9326.594869
2393.688859,0.000000,-740.205942,9474.636058
2393.689188,76.609550,-296.082377,9548.656652
2393.689517,459.657299,-592.164754,8882.471304
2393.689846,842.705048,-518.144159,8660.409521
2393.690175,1378.971896,-296.082377,8512.368333
2393.690504,1762.019645,-148.041188,8068.244768
2393.690833,1532.190996,148.041188,8438.347739
2393.691162,995.924147,-296.082377,8216.285956
2393.691491,1149.143247,-370.102971,7846.182985
2393.691820,76.609550,-222.061783,8512.368333
2393.692149,0.000000,-296.082377,8438.347739
2393.692478,-153.219100,-296.082377,8512.368333
2393.692807,-536.266849,-296.082377,8734.430116
2393.693136,0.000000,-444.123565,8586.388927
2393.693465,-919.314598,-0.000000,9030.512492
2393.693794,-383.047749,-0.000000,8512.368333
2393.694123,-229.828649,370.102971,8660.409521
2393.694452,0.000000,296.082377,8734.430116
2393.694781,0.000000,222.061783,8512.368333
2393.695110,0.000000,-0.000000,8808.450710
2393.695439,0.000000,-148.041188,9030.512492
2393.695768,0.000000,-148.041188,8512.368333
2393.696097,0.000000,222.061783,9474.636058
2393.696426,306.438199,-74.020594,9326.594869
2393.696755,229.828649,-148.041188,9326.594869
2393.697085,153.219100,-370.102971,9548.656652
2393.697414,306.438199,-814.226536,9918.759623
2393.697743,766.095498,-740.205942,9622.677246
2393.698072,1072.533697,-222.061783,9918.759623
2393.698401,1455.581446,-370.102971,9918.759623
2393.698730,1378.971896,296.082377,9474.636058
2393.699059,1838.629195,740.205942,9326.594869
2393.699388,2068.457845,962.267725,9252.574275
2393.699717,2298.286494,962.267725,9178.553681
2393.700046,1838.629195,592.164754,8882.471304
2393.700375,1685.410096,740.205942,8956.491898
2393.700704,1072.533697,148.041188,9030.512492
2393.701033,383.047749,-0.000000,8956.491898
2393.701362,-229.828649,-222.061783,9326.594869
2393.701691,-766.095498,-888.247130,9622.677246
2393.702020,-1225.752797,-1258.350101,9622.677246
2393.702349,-1072.533697,-1554.432478,10140.821405
2393.702678,-919.314598,-1702.473667,10066.800811
2393.703007,-1455.581446,-1480.411884,10066.800811
2393.703336,-995.924147,-962.267725,9844.739029
2393.703665,-612.876398,-888.247130,9622.677246
2393.703994,76.609550,-814.226536,9252.574275
2393.704323,153.219100,-666.185348,8882.471304
2393.704652,612.876398,-296.082377,9178.553681
2393.704981,1455.581446,-0.000000,8438.347739
2393.705310,2068.457845,-0.000000,8216.285956
2393.705639,1685.410096,222.061783,8512.368333
2393.705968,1455.581446,222.061783,7772.162391
2393.706297,842.705048,-0.000000,8068.244768
2393.706626,459.657299,-296.082377,8364.327145
2393.706956,536.266849,-518.144159,8290.306550
2393.707285,-383.047749,-518.144159,8290.306550
2393.707614,-459.657299,-592.164754,9252.574275
2393.707943,-612.876398,-592.164754,8660.409521
2393.708272,-689.485948,-370.102971,8438.347739
2393.708601,0.000000,-74.020594,8290.306550
2393.708930,0.000000,-0.000000,8586.388927
2393.709259,612.876398,296.082377,8068.244768
2393.709588,459.657299,740.205942,7994.224174
2393.709917,536.266849,-0.000000,8142.265362
2393.710246,689.485948,666.185348,7846.182985
2393.710575,536.266849,370.102971,8734.430116
2393.710904,76.609550,-222.061783,8512.368333
2393.711233,229.828649,-74.020594,8734.430116
2393.711562,0.000000,-888.247130,9252.574275
2393.711891,0.000000,-296.082377,9400.615463
2393.712220,-306.438199,-666.185348,10288.862594
2393.712549,-766.095498,-888.247130,9918.759623
2393.712878,-306.438199,-740.205942,10436.903782
2393.713207,306.438199,-296.082377,10510.924376
2393.713536,536.266849,-444.123565,9474.636058
2393.713865,1762.019645,-0.000000,9696.697840
2393.714194,2451.505594,592.164754,9770.718434
2393.714523,3294.210641,1184.329507,9104.533087
2393.714852,2987.772442,1480.411884,9104.533087
2393.715181,2911.162892,1332.370696,9252.574275
2393.715510,2374.896044,1406.391290,8734.430116
2393.715840,1762.019645,666.185348,8808.450710
2393.716169,459.657299,-0.000000,9918.759623
2393.716498,76.609550,-296.082377,9400.615463
2393.716827,-612.876398,-518.144159,9622.677246
2393.717156,-689.485948,-1184.329507,10066.800811
2393.717485,-1225.752797,-888.247130,9918.759623
2393.717814,-1302.362347,-1110.308913,9548.656652
2393.718144,-1455.581446,-962.267725,9918.759623
2393.718473,-842.705048,-814.226536,9622.677246
2393.718802,-383.047749,-592.164754,9400.615463
2393.719131,153.219100,-592.164754,9474.636058
2393.719460,612.876398,-592.164754,8586.388927
2393.719789,919.314598,-74.020594,8512.368333
2393.720118,1225.752797,-74.020594,8364.327145
2393.720448,1378.971896,-0.000000,8290.306550
2393.720777,1532.190996,-74.020594,8068.244768
2393.721106,1149.143247,-0.000000,8216.285956
2393.721435,306.438199,-370.102971,8364.327145
2393.721764,766.095498,-592.164754,7994.224174
2393.722093,-153.219100,-592.164754,8216.285956
2393.722422,-536.266849,-666.185348,8586.388927
2393.722752,-536.266849,-592.164754,8586.388927
2393.723081,-689.485948,-592.164754,8216.285956
2393.723410,-383.047749,-740.205942,8586.388927
2393.723739,-459.657299,-518.144159,8734.430116
2393.724068,0.000000,-222.061783,8142.265362
2393.724397,0.000000,148.041188,8586.388927
2393.724727,306.438199,370.102971,8438.347739
2393.725056,306.438199,518.144159,8438.347739
2393.725385,536.266849,444.123565,8734.430116
2393.725714,612.876398,-0.000000,8660.409521
2393.726043,383.047749,-0.000000,9030.512492
2393.726372,-306.438199,-0.000000,9548.656652
2393.726701,0.000000,-148.041188,9474.636058
2393.727031,0.000000,-370.102971,9548.656652
2393.727360,-306.438199,-592.164754,9622.677246
2393.727689,-229.828649,-814.226536,9918.759623
2393.728018,383.047749,-666.185348,10214.842000
2393.728347,536.266849,-518.144159,9844.739029
2393.728676,383.047749,-222.061783,10140.821405
2393.729005,1455.581446,296.082377,9696.697840
2393.729335,1608.800546,444.123565,9252.574275
2393.729664,2221.676944,666.185348,9474.636058
2393.729993,2987.772442,666.185348,9178.553681
2393.730322,2374.896044,1036.288319,8882.471304
2393.730651,2374.896044,444.123565,8808.450710
2393.730980,2068.457845,666.185348,9030.512492
2393.731309,766.095498,444.123565,8956.491898
2393.731639,229.828649,-0.000000,9252.574275
2393.731968,-153.219100,-74.020594,9104.533087
2393.732297,-766.095498,-1110.308913,9178.553681
2393.732626,-1149.143247,-888.247130,9474.636058
2393.732955,-995.924147,-1258.350101,9844.739029
2393.733284,-1838.629195,-1036.288319,9622.677246
2393.733613,-1302.362347,-1110.308913,9548.656652
2393.733943,-689.485948,-1184.329507,9548.656652
2393.734272,-536.266849,-888.247130,9178.553681
2393.734601,76.609550,-814.226536,9104.533087
2393.734930,919.314598,-518.144159,9474.636058
2393.735259,995.924147,-370.102971,8882.471304
2393.735588,1302.362347,-518.144159,8438.347739
2393.735918,1455.581446,-0.000000,8438.347739
2393.736247,1455.581446,-0.000000,8290.306550
2393.736576,1225.752797,-148.041188,8290.306550
2393.736905,689.485948,-0.000000,8882.471304
2393.737234,459.657299,-370.102971,8808.450710
2393.737563,306.438199,-518.144159,8808.450710
2393.737892,-689.485948,-444.123565,8956.491898
2393.738222,-612.876398,-518.144159,8956.491898
2393.738551,-689.485948,-296.082377,8586.388927
2393.738880,-689.485948,-222.061783,8882.471304
2393.739209,-306.438199,-74.020594,8956.491898
2393.739538,306.438199,444.123565,8808.450710
2393.739867,0.000000,296.082377,8512.368333
2393.740196,459.657299,370.102971,8216.285956
2393.740526,689.485948,814.226536,8216.285956
2393.740855,689.485948,814.226536,8290.306550
2393.741184,229.828649,740.205942,8586.388927
2393.741513,76.609550,296.082377,8882.471304
2393.741842,0.000000,-0.000000,8956.491898
2393.742171,-229.828649,-518.144159,9548.656652
2393.742500,-383.047749,-370.102971,9326.594869
2393.742830,-1149.143247,-592.164754,9844.739029
2393.743159,-766.095498,-740.205942,10140.821405
2393.743488,-689.485948,-814.226536,10066.800811
2393.743817,0.000000,-962.267725,9992.780217
2393.744146,306.438199,-814.226536,10140.821405
2393.744475,1149.143247,-148.041188,10140.821405
2393.744804,2068.457845,-0.000000,9548.656652
2393.745134,2298.286494,592.164754,9474.636058
2393.745463,2681.334243,1110.308913,9030.512492
2393.745792,2834.553343,1258.350101,8660.409521
2393.746121,2528.115143,1480.411884,8882.471304
2393.746450,2528.115143,888.247130,8586.388927
2393.746779,2221.676944,1036.288319,9252.574275
2393.747108,919.314598,-148.041188,9326.594869
2393.747438,0.000000,-296.082377,9548.656652
2393.747767,-689.485948,-814.226536,9326.594869
2393.748096,-1149.143247,-1258.350101,9844.739029
2393.748425,-1149.143247,-1332.370696,10066.800811
2393.748754,-1532.190996,-1406.391290,9844.739029
2393.749083,-1532.190996,-1258.350101,9474.636058
2393.749413,-842.705048,-1258.350101,9918.759623
2393.749742,-536.266849,-518.144159,9474.636058
2393.750071,0.000000,-592.164754,9400.615463
2393.750400,612.876398,-370.102971,9252.574275
2393.750729,842.705048,-0.000000,8734.430116
2393.751058,1455.581446,-0.000000,8290.306550
2393.751387,1455.581446,-0.000000,8142.265362
2393.751717,1762.019645,444.123565,8290.306550
2393.752046,1225.752797,-0.000000,8142.265362
2393.752375,995.924147,-0.000000,8068.244768
2393.752704,76.609550,-148.041188,8142.265362
2393.753033,0.000000,-74.020594,7994.224174
2393.753362,-306.438199,-888.247130,8216.285956
2393.753691,-612.876398,-592.164754,8586.388927
2393.754021,-842.705048,-0.000000,8660.409521
2393.754350,-306.438199,-888.247130,8586.388927
2393.754679,0.000000,-296.082377,8734.430116
2393.755008,0.000000,370.102971,8216.285956
2393.755337,76.609550,-0.000000,8290.306550
2393.755666,459.657299,222.061783,8660.409521
2393.755995,536.266849,370.102971,8438.347739
2393.756325,766.095498,370.102971,8512.368333
2393.756654,306.438199,222.061783,8882.471304
2393.756983,842.705048,-222.061783,9252.574275
2393.757312,153.219100,-296.082377,8956.491898
2393.757641,-153.219100,-296.082377,9696.697840
2393.757970,-383.047749,-592.164754,9770.718434
2393.758299,-383.047749,-444.123565,9844.739029
2393.758629,-459.657299,-518.144159,10362.883188
2393.758958,-383.047749,-592.164754,10362.883188
2393.759287,919.314598,-518.144159,10214.842000
2393.759616,612.876398,-148.041188,10066.800811
2393.759945,1302.362347,222.061783,9770.718434
2393.760274,1685.410096,518.144159,9474.636058
2393.760604,2068.457845,888.247130,9400.615463
2393.760933,2145.067394,592.164754,9474.636058
2393.761262,2374.896044,962.267725,8882.471304
2393.761591,1532.190996,888.247130,9252.574275
2393.761920,1072.533697,666.185348,9104.533087
2393.762249,995.924147,518.144159,8734.430116
2393.762578,383.047749,222.061783,9104.533087
2393.762908,-229.828649,-74.020594,9104.533087
2393.763237,-689.485948,-444.123565,9030.512492
2393.763566,-995.924147,-1036.288319,9178.553681
2393.763895,-612.876398,-1110.308913,9400.615463
2393.764224,-995.924147,-814.226536,9400.615463
2393.764553,-612.876398,-962.267725,9252.574275
2393.764882,-919.314598,-1110.308913,9326.594869
2393.765212,-536.266849,-1036.288319,9326.594869
2393.765541,-766.095498,-1406.391290,9548.656652
2393.765870,76.609550,-888.247130,9178.553681
2393.766199,536.266849,-592.164754,9326.594869
2393.766528,842.705048,-444.123565,8882.471304
2393.766857,1149.143247,-296.082377,8660.409521
2393.767186,1608.800546,-0.000000,8512.368333
2393.767516,1838.629195,370.102971,7698.141797
2393.767845,1532.190996,-0.000000,7846.182985
2393.768174,1149.143247,444.123565,8216.285956
2393.768503,919.314598,370.102971,8216.285956
2393.768832,76.609550,-0.000000,7846.182985
2393.769161,0.000000,-296.082377,8438.347739
2393.769490,-383.047749,-518.144159,8734.430116
2393.769820,-842.705048,-518.144159,8734.430116
2393.770149,-612.876398,-814.226536,9326.594869
2393.770478,-995.924147,-518.144159,9104.533087
2393.770807,-612.876398,-592.164754,8882.471304
2393.771136,-612.876398,-74.020594,8808.450710
2393.771465,-306.438199,222.061783,9030.512492
2393.771794,0.000000,370.102971,8586.388927
2393.772124,76.609550,222.061783,9104.533087
2393.772453,459.657299,518.144159,9030.512492
2393.772782,612.876398,444.123565,8438.347739
2393.773111,0.000000,-0.000000,8882.471304
2393.773440,612.876398,-74.020594,9030.512492
2393.773769,612.876398,-0.000000,9400.615463
2393.774099,459.657299,-222.061783,9474.636058
2393.774428,306.438199,-296.082377,9770.718434
2393.774757,-76.609550,-222.061783,9844.739029
2393.775086,1608.800546,-740.205942,9770.718434
2393.775415,1072.533697,-592.164754,9992.780217
2393.775744,1225.752797,-0.000000,9844.739029
2393.776073,1685.410096,740.205942,9400.615463
2393.776403,1991.848295,666.185348,9400.615463
2393.776732,2374.896044,1110.308913,8956.491898
2393.777061,2681.334243,962.267725,8882.471304
2393.777390,1991.848295,740.205942,8808.450710
2393.777719,1838.629195,518.144159,8956.491898
2393.778048,1072.533697,296.082377,8734.430116
2393.778377,383.047749,-74.020594,8956.491898
2393.778707,0.000000,-666.185348,9400.615463
2393.779036,-536.266849,-888.247130,9178.553681
2393.779365,-919.314598,-1406.391290,9474.636058
2393.779694,-1149.143247,-1554.432478,9696.697840
2393.780023,-919.314598,-1776.494261,9474.636058
2393.780352,-1225.752797,-1332.370696,9548.656652
2393.780681,-1225.752797,-1332.370696,9474.636058
2393.781011,-689.485948,-1184.329507,9400.615463
2393.781340,-306.438199,-888.247130,9178.553681
2393.781669,-306.438199,-814.226536,9400.615463
2393.781998,766.095498,-814.226536,8882.471304
2393.782327,995.924147,-74.020594,8586.388927
2393.782656,1302.362347,-74.020594,8438.347739
2393.782985,1302.362347,296.082377,8216.285956
2393.783315,1455.581446,370.102971,7772.162391
2393.783644,1149.143247,-0.000000,7920.203579
2393.783973,1149.143247,-74.020594,8216.285956
2393.784302,536.266849,-296.082377,8068.244768
2393.784631,0.000000,-296.082377,8142.265362
2393.784960,-306.438199,-222.061783,8512.368333
2393.785290,-306.438199,-518.144159,8364.327145
2393.785619,-306.438199,-148.041188,8586.388927
2393.785948,-459.657299,-0.000000,8882.471304
2393.786277,-306.438199,-148.041188,8438.347739
2393.786606,0.000000,-0.000000,8808.450710
2393.786935,0.000000,-0.000000,9030.512492
2393.787264,-459.657299,370.102971,8882.471304
2393.787594,0.000000,-0.000000,8882.471304
2393.787923,153.219100,-0.000000,8882.471304
2393.788252,76.609550,-0.000000,8956.491898
2393.788581,306.438199,-296.082377,9104.533087
2393.788910,383.047749,-592.164754,9326.594869
2393.789239,0.000000,-666.185348,9548.656652
2393.789568,459.657299,-518.144159,9326.594869
2393.789898,536.266849,-518.144159,9844.739029
2393.790227,842.705048,-148.041188,10066.800811
2393.790556,1149.143247,-296.082377,9696.697840
2393.790885,1225.752797,-222.061783,9844.739029
2393.791214,1225.752797,-0.000000,10066.800811
2393.791543,1838.629195,-0.000000,9400.615463
2393.791872,1915.238745,222.061783,8882.471304
2393.792202,1838.629195,740.205942,9770.718434
2393.792531,1685.410096,962.267725,9178.553681
2393.792860,1302.362347,814.226536,9178.553681
2393.793189,1302.362347,370.102971,9548.656652
2393.793518,919.314598,296.082377,9548.656652
2393.793847,0.000000,-0.000000,8882.471304
2393.794176,-306.438199,-740.205942,9400.615463
2393.794506,-383.047749,-592.164754,9474.636058
2393.794835,-995.924147,-962.267725,9326.594869
2393.795164,-1149.143247,-1110.308913,9548.656652
2393.795493,-919.314598,-1184.329507,9548.656652
2393.795822,-995.924147,-1110.308913,9030.512492
2393.796151,-536.266849,-1110.308913,9548.656652
2393.796480,0.000000,-814.226536,9326.594869
2393.796810,229.828649,-666.185348,9030.512492
2393.797139,689.485948,-444.123565,8734.430116
2393.797468,1149.143247,-74.020594,8660.409521
2393.797797,1532.190996,-0.000000,8364.327145
2393.798126,1762.019645,-0.000000,7846.182985
2393.798455,1455.581446,296.082377,8142.265362
2393.798785,995.924147,296.082377,8068.244768
2393.799114,919.314598,-74.020594,7624.121203
2393.799443,229.828649,-296.082377,7920.203579
2393.799772,76.609550,-222.061783,8216.285956
2393.800101,76.609550,-666.185348,8438.347739
2393.800430,-612.876398,-666.185348,8734.430116
2393.800759,-995.924147,-74.020594,8734.430116
2393.801089,-842.705048,-148.041188,8290.306550
2393.801418,-689.485948,-148.041188,8586.388927
2393.801747,-536.266849,-0.000000,8956.491898
2393.802076,-383.047749,-0.000000,8660.409521
2393.802405,229.828649,-0.000000,8808.450710
2393.802734,76.609550,592.164754,9104.533087
2393.803063,306.438199,222.061783,8882.471304
2393.803393,229.828649,-0.000000,8956.491898
2393.803722,306.438199,-0.000000,9178.553681
2393.804051,0.000000,-222.061783,9400.615463
2393.804380,0.000000,-370.102971,9326.594869
2393.804709,-383.047749,-814.226536,9992.780217
2393.805038,306.438199,-888.247130,10214.842000
2393.805367,153.219100,-814.226536,9992.780217
2393.805697,689.485948,-444.123565,10288.862594
2393.806026,842.705048,-148.041188,9770.718434
2393.806355,1149.143247,-0.000000,9622.677246
2393.806684,1608.800546,444.123565,9696.697840
2393.807013,2298.286494,888.247130,9474.636058
2393.807342,2221.676944,1036.288319,8660.409521
2393.807671,2604.724693,666.185348,8882.471304
2393.808001,2221.676944,1110.308913,9178.553681
2393.808330,1838.629195,962.267725,8512.368333
2393.808659,1225.752797,592.164754,8956.491898
2393.808988,766.095498,-0.000000,9178.553681
2393.809317,0.000000,-148.041188,8882.471304
2393.809646,-842.705048,-1036.288319,9400.615463
2393.809976,-842.705048,-1184.329507,9178.553681
2393.810305,-842.705048,-1332.370696,9474.636058
2393.810634,-1302.362347,-1332.370696,9474.636058
2393.810963,-1225.752797,-1332.370696,9622.677246
2393.811292,-689.485948,-1110.308913,9400.615463
2393.811621,-536.266849,-1184.329507,9474.636058
2393.811950,-383.047749,-888.247130,9770.718434
2393.812280,229.828649,-814.226536,9104.533087
2393.812609,766.095498,-592.164754,8882.471304
2393.812938,1072.533697,-222.061783,8438.347739
2393.813267,1302.362347,-0.000000,8438.347739
2393.813596,1608.800546,-0.000000,7698.141797
2393.813925,1762.019645,-0.000000,7772.162391
2393.814254,1608.800546,-0.000000,8142.265362
2393.814582,689.485948,-444.123565,7846.182985
2393.814911,229.828649,-296.082377,8438.347739
2393.815240,-306.438199,-518.144159,8660.409521
2393.815569,-459.657299,-370.102971,8660.409521
2393.815898,-689.485948,-518.144159,8808.450710
2393.816227,-612.876398,-518.144159,8882.471304
2393.816556,-459.657299,-444.123565,8882.471304
2393.816885,-459.657299,-0.000000,8808.450710
2393.817214,-306.438199,814.226536,9400.615463
2393.817543,0.000000,370.102971,8660.409521
2393.817872,76.609550,518.144159,8882.471304
2393.818201,0.000000,222.061783,9178.553681
2393.818530,459.657299,-0.000000,8882.471304
2393.818859,306.438199,-0.000000,8660.409521
2393.819188,536.266849,-296.082377,8808.450710
2393.819517,919.314598,-0.000000,9104.533087
2393.819846,459.657299,-222.061783,9104.533087
2393.820175,383.047749,-444.123565,9474.636058
2393.820504,612.876398,-518.144159,9622.677246
2393.820833,536.266849,-370.102971,9622.677246
2393.821162,536.266849,-666.185348,9918.759623
2393.821491,689.485948,-222.061783,9770.718434
2393.821820,1149.143247,-0.000000,9178.553681
2393.822149,1685.410096,370.102971,9548.656652
2393.822478,1608.800546,592.164754,9474.636058
2393.822807,1762.019645,814.226536,9178.553681
2393.823136,1608.800546,148.041188,9178.553681
2393.823465,1608.800546,222.061783,9326.594869
2393.823794,919.314598,-0.000000,8956.491898
2393.824123,766.095498,-0.000000,9030.512492
2393.824452,0.000000,-148.041188,9400.615463
2393.824781,-459.657299,-296.082377,9326.594869
2393.825110,-842.705048,-888.247130,9474.636058
2393.825439,-995.924147,-1110.308913,9918.759623
2393.825768,-1608.800546,-1258.350101,9770.718434
2393.826097,-995.924147,-1258.350101,9844.739029
2393.826426,-919.314598,-1036.288319,9696.697840
2393.826755,-612.876398,-740.205942,9474.636058
2393.827084,-229.828649,-740.205942,9400.615463
2393.827413,-229.828649,-444.123565,9400.615463
2393.827742,153.219100,-888.247130,9548.656652
2393.828071,842.705048,-962.267725,8660.409521
2393.828400,1225.752797,-592.164754,8586.388927
2393.828729,1455.581446,-0.000000,8586.388927
2393.829058,1685.410096,-0.000000,7846.182985
2393.829387,1455.581446,296.082377,8142.265362
2393.829716,1225.752797,-0.000000,8142.265362
2393.830045,995.924147,-0.000000,7772.162391
2393.830374,536.266849,-0.000000,7698.141797
2393.830703,76.609550,-74.020594,8734.430116
2393.831032,-766.095498,-296.082377,8734.430116
2393.831361,-459.657299,-296.082377,8290.306550
2393.831690,-612.876398,-444.123565,8808.450710
2393.832019,-459.657299,-0.000000,8808.450710
2393.832348,-153.219100,-0.000000,8660.409521
2393.832677,-536.266849,148.041188,8660.409521
2393.833006,-689.485948,-0.000000,8808.450710
2393.833335,0.000000,-0.000000,8882.471304
2393.833664,76.609550,74.020594,8808.450710
2393.833993,76.609550,296.082377,9030.512492
2393.834322,229.828649,-0.000000,8882.471304
2393.834651,306.438199,-370.102971,9030.512492
2393.834980,153.219100,-666.185348,9474.636058
2393.835309,459.657299,-222.061783,9474.636058
2393.835638,-229.828649,-296.082377,9770.718434
2393.835967,306.438199,-592.164754,10066.800811
2393.836296,229.828649,-518.144159,9844.739029
2393.836625,995.924147,-518.144159,9844.739029
2393.836954,1378.971896,-0.000000,10066.800811
2393.837283,1685.410096,592.164754,10214.842000
2393.837612,689.485948,296.082377,9474.636058
2393.837941,1915.238745,740.205942,9622.677246
2393.838270,2221.676944,1110.308913,9474.636058
2393.838599,2068.457845,1258.350101,8808.450710
2393.838928,1608.800546,1110.308913,8882.471304
2393.839257,1302.362347,962.267725,9696.697840
2393.839586,1149.143247,222.061783,8956.491898
2393.839915,0.000000,-0.000000,8882.471304
2393.840244,-459.657299,-370.102971,9474.636058
2393.840573,-766.095498,-814.226536,9326.594869
2393.840902,-842.705048,-1036.288319,9474.636058
2393.841231,-1072.533697,-1184.329507,9474.636058
2393.841560,-459.657299,-888.247130,9400.615463
2393.841889,-995.924147,-962.267725,9622.677246
2393.842218,-689.485948,-1332.370696,9548.656652
2393.842547,-536.266849,-962.267725,9104.533087
2393.842876,0.000000,-666.185348,8882.471304
2393.843205,-229.828649,-666.185348,9474.636058
2393.843534,536.266849,-592.164754,9252.574275
2393.843863,536.266849,-74.020594,8364.327145
2393.844192,995.924147,-74.020594,8512.368333
2393.844521,1072.533697,-0.000000,8216.285956
2393.844850,1455.581446,-0.000000,7772.162391
2393.845179,766.095498,-0.000000,7846.182985
2393.845508,612.876398,-222.061783,7846.182985
2393.845837,229.828649,-518.144159,8290.306550
2393.846166,-229.828649,-74.020594,8660.409521
2393.846495,-689.485948,-592.164754,9030.512492
2393.846824,-536.266849,-962.267725,9178.553681
2393.847153,-229.828649,-888.247130,9178.553681
2393.847482,-612.876398,-148.041188,8808.450710
2393.847811,-383.047749,-0.000000,8660.409521
2393.848140,-229.828649,-0.000000,8734.430116
2393.848469,76.609550,-0.000000,9252.574275
2393.848798,153.219100,-0.000000,8956.491898
2393.849127,76.609550,296.082377,8882.471304
2393.849456,229.828649,-74.020594,9030.512492
2393.849785,229.828649,-0.000000,8882.471304
2393.850114,306.438199,-0.000000,8882.471304
2393.850443,229.828649,-296.082377,9252.574275
2393.850772,306.438199,-518.144159,9622.677246
2393.851101,689.485948,-518.144159,9548.656652
2393.851430,612.876398,-370.102971,9696.697840
2393.851759,1225.752797,-222.061783,10066.800811
2393.852088,1149.143247,-74.020594,9474.636058
2393.852417,1378.971896,296.082377,9622.677246
2393.852746,1532.190996,592.164754,9400.615463
2393.853075,2145.067394,814.226536,9252.574275
2393.853404,2528.115143,962.267725,9104.533087
2393.853733,1915.238745,962.267725,9104.533087
2393.854062,2068.457845,1036.288319,8586.388927
2393.854391,1302.362347,814.226536,8512.368333
2393.854720,995.924147,370.102971,9104.533087
2393.855049,459.657299,-0.000000,8956.491898
2393.855378,0.000000,-222.061783,9104.533087
2393.855707,-612.876398,-1258.350101,9400.615463
2393.856036,-1149.143247,-1110.308913,9770.718434
2393.856365,-612.876398,-1258.350101,9770.718434
2393.856694,-1302.362347,-1110.308913,9548.656652
2393.857023,-919.314598,-1036.288319,9918.759623
2393.857352,-689.485948,-962.267725,9474.636058
2393.857681,-306.438199,-814.226536,9696.697840
2393.858010,-383.047749,-888.247130,9622.677246
2393.858339,229.828649,-888.247130,8808.450710
2393.858668,0.000000,-592.164754,9696.697840
2393.858997,536.266849,-888.247130,9178.553681
2393.859326,995.924147,-296.082377,8586.388927
2393.859655,1455.581446,148.041188,8216.285956
2393.859984,1225.752797,148.041188,7920.203579
2393.860313,1685.410096,296.082377,8290.306550
2393.860642,1378.971896,148.041188,7920.203579
2393.860971,766.095498,-0.000000,8142.265362
2393.861300,383.047749,-0.000000,8216.285956
2393.861629,0.000000,-0.000000,8142.265362
2393.861958,-383.047749,-296.082377,8734.430116
2393.862287,-306.438199,-0.000000,8808.450710
2393.862616,306.438199,-444.123565,8290.306550
2393.862945,-153.219100,-296.082377,8734.430116
2393.863274,0.000000,-0.000000,8808.450710
2393.863603,-306.438199,-0.000000,8290.306550
2393.863932,-306.438199,-0.000000,8364.327145
2393.864261,-229.828649,-0.000000,8734.430116
2393.864590,-383.047749,-0.000000,8734.430116
2393.864919,-229.828649,-148.041188,9104.533087
2393.865248,0.000000,-296.082377,9030.512492
2393.865577,0.000000,-444.123565,9104.533087
2393.865906,0.000000,-222.061783,9326.594869
2393.866235,76.609550,-444.123565,9548.656652
2393.866564,306.438199,-444.123565,9622.677246
2393.866893,306.438199,-148.041188,9696.697840
2393.867222,1149.143247,-0.000000,9992.780217
2393.867551,1532.190996,-0.000000,9844.739029
2393.867880,1608.800546,296.082377,9770.718434
2393.868209,1915.238745,296.082377,9770.718434
2393.868538,1991.848295,814.226536,9326.594869
2393.868867,2221.676944,740.205942,9104.533087
2393.869196,2298.286494,1036.288319,9252.574275
2393.869525,1838.629195,814.226536,9104.533087
2393.869854,1455.581446,222.061783,8512.368333
2393.870183,995.924147,-0.000000,9622.677246
2393.870512,0.000000,-222.061783,9474.636058
2393.870841,0.000000,-444.123565,9252.574275
2393.871170,-689.485948,-814.226536,9622.677246
2393.871499,-766.095498,-962.267725,9844.739029
2393.871828,-766.095498,-814.226536,9992.780217
2393.872157,-919.314598,-1110.308913,9696.697840
2393.872486,-612.876398,-1036.288319,9992.780217
2393.872815,-536.266849,-666.185348,9548.656652
2393.873144,-306.438199,-666.185348,9474.636058
2393.873473,0.000000,-814.226536,9548.656652
2393.873802,459.657299,-444.123565,9104.533087
2393.874131,459.657299,-370.102971,8734.430116
2393.874460,919.314598,-444.123565,8438.347739
2393.874789,1225.752797,370.102971,8142.265362
2393.875118,1378.971896,-0.000000,7846.182985
2393.875447,1149.143247,296.082377,7920.203579
2393.875776,1149.143247,222.061783,7846.182985
2393.876105,689.485948,-0.000000,7624.121203
2393.876434,229.828649,-222.061783,8290.306550
2393.876763,-306.438199,-444.123565,8586.388927
2393.877092,0.000000,-740.205942,8808.450710
2393.877421,-229.828649,-444.123565,8586.388927
2393.877750,-459.657299,-444.123565,8882.471304
2393.878079,-459.657299,-148.041188,8734.430116
2393.878408,-383.047749,-0.000000,8512.368333
2393.878737,-612.876398,-74.020594,8808.450710
2393.879066,76.609550,-0.000000,8734.430116
2393.879395,153.219100,-0.000000,8808.450710
2393.879724,0.000000,-0.000000,9030.512492
2393.880053,536.266849,-0.000000,8808.450710
2393.880382,153.219100,-0.000000,8660.409521
2393.880711,153.219100,-74.020594,9326.594869
2393.881040,153.219100,-444.123565,9474.636058
2393.881369,0.000000,-666.185348,9178.553681
2393.881698,0.000000,-888.247130,10066.800811
2393.882027,0.000000,-814.226536,10066.800811
2393.882356,229.828649,-74.020594,9992.780217
2393.882685,689.485948,-74.020594,10066.800811
2393.883014,1072.533697,-0.000000,9992.780217
2393.883343,1149.143247,-0.000000,9696.697840
2393.883672,1915.238745,814.226536,9474.636058
2393.884001,1915.238745,962.267725,9400.615463
2393.884330,2221.676944,1110.308913,8734.430116
2393.884659,2068.457845,1184.329507,8956.491898
2393.884988,1685.410096,888.247130,8882.471304
2393.885317,995.924147,592.164754,8882.471304
2393.885646,0.000000,-0.000000,8882.471304
2393.885975,-229.828649,-518.144159,9474.636058
2393.886304,-766.095498,-740.205942,9178.553681
2393.886633,-995.924147,-1184.329507,9326.594869
2393.886962,-1302.362347,-1406.391290,9696.697840
2393.887291,-1302.362347,-1110.308913,9696.697840
2393.887620,-842.705048,-1184.329507,9326.594869
2393.887950,-459.657299,-1332.370696,9474.636058
2393.888279,-459.657299,-962.267725,9474.636058
2393.888608,-612.876398,-962.267725,9474.636058
2393.888937,0.000000,-592.164754,9178.553681
2393.889266,1072.533697,-518.144159,8734.430116
2393.889595,1608.800546,-74.020594,8142.265362
2393.889924,1838.629195,-0.000000,8216.285956
2393.890253,1991.848295,-0.000000,8290.306550
2393.890582,1225.752797,-148.041188,8068.244768
2393.890911,919.314598,-74.020594,8734.430116
2393.891240,612.876398,-592.164754,8142.265362
2393.891569,153.219100,-370.102971,8364.327145
2393.891898,-536.266849,-666.185348,8660.409521
2393.892227,-612.876398,-666.185348,9178.553681
2393.892556,0.000000,-370.102971,9030.512492
2393.892885,-459.657299,-518.144159,8808.450710
2393.893214,-229.828649,-370.102971,8808.450710
2393.893543,-229.828649,296.082377,8586.388927
2393.893872,0.000000,-0.000000,8216.285956
2393.894201,153.219100,592.164754,8512.368333
2393.894530,306.438199,666.185348,8438.347739
2393.894859,459.657299,444.123565,8290.306550
2393.895188,-766.095498,962.267725,9030.512492
2393.895517,306.438199,296.082377,8808.450710
2393.895846,0.000000,-148.041188,8808.450710
2393.896175,-306.438199,-222.061783,9326.594869
2393.896504,-306.438199,-518.144159,9770.718434
2393.896833,-689.485948,-518.144159,9622.677246
2393.897162,-459.657299,-888.247130,9844.739029
2393.897491,-1072.533697,-518.144159,10362.883188
2393.897820,766.095498,-222.061783,10066.800811
2393.898149,995.924147,-0.000000,9770.718434
2393.898478,1302.362347,148.041188,9622.677246
2393.898807,1991.848295,518.144159,9474.636058
2393.899136,2451.505594,1184.329507,9030.512492
2393.899465,2298.286494,1110.308913,9104.533087
2393.899794,2681.334243,962.267725,9030.512492
2393.900123,1915.238745,1258.350101,8808.450710
2393.900452,1762.019645,666.185348,9178.553681
2393.900781,1149.143247,-0.000000,9326.594869
2393.901110,306.438199,-0.000000,9178.553681
2393.901439,-306.438199,-518.144159,9474.636058
2393.901768,-536.266849,-888.247130,9844.739029
2393.902097,-995.924147,-888.247130,9844.739029
2393.902426,-842.705048,-1406.391290,9622.677246
2393.902755,-1225.752797,-1110.308913,9992.780217
2393.903084,-1149.143247,-1036.288319,9474.636058
2393.903413,-612.876398,-1036.288319,9548.656652
2393.903742,-459.657299,-666.185348,9400.615463
2393.904071,-229.828649,-962.267725,8882.471304
2393.904400,459.657299,-444.123565,8956.491898
2393.904729,919.314598,-222.061783,8956.491898
2393.905058,1149.143247,-222.061783,8660.409521
2393.905387,1149.143247,-0.000000,8290.306550
2393.905716,1149.143247,-0.000000,8290.306550
2393.906045,536.266849,-0.000000,8142.265362
2393.906374,842.705048,-370.102971,8438.347739
2393.906703,-536.266849,-296.082377,8734.430116
2393.907032,76.609550,-814.226536,8882.471304
2393.907361,-229.828649,-814.226536,8660.409521
2393.907690,-229.828649,-222.061783,8290.306550
2393.908019,-306.438199,-148.041188,8512.368333
2393.908348,0.000000,148.041188,8216.285956
2393.908677,229.828649,-0.000000,8438.347739
2393.909006,689.485948,-0.000000,7994.224174
2393.909335,1072.533697,-0.000000,8142.265362
2393.909664,459.657299,444.123565,8216.285956
2393.909993,536.266849,444.123565,8290.306550
2393.910322,612.876398,444.123565,8438.347739
2393.910651,306.438199,-0.000000,8438.347739
2393.910980,306.438199,-0.000000,9030.512492
2393.911309,0.000000,-666.185348,9326.594869
2393.911638,-153.219100,-518.144159,9104.533087
2393.911967,-383.047749,-814.226536,9474.636058
2393.912296,-383.047749,-962.267725,10140.821405
2393.912625,-383.047749,-962.267725,9992.780217
2393.912954,0.000000,-666.185348,10214.842000
2393.913283,689.485948,-370.102971,10436.903782
2393.913612,995.924147,-222.061783,9992.780217
2393.913941,1225.752797,-0.000000,9326.594869
2393.914270,2145.067394,592.164754,9400.615463
2393.914599,2528.115143,888.247130,8808.450710
2393.914928,2298.286494,1258.350101,9104.533087
2393.915257,1991.848295,1184.329507,9252.574275
2393.915586,1838.629195,1184.329507,9178.553681
2393.915915,1455.581446,666.185348,9178.553681
2393.916244,536.266849,-74.020594,9474.636058
2393.916573,-229.828649,-222.061783,9326.594869
2393.916902,-995.924147,-518.144159,9252.574275
2393.917231,-1455.581446,-814.226536,9918.759623
2393.917560,-1455.581446,-1184.329507,9770.718434
2393.917889,-1685.410096,-1406.391290,9326.594869
2393.918218,-1302.362347,-1554.432478,9770.718434
2393.918548,-995.924147,-1258.350101,9844.739029
2393.918877,-612.876398,-740.205942,9474.636058
2393.919206,-306.438199,-666.185348,9474.636058
2393.919535,0.000000,-592.164754,8882.471304
2393.919864,459.657299,-222.061783,8808.450710
2393.920193,1378.971896,-0.000000,8438.347739
2393.920522,1915.238745,-0.000000,8364.327145
2393.920851,1762.019645,-0.000000,8068.244768
2393.921181,1915.238745,370.102971,8068.244768
2393.921510,1378.971896,-0.000000,7772.162391
2393.921839,689.485948,-0.000000,8142.265362
2393.922168,306.438199,-370.102971,8290.306550
2393.922497,0.000000,-814.226536,8290.306550
2393.922826,-536.266849,-814.226536,8216.285956
2393.923155,-766.095498,-296.082377,9104.533087
2393.923484,-1608.800546,-666.185348,9104.533087
2393.923814,-995.924147,-666.185348,8734.430116
2393.924143,-689.485948,-444.123565,8660.409521
2393.924472,-459.657299,-74.020594,8586.388927
2393.924801,459.657299,148.041188,8586.388927
2393.925130,0.000000,222.061783,8216.285956
2393.925459,459.657299,518.144159,8882.471304
2393.925788,383.047749,518.144159,8512.368333
2393.926117,536.266849,370.102971,8512.368333
2393.926447,153.219100,222.061783,8956.491898
2393.926776,0.000000,-0.000000,9178.553681
2393.927105,0.000000,-222.061783,9474.636058
2393.927434,-229.828649,-444.123565,9548.656652
2393.927763,-536.266849,-222.061783,10362.883188
2393.928092,-153.219100,-1036.288319,10288.862594
2393.928421,459.657299,-814.226536,9622.677246
2393.928750,995.924147,-370.102971,10436.903782
2393.929080,1149.143247,-0.000000,9696.697840
2393.929409,1302.362347,740.205942,9696.697840
2393.929738,2298.286494,740.205942,9696.697840
2393.930067,2834.553343,1258.350101,8882.471304
2393.930396,2911.162892,1258.350101,8734.430116
2393.930725,3140.991542,1332.370696,8290.306550
2393.931054,2451.505594,1628.453072,8808.450710
2393.931383,1991.848295,962.267725,8660.409521
2393.931713,1302.362347,370.102971,9104.533087
2393.932042,229.828649,-148.041188,9400.615463
2393.932371,-383.047749,-444.123565,9104.533087
2393.932700,-766.095498,-888.247130,9474.636058
2393.933029,-1455.581446,-1332.370696,9844.739029
2393.933358,-1608.800546,-1406.391290,9474.636058
2393.933687,-1838.629195,-1406.391290,9548.656652
2393.934016,-1532.190996,-1554.432478,9696.697840
2393.934346,-1225.752797,-1184.329507,9326.594869
2393.934675,-536.266849,-1184.329507,9400.615463
2393.935004,-536.266849,-1110.308913,9622.677246
2393.935333,306.438199,-814.226536,9178.553681
2393.935662,995.924147,-666.185348,8660.409521
2393.935991,1302.362347,-148.041188,8438.347739
2393.936320,1608.800546,-0.000000,8216.285956
2393.936649,1762.019645,222.061783,7846.182985
2393.936979,1455.581446,148.041188,7920.203579
2393.937308,1072.533697,222.061783,8364.327145
2393.937637,689.485948,-0.000000,8068.244768
2393.937966,-383.047749,-74.020594,8586.388927
2393.938295,-842.705048,-74.020594,8882.471304
2393.938624,-842.705048,-666.185348,8586.388927
2393.938953,-766.095498,-740.205942,8734.430116
2393.939282,-842.705048,-444.123565,9104.533087
2393.939612,-383.047749,-444.123565,8808.450710
2393.939941,-306.438199,-222.061783,8956.491898
2393.940270,-536.266849,-0.000000,9178.553681
2393.940599,76.609550,148.041188,8216.285956
2393.940928,229.828649,296.082377,8364.327145
2393.941257,612.876398,592.164754,8512.368333
2393.941586,842.705048,370.102971,8364.327145
2393.941915,766.095498,592.164754,8660.409521
2393.942245,842.705048,-0.000000,8882.471304
2393.942574,689.485948,-0.000000,8734.430116
2393.942903,229.828649,-222.061783,8808.450710
2393.943232,76.609550,-444.123565,9918.759623
2393.943561,0.000000,-592.164754,9622.677246
2393.943890,0.000000,-888.247130,10066.800811
2393.944219,383.047749,-592.164754,10066.800811
2393.944548,0.000000,-518.144159,10288.862594
2393.944878,612.876398,-222.061783,9696.697840
2393.945207,1378.971896,444.123565,9622.677246
2393.945536,1991.848295,666.185348,9474.636058
2393.945865,2451.505594,1036.288319,9104.533087
2393.946194,2374.896044,1110.308913,8956.491898
2393.946523,2221.676944,888.247130,9104.533087
2393.946852,1149.143247,518.144159,8882.471304
2393.947181,1378.971896,-0.000000,8956.491898
2393.947511,76.609550,-74.020594,9104.533087
2393.947840,-383.047749,-666.185348,9474.636058
2393.948169,-995.924147,-1036.288319,9622.677246
2393.948498,-1302.362347,-1480.411884,9770.718434
2393.948827,-1072.533697,-1406.391290,9844.739029
2393.949156,-842.705048,-1332.370696,9400.615463
2393.949485,-1072.533697,-1036.288319,10140.821405
2393.949814,-1149.143247,-666.185348,9770.718434
2393.950144,-459.657299,-518.144159,9326.594869
2393.950473,-229.828649,-592.164754,9326.594869
2393.950802,76.609550,-740.205942,9474.636058
2393.951131,766.095498,-444.123565,8290.306550
2393.951460,1685.410096,-0.000000,8586.388927
2393.951789,1915.238745,370.102971,8142.265362
2393.952118,1838.629195,296.082377,7624.121203
2393.952447,1455.581446,370.102971,7846.182985
2393.952777,1072.533697,-0.000000,7772.162391
2393.953106,842.705048,-0.000000,7920.203579
2393.953435,536.266849,-222.061783,7920.203579
2393.953764,-459.657299,-888.247130,8660.409521
2393.954093,-612.876398,-444.123565,8586.388927
2393.954422,-689.485948,-888.247130,8290.306550
2393.954751,-689.485948,-148.041188,8808.450710
2393.955080,-919.314598,-74.020594,8734.430116
2393.955410,-459.657299,-0.000000,8512.368333
2393.955739,-689.485948,148.041188,8734.430116
2393.956068,-842.705048,296.082377,8956.491898
2393.956397,0.000000,-222.061783,8660.409521
2393.956726,-229.828649,148.041188,8956.491898
2393.957055,-153.219100,-0.000000,9104.533087
2393.957384,0.000000,-0.000000,9178.553681
2393.957713,0.000000,-518.144159,9104.533087
2393.958043,76.609550,-296.082377,9770.718434
2393.958372,306.438199,-1036.288319,9474.636058
2393.958701,0.000000,-666.185348,9770.718434
2393.959030,536.266849,-444.123565,10140.821405
2393.959359,536.266849,-0.000000,10288.862594
2393.959688,1072.533697,-0.000000,9844.739029
2393.960017,1455.581446,-0.000000,10140.821405
2393.960346,1762.019645,148.041188,9696.697840
2393.960676,2221.676944,740.205942,9400.615463
2393.961005,2604.724693,666.185348,8734.430116
2393.961334,2221.676944,1258.350101,9252.574275
2393.961663,2068.457845,1184.329507,9030.512492
2393.961992,1762.019645,666.185348,9104.533087
2393.962321,995.924147,296.082377,9178.553681
2393.962650,689.485948,-0.000000,9104.533087
2393.962979,-383.047749,-518.144159,9178.553681
2393.963309,-306.438199,-1406.391290,9622.677246
2393.963638,-612.876398,-592.164754,9474.636058
2393.963967,-842.705048,-962.267725,9548.656652
2393.964296,-842.705048,-666.185348,9696.697840
2393.964625,-689.485948,-592.164754,9326.594869
2393.964954,-306.438199,-666.185348,9474.636058
2393.965283,0.000000,-592.164754,9548.656652
2393.965612,842.705048,-814.226536,9030.512492
2393.965942,459.657299,-296.082377,8586.388927
2393.966271,689.485948,-518.144159,8734.430116
2393.966600,995.924147,-296.082377,8364.327145
2393.966929,1378.971896,-370.102971,8512.368333
2393.967258,1149.143247,-592.164754,8216.285956
2393.967587,1378.971896,-518.144159,8142.265362
2393.967916,689.485948,-666.185348,7920.203579
2393.968245,459.657299,-518.144159,8438.347739
2393.968575,229.828649,-518.144159,8512.368333
2393.968904,0.000000,-666.185348,8364.327145
2393.969233,0.000000,-444.123565,8512.368333
2393.969562,0.000000,-370.102971,8512.368333
2393.969891,-306.438199,-74.020594,8364.327145
2393.970220,0.000000,-0.000000,8660.409521
2393.970549,-536.266849,-0.000000,8956.491898
2393.970878,0.000000,296.082377,8290.306550
2393.971208,0.000000,370.102971,8438.347739
2393.971537,0.000000,370.102971,8808.450710
2393.971866,306.438199,148.041188,8586.388927
2393.972195,0.000000,-0.000000,9178.553681
2393.972524,0.000000,-148.041188,9326.594869
2393.972853,-459.657299,-296.082377,9474.636058
2393.973182,-383.047749,-518.144159,9326.594869
2393.973511,-383.047749,-370.102971,9696.697840
2393.973841,-306.438199,-296.082377,9696.697840
2393.974170,459.657299,-444.123565,9770.718434
2393.974499,306.438199,-592.164754,9918.759623
2393.974828,612.876398,-0.000000,9992.780217
2393.975157,1225.752797,814.226536,9844.739029
2393.975486,1532.190996,666.185348,9548.656652
2393.975815,1685.410096,888.247130,9474.636058
2393.976144,2145.067394,888.247130,8882.471304
2393.976473,2451.505594,518.144159,8956.491898
2393.976803,1991.848295,444.123565,9252.574275
2393.977132,1762.019645,-0.000000,8956.491898
2393.977461,1302.362347,148.041188,9104.533087
2393.977790,536.266849,-0.000000,9400.615463
2393.978119,153.219100,-222.061783,9252.574275
2393.978448,-306.438199,-444.123565,9326.594869
2393.978777,-766.095498,-814.226536,9622.677246
2393.979106,-766.095498,-888.247130,9696.697840
2393.979436,-842.705048,-1110.308913,9548.656652
2393.979765,-766.095498,-1184.329507,9400.615463
2393.980094,-306.438199,-1110.308913,9622.677246
2393.980423,-689.485948,-1110.308913,9400.615463
2393.980752,0.000000,-1110.308913,9474.636058
2393.981081,306.438199,-1258.350101,9474.636058
2393.981410,842.705048,-1036.288319,8882.471304
2393.981739,1149.143247,-888.247130,8956.491898
2393.982069,1149.143247,-296.082377,9104.533087
2393.982398,1302.362347,-74.020594,8512.368333
2393.982727,1455.581446,-0.000000,8142.265362
2393.983056,1149.143247,-0.000000,8216.285956
2393.983385,306.438199,-296.082377,8364.327145
2393.983714,766.095498,-296.082377,8364.327145
2393.984043,0.000000,-666.185348,8660.409521
2393.984372,-306.438199,-518.144159,8068.244768
2393.984702,-459.657299,-444.123565,8438.347739
2393.985031,-766.095498,-518.144159,8586.388927
2393.985360,-383.047749,-222.061783,8290.306550
2393.985689,0.000000,-592.164754,8364.327145
2393.986018,76.609550,-0.000000,8290.306550
2393.986347,383.047749,-148.041188,7920.203579
2393.986676,383.047749,814.226536,7994.224174
2393.987005,306.438199,666.185348,8364.327145
2393.987335,383.047749,592.164754,8364.327145
2393.987664,229.828649,592.164754,8438.347739
2393.987993,-306.438199,370.102971,8808.450710
2393.988322,-459.657299,-222.061783,8808.450710
2393.988651,-383.047749,-296.082377,9400.615463
2393.988980,-612.876398,-888.247130,9548.656652
2393.989309,-689.485948,-888.247130,10140.821405
2393.989638,-459.657299,-1110.308913,10066.800811
2393.989968,-229.828649,-814.226536,10066.800811
2393.990297,306.438199,-740.205942,11103.089130
2393.990626,1149.143247,-518.144159,10066.800811
2393.990955,1378.971896,-0.000000,9770.718434
2393.991284,1685.410096,444.123565,9622.677246
2393.991613,2834.553343,1184.329507,9030.512492
2393.991942,2911.162892,1554.432478,8734.430116
2393.992271,2681.334243,1628.453072,9030.512492
2393.992601,2451.505594,1554.432478,8734.430116
2393.992930,1762.019645,814.226536,8808.450710
2393.993259,0.000000,370.102971,9474.636058
2393.993588,0.000000,-296.082377,9326.594869
2393.993917,-995.924147,-740.205942,9622.677246
2393.994246,-1608.800546,-1184.329507,9770.718434
2393.994575,-1532.190996,-1406.391290,9992.780217
2393.994904,-1532.190996,-1480.411884,9622.677246
2393.995234,-1225.752797,-1628.453072,9844.739029
2393.995563,-919.314598,-1776.494261,9622.677246
2393.995892,-383.047749,-740.205942,9622.677246
2393.996221,-306.438199,-740.205942,9474.636058
2393.996550,0.000000,-592.164754,9030.512492
2393.996879,383.047749,-370.102971,9474.636058
2393.997208,919.314598,-666.185348,8290.306550
2393.997537,1455.581446,-0.000000,8512.368333
2393.997867,995.924147,-0.000000,7772.162391
2393.998196,2145.067394,518.144159,7476.080014
2393.998525,1455.581446,296.082377,7994.224174
2393.998854,1149.143247,222.061783,7698.141797
2393.999183,612.876398,-370.102971,7698.141797
2393.999512,76.609550,-814.226536,8364.327145
2393.999841,153.219100,-1110.308913,8882.471304
2394.000170,-995.924147,-1036.288319,8734.430116
2394.000500,-1302.362347,-814.226536,9178.553681
2394.000829,-919.314598,-666.185348,9104.533087
2394.001158,-612.876398,-296.082377,8808.450710
2394.001487,-459.657299,-0.000000,8734.430116
2394.001816,0.000000,-74.020594,8882.471304
2394.002145,536.266849,518.144159,8882.471304
2394.002474,-306.438199,666.185348,8290.306550
2394.002803,459.657299,-0.000000,8808.450710
2394.003133,689.485948,296.082377,8586.388927
2394.003462,612.876398,222.061783,8438.347739
2394.003791,689.485948,-74.020594,8882.471304
2394.004120,689.485948,-148.041188,9326.594869
2394.004449,76.609550,-666.185348,9474.636058
2394.004778,-229.828649,-962.267725,10288.862594
2394.005107,-229.828649,-814.226536,9844.739029
2394.005436,0.000000,-814.226536,10066.800811
2394.005766,229.828649,-518.144159,10140.821405
2394.006095,766.095498,-74.020594,10214.842000
2394.006424,1532.190996,592.164754,9918.759623
2394.006753,1762.019645,592.164754,9696.697840
2394.007082,2604.724693,1110.308913,9548.656652
2394.007411,2451.505594,1628.453072,8882.471304
2394.007740,2451.505594,1554.432478,8956.491898
2394.008069,2068.457845,1184.329507,8956.491898
2394.008399,1685.410096,962.267725,8586.388927
2394.008728,1072.533697,888.247130,8956.491898
2394.009057,383.047749,-0.000000,9326.594869
2394.009386,-306.438199,-666.185348,9474.636058
2394.009715,-536.266849,-1258.350101,9474.636058
2394.010044,-1225.752797,-1110.308913,9770.718434
2394.010373,-1225.752797,-1110.308913,9770.718434
2394.010702,-1225.752797,-1036.288319,9474.636058
2394.011032,-995.924147,-1036.288319,9696.697840
2394.011361,-689.485948,-1258.350101,9252.574275
2394.011690,-229.828649,-888.247130,9400.615463
2394.012019,-383.047749,-1258.350101,9696.697840
2394.012348,153.219100,-962.267725,9326.594869
2394.012677,766.095498,-518.144159,8586.388927
2394.013006,1149.143247,-148.041188,8512.368333
2394.013335,1149.143247,-74.020594,7994.224174
2394.013665,1532.190996,296.082377,7624.121203
2394.013994,1455.581446,370.102971,7994.224174
2394.014323,919.314598,-0.000000,8216.285956
2394.014652,383.047749,-74.020594,8216.285956
2394.014981,-229.828649,-148.041188,8290.306550
2394.015310,-612.876398,-814.226536,8660.409521
2394.015639,-689.485948,-518.144159,8734.430116
2394.015969,-536.266849,-370.102971,8438.347739
2394.016298,-536.266849,-0.000000,9400.615463
2394.016627,-766.095498,-518.144159,9030.512492
2394.016956,-536.266849,-0.000000,8438.347739
2394.017285,0.000000,-0.000000,8512.368333
2394.017614,0.000000,592.164754,8660.409521
2394.017943,0.000000,444.123565,8512.368333
2394.018273,459.657299,222.061783,8660.409521
2394.018602,383.047749,296.082377,8512.368333
2394.018931,153.219100,-0.000000,8512.368333
2394.019260,306.438199,-0.000000,9104.533087
2394.019589,76.609550,-222.061783,9400.615463
2394.019918,0.000000,-222.061783,9400.615463
2394.020248,0.000000,-1036.288319,9844.739029
2394.020577,0.000000,-518.144159,10362.883188
2394.020906,383.047749,-444.123565,10140.821405
2394.021235,1378.971896,-148.041188,9844.739029
2394.021564,1302.362347,-0.000000,9918.759623
2394.021893,1915.238745,518.144159,9696.697840
2394.022222,2298.286494,740.205942,9326.594869
2394.022552,2451.505594,814.226536,9030.512492
2394.022881,2757.943793,888.247130,8956.491898
2394.023210,2604.724693,962.267725,8290.306550
2394.023539,2451.505594,1036.288319,9400.615463
2394.023868,1378.971896,-0.000000,9252.574275
2394.024197,842.705048,-74.020594,9178.553681
2394.024527,0.000000,-518.144159,9474.636058
2394.024856,-689.485948,-814.226536,9770.718434
2394.025185,-1149.143247,-1110.308913,9548.656652
2394.025514,-1762.019645,-962.267725,10214.842000
2394.025843,-689.485948,-1036.288319,10140.821405
2394.026172,-766.095498,-888.247130,9474.636058
2394.026501,-919.314598,-1036.288319,9622.677246
2394.026831,-459.657299,-740.205942,9474.636058
2394.027160,-306.438199,-666.185348,9178.553681
2394.027489,0.000000,-740.205942,9622.677246
2394.027818,689.485948,-666.185348,8586.388927
2394.028147,1302.362347,148.041188,9104.533087
2394.028476,919.314598,-0.000000,8290.306550
2394.028806,1149.143247,-0.000000,8216.285956
2394.029135,1302.362347,-0.000000,7994.224174
2394.029464,1149.143247,222.061783,7772.162391
2394.029793,1072.533697,-74.020594,7994.224174
2394.030122,459.657299,-370.102971,8290.306550
2394.030451,536.266849,-592.164754,8512.368333
2394.030781,-383.047749,-296.082377,8808.450710
2394.031110,-536.266849,-222.061783,8512.368333
2394.031439,-383.047749,-296.082377,8438.347739
2394.031768,-459.657299,-0.000000,8438.347739
2394.032097,-153.219100,296.082377,8882.471304
2394.032426,383.047749,148.041188,8660.409521
2394.032755,0.000000,370.102971,8586.388927
2394.033085,459.657299,444.123565,8438.347739
2394.033414,0.000000,296.082377,8364.327145
2394.033743,76.609550,-0.000000,8512.368333
2394.034072,229.828649,-74.020594,8956.491898
2394.034401,76.609550,-74.020594,8956.491898
2394.034730,-383.047749,-0.000000,9400.615463
2394.035060,306.438199,-666.185348,9770.718434
2394.035389,-229.828649,-518.144159,9918.759623
2394.035718,0.000000,-518.144159,9696.697840
2394.036047,153.219100,-592.164754,10362.883188
2394.036376,383.047749,-370.102971,10140.821405
2394.036705,1072.533697,-0.000000,9696.697840
2394.037034,842.705048,148.041188,10066.800811
2394.037364,1762.019645,296.082377,9992.780217
2394.037693,1991.848295,666.185348,9474.636058
2394.038022,1915.238745,1110.308913,9326.594869
2394.038351,1838.629195,888.247130,9326.594869
2394.038680,1455.581446,814.226536,8956.491898
2394.039009,1378.971896,592.164754,9178.553681
2394.039339,919.314598,222.061783,9400.615463
2394.039668,0.000000,-0.000000,9474.636058
2394.039997,0.000000,-296.082377,9104.533087
2394.040326,-612.876398,-296.082377,9400.615463
2394.040655,-766.095498,-592.164754,9622.677246
2394.040984,-995.924147,-888.247130,9474.636058
2394.041313,-842.705048,-1554.432478,9548.656652
2394.041643,-689.485948,-1258.350101,9696.697840
2394.041972,-766.095498,-1036.288319,9326.594869
2394.042301,-459.657299,-1110.308913,9252.574275
2394.042630,0.000000,-814.226536,9400.615463
2394.042959,153.219100,-592.164754,8956.491898
2394.043288,842.705048,-814.226536,9252.574275
2394.043618,1072.533697,-666.185348,8808.450710
2394.043947,842.705048,-0.000000,7994.224174
2394.044276,1991.848295,148.041188,7846.182985
2394.044605,1915.238745,-0.000000,7846.182985
2394.044934,1302.362347,74.020594,7846.182985
2394.045263,995.924147,-0.000000,7698.141797
2394.045593,766.095498,-148.041188,7994.224174
2394.045922,-919.314598,-592.164754,8068.244768
2394.046251,-153.219100,-814.226536,8660.409521
2394.046580,-689.485948,-518.144159,8882.471304
2394.046909,-995.924147,-592.164754,8882.471304
2394.047238,-1072.533697,-370.102971,8660.409521
2394.047567,-919.314598,-0.000000,8956.491898
2394.047897,-536.266849,-222.061783,8660.409521
2394.048226,-306.438199,-0.000000,8956.491898
2394.048555,0.000000,-222.061783,8734.430116
2394.048884,-153.219100,296.082377,9104.533087
2394.049213,0.000000,296.082377,9030.512492
2394.049542,153.219100,444.123565,8882.471304
2394.049872,0.000000,148.041188,9030.512492
2394.050201,76.609550,-74.020594,9030.512492
2394.050530,-383.047749,-74.020594,9400.615463
2394.050859,-995.924147,-444.123565,9696.697840
2394.051188,153.219100,-518.144159,9696.697840
2394.051517,229.828649,-370.102971,9918.759623
2394.051846,612.876398,-296.082377,10436.903782
2394.052176,689.485948,-0.000000,9992.780217
2394.052505,1225.752797,222.061783,9770.718434
2394.052834,1762.019645,592.164754,9696.697840
2394.053163,2221.676944,740.205942,9104.533087
2394.053492,2068.457845,1110.308913,8808.450710
2394.053821,2298.286494,1036.288319,9178.553681
2394.054151,2068.457845,1406.391290,8586.388927
2394.054480,1838.629195,740.205942,8364.327145
2394.054809,995.924147,592.164754,9104.533087
2394.055138,229.828649,148.041188,9400.615463
2394.055467,0.000000,-296.082377,9104.533087
2394.055796,-612.876398,-1258.350101,9622.677246
2394.056125,-612.876398,-962.267725,9622.677246
2394.056455,-1302.362347,-1850.514855,9844.739029
2394.056784,-1455.581446,-1258.350101,9622.677246
2394.057113,-1072.533697,-888.247130,9696.697840
2394.057442,-766.095498,-962.267725,9474.636058
2394.057771,-536.266849,-814.226536,9252.574275
2394.058100,0.000000,-888.247130,9696.697840
2394.058430,0.000000,-370.102971,9400.615463
2394.058759,-153.219100,-518.144159,9252.574275
2394.059088,536.266849,-370.102971,9030.512492
2394.059417,1072.533697,-222.061783,8216.285956
2394.059746,1149.143247,-222.061783,8216.285956
2394.060075,1225.752797,-0.000000,8364.327145
2394.060405,1302.362347,-74.020594,8364.327145
2394.060734,1072.533697,-222.061783,8216.285956
2394.061063,689.485948,-296.082377,8586.388927
2394.061392,0.000000,-222.061783,8512.368333
2394.061721,0.000000,-370.102971,8142.265362
2394.062050,-229.828649,-296.082377,8586.388927
2394.062379,-229.828649,-0.000000,8660.409521
2394.062709,-306.438199,-74.020594,8512.368333
2394.063038,-229.828649,-74.020594,8512.368333
2394.063367,0.000000,-0.000000,8512.368333
2394.063696,0.000000,-0.000000,8660.409521
2394.064025,0.000000,222.061783,8438.347739
2394.064354,0.000000,-0.000000,8734.430116
2394.064684,229.828649,-0.000000,8882.471304
2394.065013,306.438199,-222.061783,8512.368333
2394.065342,0.000000,-518.144159,9178.553681
2394.065671,459.657299,-592.164754,9104.533087
2394.066000,76.609550,-444.123565,9104.533087
2394.066329,153.219100,-592.164754,9548.656652
2394.066658,229.828649,-444.123565,9696.697840
2394.066988,459.657299,-148.041188,9622.677246
2394.067317,689.485948,-74.020594,9696.697840
2394.067646,842.705048,-0.000000,10214.842000
2394.067975,1378.971896,518.144159,9474.636058
2394.068304,919.314598,592.164754,9474.636058
2394.068633,1685.410096,592.164754,9474.636058
2394.068963,1608.800546,814.226536,9178.553681
2394.069292,1378.971896,740.205942,9474.636058
2394.069621,1225.752797,444.123565,9400.615463
2394.069950,919.314598,-222.061783,9474.636058
2394.070279,536.266849,-518.144159,9326.594869
2394.070608,-153.219100,-444.123565,9622.677246
2394.070937,-689.485948,-592.164754,9696.697840
2394.071267,-919.314598,-592.164754,9548.656652
2394.071596,-919.314598,-814.226536,9696.697840
2394.071925,-1302.362347,-1036.288319,9696.697840
2394.072254,-1072.533697,-1184.329507,9474.636058
2394.072583,-689.485948,-814.226536,10066.800811
2394.072912,0.000000,-888.247130,9622.677246
2394.073242,0.000000,-814.226536,9474.636058
2394.073571,0.000000,-592.164754,9326.594869
2394.073900,689.485948,-296.082377,8882.471304
2394.074229,1225.752797,-296.082377,8290.306550
2394.074558,1302.362347,-370.102971,8586.388927
2394.074887,1302.362347,-222.061783,8290.306550
2394.075217,1685.410096,-0.000000,7920.203579
2394.075546,995.924147,-0.000000,7920.203579
2394.075875,919.314598,-0.000000,8216.285956
2394.076204,612.876398,-74.020594,8216.285956
2394.076533,76.609550,-222.061783,8068.244768
2394.076862,-229.828649,-296.082377,8808.450710
2394.077191,-842.705048,-296.082377,8438.347739
2394.077521,-612.876398,-444.123565,8290.306550
2394.077850,-536.266849,-370.102971,8734.430116
2394.078179,-536.266849,-222.061783,8290.306550
2394.078508,-383.047749,-222.061783,8216.285956
2394.078837,0.000000,-0.000000,8808.450710
2394.079166,-766.095498,-0.000000,8364.327145
2394.079496,153.219100,-0.000000,8364.327145
2394.079825,0.000000,-74.020594,8882.471304
2394.080154,229.828649,-0.000000,8808.450710
2394.080483,76.609550,-222.061783,8808.450710
2394.080812,76.609550,-222.061783,9326.594869
2394.081141,0.000000,-444.123565,9918.759623
2394.081470,383.047749,-814.226536,9992.780217
2394.081800,153.219100,-666.185348,9918.759623
2394.082129,612.876398,-740.205942,10140.821405
2394.082458,612.876398,-148.041188,9844.739029
2394.082787,995.924147,-0.000000,9770.718434
2394.083116,1532.190996,370.102971,9770.718434
2394.083445,1991.848295,518.144159,9400.615463
2394.083775,2451.505594,296.082377,9474.636058
2394.084104,2757.943793,666.185348,9326.594869
2394.084433,2145.067394,962.267725,9030.512492
2394.084762,1838.629195,1110.308913,8882.471304
2394.085091,1455.581446,814.226536,9178.553681
2394.085420,766.095498,370.102971,9178.553681
2394.085749,383.047749,-296.082377,9548.656652
2394.086079,0.000000,-444.123565,9326.594869
2394.086408,-766.095498,-296.082377,9696.697840
2394.086737,-1072.533697,-814.226536,9178.553681
2394.087066,-1302.362347,-962.267725,9548.656652
2394.087395,-1225.752797,-740.205942,9696.697840
2394.087724,-919.314598,-962.267725,9326.594869
2394.088054,-612.876398,-1110.308913,9474.636058
2394.088383,-689.485948,-1332.370696,9474.636058
2394.088712,0.000000,-888.247130,9252.574275
2394.089041,153.219100,-518.144159,9400.615463
2394.089370,766.095498,-592.164754,9030.512492
2394.089699,995.924147,-518.144159,8660.409521
2394.090029,1302.362347,-148.041188,8216.285956
2394.090358,1915.238745,-222.061783,8438.347739
2394.090687,1378.971896,-74.020594,8512.368333
2394.091016,1225.752797,-74.020594,8438.347739
2394.091345,995.924147,-0.000000,8438.347739
2394.091674,306.438199,-222.061783,8512.368333
2394.092003,0.000000,-370.102971,8290.306550
2394.092333,-306.438199,-518.144159,8808.450710
2394.092662,-459.657299,-666.185348,8956.491898
2394.092991,-536.266849,-888.247130,8660.409521
2394.093320,-459.657299,-444.123565,8808.450710
2394.093649,-383.047749,-444.123565,8660.409521
2394.093978,0.000000,-0.000000,8512.368333
2394.094308,153.219100,-0.000000,8512.368333
2394.094637,383.047749,222.061783,8808.450710
2394.094966,536.266849,666.185348,8290.306550
2394.095295,383.047749,592.164754,8586.388927
2394.095624,459.657299,-0.000000,8734.430116
2394.095953,306.438199,444.123565,8882.471304
2394.096282,-766.095498,222.061783,9474.636058
2394.096612,76.609550,-222.061783,9252.574275
2394.096941,0.000000,-296.082377,9474.636058
2394.097270,76.609550,-296.082377,9474.636058
2394.097599,0.000000,-518.144159,9918.759623
2394.097928,0.000000,-296.082377,9770.718434
2394.098257,536.266849,-518.144159,9696.697840
2394.098587,76.609550,-0.000000,9918.759623
2394.098916,1532.190996,148.041188,9474.636058
2394.099245,2145.067394,518.144159,9104.533087
2394.099574,1991.848295,814.226536,9104.533087
2394.099903,2374.896044,962.267725,9178.553681
2394.100232,2298.286494,962.267725,8808.450710
2394.100562,1838.629195,888.247130,8956.491898
2394.100891,1378.971896,814.226536,9252.574275
2394.101220,842.705048,296.082377,8956.491898
2394.101549,306.438199,-0.000000,9400.615463
2394.101878,-689.485948,-518.144159,9622.677246
2394.102207,-995.924147,-888.247130,9696.697840
2394.102536,-1455.581446,-1332.370696,9696.697840
2394.102866,-1762.019645,-1554.432478,10066.800811
2394.103195,-1302.362347,-1628.453072,10288.862594
2394.103524,-1455.581446,-1628.453072,9918.759623
2394.103853,-995.924147,-1628.453072,9770.718434
2394.104182,0.000000,-1258.350101,9696.697840
2394.104511,459.657299,-740.205942,9326.594869
2394.104841,919.314598,-444.123565,9178.553681
2394.105170,1455.581446,-370.102971,9030.512492
2394.105499,1838.629195,370.102971,8364.327145
2394.105828,1991.848295,444.123565,8142.265362
2394.106157,1838.629195,370.102971,7920.203579
2394.106486,1225.752797,592.164754,7994.224174
2394.106815,689.485948,296.082377,7994.224174
2394.107145,76.609550,-0.000000,8290.306550
2394.107474,-1149.143247,-0.000000,8290.306550
2394.107803,-766.095498,-592.164754,8364.327145
2394.108132,-766.095498,-888.247130,8512.368333
2394.108461,-1072.533697,-888.247130,8956.491898
2394.108790,-919.314598,-592.164754,8512.368333
2394.109120,-766.095498,-444.123565,8734.430116
2394.109449,-306.438199,-0.000000,8512.368333
2394.109778,153.219100,148.041188,8586.388927
2394.110107,153.219100,592.164754,8438.347739
2394.110436,229.828649,740.205942,8734.430116
2394.110765,459.657299,518.144159,8216.285956
2394.111094,536.266849,518.144159,8216.285956
2394.111424,612.876398,296.082377,8956.491898
2394.111753,536.266849,-74.020594,8956.491898
2394.112082,153.219100,-1036.288319,9178.553681
2394.112411,536.266849,-592.164754,9622.677246
2394.112740,76.609550,-666.185348,9770.718434
2394.113069,76.609550,-1036.288319,10436.903782
2394.113399,306.438199,-740.205942,10214.842000
2394.113728,689.485948,-518.144159,10140.821405
2394.114057,1072.533697,-0.000000,9622.677246
2394.114386,1915.238745,-0.000000,10288.862594
2394.114715,1762.019645,740.205942,9400.615463
2394.115044,2374.896044,962.267725,9178.553681
2394.115374,2451.505594,1110.308913,9178.553681
2394.115703,2145.067394,1406.391290,8956.491898
2394.116032,1991.848295,444.123565,9030.512492
2394.116361,995.924147,666.185348,8956.491898
2394.116690,766.095498,-0.000000,9474.636058
2394.117019,-995.924147,-296.082377,9474.636058
2394.117348,-766.095498,-888.247130,9622.677246
2394.117678,-1378.971896,-1184.329507,9844.739029
2394.118007,-1378.971896,-1332.370696,9548.656652
2394.118336,-1302.362347,-1406.391290,9474.636058
2394.118665,-1225.752797,-1184.329507,9400.615463
2394.118994,-1149.143247,-1258.350101,9474.636058
2394.119323,-383.047749,-814.226536,9844.739029
2394.119653,383.047749,-444.123565,9548.656652
2394.119982,0.000000,-222.061783,8808.450710
2394.120311,1149.143247,-74.020594,8364.327145
2394.120640,1149.143247,-0.000000,8512.368333
2394.120969,1685.410096,-0.000000,8068.244768
2394.121298,1225.752797,-370.102971,7994.224174
2394.121628,1072.533697,-74.020594,8216.285956
2394.121957,919.314598,-148.041188,8512.368333
2394.122286,536.266849,-518.144159,8290.306550
2394.122615,-153.219100,-814.226536,8734.430116
2394.122944,-306.438199,-666.185348,8808.450710
2394.123273,-766.095498,-666.185348,8734.430116
2394.123602,-383.047749,-666.185348,8882.471304
2394.123932,-766.095498,-444.123565,8956.491898
2394.124261,-383.047749,-296.082377,8512.368333
2394.124590,-306.438199,-148.041188,8364.327145
2394.124919,153.219100,222.061783,8586.388927
2394.125248,229.828649,444.123565,8364.327145
2394.125577,306.438199,518.144159,8438.347739
2394.125907,612.876398,-0.000000,8882.471304
2394.126236,306.438199,148.041188,9030.512492
2394.126565,0.000000,222.061783,8956.491898
2394.126894,-229.828649,-0.000000,9326.594869
2394.127223,-153.219100,-0.000000,9474.636058
2394.127552,0.000000,-444.123565,9622.677246
2394.127882,-383.047749,-592.164754,9918.759623
2394.128211,-689.485948,-666.185348,10288.862594
2394.128540,153.219100,-592.164754,9770.718434
2394.128869,612.876398,-296.082377,9844.739029
2394.129198,689.485948,222.061783,9696.697840
2394.129527,1455.581446,296.082377,9400.615463
2394.129857,1762.019645,740.205942,9474.636058
2394.130186,2451.505594,962.267725,9104.533087
2394.130515,2451.505594,1110.308913,8290.306550
2394.130844,2681.334243,1480.411884,9326.594869
2394.131173,1685.410096,1184.329507,9030.512492
2394.131502,1762.019645,592.164754,8512.368333
2394.131831,689.485948,296.082377,8882.471304
2394.132161,0.000000,-148.041188,9326.594869
2394.132490,-689.485948,-518.144159,9400.615463
2394.132819,-919.314598,-1184.329507,9622.677246
2394.133148,-1225.752797,-1258.350101,9844.739029
2394.133477,-919.314598,-1776.494261,9548.656652
2394.133806,-995.924147,-1258.350101,9548.656652
2394.134136,-995.924147,-1036.288319,9622.677246
2394.134465,-842.705048,-962.267725,9548.656652
2394.134794,-306.438199,-1036.288319,9548.656652
2394.135123,-229.828649,-1480.411884,9770.718434
2394.135452,153.219100,-1036.288319,9326.594869
2394.135781,1302.362347,-370.102971,8956.491898
2394.136111,1762.019645,-296.082377,8438.347739
2394.136440,1532.190996,222.061783,8290.306550
2394.136769,1991.848295,296.082377,7994.224174
2394.137098,1532.190996,222.061783,7772.162391
2394.137427,1378.971896,-0.000000,8512.368333
2394.137756,842.705048,-74.020594,8438.347739
2394.138086,0.000000,-666.185348,8438.347739
2394.138415,-459.657299,-1110.308913,8660.409521
2394.138744,-995.924147,-666.185348,8956.491898
2394.139073,-1072.533697,-888.247130,8882.471304
2394.139402,-919.314598,-814.226536,9030.512492
2394.139731,-383.047749,-222.061783,8956.491898
2394.140060,-153.219100,-222.061783,8216.285956
2394.140390,-229.828649,-0.000000,8660.409521
2394.140719,76.609550,370.102971,8808.450710
2394.141048,229.828649,592.164754,8142.265362
2394.141377,306.438199,740.205942,8290.306550
2394.141706,383.047749,666.185348,8142.265362
2394.142035,1225.752797,740.205942,8290.306550
2394.142365,229.828649,222.061783,8734.430116
2394.142694,0.000000,-222.061783,9104.533087
2394.143023,153.219100,-518.144159,9400.615463
2394.143352,-383.047749,-592.164754,9844.739029
2394.143681,0.000000,-814.226536,10066.800811
2394.144010,0.000000,-518.144159,10140.821405
2394.144340,76.609550,-518.144159,9918.759623
2394.144669,766.095498,-814.226536,10140.821405
2394.144998,1378.971896,-0.000000,9918.759623
2394.145327,2068.457845,444.123565,9474.636058
2394.145656,2451.505594,962.267725,9326.594869
2394.145985,2451.505594,1480.411884,8734.430116
2394.146315,2681.334243,1406.391290,8660.409521
2394.146644,2221.676944,1036.288319,8956.491898
2394.146973,1302.362347,666.185348,9104.533087
2394.147302,766.095498,370.102971,8438.347739
2394.147631,0.000000,-296.082377,9474.636058
2394.147960,-689.485948,-740.205942,9696.697840
2394.148289,-1378.971896,-1110.308913,9696.697840
2394.148619,-1608.800546,-1110.308913,10288.862594
2394.148948,-1225.752797,-1332.370696,9844.739029
2394.149277,-612.876398,-1036.288319,9918.759623
2394.149606,-766.095498,-1480.411884,9844.739029
2394.149935,-919.314598,-814.226536,9770.718434
2394.150264,-383.047749,-1332.370696,9400.615463
2394.150594,-229.828649,-962.267725,9622.677246
2394.150923,229.828649,-592.164754,9622.677246
2394.151252,995.924147,-148.041188,8660.409521
2394.151581,1225.752797,-0.000000,8734.430116
2394.151910,1378.971896,-0.000000,8068.244768
2394.152239,1685.410096,-74.020594,7772.162391
2394.152569,1685.410096,-0.000000,7846.182985
2394.152898,1149.143247,-0.000000,7698.141797
2394.153227,536.266849,-222.061783,7994.224174
2394.153556,229.828649,-518.144159,7846.182985
2394.153885,0.000000,-666.185348,8290.306550
2394.154214,-459.657299,-666.185348,8512.368333
2394.154544,-459.657299,-444.123565,8364.327145
2394.154873,-766.095498,-666.185348,8586.388927
2394.155202,-383.047749,-0.000000,8512.368333
2394.155531,-383.047749,-0.000000,7994.224174
2394.155860,-383.047749,-0.000000,8438.347739
2394.156189,306.438199,222.061783,8660.409521
2394.156519,0.000000,1110.308913,8808.450710
2394.156848,306.438199,-148.041188,8734.430116
2394.157177,229.828649,148.041188,8956.491898
2394.157506,536.266849,-0.000000,8808.450710
2394.157835,383.047749,-296.082377,8808.450710
2394.158164,153.219100,-444.123565,9400.615463
2394.158493,536.266849,-666.185348,9622.677246
2394.158823,459.657299,-592.164754,9548.656652
2394.159152,-306.438199,-222.061783,10362.883188
2394.159481,459.657299,-296.082377,9992.780217
2394.159810,766.095498,-74.020594,9696.697840
2394.160139,1149.143247,-0.000000,9844.739029
2394.160468,1532.190996,518.144159,9918.759623
2394.160798,1685.410096,740.205942,9474.636058
2394.161127,2681.334243,888.247130,9474.636058
2394.161456,2145.067394,1258.350101,9326.594869
2394.161785,1685.410096,1184.329507,9326.594869
2394.162114,1685.410096,888.247130,8956.491898
2394.162443,1149.143247,740.205942,9252.574275
2394.162773,536.266849,222.061783,9104.533087
2394.163102,153.219100,-148.041188,9252.574275
2394.163431,-689.485948,-296.082377,9696.697840
2394.163760,-766.095498,-666.185348,9918.759623
2394.164089,-1225.752797,-1110.308913,9400.615463
2394.164418,-1378.971896,-1184.329507,9918.759623
2394.164748,-1149.143247,-1184.329507,9844.739029
2394.165077,-995.924147,-962.267725,9400.615463
2394.165406,-766.095498,-1554.432478,9622.677246
2394.165735,-153.219100,-518.144159,9548.656652
2394.166064,0.000000,-888.247130,9178.553681
2394.166393,536.266849,-814.226536,8882.471304
2394.166722,842.705048,-148.041188,8882.471304
2394.167052,1532.190996,-0.000000,8216.285956
2394.167381,1532.190996,-0.000000,7846.182985
2394.167710,1762.019645,296.082377,8142.265362
2394.168039,1149.143247,-0.000000,8216.285956
2394.168368,1685.410096,-74.020594,8216.285956
2394.168697,536.266849,-0.000000,8216.285956
2394.169027,0.000000,-518.144159,8364.327145
2394.169356,0.000000,-518.144159,8586.388927
2394.169685,-612.876398,-592.164754,8734.430116
2394.170014,-689.485948,-962.267725,9178.553681
2394.170343,-689.485948,-518.144159,8734.430116
2394.170672,-306.438199,-444.123565,8882.471304
2394.171002,-229.828649,-222.061783,8512.368333
2394.171331,0.000000,222.061783,8364.327145
2394.171660,0.000000,148.041188,8586.388927
2394.171989,153.219100,370.102971,8734.430116
2394.172318,536.266849,296.082377,8438.347739
2394.172647,0.000000,-74.020594,8586.388927
2394.172977,0.000000,-370.102971,9178.553681
2394.173306,0.000000,-444.123565,9104.533087
2394.173635,0.000000,-296.082377,9400.615463
2394.173964,0.000000,-592.164754,9696.697840
2394.174293,0.000000,-592.164754,9696.697840
2394.174622,306.438199,-444.123565,9770.718434
2394.174951,612.876398,-444.123565,10214.842000
2394.175281,766.095498,222.061783,9622.677246
2394.175610,1608.800546,222.061783,9104.533087
2394.175939,1762.019645,962.267725,9474.636058
2394.176268,2145.067394,1554.432478,9030.512492
2394.176597,2298.286494,1332.370696,8734.430116
2394.176926,2374.896044,1184.329507,9030.512492
2394.177256,1532.190996,962.267725,8808.450710
2394.177585,536.266849,518.144159,8808.450710
2394.177914,459.657299,-222.061783,9326.594869
2394.178243,0.000000,-518.144159,9474.636058
2394.178572,-689.485948,-814.226536,9696.697840
