#time,accel_x,accel_y,accel_z
2673.361194,0.000000,-222.061783,9178.553681
2673.361523,229.828649,-222.061783,9030.512492
2673.361852,612.876398,-296.082377,9400.615463
2673.362181,153.219100,-74.020594,9252.574275
2673.362510,153.219100,-148.041188,9252.574275
2673.362839,306.438199,-370.102971,9104.533087
2673.363168,229.828649,-444.123565,8956.491898
2673.363497,459.657299,-296.082377,9326.594869
2673.363826,383.047749,-518.144159,8660.409521
2673.364155,0.000000,-74.020594,9178.553681
2673.364484,153.219100,-0.000000,9104.533087
2673.364813,153.219100,-74.020594,9104.533087
2673.365142,229.828649,-148.041188,9326.594869
2673.365471,383.047749,-74.020594,9474.636058
2673.365800,612.876398,-74.020594,9400.615463
2673.366129,306.438199,-518.144159,8956.491898
2673.366458,459.657299,-444.123565,9326.594869
2673.366787,383.047749,-0.000000,9030.512492
2673.367116,383.047749,222.061783,8882.471304
2673.367445,306.438199,-222.061783,8882.471304
2673.367774,153.219100,-0.000000,8882.471304
2673.368103,536.266849,-74.020594,8956.491898
2673.368432,459.657299,296.082377,9252.574275
2673.368761,0.000000,-222.061783,9104.533087
2673.369090,76.609550,-74.020594,8882.471304
2673.369419,229.828649,-74.020594,8956.491898
2673.369748,229.828649,-148.041188,8956.491898
2673.370077,153.219100,-222.061783,8882.471304
2673.370406,76.609550,-0.000000,9252.574275
2673.370735,766.095498,-296.082377,8882.471304
2673.371064,689.485948,-74.020594,9104.533087
2673.371393,306.438199,-148.041188,8734.430116
2673.371722,229.828649,-0.000000,8956.491898
2673.372051,306.438199,-0.000000,8956.491898
2673.372380,536.266849,-444.123565,8882.471304
2673.372709,383.047749,-592.164754,9252.574275
2673.373038,383.047749,-296.082377,9178.553681
2673.373367,383.047749,-148.041188,9178.553681
2673.373696,229.828649,-444.123565,8956.491898
2673.374025,76.609550,-222.061783,9104.533087
2673.374354,536.266849,-222.061783,9104.533087
2673.374683,459.657299,-74.020594,9030.512492
2673.375012,842.705048,-444.123565,8882.471304
2673.375341,459.657299,-0.000000,9178.553681
2673.375670,612.876398,-222.061783,9326.594869
2673.375999,383.047749,-148.041188,9178.553681
2673.376328,536.266849,-148.041188,9178.553681
2673.376657,76.609550,-148.041188,9178.553681
2673.376986,689.485948,-296.082377,8734.430116
2673.377315,536.266849,-370.102971,8882.471304
2673.377644,383.047749,-518.144159,9400.615463
2673.377973,459.657299,-296.082377,9400.615463
2673.378302,306.438199,-74.020594,8882.471304
2673.378631,383.047749,-74.020594,8808.450710
2673.378960,459.657299,-74.020594,8882.471304
2673.379289,536.266849,-0.000000,8956.491898
2673.379618,76.609550,-444.123565,9104.533087
2673.379947,536.266849,-444.123565,8882.471304
2673.380276,383.047749,-0.000000,8956.491898
2673.380605,229.828649,-0.000000,8956.491898
2673.380934,459.657299,-0.000000,9030.512492
2673.381263,229.828649,-148.041188,8808.450710
2673.381592,536.266849,-0.000000,9104.533087
2673.381921,536.266849,-444.123565,8734.430116
2673.382250,229.828649,-222.061783,8882.471304
2673.382579,0.000000,-592.164754,9030.512492
2673.382908,229.828649,-74.020594,8882.471304
2673.383237,383.047749,-74.020594,8882.471304
2673.383566,153.219100,-74.020594,8882.471304
2673.383895,612.876398,-74.020594,9326.594869
2673.384224,306.438199,-148.041188,9104.533087
2673.384553,689.485948,-74.020594,9326.594869
2673.384882,459.657299,-296.082377,9178.553681
2673.385211,229.828649,-0.000000,9326.594869
2673.385540,229.828649,-222.061783,9030.512492
2673.385869,459.657299,-222.061783,9030.512492
2673.386198,383.047749,-148.041188,9178.553681
2673.386527,842.705048,-444.123565,9104.533087
2673.386856,536.266849,-0.000000,9474.636058
2673.387185,229.828649,-592.164754,9474.636058
2673.387514,229.828649,-222.061783,9178.553681
2673.387843,306.438199,-296.082377,8956.491898
2673.388172,229.828649,-74.020594,9252.574275
2673.388501,383.047749,-0.000000,9400.615463
2673.388830,612.876398,-370.102971,9252.574275
2673.389159,383.047749,-370.102971,9400.615463
2673.389488,536.266849,-74.020594,9326.594869
2673.389817,306.438199,-0.000000,9104.533087
2673.390146,383.047749,-0.000000,8956.491898
2673.390475,229.828649,-74.020594,9104.533087
2673.390804,383.047749,-148.041188,8956.491898
2673.391133,536.266849,-0.000000,9030.512492
2673.391462,229.828649,-74.020594,9030.512492
2673.391791,306.438199,-222.061783,8586.388927
2673.392120,306.438199,-222.061783,9178.553681
2673.392449,306.438199,-296.082377,8956.491898
2673.392778,459.657299,-74.020594,8956.491898
2673.393107,689.485948,-518.144159,9474.636058
2673.393436,1302.362347,-814.226536,9326.594869
2673.393765,1302.362347,-666.185348,9474.636058
2673.394094,1762.019645,-666.185348,9326.594869
2673.394423,2068.457845,-444.123565,9104.533087
2673.394752,3370.820191,-0.000000,8956.491898
2673.395081,3753.867940,-0.000000,8882.471304
2673.395410,4366.744339,-0.000000,8512.368333
2673.395739,3294.210641,370.102971,8438.347739
2673.396068,2987.772442,666.185348,8438.347739
2673.396397,2528.115143,-222.061783,8660.409521
2673.396726,3370.820191,-370.102971,9474.636058
2673.397055,1685.410096,-444.123565,9548.656652
2673.397384,1532.190996,-814.226536,10066.800811
2673.397713,1762.019645,-2220.617826,9844.739029
2673.398042,2298.286494,-888.247130,9474.636058
2673.398371,2221.676944,-666.185348,9992.780217
2673.398700,2987.772442,-1406.391290,9770.718434
2673.399029,3140.991542,222.061783,9474.636058
2673.399358,4826.401637,1110.308913,9474.636058
2673.399687,5132.839837,1110.308913,7402.059420
2673.400016,4673.182538,1554.432478,8882.471304
2673.400345,5362.668486,1110.308913,8660.409521
2673.400674,4443.353888,1332.370696,7105.977043
2673.401003,4443.353888,740.205942,9104.533087
2673.401332,3064.381992,-222.061783,8734.430116
2673.401661,2451.505594,222.061783,9474.636058
2673.401990,1149.143247,-1258.350101,9622.677246
2673.402319,1608.800546,-888.247130,9474.636058
2673.402648,1225.752797,-1332.370696,9992.780217
2673.402977,689.485948,-1184.329507,9474.636058
2673.403306,2068.457845,-444.123565,9770.718434
2673.403635,2528.115143,-296.082377,9474.636058
2673.403964,3447.429741,-0.000000,7402.059420
2673.404293,4213.525239,1110.308913,10066.800811
2673.404622,4519.963438,1184.329507,7920.203579
2673.404951,4749.792088,888.247130,7994.224174
2673.405280,4596.572988,888.247130,8438.347739
2673.405609,4366.744339,148.041188,8586.388927
2673.405938,4213.525239,-74.020594,8364.327145
2673.406267,3370.820191,-1480.411884,9770.718434
2673.406596,2374.896044,-1406.391290,9696.697840
2673.406925,2221.676944,-2294.638420,10140.821405
2673.407254,2068.457845,-1776.494261,9844.739029
2673.407583,2221.676944,-1776.494261,9844.739029
2673.407912,2451.505594,-370.102971,10214.842000
2673.408241,4519.963438,296.082377,8956.491898
2673.408570,4443.353888,740.205942,8364.327145
2673.408899,4136.915689,1850.514855,8290.306550
2673.409228,4749.792088,2442.679609,7772.162391
2673.409557,4290.134789,2664.741391,7328.038826
2673.409886,3677.258390,2368.659014,7994.224174
2673.410215,3447.429741,1480.411884,8364.327145
2673.410544,2528.115143,592.164754,8882.471304
2673.410873,2451.505594,-1184.329507,9178.553681
2673.411202,1762.019645,-2664.741391,9992.780217
2673.411531,1608.800546,-2960.823768,10658.965565
2673.411860,1838.629195,-3108.864956,10881.027347
2673.412189,2757.943793,-2442.679609,10732.986159
2673.412518,3753.867940,-1036.288319,10066.800811
2673.412847,5515.887586,666.185348,9548.656652
2673.413176,6128.763984,1110.308913,9104.533087
2673.413505,5822.325785,2294.638420,8438.347739
2673.413834,5286.058936,2812.782580,7624.121203
2673.414163,4596.572988,3552.988522,7031.956449
2673.414492,4060.306139,3256.906145,6735.874072
2673.414821,4060.306139,2664.741391,6513.812290
2673.415150,3294.210641,888.247130,7550.100608
2673.415479,919.314598,-2368.659014,10066.800811
2673.415808,-689.485948,-4663.297435,11029.068536
2673.416137,-1302.362347,-4441.235652,11473.192101
2673.416466,-919.314598,-5699.585753,11843.295072
2673.416795,-1072.533697,-1924.535449,10214.842000
2673.417124,689.485948,-1480.411884,11695.253884
2673.417453,1378.971896,-0.000000,9992.780217
2673.417782,4136.915689,1628.453072,10658.965565
2673.418111,7124.688131,1776.494261,7698.141797
2673.418440,7737.564530,1776.494261,8068.244768
2673.418769,5745.716235,740.205942,8142.265362
2673.419098,6205.373534,2886.803174,5847.626942
2673.419427,5669.106685,2368.659014,7328.038826
2673.419756,5439.278036,1332.370696,6587.832884
2673.420085,4903.011187,3775.050304,5921.647536
2673.420414,4596.572988,2294.638420,6809.894666
2673.420743,4366.744339,-0.000000,6809.894666
2673.421072,1762.019645,-3627.009116,9696.697840
2673.421401,-842.705048,-7920.203579,12435.459826
2673.421730,-1685.410096,-3182.885551,11399.171507
2673.422059,-1685.410096,-6809.894666,15100.201217
2673.422388,-1302.362347,-3034.844362,11547.212695
2673.422717,1302.362347,592.164754,12213.398043
2673.423046,3524.039291,-0.000000,11325.150913
2673.423375,4673.182538,2738.761985,8956.491898
2673.423704,7584.345430,1258.350101,9474.636058
2673.424033,7967.393179,2294.638420,8586.388927
2673.424362,8197.221829,4515.256246,5699.585753
2673.424691,8350.440928,3775.050304,4885.359217
2673.425020,7814.174080,888.247130,5033.400406
2673.425349,7124.688131,2738.761985,5255.462188
2673.425678,6588.421283,814.226536,7179.997637
2673.426007,3753.867940,2072.576638,5921.647536
2673.426336,3830.477490,1258.350101,6661.853478
2673.426665,1302.362347,-3404.947333,10510.924376
2673.426994,-1991.848295,-6809.894666,12435.459826
2673.427323,-2604.724693,-0.000000,11695.253884
2673.427652,-1302.362347,-6735.874072,13175.665768
2673.427981,-1455.581446,-2442.679609,10288.862594
2673.428310,995.924147,1184.329507,12953.603985
2673.428639,1991.848295,-370.102971,10066.800811
2673.428968,-995.924147,1776.494261,11843.295072
2673.429297,6741.640382,-2072.576638,11177.109724
2673.429626,8886.707777,2812.782580,4811.338623
2673.429955,7048.078582,1480.411884,8290.306550
2673.430284,5975.544884,296.082377,5625.565159
2673.430613,7354.516781,2294.638420,5403.503377
2673.430942,6741.640382,-0.000000,7994.224174
2673.431271,5669.106685,2368.659014,4663.297435
2673.431600,4596.572988,2886.803174,9770.718434
2673.431929,2681.334243,962.267725,7105.977043
2673.432258,3830.477490,962.267725,9104.533087
2673.432587,459.657299,-1406.391290,9548.656652
2673.432916,919.314598,-3775.050304,12509.480420
2673.433245,-459.657299,-1332.370696,11991.336260
2673.433574,0.000000,-5995.668130,13841.851115
2673.433903,-1838.629195,-74.020594,8808.450710
2673.434232,1762.019645,-518.144159,11103.089130
2673.434561,2298.286494,1554.432478,8956.491898
2673.434890,3064.381992,2294.638420,8142.265362
2673.435219,4366.744339,1110.308913,7624.121203
2673.435548,4749.792088,1554.432478,7846.182985
2673.435877,4213.525239,2072.576638,6587.832884
2673.436206,3294.210641,-740.205942,7624.121203
2673.436535,3140.991542,-1702.473667,8142.265362
2673.436864,2681.334243,-2590.720797,10066.800811
2673.437193,2068.457845,-2220.617826,10584.944971
2673.437522,1072.533697,-1110.308913,10140.821405
2673.437851,1838.629195,-444.123565,10362.883188
2673.438178,3370.820191,1258.350101,9474.636058
2673.438507,3677.258390,962.267725,9548.656652
2673.438836,3907.087040,888.247130,9548.656652
2673.439165,4903.011187,1480.411884,7624.121203
2673.439494,5975.544884,1776.494261,8438.347739
2673.439823,5898.935335,1332.370696,7994.224174
2673.440152,4903.011187,518.144159,7254.018232
2673.440481,3753.867940,-370.102971,8068.244768
2673.440810,3983.696590,-222.061783,8586.388927
2673.441139,2145.067394,-370.102971,9400.615463
2673.441468,383.047749,-1258.350101,10436.903782
2673.441797,-689.485948,-2072.576638,10732.986159
2673.442126,0.000000,-2072.576638,11325.150913
2673.442455,536.266849,-1702.473667,10066.800811
2673.442784,689.485948,-2220.617826,10436.903782
2673.443113,459.657299,-1332.370696,11547.212695
2673.443442,2757.943793,-0.000000,9770.718434
2673.443771,4826.401637,1702.473667,8512.368333
2673.444100,6128.763984,2220.617826,7698.141797
2673.444429,5286.058936,1998.556043,8142.265362
2673.444758,3907.087040,1332.370696,8216.285956
2673.445086,4366.744339,1628.453072,7105.977043
2673.445415,5439.278036,1554.432478,6439.791695
2673.445744,4290.134789,-0.000000,7994.224174
2673.446073,1455.581446,296.082377,7846.182985
2673.446402,76.609550,-1406.391290,9326.594869
2673.446731,-1302.362347,-1406.391290,9030.512492
2673.447060,-1762.019645,-2368.659014,10732.986159
2673.447389,-2451.505594,-1554.432478,11325.150913
2673.447718,-2834.553343,-518.144159,9474.636058
2673.448047,-2374.896044,-370.102971,9992.780217
2673.448376,-1302.362347,-888.247130,9696.697840
2673.448705,-919.314598,-1184.329507,10288.862594
2673.449034,-1302.362347,-592.164754,9992.780217
2673.449363,-612.876398,-0.000000,8956.491898
2673.449692,-536.266849,518.144159,7698.141797
2673.450021,229.828649,-2072.576638,10658.965565
2673.450350,1762.019645,-370.102971,7920.203579
2673.450679,2145.067394,1184.329507,6735.874072
2673.451008,3524.039291,-0.000000,5921.647536
2673.451337,2528.115143,1480.411884,6661.853478
2673.451666,2374.896044,1110.308913,9104.533087
2673.451995,1072.533697,444.123565,7105.977043
2673.452324,536.266849,-222.061783,8660.409521
2673.452653,-1915.238745,-1036.288319,9104.533087
2673.452982,-1378.971896,-814.226536,10510.924376
2673.453311,-1455.581446,-1406.391290,10658.965565
2673.453640,-1225.752797,-962.267725,9474.636058
2673.453969,-1149.143247,-1184.329507,9770.718434
2673.454298,-1685.410096,-2220.617826,11251.130318
2673.454627,-306.438199,-1406.391290,9992.780217
2673.454956,0.000000,-296.082377,9474.636058
2673.455285,0.000000,-370.102971,9918.759623
2673.455614,689.485948,962.267725,8882.471304
2673.455943,2834.553343,592.164754,7846.182985
2673.456272,3064.381992,1184.329507,7105.977043
2673.456601,2757.943793,1258.350101,6365.771101
2673.456930,1915.238745,148.041188,8068.244768
2673.457259,1378.971896,296.082377,8808.450710
2673.457588,995.924147,962.267725,8142.265362
2673.457917,-612.876398,-444.123565,9326.594869
2673.458246,-3370.820191,-814.226536,10140.821405
2673.458574,-1225.752797,-666.185348,11251.130318
2673.458903,-459.657299,-518.144159,8438.347739
2673.459232,-1378.971896,-148.041188,9992.780217
2673.459561,-689.485948,-2886.803174,11695.253884
2673.459890,-1302.362347,592.164754,9104.533087
2673.460219,-459.657299,-1036.288319,9918.759623
2673.460548,-612.876398,-444.123565,8438.347739
2673.460877,153.219100,-0.000000,10510.924376
2673.461206,1455.581446,1110.308913,8956.491898
2673.461535,1685.410096,1184.329507,7920.203579
2673.461864,2451.505594,-148.041188,8956.491898
2673.462193,2068.457845,222.061783,8586.388927
2673.462522,2145.067394,1628.453072,8438.347739
2673.462851,1149.143247,296.082377,8586.388927
2673.463180,229.828649,222.061783,8512.368333
2673.463509,153.219100,-222.061783,10066.800811
2673.463838,0.000000,-222.061783,9326.594869
2673.464167,-842.705048,-962.267725,9622.677246
2673.464496,-306.438199,-1850.514855,9548.656652
2673.464825,-459.657299,-1850.514855,10584.944971
2673.465154,0.000000,-1110.308913,9474.636058
2673.465483,612.876398,-888.247130,9474.636058
2673.465812,1225.752797,-296.082377,9474.636058
2673.466141,995.924147,222.061783,9548.656652
2673.466470,1915.238745,666.185348,8882.471304
2673.466799,2145.067394,740.205942,7476.080014
2673.467128,2145.067394,592.164754,8068.244768
2673.467457,1455.581446,-592.164754,8808.450710
2673.467786,612.876398,-666.185348,8956.491898
2673.468115,459.657299,-1406.391290,9178.553681
2673.468444,459.657299,-0.000000,8660.409521
2673.468773,-1149.143247,-370.102971,9696.697840
2673.469102,-1378.971896,-962.267725,9474.636058
2673.469431,-306.438199,666.185348,8956.491898
2673.469760,383.047749,-666.185348,9178.553681
2673.470089,-459.657299,-814.226536,9030.512492
2673.470418,536.266849,-1258.350101,10140.821405
2673.470747,459.657299,-0.000000,8512.368333
2673.471076,2528.115143,148.041188,8216.285956
2673.471405,919.314598,518.144159,7920.203579
2673.471734,1149.143247,740.205942,8364.327145
2673.472063,1455.581446,370.102971,8660.409521
2673.472391,1149.143247,148.041188,7550.100608
2673.472720,153.219100,-1184.329507,9400.615463
2673.473049,-1072.533697,-1480.411884,9474.636058
2673.473378,-1225.752797,-1258.350101,9918.759623
2673.473707,-995.924147,-962.267725,9548.656652
2673.474036,-1608.800546,-888.247130,9474.636058
2673.474365,-995.924147,370.102971,10214.842000
2673.474694,-536.266849,592.164754,9030.512492
2673.475023,-153.219100,-0.000000,8956.491898
2673.475352,-229.828649,-518.144159,8956.491898
2673.475681,-383.047749,-666.185348,9918.759623
2673.476010,0.000000,-370.102971,9474.636058
2673.476339,842.705048,222.061783,8512.368333
2673.476668,689.485948,370.102971,8956.491898
2673.476997,1225.752797,1184.329507,7994.224174
2673.477326,1915.238745,1036.288319,8512.368333
2673.477655,1608.800546,-0.000000,8068.244768
2673.477984,1302.362347,-148.041188,8808.450710
2673.478313,76.609550,-740.205942,9770.718434
2673.478642,-383.047749,-370.102971,9400.615463
2673.478971,0.000000,-296.082377,9400.615463
2673.479300,-1225.752797,-814.226536,10140.821405
2673.479629,-1149.143247,-888.247130,10510.924376
2673.479958,306.438199,-0.000000,9918.759623
2673.480287,0.000000,-0.000000,8216.285956
2673.480616,0.000000,-444.123565,9252.574275
2673.480945,0.000000,-666.185348,10066.800811
2673.481274,689.485948,-222.061783,9326.594869
2673.481603,1762.019645,222.061783,8290.306550
2673.481932,1991.848295,592.164754,8660.409521
2673.482261,1532.190996,814.226536,8808.450710
2673.482590,2221.676944,888.247130,9104.533087
2673.482919,1762.019645,1110.308913,7846.182985
2673.483248,1762.019645,-0.000000,8512.368333
2673.483577,459.657299,-296.082377,10066.800811
2673.483906,459.657299,-0.000000,9474.636058
2673.484235,76.609550,-74.020594,8808.450710
2673.484564,-459.657299,-1184.329507,9696.697840
2673.484893,-766.095498,-888.247130,10362.883188
2673.485222,-1072.533697,-0.000000,9548.656652
2673.485551,0.000000,-518.144159,8512.368333
2673.485880,0.000000,-444.123565,8586.388927
2673.486208,0.000000,-1184.329507,9474.636058
2673.486537,1378.971896,370.102971,8882.471304
2673.486866,1455.581446,-888.247130,8660.409521
2673.487195,689.485948,296.082377,7846.182985
2673.487524,919.314598,666.185348,8808.450710
2673.487853,1149.143247,814.226536,8734.430116
2673.488182,1302.362347,-0.000000,7624.121203
2673.488511,1302.362347,-222.061783,8586.388927
2673.488840,0.000000,-666.185348,9548.656652
2673.489169,0.000000,-444.123565,9400.615463
2673.489498,-766.095498,-370.102971,8956.491898
2673.489827,-995.924147,-1554.432478,8882.471304
2673.490156,-1455.581446,-444.123565,9474.636058
2673.490485,-1149.143247,-814.226536,9104.533087
2673.490814,-383.047749,-518.144159,8364.327145
2673.491143,-306.438199,-592.164754,8586.388927
2673.491472,-383.047749,-1036.288319,9474.636058
2673.491801,-536.266849,-1628.453072,9474.636058
2673.492130,-459.657299,222.061783,8586.388927
2673.492459,306.438199,-592.164754,9400.615463
2673.492788,383.047749,-296.082377,9104.533087
2673.493117,612.876398,740.205942,8512.368333
2673.493446,2221.676944,-370.102971,8808.450710
2673.493775,2298.286494,-222.061783,8290.306550
2673.494104,1608.800546,222.061783,8216.285956
2673.494433,1608.800546,740.205942,9252.574275
2673.494762,1455.581446,-74.020594,8808.450710
2673.495091,842.705048,-0.000000,8734.430116
2673.495420,306.438199,222.061783,9474.636058
2673.495749,-153.219100,-296.082377,9696.697840
2673.496078,0.000000,-518.144159,9622.677246
2673.496407,76.609550,-888.247130,9992.780217
2673.496736,-383.047749,-1554.432478,10066.800811
2673.497065,-383.047749,-1110.308913,10807.006753
2673.497394,689.485948,-740.205942,10510.924376
2673.497723,842.705048,592.164754,7624.121203
2673.498052,1762.019645,962.267725,10510.924376
2673.498381,1225.752797,370.102971,8882.471304
2673.498710,2911.162892,1406.391290,8512.368333
2673.499039,2298.286494,962.267725,9030.512492
2673.499368,1455.581446,740.205942,8364.327145
2673.499696,536.266849,-74.020594,9696.697840
2673.500025,306.438199,-0.000000,8956.491898
2673.500354,306.438199,-518.144159,9474.636058
2673.500683,-1685.410096,-1184.329507,10362.883188
2673.501012,-1762.019645,-1406.391290,10362.883188
2673.501341,-842.705048,-222.061783,9252.574275
2673.501670,-153.219100,-444.123565,8290.306550
2673.501999,-919.314598,-518.144159,9252.574275
2673.502328,-536.266849,-888.247130,9918.759623
2673.502657,-383.047749,-296.082377,9178.553681
2673.502986,766.095498,-148.041188,8142.265362
2673.503315,459.657299,-74.020594,9030.512492
2673.503644,919.314598,1036.288319,8660.409521
2673.503973,1838.629195,444.123565,7920.203579
2673.504302,1608.800546,814.226536,7031.956449
2673.504631,1762.019645,296.082377,7550.100608
2673.504960,1302.362347,666.185348,7994.224174
2673.505289,383.047749,-148.041188,8586.388927
2673.505618,229.828649,-1036.288319,8512.368333
2673.505947,-1608.800546,-1998.556043,9474.636058
2673.506276,-2068.457845,-1702.473667,11177.109724
2673.506605,-1685.410096,-888.247130,8882.471304
2673.506934,-612.876398,-1184.329507,8882.471304
2673.507263,-919.314598,-74.020594,9104.533087
2673.507592,-842.705048,-1036.288319,9992.780217
2673.507921,-766.095498,-1036.288319,9992.780217
2673.508250,306.438199,-740.205942,9474.636058
2673.508579,1225.752797,370.102971,8660.409521
2673.508908,1838.629195,740.205942,8586.388927
2673.509237,2374.896044,962.267725,7772.162391
2673.509566,3217.601092,962.267725,7698.141797
2673.509895,3447.429741,1110.308913,7550.100608
2673.510224,2298.286494,296.082377,7920.203579
2673.510553,1455.581446,-0.000000,8808.450710
2673.510882,842.705048,-0.000000,8438.347739
2673.511211,-689.485948,-1110.308913,9474.636058
2673.511540,-2068.457845,-1036.288319,11251.130318
2673.511869,-2374.896044,-1184.329507,10881.027347
2673.512198,-842.705048,-1554.432478,10214.842000
2673.512527,-1072.533697,-888.247130,9548.656652
2673.512856,-995.924147,-1184.329507,11177.109724
2673.513185,-1225.752797,-1258.350101,10288.862594
2673.513513,-536.266849,-0.000000,9474.636058
2673.513842,0.000000,222.061783,9918.759623
2673.514171,459.657299,814.226536,9474.636058
2673.514500,1378.971896,1554.432478,8438.347739
2673.514829,2911.162892,1110.308913,7698.141797
2673.515158,2451.505594,1776.494261,7476.080014
2673.515487,2528.115143,962.267725,8586.388927
2673.515816,1532.190996,962.267725,8808.450710
2673.516145,1225.752797,962.267725,8216.285956
2673.516474,-306.438199,-222.061783,9326.594869
2673.516803,-1149.143247,-666.185348,9548.656652
2673.517132,-1532.190996,-1258.350101,10658.965565
2673.517461,-1225.752797,-1332.370696,10807.006753
2673.517790,-1378.971896,-592.164754,9104.533087
2673.518119,-1378.971896,-2590.720797,9844.739029
2673.518448,-1455.581446,-814.226536,9992.780217
2673.518777,0.000000,-518.144159,9918.759623
2673.519106,0.000000,-1184.329507,9548.656652
2673.519435,536.266849,-0.000000,9326.594869
2673.519764,2221.676944,962.267725,8142.265362
2673.520093,3600.648841,1628.453072,7402.059420
2673.520422,3370.820191,666.185348,7105.977043
2673.520751,3524.039291,1628.453072,7328.038826
2673.521080,3064.381992,1184.329507,7550.100608
2673.521409,2681.334243,592.164754,7920.203579
2673.521738,919.314598,-1036.288319,7920.203579
2673.522067,-689.485948,-1480.411884,9622.677246
2673.522396,-1991.848295,-1776.494261,10510.924376
2673.522725,-1991.848295,-1998.556043,10066.800811
2673.523054,-689.485948,-1924.535449,8882.471304
2673.523383,-995.924147,-1924.535449,9992.780217
2673.523712,-1072.533697,-1480.411884,9844.739029
2673.524041,-1991.848295,-888.247130,9844.739029
2673.524370,0.000000,-592.164754,9622.677246
2673.524699,612.876398,814.226536,9030.512492
2673.525028,1532.190996,1554.432478,8290.306550
2673.525357,1991.848295,2072.576638,7328.038826
2673.525686,2451.505594,1628.453072,7031.956449
2673.526015,3064.381992,296.082377,7550.100608
2673.526344,2145.067394,1702.473667,7624.121203
2673.526673,1225.752797,-666.185348,9252.574275
2673.527002,0.000000,-444.123565,7994.224174
2673.527330,-1225.752797,-666.185348,9548.656652
2673.527659,-2528.115143,-1480.411884,10214.842000
2673.527988,-2145.067394,-1036.288319,10288.862594
2673.528317,-919.314598,-1036.288319,8586.388927
2673.528646,-919.314598,-444.123565,9178.553681
2673.528975,-1149.143247,-1332.370696,11029.068536
2673.529304,-1608.800546,-740.205942,9992.780217
2673.529633,-766.095498,-74.020594,9474.636058
2673.529962,-766.095498,296.082377,9992.780217
2673.530291,-842.705048,-0.000000,9992.780217
2673.530620,919.314598,370.102971,9474.636058
2673.530949,1685.410096,518.144159,8512.368333
2673.531278,1378.971896,-0.000000,8438.347739
2673.531607,1915.238745,-74.020594,8734.430116
2673.531936,1838.629195,1184.329507,8586.388927
2673.532265,919.314598,1036.288319,8438.347739
2673.532594,-306.438199,296.082377,8956.491898
2673.532923,-1149.143247,-518.144159,10288.862594
2673.533252,-1532.190996,-1036.288319,9548.656652
2673.533581,-612.876398,-1036.288319,9474.636058
2673.533910,-1455.581446,-1924.535449,9548.656652
2673.534239,-1302.362347,-1702.473667,10732.986159
2673.534568,-306.438199,-1258.350101,10436.903782
2673.534897,229.828649,-370.102971,9474.636058
2673.535226,919.314598,-518.144159,9252.574275
2673.535555,2068.457845,518.144159,8956.491898
2673.535884,2834.553343,1702.473667,7476.080014
2673.536213,3830.477490,1480.411884,8290.306550
2673.536542,3447.429741,1258.350101,7105.977043
2673.536871,3370.820191,1258.350101,7624.121203
2673.537200,3370.820191,740.205942,7402.059420
2673.537529,2681.334243,-0.000000,7031.956449
2673.537858,842.705048,-1258.350101,8882.471304
2673.538187,229.828649,-1776.494261,9548.656652
2673.538516,-1225.752797,-814.226536,10066.800811
2673.538845,-1302.362347,-1776.494261,10140.821405
2673.539174,-1302.362347,-1554.432478,9030.512492
2673.539503,-1378.971896,-1776.494261,9992.780217
2673.539832,-1608.800546,-814.226536,9696.697840
2673.540161,536.266849,-222.061783,9326.594869
2673.540490,766.095498,-592.164754,8882.471304
2673.540819,1762.019645,962.267725,8068.244768
2673.541148,2757.943793,1110.308913,8364.327145
2673.541478,2834.553343,1184.329507,7105.977043
2673.541807,2757.943793,1850.514855,6513.812290
2673.542136,1685.410096,1036.288319,8660.409521
2673.542465,1225.752797,148.041188,8364.327145
2673.542794,612.876398,-0.000000,8068.244768
2673.543124,-1072.533697,-1184.329507,8808.450710
2673.543453,-2757.943793,-1702.473667,10436.903782
2673.543782,-2757.943793,-1998.556043,11251.130318
2673.544111,-1378.971896,-962.267725,9252.574275
2673.544440,-1302.362347,-1184.329507,9178.553681
2673.544770,-2068.457845,-1554.432478,10732.986159
2673.545099,-1455.581446,-1480.411884,10584.944971
2673.545428,-1072.533697,-370.102971,9992.780217
2673.545757,-383.047749,-370.102971,8956.491898
2673.546086,-919.314598,-814.226536,9104.533087
2673.546416,-229.828649,-740.205942,10362.883188
2673.546745,1991.848295,-0.000000,8216.285956
2673.547074,2681.334243,1110.308913,6883.915261
2673.547403,2374.896044,-0.000000,7994.224174
2673.547732,2528.115143,1258.350101,7105.977043
2673.548062,2834.553343,1850.514855,8216.285956
2673.548391,1225.752797,1406.391290,7254.018232
2673.548720,153.219100,518.144159,8882.471304
2673.549049,-536.266849,-0.000000,10807.006753
2673.549378,-842.705048,-370.102971,9548.656652
2673.549708,-995.924147,-1998.556043,10066.800811
2673.550037,-1608.800546,-2368.659014,9918.759623
2673.550366,-1149.143247,-2146.597232,10436.903782
2673.550695,-612.876398,-1184.329507,10362.883188
2673.551024,-153.219100,-0.000000,9178.553681
2673.551353,-383.047749,-518.144159,10066.800811
2673.551683,0.000000,-0.000000,9992.780217
2673.552012,2451.505594,1850.514855,7772.162391
2673.552341,3294.210641,1110.308913,7920.203579
2673.552670,3140.991542,1628.453072,7328.038826
2673.552999,3447.429741,1998.556043,8068.244768
2673.553329,2757.943793,1554.432478,8142.265362
2673.553658,1991.848295,592.164754,7846.182985
2673.553987,0.000000,-740.205942,9918.759623
2673.554316,-612.876398,-370.102971,10436.903782
2673.554645,-1685.410096,-814.226536,10436.903782
2673.554975,-1532.190996,-1036.288319,9104.533087
2673.555304,-1685.410096,-1110.308913,9178.553681
2673.555633,-1838.629195,-1628.453072,11399.171507
2673.555962,-1149.143247,-1332.370696,10436.903782
2673.556291,0.000000,-444.123565,9030.512492
2673.556621,-1149.143247,-296.082377,9104.533087
2673.556950,-612.876398,518.144159,9548.656652
2673.557279,0.000000,148.041188,9844.739029
2673.557608,1532.190996,370.102971,8068.244768
2673.557937,1685.410096,1036.288319,7698.141797
2673.558267,1838.629195,888.247130,8438.347739
2673.558596,1302.362347,740.205942,8216.285956
2673.558925,1991.848295,222.061783,7402.059420
2673.559254,612.876398,-0.000000,8142.265362
2673.559583,-536.266849,-296.082377,9326.594869
2673.559913,-842.705048,-592.164754,8882.471304
2673.560242,-842.705048,-592.164754,8216.285956
2673.560571,-1072.533697,-1628.453072,9474.636058
2673.560900,-1685.410096,-2294.638420,9992.780217
2673.561229,-766.095498,-2220.617826,9844.739029
2673.561559,-459.657299,-962.267725,9178.553681
2673.561888,-612.876398,-518.144159,9030.512492
2673.562217,-689.485948,-592.164754,9918.759623
2673.562546,612.876398,222.061783,10140.821405
2673.562875,1991.848295,222.061783,7624.121203
2673.563205,1608.800546,296.082377,8216.285956
2673.563534,2757.943793,222.061783,9030.512492
2673.563863,2681.334243,962.267725,7846.182985
2673.564192,2528.115143,1332.370696,7476.080014
2673.564521,1532.190996,592.164754,7920.203579
2673.564851,383.047749,370.102971,9548.656652
2673.565180,-689.485948,1110.308913,8586.388927
2673.565509,-306.438199,-2294.638420,10436.903782
2673.565838,-1149.143247,-2368.659014,10732.986159
2673.566167,-2221.676944,-1258.350101,10436.903782
2673.566497,-689.485948,-3108.864956,10362.883188
2673.566826,-689.485948,-592.164754,9474.636058
2673.567155,-153.219100,-222.061783,10214.842000
2673.567484,-459.657299,-1184.329507,10510.924376
2673.567813,689.485948,592.164754,9844.739029
2673.568143,1455.581446,1184.329507,7994.224174
2673.568472,2298.286494,1332.370696,7105.977043
2673.568801,1685.410096,592.164754,8512.368333
2673.569130,1685.410096,1480.411884,8290.306550
2673.569459,1685.410096,888.247130,8142.265362
2673.569789,766.095498,-444.123565,7846.182985
2673.570118,-1149.143247,-888.247130,8956.491898
2673.570447,-1532.190996,-296.082377,9252.574275
2673.570776,-1302.362347,-1480.411884,9696.697840
2673.571105,-1838.629195,-518.144159,7994.224174
2673.571435,-1378.971896,-1628.453072,9770.718434
2673.571764,-2221.676944,-1332.370696,10362.883188
2673.572093,-995.924147,-444.123565,10288.862594
2673.572422,153.219100,-148.041188,8660.409521
2673.572751,-995.924147,-0.000000,8586.388927
2673.573081,76.609550,-74.020594,10140.821405
2673.573410,766.095498,-148.041188,8216.285956
2673.573739,1302.362347,518.144159,8290.306550
2673.574068,2604.724693,-148.041188,8512.368333
2673.574397,3140.991542,518.144159,6735.874072
2673.574727,3217.601092,962.267725,7031.956449
2673.575056,2068.457845,962.267725,7550.100608
2673.575385,1608.800546,148.041188,8586.388927
2673.575714,76.609550,-666.185348,9474.636058
2673.576043,229.828649,296.082377,8734.430116
2673.576373,-689.485948,-1406.391290,9326.594869
2673.576702,-842.705048,-2516.700203,10066.800811
2673.577031,-1225.752797,-2294.638420,10955.047942
2673.577360,-306.438199,-962.267725,10288.862594
2673.577689,306.438199,-740.205942,9474.636058
2673.578019,536.266849,-0.000000,9400.615463
2673.578348,1225.752797,888.247130,9474.636058
2673.578677,1915.238745,1258.350101,8364.327145
2673.579006,2604.724693,444.123565,7772.162391
2673.579335,2451.505594,148.041188,8586.388927
2673.579665,1991.848295,962.267725,8734.430116
2673.579994,2221.676944,666.185348,7698.141797
2673.580323,1378.971896,518.144159,8142.265362
2673.580652,383.047749,518.144159,8956.491898
2673.580981,-306.438199,-0.000000,9770.718434
2673.581310,-995.924147,-666.185348,9548.656652
2673.581640,-919.314598,-444.123565,9696.697840
2673.581969,-1915.238745,-1332.370696,9696.697840
2673.582298,-1915.238745,-1480.411884,10510.924376
2673.582627,-1685.410096,-1110.308913,9918.759623
2673.582956,-612.876398,-0.000000,9548.656652
2673.583286,-842.705048,-0.000000,8882.471304
2673.583615,-153.219100,-0.000000,9622.677246
2673.583944,306.438199,-74.020594,9844.739029
2673.584273,995.924147,592.164754,8290.306550
2673.584602,995.924147,740.205942,8808.450710
2673.584932,536.266849,-0.000000,9104.533087
2673.585261,995.924147,370.102971,8586.388927
2673.585590,1225.752797,740.205942,8068.244768
2673.585919,536.266849,-296.082377,8660.409521
2673.586248,-459.657299,-148.041188,9770.718434
2673.586578,-842.705048,444.123565,9178.553681
2673.586907,-766.095498,-518.144159,9104.533087
2673.587236,-1225.752797,-1998.556043,9474.636058
2673.587565,-1685.410096,-1702.473667,9992.780217
2673.587894,-766.095498,-1258.350101,10510.924376
2673.588224,383.047749,-518.144159,8808.450710
2673.588553,0.000000,-1036.288319,8808.450710
2673.588882,1072.533697,-296.082377,9474.636058
2673.589211,2145.067394,592.164754,8882.471304
2673.589540,2834.553343,1110.308913,7550.100608
2673.589870,2528.115143,296.082377,7846.182985
2673.590199,2298.286494,370.102971,8734.430116
2673.590528,2145.067394,370.102971,8660.409521
2673.590857,1685.410096,370.102971,7846.182985
2673.591186,459.657299,-666.185348,9030.512492
2673.591516,0.000000,-518.144159,9622.677246
2673.591845,0.000000,370.102971,8882.471304
2673.592174,-229.828649,-518.144159,8512.368333
2673.592503,-536.266849,-1110.308913,8290.306550
2673.592832,-612.876398,-1554.432478,10436.903782
2673.593162,-1608.800546,-1776.494261,10288.862594
2673.593491,229.828649,-1258.350101,8512.368333
2673.593820,229.828649,-74.020594,8142.265362
2673.594149,383.047749,-148.041188,8512.368333
2673.594478,459.657299,1036.288319,8586.388927
2673.594808,1072.533697,1036.288319,8956.491898
2673.595137,1685.410096,296.082377,8290.306550
2673.595466,766.095498,592.164754,9400.615463
2673.595795,153.219100,1332.370696,9474.636058
2673.596124,153.219100,666.185348,9178.553681
2673.596454,-306.438199,222.061783,9474.636058
2673.596783,-1072.533697,518.144159,9474.636058
2673.597112,-919.314598,-0.000000,10140.821405
2673.597441,-536.266849,-444.123565,9474.636058
2673.597770,-842.705048,-148.041188,8734.430116
2673.598100,-1532.190996,-1628.453072,9918.759623
2673.598429,-995.924147,-1702.473667,10658.965565
2673.598758,0.000000,-814.226536,9326.594869
2673.599087,0.000000,-148.041188,8808.450710
2673.599416,-229.828649,-0.000000,9622.677246
2673.599746,229.828649,-0.000000,9400.615463
2673.600075,1302.362347,592.164754,9252.574275
2673.600404,1532.190996,-296.082377,8882.471304
2673.600733,153.219100,-296.082377,9400.615463
2673.601062,919.314598,-370.102971,9696.697840
2673.601392,995.924147,-0.000000,8734.430116
2673.601721,459.657299,-74.020594,8290.306550
2673.602050,0.000000,-666.185348,9474.636058
2673.602379,0.000000,592.164754,10214.842000
2673.602708,612.876398,-592.164754,8068.244768
2673.603038,536.266849,-296.082377,7624.121203
2673.603367,459.657299,-1702.473667,10214.842000
2673.603696,766.095498,-1776.494261,8734.430116
2673.604025,1685.410096,296.082377,8512.368333
2673.604354,1685.410096,-518.144159,7772.162391
2673.604684,2911.162892,1258.350101,8882.471304
2673.605013,1455.581446,-222.061783,9918.759623
2673.605342,1762.019645,2072.576638,7550.100608
2673.605671,1762.019645,-370.102971,8290.306550
2673.606000,536.266849,-740.205942,9400.615463
2673.606330,0.000000,-148.041188,8956.491898
2673.606659,612.876398,-592.164754,9400.615463
2673.606988,-689.485948,-740.205942,7624.121203
2673.607317,-306.438199,-814.226536,10066.800811
2673.607646,-919.314598,-222.061783,9918.759623
2673.607976,-306.438199,-0.000000,8586.388927
2673.608305,-306.438199,-592.164754,8438.347739
2673.608634,-536.266849,-296.082377,9400.615463
2673.608963,-536.266849,-666.185348,10362.883188
2673.609292,-153.219100,-148.041188,8734.430116
2673.609622,0.000000,1036.288319,9104.533087
2673.609951,1149.143247,-0.000000,9400.615463
2673.610280,306.438199,962.267725,8660.409521
2673.610609,0.000000,592.164754,9770.718434
2673.610938,1149.143247,-666.185348,8808.450710
2673.611268,612.876398,-0.000000,9104.533087
2673.611597,0.000000,-666.185348,10510.924376
2673.611926,229.828649,-444.123565,9622.677246
2673.612255,0.000000,-814.226536,9178.553681
2673.612584,-459.657299,740.205942,8586.388927
2673.612913,0.000000,-222.061783,9844.739029
2673.613243,-689.485948,518.144159,9178.553681
2673.613572,459.657299,-74.020594,8808.450710
2673.613901,536.266849,-888.247130,9178.553681
2673.614230,76.609550,-1036.288319,9548.656652
2673.614559,536.266849,-666.185348,9474.636058
2673.614889,766.095498,-0.000000,8660.409521
2673.615218,766.095498,-74.020594,8512.368333
2673.615547,612.876398,222.061783,8660.409521
2673.615876,1455.581446,814.226536,8956.491898
2673.616205,1225.752797,222.061783,9178.553681
2673.616535,1149.143247,-296.082377,8586.388927
2673.616864,229.828649,-592.164754,9326.594869
2673.617193,689.485948,-592.164754,9622.677246
2673.617522,919.314598,-0.000000,8808.450710
2673.617851,153.219100,-296.082377,8808.450710
2673.618181,0.000000,-148.041188,9918.759623
2673.618510,536.266849,296.082377,9252.574275
2673.618839,536.266849,740.205942,8438.347739
2673.619168,153.219100,-740.205942,8956.491898
2673.619497,0.000000,-666.185348,9326.594869
2673.619827,229.828649,-518.144159,9770.718434
2673.620156,1072.533697,-814.226536,9104.533087
2673.620485,995.924147,518.144159,8734.430116
2673.620814,459.657299,-222.061783,9622.677246
2673.621143,689.485948,518.144159,9104.533087
2673.621473,1455.581446,592.164754,8882.471304
2673.621802,842.705048,222.061783,8660.409521
2673.622131,0.000000,-0.000000,8808.450710
2673.622460,-229.828649,-74.020594,10362.883188
2673.622789,-306.438199,-444.123565,9104.533087
2673.623119,-1072.533697,-1036.288319,9326.594869
2673.623448,-1915.238745,-444.123565,10288.862594
2673.623777,-1302.362347,222.061783,10436.903782
2673.624106,-995.924147,-222.061783,9030.512492
2673.624435,-919.314598,-962.267725,8586.388927
2673.624765,-536.266849,-740.205942,9548.656652
2673.625094,-612.876398,-1702.473667,9474.636058
2673.625423,153.219100,-296.082377,8734.430116
2673.625752,1149.143247,-148.041188,7550.100608
2673.626081,1072.533697,148.041188,8290.306550
2673.626411,995.924147,1110.308913,8734.430116
2673.626740,1838.629195,814.226536,7994.224174
2673.627069,1838.629195,-0.000000,8142.265362
2673.627398,1378.971896,-814.226536,8660.409521
2673.627727,766.095498,-296.082377,9474.636058
2673.628057,766.095498,-518.144159,9474.636058
2673.628386,76.609550,-518.144159,8586.388927
2673.628715,-229.828649,-592.164754,9474.636058
2673.629044,-459.657299,-666.185348,9548.656652
2673.629373,229.828649,-518.144159,9030.512492
2673.629703,536.266849,-1480.411884,9030.512492
2673.630032,536.266849,-1776.494261,9400.615463
2673.630361,995.924147,-1998.556043,10362.883188
2673.630690,1608.800546,-1036.288319,8882.471304
2673.631019,2757.943793,370.102971,7846.182985
2673.631349,2451.505594,148.041188,8734.430116
2673.631678,2528.115143,1702.473667,8586.388927
2673.632007,3140.991542,1184.329507,8216.285956
2673.632336,3217.601092,740.205942,7920.203579
2673.632665,2145.067394,222.061783,8142.265362
2673.632995,689.485948,-0.000000,9992.780217
2673.633324,76.609550,-0.000000,9696.697840
2673.633653,-536.266849,-148.041188,8956.491898
2673.633982,-1532.190996,-1850.514855,10214.842000
2673.634311,-1838.629195,-222.061783,10214.842000
2673.634641,-1378.971896,-814.226536,9770.718434
2673.634970,-1378.971896,-1036.288319,8956.491898
2673.635299,-1302.362347,-0.000000,9474.636058
2673.635628,-1072.533697,-1036.288319,10140.821405
2673.635957,0.000000,444.123565,9030.512492
2673.636287,1302.362347,814.226536,8290.306550
2673.636616,1685.410096,1480.411884,7994.224174
2673.636945,1455.581446,1036.288319,8438.347739
2673.637274,1762.019645,1850.514855,8068.244768
2673.637603,1991.848295,1628.453072,7179.997637
2673.637933,689.485948,444.123565,8068.244768
2673.638262,-689.485948,-740.205942,9918.759623
2673.638591,-842.705048,-370.102971,9178.553681
2673.638920,-1149.143247,-1036.288319,8882.471304
2673.639250,-1608.800546,-1850.514855,9474.636058
2673.639579,-1762.019645,-1258.350101,9770.718434
2673.639908,-1532.190996,-740.205942,10066.800811
2673.640237,-842.705048,-592.164754,8512.368333
2673.640567,-995.924147,-1332.370696,8882.471304
2673.640896,-1838.629195,-1702.473667,10362.883188
2673.641225,-1149.143247,-1184.329507,10436.903782
2673.641555,0.000000,-296.082377,10288.862594
2673.641884,536.266849,-0.000000,9252.574275
2673.642213,1608.800546,740.205942,8586.388927
2673.642543,2528.115143,2220.617826,7920.203579
2673.642872,3140.991542,1554.432478,7031.956449
2673.643201,3600.648841,-148.041188,8142.265362
2673.643530,2451.505594,888.247130,7698.141797
2673.643860,1302.362347,-0.000000,7772.162391
2673.644189,0.000000,-1480.411884,9474.636058
2673.644518,-766.095498,-1036.288319,10955.047942
2673.644848,-2221.676944,-2812.782580,11621.233289
2673.645177,-2068.457845,-1776.494261,11103.089130
2673.645506,-1149.143247,-2294.638420,9992.780217
2673.645836,-995.924147,-296.082377,9474.636058
2673.646165,-306.438199,-1258.350101,10140.821405
2673.646494,306.438199,-148.041188,9622.677246
2673.646823,1991.848295,444.123565,8808.450710
2673.647153,3140.991542,1702.473667,7920.203579
2673.647482,3294.210641,2146.597232,7994.224174
2673.647811,3370.820191,2220.617826,7994.224174
2673.648141,3677.258390,1702.473667,6513.812290
2673.648470,2528.115143,1036.288319,7105.977043
2673.648799,1378.971896,-74.020594,8290.306550
2673.649128,383.047749,-888.247130,9844.739029
2673.649458,-1302.362347,-1702.473667,9844.739029
2673.649787,-2068.457845,-1776.494261,9326.594869
2673.650116,-3294.210641,-2072.576638,10732.986159
2673.650446,-2757.943793,-1702.473667,11029.068536
2673.650775,-2221.676944,-370.102971,9622.677246
2673.651104,-1378.971896,-740.205942,8882.471304
2673.651434,-2068.457845,-1258.350101,9770.718434
2673.651763,-612.876398,-1258.350101,11695.253884
2673.652092,689.485948,-222.061783,9104.533087
2673.652421,1378.971896,-0.000000,7476.080014
2673.652751,1915.238745,962.267725,7698.141797
2673.653080,2451.505594,1924.535449,8068.244768
2673.653409,3064.381992,1258.350101,7772.162391
2673.653739,3677.258390,962.267725,7031.956449
2673.654068,2834.553343,-222.061783,8068.244768
2673.654397,1838.629195,370.102971,8660.409521
2673.654727,919.314598,-296.082377,8586.388927
2673.655056,-1072.533697,-1036.288319,9252.574275
2673.655385,-2298.286494,-1554.432478,10732.986159
2673.655714,-2451.505594,-1332.370696,11103.089130
2673.656044,-2068.457845,-1850.514855,10510.924376
2673.656373,-1455.581446,-2590.720797,9548.656652
2673.656702,-1991.848295,-1258.350101,10288.862594
2673.657032,-689.485948,-2294.638420,11695.253884
2673.657361,0.000000,-222.061783,9252.574275
2673.657690,1532.190996,1110.308913,8290.306550
2673.658020,2681.334243,1554.432478,8142.265362
2673.658349,3600.648841,2368.659014,7179.997637
2673.658678,4366.744339,1850.514855,7920.203579
2673.659007,4596.572988,1480.411884,6143.709319
2673.659337,3753.867940,1184.329507,7550.100608
2673.659666,1915.238745,1036.288319,8882.471304
2673.659995,459.657299,296.082377,8882.471304
2673.660325,-919.314598,-962.267725,9474.636058
2673.660654,-1762.019645,-1850.514855,9696.697840
2673.660983,-3064.381992,-1776.494261,11399.171507
2673.661313,-3140.991542,-1998.556043,11325.150913
2673.661642,-1915.238745,-1110.308913,8734.430116
2673.661971,-2068.457845,-1406.391290,9548.656652
2673.662300,-2374.896044,-1702.473667,10510.924376
2673.662630,-1455.581446,-74.020594,9696.697840
2673.662959,0.000000,-148.041188,10066.800811
2673.663288,306.438199,888.247130,7846.182985
2673.663618,1762.019645,962.267725,8808.450710
2673.663947,2145.067394,1554.432478,7550.100608
2673.664276,3677.258390,1480.411884,6809.894666
2673.664606,2681.334243,1332.370696,7624.121203
2673.664935,1532.190996,740.205942,8438.347739
2673.665264,1685.410096,518.144159,9400.615463
2673.665593,-229.828649,-592.164754,9030.512492
2673.665923,-1991.848295,-814.226536,9622.677246
2673.666252,-3217.601092,-2812.782580,11695.253884
2673.666581,-2987.772442,-1258.350101,11103.089130
2673.666911,-2221.676944,-1036.288319,9474.636058
2673.667240,-2221.676944,-2146.597232,9918.759623
2673.667569,-2528.115143,-1702.473667,10066.800811
2673.667899,-1072.533697,-1332.370696,10510.924376
2673.668228,459.657299,-666.185348,9326.594869
2673.668557,1532.190996,-148.041188,8364.327145
2673.668886,2451.505594,1258.350101,8290.306550
2673.669216,4136.915689,1924.535449,7105.977043
2673.669545,4749.792088,2146.597232,6069.688724
2673.669874,4979.620737,1036.288319,6957.935855
2673.670204,4519.963438,1406.391290,7328.038826
2673.670533,3677.258390,888.247130,7624.121203
2673.670862,1915.238745,1258.350101,6809.894666
2673.671192,-229.828649,-814.226536,8734.430116
2673.671521,-1991.848295,-2368.659014,11177.109724
2673.671850,-2681.334243,-1850.514855,10140.821405
2673.672179,-1455.581446,-2442.679609,10436.903782
2673.672509,-1532.190996,-2738.761985,9178.553681
2673.672838,-919.314598,-1776.494261,9400.615463
2673.673167,-2298.286494,-1332.370696,11177.109724
2673.673497,0.000000,-1184.329507,10140.821405
2673.673826,1378.971896,-222.061783,8364.327145
2673.674155,2451.505594,962.267725,8882.471304
2673.674485,3677.258390,1258.350101,7846.182985
2673.674814,4213.525239,1702.473667,7550.100608
2673.675143,4443.353888,2220.617826,6587.832884
2673.675472,2987.772442,1924.535449,7550.100608
2673.675802,3217.601092,1036.288319,8142.265362
2673.676131,1225.752797,1406.391290,8216.285956
2673.676460,-1302.362347,-74.020594,9770.718434
2673.676790,-3370.820191,-2812.782580,11547.212695
2673.677119,-3217.601092,-1628.453072,11843.295072
2673.677448,-3294.210641,-1406.391290,10807.006753
2673.677778,-3140.991542,-1554.432478,10510.924376
2673.678107,-3217.601092,-2072.576638,10584.944971
2673.678436,-2145.067394,-1110.308913,10955.047942
2673.678765,-1072.533697,-148.041188,9696.697840
2673.679095,-306.438199,-0.000000,9326.594869
2673.679424,1149.143247,-74.020594,10288.862594
2673.679753,2298.286494,1406.391290,8734.430116
2673.680083,3370.820191,1258.350101,7698.141797
2673.680412,3907.087040,1110.308913,6143.709319
2673.680741,4136.915689,2072.576638,7105.977043
2673.681071,3447.429741,2220.617826,7476.080014
2673.681400,3140.991542,1998.556043,7254.018232
2673.681729,1762.019645,518.144159,7994.224174
2673.682058,-1225.752797,-592.164754,9696.697840
2673.682388,-3217.601092,-1998.556043,10658.965565
2673.682717,-2834.553343,-2294.638420,11473.192101
2673.683046,-2145.067394,-2368.659014,9030.512492
2673.683376,-2374.896044,-2738.761985,10362.883188
2673.683705,-1608.800546,-2072.576638,10362.883188
2673.684034,-1302.362347,-1406.391290,10066.800811
2673.684364,-766.095498,-1924.535449,9474.636058
2673.684693,1072.533697,-0.000000,9030.512492
2673.685022,2451.505594,1110.308913,7994.224174
2673.685351,3677.258390,962.267725,8068.244768
2673.685681,4290.134789,1406.391290,5847.626942
2673.686010,4826.401637,740.205942,7402.059420
2673.686339,3983.696590,1258.350101,7920.203579
2673.686669,4290.134789,1998.556043,6661.853478
2673.686998,2374.896044,1332.370696,7254.018232
2673.687327,-306.438199,666.185348,8142.265362
2673.687656,-2068.457845,-1480.411884,10955.047942
2673.687986,-3370.820191,-2294.638420,10807.006753
2673.688315,-1991.848295,-2072.576638,10288.862594
2673.688644,-2298.286494,-2590.720797,9548.656652
2673.688974,-3064.381992,-1998.556043,10658.965565
2673.689303,-2451.505594,-1554.432478,10658.965565
2673.689632,-1378.971896,-888.247130,9844.739029
2673.689962,-1378.971896,518.144159,9474.636058
2673.690291,-612.876398,148.041188,10362.883188
2673.690620,842.705048,-0.000000,9992.780217
2673.690949,2374.896044,1924.535449,7402.059420
2673.691279,3753.867940,518.144159,7994.224174
2673.691608,2834.553343,1480.411884,7624.121203
2673.691937,3217.601092,2146.597232,7920.203579
2673.692267,2911.162892,1702.473667,7920.203579
2673.692596,1378.971896,1554.432478,7994.224174
2673.692925,0.000000,-0.000000,9844.739029
2673.693255,-1838.629195,-814.226536,10362.883188
2673.693584,-1915.238745,-1776.494261,10140.821405
2673.693913,-1991.848295,-3182.885551,10362.883188
2673.694242,-1762.019645,-2442.679609,10066.800811
2673.694572,-2068.457845,-2220.617826,10288.862594
2673.694901,-1072.533697,-1406.391290,9918.759623
2673.695230,-612.876398,-740.205942,8956.491898
2673.695560,76.609550,-296.082377,10658.965565
2673.695889,2221.676944,370.102971,8660.409521
2673.696218,3524.039291,1628.453072,7254.018232
2673.696548,4136.915689,1258.350101,7254.018232
2673.696877,4290.134789,1258.350101,7772.162391
2673.697206,3983.696590,1628.453072,8142.265362
2673.697535,3677.258390,1924.535449,7624.121203
2673.697865,2374.896044,1036.288319,7994.224174
2673.698194,766.095498,-0.000000,9992.780217
2673.698523,-1072.533697,-74.020594,9918.759623
2673.698853,-2374.896044,-1480.411884,10214.842000
2673.699182,-1991.848295,-2516.700203,10807.006753
2673.699511,-2604.724693,-2516.700203,10584.944971
2673.699841,-2145.067394,-2368.659014,11399.171507
2673.700170,-1149.143247,-1036.288319,9548.656652
2673.700499,-766.095498,-666.185348,8956.491898
2673.700828,76.609550,-370.102971,9992.780217
2673.701158,1991.848295,1036.288319,8438.347739
2673.701487,2298.286494,1850.514855,6661.853478
2673.701816,3064.381992,1184.329507,7105.977043
2673.702146,2757.943793,1184.329507,8290.306550
2673.702475,1915.238745,1036.288319,8068.244768
2673.702804,1762.019645,1184.329507,7846.182985
2673.703134,995.924147,-296.082377,7328.038826
2673.703463,-995.924147,-0.000000,8882.471304
2673.703792,-842.705048,-518.144159,10362.883188
2673.704121,-2145.067394,-1850.514855,8364.327145
2673.704451,-1685.410096,-888.247130,8808.450710
2673.704780,-2145.067394,-2368.659014,9548.656652
2673.705109,-1991.848295,-1480.411884,10066.800811
2673.705439,-1685.410096,-1628.453072,9992.780217
2673.705768,-1455.581446,-962.267725,9178.553681
2673.706097,-2221.676944,-518.144159,9696.697840
2673.706427,-459.657299,-0.000000,9622.677246
2673.706756,919.314598,-1036.288319,9844.739029
2673.707085,1838.629195,-0.000000,7846.182985
2673.707414,2451.505594,296.082377,7846.182985
2673.707744,2374.896044,370.102971,7772.162391
2673.708073,3677.258390,888.247130,7476.080014
2673.708402,2221.676944,740.205942,7846.182985
2673.708732,1072.533697,1480.411884,8068.244768
2673.709061,306.438199,296.082377,9252.574275
2673.709390,-536.266849,-148.041188,9918.759623
2673.709720,-1225.752797,-0.000000,9178.553681
2673.710049,-1915.238745,-1924.535449,10955.047942
2673.710378,-2451.505594,-3182.885551,11473.192101
2673.710707,-1302.362347,-962.267725,10732.986159
2673.711037,-153.219100,-1258.350101,9992.780217
2673.711366,-383.047749,-592.164754,8956.491898
2673.711695,459.657299,-74.020594,10066.800811
2673.712025,1762.019645,592.164754,9474.636058
2673.712354,3983.696590,1184.329507,8216.285956
2673.712683,3524.039291,962.267725,8068.244768
2673.713013,3294.210641,1480.411884,8660.409521
2673.713342,2987.772442,2146.597232,7846.182985
2673.713671,2451.505594,1702.473667,7179.997637
2673.714000,1378.971896,814.226536,8512.368333
2673.714330,0.000000,518.144159,9918.759623
2673.714659,-612.876398,-370.102971,9918.759623
2673.714988,-1072.533697,-518.144159,8512.368333
2673.715318,-1915.238745,-1924.535449,10510.924376
2673.715647,-2528.115143,-2294.638420,10658.965565
2673.715976,-2221.676944,-1258.350101,10584.944971
2673.716306,-1225.752797,-666.185348,9400.615463
2673.716635,-1149.143247,-74.020594,9326.594869
2673.716964,-229.828649,-0.000000,10066.800811
2673.717293,1762.019645,222.061783,9622.677246
2673.717623,2987.772442,962.267725,7920.203579
2673.717952,2528.115143,1036.288319,7328.038826
2673.718281,2221.676944,518.144159,8290.306550
2673.718611,1685.410096,1184.329507,8290.306550
2673.718940,1915.238745,592.164754,8142.265362
2673.719269,612.876398,-74.020594,8734.430116
2673.719599,-1149.143247,-888.247130,9696.697840
2673.719928,-1838.629195,-0.000000,10066.800811
2673.720257,-1072.533697,-1850.514855,9548.656652
2673.720586,-2145.067394,-1702.473667,9622.677246
2673.720916,-1915.238745,-2590.720797,10362.883188
2673.721245,-1225.752797,-1998.556043,10288.862594
2673.721574,-919.314598,-1258.350101,8808.450710
2673.721904,306.438199,-0.000000,9104.533087
2673.722233,1455.581446,-222.061783,9104.533087
2673.722562,2374.896044,1258.350101,8290.306550
2673.722891,3140.991542,1332.370696,8808.450710
2673.723221,3600.648841,370.102971,8216.285956
2673.723550,2911.162892,444.123565,7105.977043
2673.723879,2987.772442,962.267725,9030.512492
2673.724209,2068.457845,1406.391290,8142.265362
2673.724538,1302.362347,-0.000000,8142.265362
2673.724867,76.609550,-0.000000,9548.656652
2673.725197,-919.314598,-0.000000,9844.739029
2673.725526,-689.485948,-1036.288319,9696.697840
2673.725855,-1455.581446,-888.247130,9104.533087
2673.726184,-1532.190996,-2220.617826,9992.780217
2673.726514,-995.924147,-2072.576638,10881.027347
2673.726843,-459.657299,-740.205942,8882.471304
2673.727172,459.657299,-666.185348,9178.553681
2673.727502,306.438199,-0.000000,9400.615463
2673.727831,1225.752797,666.185348,8512.368333
2673.728160,2374.896044,1480.411884,7994.224174
2673.728490,2681.334243,444.123565,8216.285956
2673.728819,2068.457845,-0.000000,8512.368333
2673.729148,1378.971896,888.247130,9030.512492
2673.729477,536.266849,1184.329507,8808.450710
2673.729807,153.219100,370.102971,8808.450710
2673.730136,-919.314598,222.061783,9326.594869
2673.730465,-1378.971896,-666.185348,9696.697840
2673.730795,-1455.581446,-518.144159,9770.718434
2673.731124,-1991.848295,-1480.411884,9400.615463
2673.731453,-1991.848295,-2294.638420,10510.924376
2673.731783,-1991.848295,-1776.494261,10881.027347
2673.732112,-1378.971896,-1110.308913,8882.471304
2673.732441,-995.924147,-666.185348,9474.636058
2673.732770,-612.876398,-518.144159,9844.739029
2673.733100,0.000000,370.102971,8364.327145
2673.733429,1455.581446,518.144159,8956.491898
2673.733758,1838.629195,-0.000000,8068.244768
2673.734088,1608.800546,740.205942,9178.553681
2673.734417,919.314598,148.041188,9400.615463
2673.734746,1072.533697,148.041188,8586.388927
2673.735076,612.876398,-0.000000,8364.327145
2673.735405,153.219100,370.102971,8734.430116
2673.735734,383.047749,-518.144159,8956.491898
2673.736063,76.609550,-0.000000,8660.409521
2673.736393,-383.047749,-296.082377,7698.141797
2673.736722,76.609550,-1184.329507,9252.574275
2673.737051,-612.876398,-1332.370696,9400.615463
2673.737381,76.609550,-1110.308913,9030.512492
2673.737710,536.266849,-1036.288319,8882.471304
2673.738039,536.266849,-814.226536,8808.450710
2673.738369,612.876398,222.061783,9844.739029
2673.738698,1685.410096,370.102971,8660.409521
2673.739027,2298.286494,370.102971,8438.347739
2673.739356,1685.410096,-0.000000,8438.347739
2673.739686,1685.410096,370.102971,9326.594869
2673.740015,1838.629195,-0.000000,8660.409521
2673.740344,1915.238745,1110.308913,7402.059420
2673.740674,1225.752797,-518.144159,8956.491898
2673.741003,229.828649,-0.000000,9030.512492
2673.741332,76.609550,962.267725,8882.471304
2673.741661,0.000000,-0.000000,8660.409521
2673.741990,-842.705048,-0.000000,7920.203579
2673.742319,-1991.848295,-1110.308913,10732.986159
2673.742648,-995.924147,-1850.514855,10362.883188
2673.742978,-842.705048,-740.205942,9474.636058
2673.743307,-1302.362347,-1480.411884,10510.924376
2673.743636,-1072.533697,-518.144159,10288.862594
2673.743965,0.000000,222.061783,10658.965565
2673.744294,612.876398,518.144159,9400.615463
2673.744623,1608.800546,444.123565,8734.430116
2673.744952,1225.752797,-222.061783,9696.697840
2673.745282,1608.800546,1628.453072,8808.450710
2673.745611,2681.334243,1258.350101,8290.306550
2673.745940,1072.533697,962.267725,7846.182985
2673.746269,536.266849,666.185348,9178.553681
2673.746598,0.000000,222.061783,9474.636058
2673.746927,-612.876398,-370.102971,8882.471304
2673.747256,-536.266849,-1110.308913,8808.450710
2673.747586,-1455.581446,-1924.535449,10362.883188
2673.747915,-1455.581446,-1258.350101,10584.944971
2673.748244,-1149.143247,-444.123565,9104.533087
2673.748573,-919.314598,-1184.329507,9474.636058
2673.748902,-919.314598,296.082377,9844.739029
2673.749231,1149.143247,148.041188,9178.553681
2673.749560,2145.067394,296.082377,7920.203579
2673.749890,2681.334243,296.082377,7920.203579
2673.750219,2528.115143,962.267725,8216.285956
2673.750548,3140.991542,592.164754,7994.224174
2673.750877,2604.724693,1702.473667,7328.038826
2673.751206,2374.896044,666.185348,7920.203579
2673.751535,689.485948,592.164754,8512.368333
2673.751864,153.219100,-666.185348,9178.553681
2673.752194,0.000000,-0.000000,8734.430116
2673.752523,-689.485948,-1628.453072,9474.636058
2673.752852,-1378.971896,-2664.741391,9770.718434
2673.753181,-1838.629195,-1628.453072,9844.739029
2673.753510,-1149.143247,-1258.350101,9622.677246
2673.753839,-536.266849,-296.082377,8734.430116
2673.754168,0.000000,-0.000000,9326.594869
2673.754498,919.314598,-0.000000,9400.615463
2673.754827,1915.238745,-0.000000,9104.533087
2673.755156,2145.067394,148.041188,8216.285956
2673.755485,1302.362347,-0.000000,8808.450710
2673.755814,919.314598,370.102971,9030.512492
2673.756143,766.095498,370.102971,8438.347739
2673.756472,536.266849,444.123565,8512.368333
2673.756802,-995.924147,-74.020594,9326.594869
2673.757131,-1685.410096,-518.144159,9474.636058
2673.757460,-1455.581446,-444.123565,9770.718434
2673.757789,-1072.533697,-888.247130,8956.491898
2673.758118,-1915.238745,-1924.535449,9696.697840
2673.758447,-1915.238745,-1776.494261,10288.862594
2673.758776,-919.314598,-1036.288319,9548.656652
2673.759105,-612.876398,-74.020594,8586.388927
2673.759435,-229.828649,444.123565,8290.306550
2673.759764,1378.971896,-74.020594,9030.512492
2673.760093,1608.800546,370.102971,8808.450710
2673.760422,1915.238745,518.144159,7994.224174
2673.760751,1991.848295,-666.185348,8808.450710
2673.761080,1302.362347,148.041188,8660.409521
2673.761409,1302.362347,222.061783,8808.450710
2673.761739,842.705048,444.123565,9474.636058
2673.762068,0.000000,-814.226536,9252.574275
2673.762397,-766.095498,-666.185348,9696.697840
2673.762726,0.000000,-518.144159,8956.491898
2673.763055,0.000000,-1184.329507,8956.491898
2673.763384,76.609550,-1110.308913,8512.368333
2673.763713,76.609550,-1332.370696,10288.862594
2673.764043,383.047749,-740.205942,9696.697840
2673.764372,1991.848295,-0.000000,7772.162391
2673.764701,1762.019645,1184.329507,7994.224174
2673.765030,1838.629195,1036.288319,9474.636058
2673.765359,2528.115143,1332.370696,8808.450710
2673.765688,2298.286494,444.123565,8808.450710
2673.766017,1762.019645,592.164754,9030.512492
2673.766347,612.876398,-74.020594,9030.512492
2673.766676,153.219100,-296.082377,10214.842000
2673.767005,612.876398,-444.123565,9178.553681
2673.767334,-766.095498,-0.000000,9252.574275
2673.767663,-1072.533697,-1184.329507,9844.739029
2673.767992,-383.047749,-0.000000,9622.677246
2673.768321,0.000000,-0.000000,9474.636058
2673.768651,-689.485948,-148.041188,8438.347739
2673.768980,-383.047749,-222.061783,9548.656652
2673.769309,0.000000,-370.102971,9474.636058
2673.769638,1225.752797,1332.370696,7994.224174
2673.769967,1225.752797,740.205942,8734.430116
2673.770296,1225.752797,1258.350101,9030.512492
2673.770625,1532.190996,444.123565,8882.471304
2673.770955,1685.410096,-0.000000,8808.450710
2673.771284,229.828649,-1258.350101,8808.450710
2673.771613,-459.657299,-1184.329507,10140.821405
2673.771942,-229.828649,-814.226536,9622.677246
2673.772271,-153.219100,-592.164754,8512.368333
2673.772600,-995.924147,-0.000000,8512.368333
2673.772929,-1225.752797,-888.247130,9474.636058
2673.773258,-995.924147,-0.000000,10140.821405
2673.773588,229.828649,-74.020594,8364.327145
2673.773917,229.828649,-1036.288319,8142.265362
2673.774246,0.000000,-592.164754,9548.656652
2673.774575,536.266849,-518.144159,9326.594869
2673.774904,919.314598,-222.061783,8068.244768
2673.775233,383.047749,-74.020594,7846.182985
2673.775562,1378.971896,296.082377,9400.615463
2673.775892,995.924147,296.082377,8882.471304
2673.776221,1532.190996,-222.061783,8882.471304
2673.776550,1532.190996,-1110.308913,8438.347739
2673.776879,459.657299,-1258.350101,9030.512492
2673.777208,153.219100,-814.226536,10362.883188
2673.777537,689.485948,-296.082377,8956.491898
2673.777866,536.266849,-0.000000,8068.244768
2673.778196,0.000000,-222.061783,9474.636058
2673.778525,0.000000,148.041188,9844.739029
2673.778854,229.828649,-0.000000,8882.471304
2673.779183,459.657299,-666.185348,8734.430116
2673.779512,0.000000,-296.082377,9252.574275
2673.779841,383.047749,-222.061783,9696.697840
2673.780170,536.266849,-0.000000,8956.491898
2673.780500,459.657299,296.082377,8142.265362
2673.780829,995.924147,-0.000000,9622.677246
2673.781158,1532.190996,962.267725,9104.533087
2673.781487,1915.238745,962.267725,7772.162391
2673.781816,1455.581446,222.061783,7920.203579
2673.782145,1149.143247,592.164754,8734.430116
2673.782474,536.266849,-0.000000,9548.656652
2673.782804,383.047749,-0.000000,9474.636058
2673.783133,-229.828649,-74.020594,8586.388927
2673.783462,-1378.971896,-0.000000,9992.780217
2673.783791,-1762.019645,-814.226536,10881.027347
2673.784120,-1991.848295,-518.144159,9622.677246
2673.784449,-995.924147,-666.185348,9326.594869
2673.784778,-1608.800546,-1406.391290,9474.636058
2673.785108,-1532.190996,-1776.494261,10510.924376
2673.785437,-612.876398,-296.082377,9474.636058
2673.785766,842.705048,-148.041188,8364.327145
2673.786095,1149.143247,-222.061783,8734.430116
2673.786424,1532.190996,444.123565,8882.471304
2673.786753,2451.505594,222.061783,8290.306550
2673.787082,3140.991542,296.082377,7179.997637
2673.787412,2528.115143,370.102971,9030.512492
2673.787741,1532.190996,148.041188,8586.388927
2673.788070,1302.362347,222.061783,8734.430116
2673.788399,689.485948,-296.082377,9104.533087
2673.788728,-459.657299,-740.205942,9178.553681
2673.789057,-1225.752797,-1480.411884,10214.842000
2673.789386,-306.438199,-1110.308913,10140.821405
2673.789715,-612.876398,-962.267725,9252.574275
2673.790045,-919.314598,-1998.556043,9696.697840
2673.790374,-536.266849,-2294.638420,9844.739029
2673.790703,536.266849,-1036.288319,9400.615463
2673.791032,1685.410096,-148.041188,8290.306550
2673.791361,2451.505594,592.164754,8364.327145
2673.791690,2911.162892,1628.453072,8290.306550
2673.792019,3140.991542,962.267725,7994.224174
2673.792349,3677.258390,1406.391290,7179.997637
2673.792678,2987.772442,740.205942,7550.100608
2673.793007,1762.019645,1110.308913,7846.182985
2673.793336,1149.143247,1110.308913,8364.327145
2673.793665,153.219100,-0.000000,8660.409521
2673.793994,-1685.410096,-296.082377,9104.533087
2673.794323,-3064.381992,-1702.473667,10732.986159
2673.794653,-3524.039291,-1258.350101,10140.821405
2673.794982,-3600.648841,-296.082377,8438.347739
2673.795311,-4366.744339,-592.164754,8586.388927
2673.795640,-5056.230287,-2146.597232,10288.862594
2673.795969,-5056.230287,-1184.329507,9918.759623
2673.796298,-4290.134789,-888.247130,9918.759623
2673.796627,-4596.572988,-0.000000,9400.615463
2673.796957,-4366.744339,-370.102971,9992.780217
2673.797286,-3600.648841,370.102971,9770.718434
2673.797615,-2298.286494,-0.000000,9326.594869
2673.797944,-1915.238745,-0.000000,9104.533087
2673.798273,-2987.772442,-296.082377,9252.574275
2673.798602,-2911.162892,-370.102971,9770.718434
2673.798931,-3217.601092,444.123565,9474.636058
2673.799261,-2298.286494,962.267725,7624.121203
2673.799590,-2987.772442,-0.000000,8290.306550
2673.799919,-3370.820191,-518.144159,9326.594869
2673.800248,-3217.601092,148.041188,9252.574275
2673.800577,-2604.724693,-666.185348,8586.388927
2673.800906,-2681.334243,-1110.308913,8438.347739
2673.801235,-3600.648841,-1998.556043,9918.759623
2673.801565,-3983.696590,-2146.597232,10510.924376
2673.801894,-3294.210641,-1184.329507,9548.656652
2673.802223,-2374.896044,-444.123565,9844.739029
2673.802552,-1608.800546,-740.205942,10288.862594
2673.802881,-1532.190996,370.102971,9474.636058
2673.803210,-842.705048,888.247130,9104.533087
2673.803539,-229.828649,814.226536,9400.615463
2673.803868,536.266849,666.185348,7846.182985
2673.804198,612.876398,1406.391290,7031.956449
2673.804527,689.485948,1184.329507,7179.997637
2673.804856,0.000000,2220.617826,6143.709319
2673.805185,-1149.143247,1036.288319,7254.018232
2673.805514,-2145.067394,222.061783,8290.306550
2673.805843,-3524.039291,-1776.494261,9548.656652
2673.806172,-4213.525239,-2146.597232,9252.574275
2673.806502,-4519.963438,-1406.391290,7994.224174
2673.806831,-4903.011187,-1924.535449,10288.862594
2673.807160,-4979.620737,-1776.494261,9992.780217
2673.807489,-3830.477490,-2886.803174,10658.965565
2673.807818,-3447.429741,-1406.391290,11695.253884
2673.808147,-2068.457845,-666.185348,10214.842000
2673.808476,-1991.848295,814.226536,8586.388927
2673.808806,-1838.629195,1406.391290,8660.409521
2673.809135,-919.314598,1332.370696,9918.759623
2673.809464,76.609550,1036.288319,8290.306550
2673.809793,1225.752797,1480.411884,7105.977043
2673.810122,919.314598,1998.556043,6513.812290
2673.810451,0.000000,2072.576638,6439.791695
2673.810780,-842.705048,-0.000000,7920.203579
2673.811110,-1915.238745,-1628.453072,8882.471304
2673.811439,-2604.724693,-2294.638420,10140.821405
2673.811768,-3830.477490,-1628.453072,10288.862594
2673.812097,-3830.477490,-814.226536,8734.430116
2673.812426,-4136.915689,-0.000000,9696.697840
2673.812755,-4290.134789,370.102971,9622.677246
2673.813084,-3983.696590,-1184.329507,10955.047942
2673.813414,-4366.744339,-0.000000,10436.903782
2673.813743,-4519.963438,814.226536,9844.739029
2673.814072,-3753.867940,-0.000000,9548.656652
2673.814401,-3677.258390,-148.041188,9252.574275
2673.814730,-3753.867940,-740.205942,9548.656652
2673.815059,-1991.848295,-1406.391290,8956.491898
2673.815388,-2451.505594,-666.185348,8438.347739
2673.815718,-2528.115143,-666.185348,8660.409521
2673.816047,-2451.505594,-0.000000,8216.285956
2673.816376,-3064.381992,-518.144159,8290.306550
2673.816705,-2911.162892,-740.205942,8216.285956
2673.817034,-2911.162892,-296.082377,9178.553681
2673.817363,-3064.381992,-666.185348,9548.656652
2673.817692,-2757.943793,-666.185348,9622.677246
2673.818022,-2221.676944,-814.226536,9548.656652
2673.818351,-2298.286494,-370.102971,9252.574275
2673.818680,-2221.676944,222.061783,9252.574275
2673.819009,-1838.629195,518.144159,8660.409521
2673.819338,-2374.896044,370.102971,8142.265362
2673.819667,-1915.238745,518.144159,8364.327145
2673.819996,-2374.896044,148.041188,8512.368333
2673.820325,-2528.115143,-888.247130,8512.368333
2673.820655,-2911.162892,-296.082377,7920.203579
2673.820984,-3600.648841,-222.061783,9030.512492
2673.821313,-3217.601092,-74.020594,8956.491898
2673.821642,-3983.696590,666.185348,8882.471304
2673.821971,-3753.867940,1258.350101,8956.491898
2673.822300,-4673.182538,740.205942,8956.491898
2673.822629,-4596.572988,-1036.288319,9474.636058
2673.822959,-4366.744339,-2072.576638,11029.068536
2673.823288,-3907.087040,-2516.700203,11251.130318
2673.823617,-2451.505594,-2146.597232,10658.965565
2673.823946,-1149.143247,-1406.391290,8956.491898
2673.824275,-1378.971896,1110.308913,7698.141797
2673.824604,-306.438199,1036.288319,10362.883188
2673.824933,1455.581446,1258.350101,7920.203579
2673.825263,2068.457845,3478.967927,5107.421000
2673.825592,2298.286494,2590.720797,6883.915261
2673.825921,536.266849,2368.659014,5921.647536
2673.826250,-383.047749,370.102971,9104.533087
2673.826579,-3753.867940,-444.123565,8956.491898
2673.826908,-3753.867940,-2812.782580,11251.130318
2673.827237,-4979.620737,-1924.535449,9474.636058
2673.827567,-5592.497135,-1998.556043,9696.697840
2673.827896,-7124.688131,-3182.885551,12065.356855
2673.828225,-6818.249932,-1628.453072,12065.356855
2673.828554,-4060.306139,-1924.535449,11843.295072
2673.828883,-3140.991542,-1480.411884,9696.697840
2673.829212,-383.047749,888.247130,8956.491898
2673.829541,-919.314598,2220.617826,5477.523971
2673.829871,612.876398,-1110.308913,11769.274478
2673.830200,2145.067394,888.247130,7179.997637
2673.830529,5209.449386,2738.761985,5847.626942
2673.830858,4060.306139,1332.370696,4145.153275
2673.831187,1149.143247,2738.761985,5773.606348
2673.831516,153.219100,888.247130,10881.027347
2673.831845,-3370.820191,-0.000000,8290.306550
2673.832175,-2145.067394,-2368.659014,10584.944971
2673.832504,-4366.744339,-1628.453072,10807.006753
2673.832833,-5745.716235,-888.247130,7994.224174
2673.833162,-7660.954980,-3997.112087,12805.562797
2673.833491,-8580.269578,-1258.350101,10288.862594
2673.833820,-5669.106685,-2072.576638,11843.295072
2673.834149,-5515.887586,-2368.659014,9696.697840
2673.834479,-3600.648841,-0.000000,8512.368333
2673.834808,-3140.991542,-1184.329507,9030.512492
2673.835137,-2068.457845,-444.123565,7550.100608
2673.835466,-1991.848295,1258.350101,7846.182985
2673.835795,-1378.971896,-222.061783,9178.553681
2673.836124,-1915.238745,518.144159,8364.327145
2673.836453,-2374.896044,740.205942,9326.594869
2673.836782,-2451.505594,666.185348,8438.347739
2673.837112,-2911.162892,666.185348,8068.244768
2673.837441,-2374.896044,814.226536,8660.409521
2673.837770,-2451.505594,2072.576638,8734.430116
2673.838099,-2987.772442,1258.350101,7994.224174
2673.838428,-3830.477490,740.205942,8290.306550
2673.838757,-4136.915689,370.102971,8586.388927
2673.839086,-3600.648841,-74.020594,8512.368333
2673.839416,-3217.601092,-222.061783,7772.162391
2673.839745,-2757.943793,-444.123565,8068.244768
2673.840074,-2604.724693,-296.082377,8364.327145
2673.840403,-3294.210641,370.102971,8956.491898
2673.840732,-3677.258390,1554.432478,8290.306550
2673.841061,-3064.381992,1258.350101,9178.553681
2673.841390,-3294.210641,1480.411884,9474.636058
2673.841719,-3217.601092,1628.453072,9992.780217
2673.842048,-3447.429741,592.164754,10362.883188
2673.842377,-3753.867940,-0.000000,11177.109724
2673.842706,-2528.115143,296.082377,10881.027347
2673.843035,-1608.800546,962.267725,9474.636058
2673.843364,-612.876398,888.247130,9030.512492
2673.843693,-842.705048,1036.288319,9104.533087
2673.844022,0.000000,-370.102971,12361.439231
2673.844351,1455.581446,2368.659014,7846.182985
2673.844681,3830.477490,3552.988522,7550.100608
2673.845010,3907.087040,3627.009116,5255.462188
2673.845339,3677.258390,4737.318029,6439.791695
2673.845668,3294.210641,4885.359217,8882.471304
2673.845997,2757.943793,4145.153275,7624.121203
2673.846326,2757.943793,3330.926739,9622.677246
2673.846655,766.095498,1924.535449,9326.594869
2673.846984,-1378.971896,2368.659014,10510.924376
2673.847313,-1378.971896,666.185348,12583.501014
2673.847642,-995.924147,2516.700203,9548.656652
2673.847971,-766.095498,1554.432478,11251.130318
2673.848300,-689.485948,1924.535449,10510.924376
2673.848629,1149.143247,3330.926739,9326.594869
2673.848958,2298.286494,2368.659014,7920.203579
2673.849287,2298.286494,3182.885551,6957.935855
2673.849616,3447.429741,5329.482782,7031.956449
2673.849945,2145.067394,4145.153275,6661.853478
2673.850275,1608.800546,4959.379811,7476.080014
2673.850604,612.876398,4145.153275,7772.162391
2673.850933,-995.924147,2294.638420,8734.430116
2673.851262,-2528.115143,1406.391290,9030.512492
2673.851591,-3753.867940,74.020594,11547.212695
2673.851920,-3294.210641,592.164754,11103.089130
2673.852249,-3983.696590,2960.823768,9104.533087
2673.852578,-4136.915689,2146.597232,10362.883188
2673.852907,-4290.134789,2294.638420,11177.109724
2673.853236,-3294.210641,2146.597232,10807.006753
2673.853565,-1991.848295,1776.494261,10436.903782
2673.853894,-1072.533697,2294.638420,8512.368333
2673.854223,-995.924147,2812.782580,8216.285956
2673.854552,-1225.752797,3552.988522,9030.512492
2673.854881,-459.657299,1702.473667,11917.315666
2673.855210,2145.067394,3108.864956,7846.182985
2673.855539,4826.401637,4737.318029,7105.977043
2673.855868,3600.648841,5255.462188,4959.379811
2673.856198,3064.381992,5921.647536,6957.935855
2673.856527,3217.601092,7105.977043,8586.388927
2673.856856,1991.848295,6143.709319,7254.018232
2673.857185,1991.848295,5847.626942,8512.368333
2673.857514,76.609550,6069.688724,8142.265362
2673.857843,-229.828649,3627.009116,9104.533087
2673.858172,-2374.896044,1332.370696,12361.439231
2673.858501,-1455.581446,-740.205942,11029.068536
2673.858830,-2068.457845,666.185348,11251.130318
2673.859159,-1838.629195,-1184.329507,12065.356855
2673.859488,-2145.067394,3256.906145,8438.347739
2673.859817,0.000000,1776.494261,11547.212695
2673.860146,1532.190996,3923.091493,8882.471304
2673.860475,3140.991542,5033.400406,8438.347739
2673.860804,4826.401637,4441.235652,7402.059420
2673.861133,4060.306139,5107.421000,7476.080014
2673.861462,2834.553343,5699.585753,7179.997637
2673.861792,2221.676944,4589.276840,6587.832884
2673.862121,919.314598,3627.009116,7994.224174
2673.862450,-842.705048,1924.535449,9770.718434
2673.862779,-1991.848295,-1332.370696,11325.150913
2673.863108,-3064.381992,1628.453072,9770.718434
2673.863437,-2604.724693,-1924.535449,10140.821405
2673.863766,-2757.943793,1554.432478,9326.594869
2673.864095,-2145.067394,1998.556043,11251.130318
2673.864424,-995.924147,1480.411884,9696.697840
2673.864753,-1302.362347,2368.659014,9696.697840
2673.865082,1838.629195,-0.000000,12065.356855
2673.865411,2911.162892,3552.988522,5773.606348
2673.865740,4903.011187,3034.844362,9252.574275
2673.866069,2451.505594,2812.782580,5551.544565
2673.866398,3907.087040,4145.153275,6809.894666
2673.866727,2528.115143,5329.482782,7550.100608
2673.867056,2145.067394,3923.091493,6957.935855
2673.867385,1532.190996,4441.235652,7698.141797
2673.867715,-1455.581446,1406.391290,8882.471304
2673.868044,-2604.724693,-2960.823768,12287.418637
2673.868373,-4366.744339,-814.226536,11029.068536
2673.868702,-2374.896044,-2664.741391,11251.130318
2673.869031,-3907.087040,1184.329507,9104.533087
2673.869360,-1838.629195,1850.514855,11473.192101
2673.869689,-76.609550,3108.864956,7846.182985
2673.870018,-306.438199,2960.823768,9178.553681
2673.870347,3294.210641,1850.514855,11843.295072
2673.870676,3370.820191,3478.967927,6365.771101
2673.871005,4673.182538,4219.173869,9030.512492
2673.871334,3753.867940,5995.668130,3404.947333
2673.871663,5132.839837,5329.482782,6143.709319
2673.871992,2987.772442,4071.132681,6883.915261
2673.872321,2987.772442,4663.297435,6291.750507
2673.872650,2757.943793,4515.256246,7402.059420
2673.872979,-612.876398,5921.647536,7031.956449
2673.873309,-2987.772442,2146.597232,10362.883188
2673.873638,-6128.763984,-3552.988522,13545.768739
2673.873967,-3753.867940,2294.638420,10140.821405
2673.874296,-2451.505594,370.102971,11769.274478
2673.874625,-3524.039291,-4219.173869,12657.521608
2673.874954,-2528.115143,2220.617826,12065.356855
2673.875283,-383.047749,1036.288319,8586.388927
2673.875612,-2834.553343,3997.112087,7550.100608
2673.875941,-459.657299,1776.494261,12583.501014
2673.876270,3753.867940,2220.617826,9104.533087
2673.876599,3983.696590,6291.750507,7105.977043
2673.876928,2911.162892,4145.153275,6439.791695
2673.877257,2681.334243,4145.153275,5551.544565
2673.877586,2911.162892,5699.585753,10510.924376
2673.877915,0.000000,5403.503377,7550.100608
2673.878244,919.314598,6513.812290,9326.594869
2673.878573,-689.485948,4589.276840,8216.285956
2673.878903,-306.438199,1850.514855,9548.656652
2673.879232,-3447.429741,1628.453072,14582.057057
2673.879561,-2987.772442,-518.144159,11325.150913
2673.879890,-1991.848295,-296.082377,11103.089130
2673.880219,-1838.629195,-888.247130,11547.212695
2673.880548,-3140.991542,3330.926739,7994.224174
2673.880877,-919.314598,1998.556043,11029.068536
2673.881206,0.000000,4441.235652,7772.162391
2673.881535,2451.505594,6661.853478,8438.347739
2673.881864,3907.087040,6365.771101,6883.915261
2673.882193,1915.238745,4515.256246,9030.512492
2673.882522,306.438199,5107.421000,9918.759623
2673.882851,612.876398,5329.482782,6439.791695
2673.883180,919.314598,3701.029710,8142.265362
2673.883509,1225.752797,1702.473667,9696.697840
2673.883838,1072.533697,1036.288319,11843.295072
2673.884167,-383.047749,1036.288319,10955.047942
2673.884496,-383.047749,1406.391290,9104.533087
2673.884826,612.876398,518.144159,9918.759623
2673.885155,1072.533697,4663.297435,7328.038826
2673.885484,1378.971896,4663.297435,9030.512492
2673.885813,766.095498,3256.906145,8734.430116
2673.886142,1838.629195,2590.720797,7550.100608
2673.886471,4060.306139,3701.029710,7550.100608
2673.886800,3524.039291,3775.050304,7550.100608
2673.887129,1302.362347,2960.823768,8808.450710
2673.887458,1302.362347,1776.494261,7920.203579
2673.887787,306.438199,2220.617826,8734.430116
2673.888116,0.000000,666.185348,11547.212695
2673.888445,-995.924147,888.247130,10288.862594
2673.888774,-3064.381992,444.123565,11251.130318
2673.889103,-2834.553343,-740.205942,11103.089130
2673.889432,-1532.190996,-518.144159,11399.171507
2673.889761,-995.924147,-888.247130,10362.883188
2673.890090,-1302.362347,1184.329507,9622.677246
2673.890420,842.705048,1036.288319,9474.636058
2673.890749,2987.772442,1702.473667,6957.935855
2673.891078,3600.648841,2368.659014,6735.874072
2673.891407,2528.115143,3330.926739,7328.038826
2673.891736,229.828649,2294.638420,7476.080014
2673.892065,1532.190996,1554.432478,9030.512492
2673.892394,1838.629195,-148.041188,8808.450710
2673.892723,689.485948,-0.000000,9030.512492
2673.893052,-2221.676944,-444.123565,10510.924376
2673.893381,-2604.724693,-3404.947333,11769.274478
2673.893710,-2528.115143,-1850.514855,10436.903782
2673.894039,-1225.752797,-370.102971,9992.780217
2673.894368,-2528.115143,888.247130,8734.430116
2673.894697,-2604.724693,592.164754,10658.965565
2673.895026,-766.095498,148.041188,7920.203579
2673.895355,1455.581446,148.041188,6957.935855
2673.895684,1455.581446,962.267725,6735.874072
2673.896014,1302.362347,-0.000000,7772.162391
2673.896343,1608.800546,740.205942,8438.347739
2673.896672,2145.067394,666.185348,6587.832884
2673.897001,1455.581446,-444.123565,7328.038826
2673.897330,766.095498,-740.205942,9400.615463
2673.897659,0.000000,-1776.494261,10584.944971
2673.897988,153.219100,-1332.370696,10362.883188
2673.898317,0.000000,-666.185348,9178.553681
2673.898646,-1608.800546,-592.164754,10881.027347
2673.898975,-1455.581446,-592.164754,11695.253884
2673.899304,76.609550,-370.102971,10288.862594
2673.899633,995.924147,222.061783,8808.450710
2673.899962,76.609550,1036.288319,8660.409521
2673.900291,383.047749,666.185348,8734.430116
2673.900620,2221.676944,-0.000000,8290.306550
2673.900949,2298.286494,296.082377,7105.977043
2673.901278,995.924147,-148.041188,7846.182985
2673.901607,383.047749,-444.123565,9030.512492
2673.901937,1378.971896,-2220.617826,9178.553681
2673.902266,1225.752797,-1110.308913,9474.636058
2673.902595,306.438199,-370.102971,9622.677246
2673.902924,-689.485948,-814.226536,9918.759623
2673.903253,153.219100,-666.185348,10658.965565
2673.903582,995.924147,444.123565,9548.656652
2673.903911,153.219100,1110.308913,9030.512492
2673.904240,0.000000,666.185348,9696.697840
2673.904569,766.095498,518.144159,9474.636058
2673.904898,536.266849,518.144159,7920.203579
2673.905227,-229.828649,518.144159,7994.224174
2673.905556,0.000000,148.041188,8512.368333
2673.905885,0.000000,-1332.370696,8956.491898
2673.906214,536.266849,-592.164754,7624.121203
2673.906543,842.705048,-1184.329507,8290.306550
2673.906872,-306.438199,-1258.350101,9474.636058
2673.907201,383.047749,-1036.288319,9474.636058
2673.907531,612.876398,740.205942,8660.409521
2673.907860,229.828649,962.267725,8956.491898
2673.908189,229.828649,1110.308913,9844.739029
2673.908518,919.314598,-666.185348,10140.821405
2673.908847,1149.143247,-0.000000,8882.471304
2673.909176,306.438199,296.082377,8956.491898
2673.909505,153.219100,814.226536,9696.697840
2673.909834,-459.657299,888.247130,9918.759623
2673.910163,229.828649,1110.308913,8364.327145
2673.910492,-612.876398,592.164754,7772.162391
2673.910821,-919.314598,-74.020594,9326.594869
2673.911150,0.000000,-1554.432478,9400.615463
2673.911479,383.047749,-1924.535449,8882.471304
2673.911808,-919.314598,-962.267725,8660.409521
2673.912137,-306.438199,-1406.391290,9622.677246
2673.912466,536.266849,-888.247130,9770.718434
2673.912795,1072.533697,1480.411884,8142.265362
2673.913125,1225.752797,2294.638420,8068.244768
2673.913454,919.314598,1998.556043,9400.615463
2673.913783,1532.190996,814.226536,10066.800811
2673.914112,2068.457845,666.185348,8882.471304
2673.914441,995.924147,592.164754,9030.512492
2673.914770,0.000000,-0.000000,9918.759623
2673.915099,153.219100,-1332.370696,9548.656652
2673.915428,612.876398,-222.061783,9030.512492
2673.915757,1149.143247,-0.000000,8438.347739
2673.916086,0.000000,-74.020594,8586.388927
2673.916415,-306.438199,-888.247130,9548.656652
2673.916744,612.876398,-1554.432478,9178.553681
2673.917073,229.828649,-888.247130,7846.182985
2673.917402,-459.657299,-888.247130,9104.533087
2673.917731,76.609550,-1036.288319,9992.780217
2673.918060,1149.143247,-0.000000,9918.759623
2673.918389,842.705048,518.144159,8364.327145
2673.918718,0.000000,-222.061783,9548.656652
2673.919048,383.047749,-222.061783,10436.903782
2673.919377,1225.752797,-222.061783,9474.636058
2673.919706,536.266849,740.205942,8142.265362
2673.920035,-995.924147,-148.041188,9252.574275
2673.920364,-766.095498,-1406.391290,10140.821405
2673.920693,0.000000,-1406.391290,9992.780217
2673.921022,0.000000,-222.061783,8142.265362
2673.921351,-1072.533697,-1702.473667,8734.430116
2673.921680,-995.924147,-1036.288319,9252.574275
2673.922009,383.047749,-1776.494261,9252.574275
2673.922338,612.876398,-518.144159,8512.368333
2673.922667,-459.657299,-740.205942,8734.430116
2673.922996,612.876398,-518.144159,9400.615463
2673.923325,1838.629195,592.164754,8734.430116
2673.923654,1455.581446,1406.391290,8142.265362
2673.923983,612.876398,740.205942,8808.450710
2673.924312,76.609550,-222.061783,9474.636058
2673.924642,842.705048,-740.205942,9770.718434
2673.924971,919.314598,-518.144159,8734.430116
2673.925300,0.000000,-1036.288319,8734.430116
2673.925629,-229.828649,-1406.391290,9474.636058
2673.925958,536.266849,-1406.391290,9770.718434
2673.926287,229.828649,-444.123565,8216.285956
2673.926616,0.000000,-518.144159,7920.203579
2673.926945,153.219100,-666.185348,8586.388927
2673.927274,1685.410096,-814.226536,8808.450710
2673.927603,2451.505594,370.102971,7179.997637
2673.927932,1378.971896,-666.185348,7772.162391
2673.928261,1149.143247,-148.041188,9252.574275
2673.928590,1915.238745,-0.000000,9104.533087
2673.928919,1838.629195,1554.432478,7772.162391
2673.929248,536.266849,1554.432478,7994.224174
2673.929577,306.438199,222.061783,9844.739029
2673.929906,766.095498,-1184.329507,9918.759623
2673.930236,306.438199,-666.185348,9252.574275
2673.930565,-1378.971896,-1036.288319,9252.574275
2673.930894,-1378.971896,-1258.350101,10140.821405
2673.931223,-459.657299,-1258.350101,10214.842000
2673.931552,0.000000,-370.102971,8882.471304
2673.931881,-536.266849,-148.041188,8438.347739
2673.932210,-383.047749,-592.164754,9992.780217
2673.932539,459.657299,-222.061783,9474.636058
2673.932868,1072.533697,518.144159,8512.368333
2673.933197,459.657299,1258.350101,8142.265362
2673.933526,153.219100,592.164754,9178.553681
2673.933855,459.657299,518.144159,10436.903782
2673.934184,1838.629195,1406.391290,9030.512492
2673.934513,306.438199,518.144159,8586.388927
2673.934842,-306.438199,-296.082377,10214.842000
2673.935171,0.000000,-222.061783,9622.677246
2673.935500,-153.219100,-1184.329507,9400.615463
2673.935829,-995.924147,-148.041188,8660.409521
2673.936159,-1608.800546,-888.247130,9474.636058
2673.936488,-306.438199,-1554.432478,9770.718434
2673.936817,0.000000,-888.247130,8808.450710
2673.937146,0.000000,-370.102971,8808.450710
2673.937475,-306.438199,-0.000000,8808.450710
2673.937804,689.485948,-592.164754,9178.553681
2673.938133,2068.457845,-148.041188,8882.471304
2673.938462,1455.581446,592.164754,7994.224174
2673.938791,1225.752797,296.082377,9252.574275
2673.939120,1838.629195,1332.370696,9252.574275
2673.939449,2374.896044,1628.453072,7994.224174
2673.939778,1149.143247,1924.535449,7550.100608
2673.940107,0.000000,962.267725,9104.533087
2673.940436,689.485948,-296.082377,9918.759623
2673.940765,459.657299,-592.164754,9400.615463
2673.941094,0.000000,-962.267725,8586.388927
2673.941423,-1225.752797,-1480.411884,9548.656652
2673.941753,-919.314598,-1628.453072,10584.944971
2673.942082,229.828649,-740.205942,9696.697840
2673.942411,0.000000,-0.000000,8068.244768
2673.942740,-229.828649,740.205942,9474.636058
2673.943069,459.657299,222.061783,9252.574275
2673.943398,2374.896044,-0.000000,9178.553681
2673.943727,2068.457845,1332.370696,8068.244768
2673.944057,1302.362347,-0.000000,9030.512492
2673.944386,1302.362347,518.144159,10066.800811
2673.944715,1762.019645,-0.000000,8808.450710
2673.945044,1838.629195,296.082377,8438.347739
2673.945373,76.609550,222.061783,8364.327145
2673.945702,0.000000,-1036.288319,9770.718434
2673.946031,153.219100,-962.267725,9696.697840
2673.946360,-689.485948,-0.000000,7920.203579
2673.946690,-1838.629195,-1776.494261,9622.677246
2673.947019,-2145.067394,-1850.514855,10362.883188
2673.947348,-1072.533697,-2368.659014,9770.718434
2673.947677,-919.314598,-1776.494261,8068.244768
2673.948006,-1455.581446,-1628.453072,9326.594869
2673.948335,-766.095498,-1406.391290,10288.862594
2673.948664,766.095498,-1110.308913,9326.594869
2673.948993,1072.533697,148.041188,7624.121203
2673.949323,1225.752797,370.102971,7772.162391
2673.949652,1915.238745,1332.370696,9030.512492
2673.949981,2834.553343,740.205942,8438.347739
2673.950310,2374.896044,1406.391290,7254.018232
2673.950639,1225.752797,666.185348,7698.141797
2673.950968,842.705048,-1036.288319,9474.636058
2673.951297,689.485948,-370.102971,9400.615463
2673.951627,995.924147,-814.226536,8438.347739
2673.951956,-1532.190996,-888.247130,9252.574275
2673.952285,-1991.848295,-1406.391290,10584.944971
2673.952614,-919.314598,-888.247130,10584.944971
2673.952943,-766.095498,-444.123565,8586.388927
2673.953272,-1225.752797,-370.102971,8882.471304
2673.953601,-459.657299,-296.082377,10362.883188
2673.953930,1072.533697,-1184.329507,10510.924376
2673.954260,2374.896044,-0.000000,9030.512492
2673.954589,2145.067394,296.082377,7920.203579
2673.954918,2374.896044,962.267725,8734.430116
2673.955247,3370.820191,1998.556043,8586.388927
2673.955576,3753.867940,2812.782580,7698.141797
2673.955905,2298.286494,2368.659014,7772.162391
2673.956234,1762.019645,2368.659014,8512.368333
2673.956564,689.485948,592.164754,9474.636058
2673.956893,-153.219100,-0.000000,9104.533087
2673.957222,-1608.800546,-518.144159,9548.656652
2673.957551,-2374.896044,-2072.576638,10584.944971
2673.957880,-2451.505594,-2590.720797,10807.006753
2673.958209,-1455.581446,-1110.308913,10584.944971
2673.958538,-2451.505594,-1554.432478,9622.677246
2673.958867,-2757.943793,-666.185348,10140.821405
2673.959197,-995.924147,-666.185348,10584.944971
2673.959526,1149.143247,-74.020594,8216.285956
2673.959855,995.924147,370.102971,8438.347739
2673.960184,1762.019645,296.082377,9474.636058
2673.960513,3064.381992,814.226536,8586.388927
2673.960842,3140.991542,1406.391290,7105.977043
2673.961171,2374.896044,1628.453072,6809.894666
2673.961500,1608.800546,1850.514855,8660.409521
2673.961830,1302.362347,740.205942,8660.409521
2673.962159,536.266849,-0.000000,8290.306550
2673.962488,-1455.581446,-296.082377,8586.388927
2673.962817,-2451.505594,-1702.473667,10214.842000
2673.963146,-2834.553343,-3182.885551,11547.212695
2673.963475,-2987.772442,-2072.576638,9844.739029
2673.963804,-2681.334243,-2072.576638,9696.697840
2673.964134,-3140.991542,-1258.350101,10214.842000
2673.964463,-1455.581446,-2368.659014,11621.233289
2673.964792,612.876398,-666.185348,9252.574275
2673.965121,1455.581446,296.082377,7328.038826
2673.965450,1685.410096,1184.329507,9104.533087
2673.965779,2681.334243,2146.597232,8438.347739
2673.966108,3677.258390,2886.803174,7402.059420
2673.966437,2987.772442,2368.659014,7179.997637
2673.966767,2451.505594,2368.659014,8068.244768
2673.967096,2757.943793,1554.432478,8142.265362
2673.967425,3217.601092,370.102971,7402.059420
2673.967754,689.485948,518.144159,9104.533087
2673.968083,-1149.143247,-1332.370696,10140.821405
2673.968412,-1838.629195,-1184.329507,10584.944971
2673.968741,-1225.752797,-3256.906145,11769.274478
2673.969071,-2221.676944,-962.267725,8438.347739
2673.969400,-2451.505594,-1480.411884,10584.944971
2673.969729,-1991.848295,-2072.576638,11621.233289
2673.970058,-459.657299,-1850.514855,10362.883188
2673.970387,1762.019645,-1036.288319,8956.491898
2673.970716,2451.505594,1554.432478,8586.388927
2673.971045,2834.553343,1406.391290,9178.553681
2673.971374,3447.429741,1776.494261,7254.018232
2673.971704,3294.210641,2146.597232,6587.832884
2673.972033,2528.115143,1702.473667,7476.080014
2673.972362,2987.772442,1850.514855,7550.100608
2673.972691,2757.943793,1998.556043,7254.018232
2673.973020,229.828649,222.061783,7476.080014
2673.973349,-1072.533697,-2146.597232,9844.739029
2673.973678,-2298.286494,-1924.535449,9770.718434
2673.974007,-1838.629195,-4737.318029,11843.295072
2673.974337,-2451.505594,-2294.638420,9178.553681
2673.974666,-3140.991542,-2072.576638,11769.274478
2673.974995,-3370.820191,-2072.576638,11177.109724
2673.975324,-1608.800546,-1258.350101,10362.883188
2673.975653,383.047749,-888.247130,8882.471304
2673.975982,1072.533697,-74.020594,9030.512492
2673.976311,2145.067394,592.164754,9326.594869
2673.976641,3907.087040,1110.308913,7476.080014
2673.976970,3600.648841,1776.494261,6069.688724
2673.977299,1991.848295,1480.411884,7550.100608
2673.977628,2451.505594,666.185348,7698.141797
2673.977957,2757.943793,1258.350101,7994.224174
2673.978286,842.705048,-296.082377,8512.368333
2673.978615,-612.876398,-814.226536,8808.450710
2673.978944,-2834.553343,-444.123565,9992.780217
2673.979274,-2834.553343,-3849.070898,11843.295072
2673.979603,-2681.334243,-1258.350101,9326.594869
2673.979932,-2374.896044,-2368.659014,10436.903782
2673.980261,-2987.772442,-1554.432478,10658.965565
2673.980590,-1378.971896,-222.061783,10732.986159
2673.980919,536.266849,-370.102971,8882.471304
2673.981248,1225.752797,-444.123565,8586.388927
2673.981578,2068.457845,1332.370696,9030.512492
2673.981907,3677.258390,592.164754,8142.265362
2673.982236,3983.696590,2590.720797,6587.832884
2673.982565,2068.457845,2368.659014,7105.977043
2673.982894,2145.067394,2664.741391,8290.306550
2673.983223,2528.115143,2590.720797,7105.977043
2673.983552,3294.210641,1776.494261,6809.894666
2673.983881,766.095498,962.267725,8216.285956
2673.984211,-1225.752797,-2072.576638,10362.883188
2673.984540,-1608.800546,-1850.514855,10658.965565
2673.984869,-1608.800546,-1776.494261,10510.924376
2673.985198,-2834.553343,-1998.556043,9844.739029
2673.985527,-3600.648841,-1036.288319,11917.315666
2673.985856,-2374.896044,-2072.576638,10807.006753
2673.986185,-1378.971896,-666.185348,9104.533087
2673.986514,0.000000,444.123565,9178.553681
2673.986844,842.705048,-0.000000,9622.677246
2673.987173,2298.286494,592.164754,9326.594869
2673.987502,2987.772442,1332.370696,7550.100608
2673.987831,2298.286494,962.267725,6883.915261
2673.988160,2145.067394,1480.411884,8068.244768
2673.988489,2987.772442,814.226536,8438.347739
2673.988818,2681.334243,518.144159,7994.224174
2673.989148,612.876398,-148.041188,8142.265362
2673.989477,-766.095498,-740.205942,9474.636058
2673.989806,-1838.629195,-1480.411884,10362.883188
2673.990135,-2374.896044,-1776.494261,10584.944971
2673.990464,-2604.724693,-740.205942,9474.636058
2673.990793,-2374.896044,-1998.556043,10214.842000
2673.991122,-2221.676944,-2220.617826,11325.150913
2673.991451,-919.314598,-2368.659014,10362.883188
2673.991781,0.000000,-1184.329507,9104.533087
2673.992110,612.876398,-1110.308913,9178.553681
2673.992439,2298.286494,592.164754,8512.368333
2673.992768,3753.867940,1702.473667,7402.059420
2673.993097,3677.258390,1628.453072,6883.915261
2673.993426,2221.676944,1776.494261,7254.018232
2673.993755,2757.943793,1850.514855,7624.121203
2673.994085,3447.429741,1998.556043,7105.977043
2673.994414,2681.334243,1628.453072,6735.874072
2673.994743,459.657299,222.061783,8882.471304
2673.995072,-383.047749,-1332.370696,10288.862594
2673.995401,-1302.362347,-1850.514855,9622.677246
2673.995730,-1455.581446,-888.247130,9474.636058
2673.996059,-3294.210641,-1850.514855,10436.903782
2673.996388,-2528.115143,-1628.453072,11621.233289
2673.996718,-1378.971896,-1776.494261,10066.800811
2673.997047,-689.485948,-1628.453072,8956.491898
2673.997376,-612.876398,-370.102971,9474.636058
2673.997705,1302.362347,-444.123565,10510.924376
2673.998034,2298.286494,444.123565,8142.265362
2673.998363,2757.943793,1110.308913,6957.935855
2673.998692,2068.457845,1480.411884,7328.038826
2673.999022,3064.381992,592.164754,8882.471304
2673.999351,2911.162892,1702.473667,7624.121203
2673.999680,2068.457845,444.123565,7994.224174
2674.000009,-306.438199,-592.164754,8808.450710
2674.000338,-1532.190996,-1184.329507,9770.718434
2674.000667,-1608.800546,-2442.679609,10584.944971
2674.000996,-2911.162892,-2220.617826,9548.656652
2674.001325,-3447.429741,-2146.597232,10807.006753
2674.001655,-2987.772442,-2664.741391,10436.903782
2674.001984,-1838.629195,-2072.576638,9918.759623
2674.002313,-1225.752797,-1332.370696,9178.553681
2674.002642,-1072.533697,-2072.576638,9326.594869
2674.002971,536.266849,-1332.370696,9696.697840
2674.003300,2451.505594,-0.000000,7920.203579
2674.003629,3447.429741,666.185348,6809.894666
2674.003958,2221.676944,1850.514855,7179.997637
2674.004288,2528.115143,1332.370696,7994.224174
2674.004617,2987.772442,2220.617826,7550.100608
2674.004946,2757.943793,2146.597232,7105.977043
2674.005275,995.924147,1110.308913,8512.368333
2674.005604,0.000000,-222.061783,10140.821405
2674.005933,-1378.971896,-814.226536,10066.800811
2674.006262,-1838.629195,-962.267725,9474.636058
2674.006592,-2681.334243,-296.082377,9474.636058
2674.006921,-2451.505594,-1776.494261,10584.944971
2674.007250,-1838.629195,-1184.329507,10510.924376
2674.007579,-306.438199,-740.205942,9696.697840
2674.007908,-229.828649,-1110.308913,9030.512492
2674.008237,0.000000,-74.020594,9622.677246
2674.008566,2451.505594,592.164754,9474.636058
2674.008895,3524.039291,2368.659014,7624.121203
2674.009225,2451.505594,2368.659014,7772.162391
2674.009554,2298.286494,1702.473667,8734.430116
2674.009883,3983.696590,1998.556043,8586.388927
2674.010212,3524.039291,3108.864956,6957.935855
2674.010541,2451.505594,1554.432478,7698.141797
2674.010870,383.047749,1554.432478,9178.553681
2674.011199,-306.438199,-1850.514855,10362.883188
2674.011529,-1149.143247,-1110.308913,9474.636058
2674.011858,-2604.724693,-1554.432478,9770.718434
2674.012187,-3370.820191,-2442.679609,11029.068536
2674.012516,-2987.772442,-2812.782580,11473.192101
2674.012845,-1302.362347,-1998.556043,10510.924376
2674.013174,-1608.800546,-1480.411884,8660.409521
2674.013503,-995.924147,-592.164754,10066.800811
2674.013832,919.314598,-222.061783,9918.759623
2674.014162,2374.896044,962.267725,7994.224174
2674.014491,2911.162892,1332.370696,7105.977043
2674.014820,1685.410096,1480.411884,7328.038826
2674.015149,2757.943793,740.205942,8364.327145
2674.015478,2987.772442,1554.432478,7920.203579
2674.015807,1608.800546,740.205942,7254.018232
2674.016136,-306.438199,-370.102971,8882.471304
2674.016465,-689.485948,-1258.350101,10140.821405
2674.016795,-1149.143247,-1702.473667,9474.636058
2674.017124,-2451.505594,-1702.473667,8956.491898
2674.017453,-3064.381992,-1480.411884,10288.862594
2674.017782,-2451.505594,-2886.803174,11251.130318
2674.018111,-995.924147,-1776.494261,9696.697840
2674.018440,-766.095498,-1406.391290,8216.285956
2674.018769,-689.485948,-888.247130,9696.697840
2674.019099,1072.533697,-518.144159,10140.821405
2674.019428,2604.724693,962.267725,7772.162391
2674.019757,3217.601092,1776.494261,7031.956449
2674.020086,2451.505594,2294.638420,8142.265362
2674.020415,2834.553343,740.205942,8586.388927
2674.020744,3830.477490,1702.473667,7402.059420
2674.021073,3064.381992,1332.370696,7402.059420
2674.021402,842.705048,-0.000000,8956.491898
2674.021732,229.828649,-74.020594,9844.739029
2674.022061,-229.828649,-1332.370696,10584.944971
2674.022390,-1225.752797,-1628.453072,9474.636058
2674.022719,-1915.238745,-740.205942,9622.677246
2674.023048,-1302.362347,-2368.659014,10881.027347
2674.023377,-995.924147,-1554.432478,9844.739029
2674.023706,0.000000,-888.247130,9104.533087
2674.024036,0.000000,-1480.411884,9992.780217
2674.024365,383.047749,-74.020594,9844.739029
2674.024694,2451.505594,222.061783,8734.430116
2674.025023,2374.896044,1184.329507,6957.935855
2674.025352,1685.410096,1480.411884,7994.224174
2674.025681,2068.457845,1110.308913,9104.533087
2674.026010,2834.553343,296.082377,8068.244768
2674.026339,1685.410096,-296.082377,8216.285956
2674.026669,-306.438199,-370.102971,9770.718434
2674.026998,-306.438199,-1776.494261,9696.697840
2674.027327,-1072.533697,-1776.494261,9622.677246
2674.027656,-1225.752797,-1184.329507,9548.656652
2674.027985,-2221.676944,-518.144159,9770.718434
2674.028314,-1991.848295,-1110.308913,10214.842000
2674.028643,-995.924147,-888.247130,9104.533087
2674.028972,-306.438199,-148.041188,8808.450710
2674.029302,-689.485948,-1110.308913,9030.512492
2674.029631,0.000000,-1184.329507,10066.800811
2674.029960,919.314598,-370.102971,9696.697840
2674.030289,1378.971896,740.205942,7476.080014
2674.030618,1225.752797,1184.329507,8068.244768
2674.030947,995.924147,-0.000000,9696.697840
2674.031276,2145.067394,-74.020594,8734.430116
2674.031606,2068.457845,1554.432478,7920.203579
2674.031935,612.876398,1332.370696,8216.285956
2674.032264,0.000000,666.185348,10066.800811
2674.032593,842.705048,296.082377,9474.636058
2674.032922,1072.533697,444.123565,8882.471304
2674.033251,-536.266849,-222.061783,9252.574275
2674.033580,-1225.752797,-888.247130,10214.842000
2674.033909,-306.438199,-1184.329507,9918.759623
2674.034239,229.828649,296.082377,8734.430116
2674.034568,-153.219100,370.102971,8808.450710
2674.034897,-383.047749,148.041188,9252.574275
2674.035226,536.266849,222.061783,9770.718434
2674.035555,1991.848295,1702.473667,8586.388927
2674.035884,689.485948,1850.514855,7920.203579
2674.036213,842.705048,666.185348,9474.636058
2674.036543,1838.629195,-0.000000,9548.656652
2674.036872,2298.286494,-0.000000,8364.327145
2674.037201,1072.533697,444.123565,8068.244768
2674.037530,383.047749,592.164754,9030.512492
2674.037859,383.047749,-0.000000,9918.759623
2674.038188,459.657299,740.205942,8660.409521
2674.038517,-383.047749,370.102971,8290.306550
2674.038846,-1225.752797,-0.000000,9326.594869
2674.039176,-919.314598,-1258.350101,10066.800811
2674.039505,-306.438199,-1258.350101,9030.512492
2674.039834,-1302.362347,-1998.556043,9326.594869
2674.040163,-1378.971896,-1850.514855,9992.780217
2674.040492,-766.095498,-1480.411884,9696.697840
2674.040821,0.000000,-296.082377,9400.615463
2674.041150,459.657299,592.164754,8290.306550
2674.041479,229.828649,-0.000000,9400.615463
2674.041808,766.095498,-592.164754,9030.512492
2674.042137,2451.505594,-444.123565,8290.306550
2674.042467,1455.581446,222.061783,8142.265362
2674.042796,229.828649,-296.082377,8956.491898
2674.043125,919.314598,-888.247130,9992.780217
2674.043454,766.095498,-222.061783,8956.491898
2674.043783,229.828649,444.123565,8290.306550
2674.044112,-842.705048,-222.061783,9474.636058
2674.044441,-229.828649,-1258.350101,10214.842000
2674.044770,153.219100,-1480.411884,9770.718434
2674.045099,-383.047749,-888.247130,8882.471304
2674.045428,-689.485948,-1406.391290,9474.636058
2674.045757,0.000000,-1554.432478,9992.780217
2674.046087,995.924147,-0.000000,9400.615463
2674.046416,1072.533697,740.205942,7698.141797
2674.046745,842.705048,814.226536,8882.471304
2674.047074,1991.848295,-74.020594,9770.718434
2674.047403,2451.505594,666.185348,8364.327145
2674.047732,2145.067394,1406.391290,7476.080014
2674.048061,689.485948,1480.411884,8290.306550
2674.048390,612.876398,-0.000000,9474.636058
2674.048719,842.705048,370.102971,9326.594869
2674.049048,229.828649,148.041188,8216.285956
2674.049377,-612.876398,-740.205942,9474.636058
2674.049707,-1915.238745,-1110.308913,9992.780217
2674.050036,76.609550,-1480.411884,9696.697840
2674.050365,-306.438199,-666.185348,8660.409521
2674.050694,-689.485948,-1258.350101,9178.553681
2674.051023,-153.219100,-1184.329507,9622.677246
2674.051352,689.485948,-518.144159,9400.615463
2674.051681,919.314598,962.267725,7624.121203
2674.052010,766.095498,666.185348,8364.327145
2674.052339,1149.143247,-0.000000,9548.656652
2674.052668,1685.410096,-0.000000,9326.594869
2674.052997,1149.143247,-0.000000,7698.141797
2674.053327,-229.828649,592.164754,8512.368333
2674.053656,0.000000,-370.102971,10214.842000
2674.053985,0.000000,-1110.308913,10288.862594
2674.054314,76.609550,-370.102971,8660.409521
2674.054643,-1302.362347,-518.144159,9178.553681
2674.054972,-1455.581446,-1110.308913,10288.862594
2674.055301,-536.266849,-1702.473667,9918.759623
2674.055630,0.000000,-962.267725,8956.491898
2674.055959,-766.095498,-518.144159,8734.430116
2674.056288,-306.438199,-296.082377,9474.636058
2674.056617,1225.752797,-0.000000,9400.615463
2674.056947,1608.800546,1184.329507,8364.327145
2674.057276,689.485948,1554.432478,8216.285956
2674.057605,612.876398,814.226536,8956.491898
2674.057934,1302.362347,148.041188,9474.636058
2674.058263,1455.581446,740.205942,8364.327145
2674.058592,0.000000,592.164754,8734.430116
2674.058921,-306.438199,370.102971,9770.718434
2674.059250,536.266849,-518.144159,9622.677246
2674.059579,153.219100,1184.329507,8956.491898
2674.059908,-229.828649,1332.370696,8512.368333
2674.060237,-306.438199,370.102971,9474.636058
2674.060567,536.266849,-74.020594,9844.739029
2674.060896,1455.581446,-74.020594,8586.388927
2674.061225,612.876398,814.226536,8808.450710
2674.061554,536.266849,222.061783,9474.636058
2674.061883,689.485948,-0.000000,9622.677246
2674.062212,1915.238745,1332.370696,7920.203579
2674.062541,919.314598,1258.350101,8364.327145
2674.062870,459.657299,814.226536,9030.512492
2674.063199,1302.362347,296.082377,8956.491898
2674.063528,1838.629195,-148.041188,8808.450710
2674.063857,612.876398,-370.102971,8364.327145
2674.064187,-612.876398,-370.102971,9770.718434
2674.064516,-306.438199,-1628.453072,9696.697840
2674.064845,76.609550,-518.144159,9030.512492
2674.065174,-383.047749,-222.061783,8956.491898
2674.065503,-766.095498,-592.164754,9474.636058
2674.065832,0.000000,-1258.350101,10288.862594
2674.066161,1455.581446,-1036.288319,9030.512492
2674.066490,229.828649,-592.164754,9030.512492
2674.066819,0.000000,-740.205942,9548.656652
2674.067148,766.095498,-962.267725,9844.739029
2674.067477,1072.533697,-518.144159,8956.491898
2674.067807,612.876398,370.102971,7624.121203
2674.068136,0.000000,-740.205942,9326.594869
2674.068465,612.876398,-1480.411884,9548.656652
2674.068794,842.705048,-962.267725,8364.327145
2674.069123,-229.828649,-592.164754,8364.327145
2674.069452,-1225.752797,-518.144159,9104.533087
2674.069781,-383.047749,-1258.350101,9992.780217
2674.070110,-383.047749,-1258.350101,8808.450710
2674.070439,-153.219100,-888.247130,8142.265362
2674.070768,-383.047749,-814.226536,9400.615463
2674.071097,612.876398,-1406.391290,9104.533087
2674.071426,995.924147,-222.061783,8808.450710
2674.071756,919.314598,518.144159,8068.244768
2674.072085,689.485948,-0.000000,8290.306550
2674.072414,689.485948,666.185348,9030.512492
2674.072743,1991.848295,1110.308913,8438.347739
2674.073072,1302.362347,1850.514855,7254.018232
2674.073401,536.266849,370.102971,8882.471304
2674.073730,842.705048,-370.102971,9474.636058
2674.074059,766.095498,-814.226536,9400.615463
2674.074388,306.438199,-0.000000,8660.409521
2674.074717,-919.314598,-370.102971,9400.615463
2674.075046,-766.095498,-814.226536,10732.986159
2674.075376,0.000000,-444.123565,9696.697840
2674.075705,229.828649,-148.041188,8586.388927
2674.076034,-229.828649,222.061783,9178.553681
2674.076363,383.047749,-296.082377,10140.821405
2674.076692,1225.752797,-148.041188,9474.636058
2674.077021,1072.533697,814.226536,8512.368333
2674.077350,766.095498,148.041188,8882.471304
2674.077679,919.314598,-0.000000,9918.759623
2674.078008,1838.629195,-148.041188,9326.594869
2674.078337,1225.752797,-0.000000,8586.388927
2674.078666,-153.219100,592.164754,8660.409521
2674.078996,-383.047749,-518.144159,9252.574275
2674.079325,0.000000,-592.164754,9474.636058
2674.079654,-612.876398,-222.061783,9104.533087
2674.079983,-1762.019645,-888.247130,9326.594869
2674.080312,-1915.238745,-1332.370696,10732.986159
2674.080641,-1072.533697,-1332.370696,10288.862594
2674.080970,-766.095498,-1110.308913,8956.491898
2674.081299,-1378.971896,-518.144159,9030.512492
2674.081628,-689.485948,-962.267725,9770.718434
2674.081957,536.266849,-814.226536,9474.636058
2674.082286,1378.971896,444.123565,7994.224174
2674.082616,995.924147,-0.000000,7772.162391
2674.082945,383.047749,740.205942,8364.327145
2674.083274,1915.238745,888.247130,9030.512492
2674.083603,2145.067394,1110.308913,7328.038826
2674.083932,612.876398,592.164754,7920.203579
2674.084261,306.438199,148.041188,8882.471304
2674.084590,383.047749,-1036.288319,9178.553681
2674.084919,0.000000,-518.144159,9104.533087
2674.085248,-153.219100,-370.102971,8660.409521
2674.085577,-995.924147,-666.185348,10288.862594
2674.085906,-612.876398,-814.226536,9770.718434
2674.086236,0.000000,-148.041188,9178.553681
2674.086565,-612.876398,666.185348,8068.244768
2674.086894,-229.828649,222.061783,9622.677246
2674.087223,919.314598,-518.144159,9326.594869
2674.087552,2145.067394,-0.000000,8142.265362
2674.087881,1915.238745,814.226536,8586.388927
2674.088210,1991.848295,-148.041188,9178.553681
2674.088539,2221.676944,962.267725,9252.574275
2674.088868,2604.724693,1480.411884,7920.203579
2674.089197,1762.019645,1850.514855,8142.265362
2674.089526,1149.143247,296.082377,9326.594869
2674.089856,1608.800546,-518.144159,9622.677246
2674.090185,842.705048,-74.020594,8882.471304
2674.090514,-612.876398,-370.102971,8734.430116
2674.090843,-1455.581446,-1036.288319,10066.800811
2674.091172,-1225.752797,-1998.556043,10584.944971
2674.091501,-1149.143247,-1184.329507,9770.718434
2674.091830,-1915.238745,-888.247130,8808.450710
2674.092159,-2068.457845,-1776.494261,10510.924376
2674.092488,-536.266849,-2146.597232,10140.821405
2674.092817,842.705048,-1406.391290,8734.430116
2674.093146,766.095498,-370.102971,8512.368333
2674.093476,459.657299,-74.020594,9030.512492
2674.093805,1762.019645,-222.061783,9474.636058
2674.094134,2757.943793,740.205942,8512.368333
2674.094463,2068.457845,814.226536,7105.977043
2674.094792,612.876398,370.102971,8734.430116
2674.095121,766.095498,-222.061783,9326.594869
2674.095450,1072.533697,-962.267725,8882.471304
2674.095779,-612.876398,-888.247130,8290.306550
2674.096108,-2298.286494,-1110.308913,9474.636058
2674.096437,-1455.581446,-2220.617826,10584.944971
2674.096766,-1762.019645,-1184.329507,9918.759623
2674.097096,-2298.286494,-1702.473667,8882.471304
2674.097425,-2221.676944,-1184.329507,9474.636058
2674.097754,-1225.752797,-1554.432478,10732.986159
2674.098083,153.219100,-592.164754,9252.574275
2674.098412,1149.143247,-518.144159,8586.388927
2674.098741,1378.971896,666.185348,8734.430116
2674.099070,2221.676944,814.226536,9104.533087
2674.099399,3907.087040,2146.597232,7698.141797
2674.099728,2757.943793,2368.659014,7550.100608
2674.100057,1915.238745,2442.679609,8586.388927
2674.100386,2221.676944,1924.535449,8290.306550
2674.100715,2757.943793,1332.370696,7920.203579
2674.101045,2681.334243,1110.308913,7624.121203
2674.101374,-689.485948,296.082377,8734.430116
2674.101703,-383.047749,-1998.556043,10140.821405
2674.102032,-995.924147,-962.267725,9770.718434
2674.102361,-1225.752797,-1406.391290,9992.780217
2674.102690,-2604.724693,-592.164754,9696.697840
2674.103019,-2221.676944,-666.185348,10955.047942
2674.103348,-1225.752797,-1184.329507,10436.903782
2674.103677,153.219100,-888.247130,9252.574275
2674.104006,842.705048,-148.041188,9548.656652
2674.104335,1991.848295,296.082377,9770.718434
2674.104665,3064.381992,1110.308913,8586.388927
2674.104994,2681.334243,1702.473667,7179.997637
2674.105323,1762.019645,1628.453072,8142.265362
2674.105652,2221.676944,1406.391290,7994.224174
2674.105981,3370.820191,2072.576638,7402.059420
2674.106310,1838.629195,1110.308913,7698.141797
2674.106639,-919.314598,-1110.308913,9474.636058
2674.106968,-2221.676944,-1776.494261,10140.821405
2674.107297,-2451.505594,-3182.885551,10658.965565
2674.107626,-2987.772442,-3478.967927,10584.944971
2674.107955,-3600.648841,-2294.638420,10955.047942
2674.108285,-2757.943793,-2960.823768,11103.089130
2674.108614,-2374.896044,-1554.432478,10362.883188
2674.108943,-536.266849,-444.123565,9326.594869
2674.109272,459.657299,-370.102971,8734.430116
2674.109601,1455.581446,888.247130,9326.594869
2674.109930,2987.772442,1554.432478,8734.430116
2674.110259,2911.162892,1628.453072,6957.935855
2674.110588,2681.334243,1850.514855,7772.162391
2674.110917,2451.505594,2146.597232,8216.285956
2674.111246,2528.115143,1776.494261,8438.347739
2674.111575,2298.286494,1924.535449,6735.874072
2674.111905,536.266849,592.164754,7920.203579
2674.112234,-1149.143247,-1184.329507,9696.697840
2674.112563,-1762.019645,-1850.514855,10658.965565
2674.112892,-1915.238745,-2738.761985,10584.944971
2674.113221,-2374.896044,-2294.638420,9696.697840
2674.113550,-2451.505594,-1998.556043,11399.171507
2674.113879,-1378.971896,-1628.453072,10362.883188
2674.114208,0.000000,-888.247130,9104.533087
2674.114537,842.705048,-0.000000,8586.388927
2674.114866,2145.067394,1184.329507,8438.347739
2674.115195,3140.991542,1480.411884,8438.347739
2674.115525,3217.601092,1776.494261,7328.038826
2674.115854,2757.943793,1702.473667,7179.997637
2674.116183,1838.629195,1332.370696,8512.368333
2674.116512,2757.943793,962.267725,7179.997637
2674.116841,2911.162892,814.226536,6883.915261
2674.117170,2451.505594,1480.411884,7328.038826
2674.117499,612.876398,-740.205942,8660.409521
2674.117828,-1225.752797,-2812.782580,10510.924376
2674.118157,-1685.410096,-2072.576638,9992.780217
2674.118486,-2987.772442,-2220.617826,10288.862594
2674.118815,-3600.648841,-3849.070898,11621.233289
2674.119145,-3830.477490,-2442.679609,11621.233289
2674.119474,-1838.629195,-3108.864956,10362.883188
2674.119803,-1608.800546,-740.205942,9326.594869
2674.120132,0.000000,-1406.391290,9400.615463
2674.120461,2068.457845,-592.164754,10510.924376
2674.120790,3753.867940,1554.432478,7476.080014
2674.121119,2987.772442,1406.391290,6957.935855
2674.121448,1455.581446,962.267725,7624.121203
2674.121777,2451.505594,1554.432478,7476.080014
2674.122106,3370.820191,1998.556043,8216.285956
2674.122435,2604.724693,1184.329507,7698.141797
2674.122765,995.924147,1258.350101,7328.038826
2674.123094,-536.266849,-1110.308913,10288.862594
2674.123423,-1072.533697,-1776.494261,10584.944971
2674.123752,-2987.772442,-666.185348,9844.739029
2674.124081,-3217.601092,-2516.700203,11325.150913
2674.124410,-3447.429741,-1628.453072,10584.944971
2674.124739,-1915.238745,-1480.411884,11695.253884
2674.125068,-1532.190996,-370.102971,9104.533087
2674.125397,-842.705048,-444.123565,9770.718434
2674.125726,995.924147,222.061783,9770.718434
2674.126055,3600.648841,1776.494261,8364.327145
2674.126385,3064.381992,2442.679609,7328.038826
2674.126714,1838.629195,1850.514855,7476.080014
2674.127043,2757.943793,2146.597232,8586.388927
2674.127372,3677.258390,1850.514855,7994.224174
2674.127701,3064.381992,740.205942,7254.018232
2674.128030,1225.752797,2442.679609,7476.080014
2674.128359,1455.581446,1702.473667,7994.224174
2674.128688,1149.143247,222.061783,9474.636058
2674.129017,-1455.581446,-740.205942,10066.800811
2674.129346,-1915.238745,-1702.473667,9918.759623
2674.129675,-2757.943793,-1258.350101,11695.253884
2674.130004,-2451.505594,-3923.091493,11917.315666
2674.130334,-3907.087040,-1628.453072,9104.533087
2674.130663,-1915.238745,-2072.576638,10510.924376
2674.130992,-1302.362347,-888.247130,10214.842000
2674.131321,1072.533697,-370.102971,9548.656652
2674.131650,2604.724693,962.267725,7328.038826
2674.131979,2604.724693,2368.659014,7402.059420
2674.132308,2221.676944,1850.514855,8734.430116
2674.132637,2604.724693,1258.350101,7550.100608
2674.132966,3217.601092,2146.597232,7920.203579
2674.133295,2221.676944,1184.329507,7920.203579
2674.133624,1455.581446,1628.453072,7476.080014
2674.133954,459.657299,-0.000000,8882.471304
2674.134283,-1149.143247,-3256.906145,9918.759623
2674.134612,-2834.553343,-74.020594,8586.388927
2674.134941,-2834.553343,-3108.864956,12139.377449
2674.135270,-3217.601092,-2886.803174,11103.089130
2674.135599,-2604.724693,-1776.494261,9918.759623
2674.135928,-2068.457845,-2294.638420,9918.759623
2674.136257,-1608.800546,-1850.514855,11103.089130
2674.136586,229.828649,-1406.391290,9696.697840
2674.136915,2911.162892,-0.000000,7846.182985
2674.137244,3370.820191,2146.597232,6513.812290
2674.137574,2451.505594,1036.288319,8586.388927
2674.137903,2987.772442,1036.288319,7698.141797
2674.138232,3294.210641,2590.720797,7105.977043
2674.138561,2451.505594,2072.576638,7550.100608
2674.138890,1762.019645,1628.453072,7846.182985
2674.139219,1915.238745,1332.370696,8512.368333
2674.139548,766.095498,-518.144159,9104.533087
2674.139877,-1762.019645,-1480.411884,9918.759623
2674.140206,-2145.067394,-2738.761985,10214.842000
2674.140535,-1532.190996,-2442.679609,11769.274478
2674.140864,-1149.143247,-3404.947333,10584.944971
2674.141194,-2757.943793,-1850.514855,9178.553681
2674.141523,-1762.019645,-2590.720797,10807.006753
2674.141852,0.000000,-296.082377,9918.759623
2674.142181,2145.067394,592.164754,8290.306550
2674.142510,2987.772442,1776.494261,7179.997637
2674.142839,2604.724693,962.267725,8290.306550
2674.143168,2681.334243,740.205942,9326.594869
2674.143497,3677.258390,1110.308913,6513.812290
2674.143826,2681.334243,1258.350101,7550.100608
2674.144155,1532.190996,1332.370696,7476.080014
2674.144484,2451.505594,1480.411884,8364.327145
2674.144813,842.705048,296.082377,7402.059420
2674.145142,-1225.752797,-2516.700203,9622.677246
2674.145471,-2757.943793,-1184.329507,9474.636058
2674.145800,-2451.505594,-3775.050304,11547.212695
2674.146129,-2451.505594,-2812.782580,11103.089130
2674.146458,-2757.943793,-2516.700203,9622.677246
2674.146787,-2451.505594,-1924.535449,10362.883188
2674.147117,-1378.971896,-1406.391290,10955.047942
2674.147446,689.485948,-592.164754,9474.636058
2674.147775,1915.238745,740.205942,7846.182985
2674.148104,2298.286494,1110.308913,7476.080014
2674.148433,2834.553343,1258.350101,8660.409521
2674.148762,2528.115143,296.082377,7254.018232
2674.149091,2451.505594,2072.576638,7031.956449
2674.149420,1225.752797,1702.473667,7476.080014
2674.149749,1149.143247,296.082377,9326.594869
2674.150078,306.438199,-888.247130,9474.636058
2674.150407,-842.705048,-2368.659014,9252.574275
2674.150736,-2451.505594,-962.267725,9770.718434
2674.151065,-3064.381992,-3256.906145,11769.274478
2674.151394,-2451.505594,-1776.494261,10288.862594
2674.151723,-1302.362347,-1702.473667,9918.759623
2674.152052,-1455.581446,-518.144159,9326.594869
2674.152381,-383.047749,-1184.329507,10362.883188
2674.152710,689.485948,-296.082377,8956.491898
2674.153039,2757.943793,1850.514855,7772.162391
2674.153368,2834.553343,1258.350101,8956.491898
2674.153697,1915.238745,1110.308913,7698.141797
2674.154027,2681.334243,1480.411884,8068.244768
2674.154356,2681.334243,2590.720797,7328.038826
2674.154685,1455.581446,1332.370696,7846.182985
2674.155014,1608.800546,740.205942,8216.285956
2674.155343,612.876398,-1110.308913,9918.759623
2674.155672,0.000000,-1776.494261,10510.924376
2674.156001,-1838.629195,-296.082377,9400.615463
2674.156330,-2298.286494,-2960.823768,11399.171507
2674.156659,-1991.848295,-1332.370696,9474.636058
2674.156988,-919.314598,-148.041188,9918.759623
2674.157317,-995.924147,-592.164754,9400.615463
2674.157646,-689.485948,518.144159,9992.780217
2674.157975,1149.143247,-0.000000,9474.636058
2674.158304,2068.457845,1850.514855,7179.997637
2674.158633,1532.190996,2294.638420,8142.265362
2674.158962,1455.581446,1332.370696,8438.347739
2674.159291,1991.848295,962.267725,8364.327145
2674.159620,1762.019645,962.267725,7994.224174
2674.159949,612.876398,740.205942,8068.244768
2674.160278,459.657299,222.061783,9770.718434
2674.160607,459.657299,-1406.391290,9474.636058
2674.160937,-383.047749,-444.123565,9104.533087
2674.161266,-1532.190996,-222.061783,9326.594869
2674.161595,-2221.676944,-814.226536,9918.759623
2674.161924,-1608.800546,-1406.391290,10658.965565
2674.162253,76.609550,-1110.308913,9252.574275
2674.162582,-536.266849,-666.185348,8586.388927
2674.162911,-536.266849,-666.185348,9844.739029
2674.163240,612.876398,-1184.329507,10362.883188
2674.163569,1455.581446,-74.020594,8734.430116
2674.163898,919.314598,666.185348,7550.100608
2674.164227,1608.800546,518.144159,8512.368333
2674.164556,2145.067394,148.041188,8956.491898
2674.164885,2451.505594,-0.000000,8068.244768
2674.165214,1302.362347,296.082377,8290.306550
2674.165543,459.657299,148.041188,9178.553681
2674.165872,459.657299,-592.164754,9696.697840
2674.166201,536.266849,-592.164754,9548.656652
2674.166530,-689.485948,-74.020594,8882.471304
2674.166859,-459.657299,-0.000000,9770.718434
2674.167188,229.828649,-1554.432478,9844.739029
2674.167517,459.657299,-74.020594,9030.512492
2674.167847,459.657299,-0.000000,8734.430116
2674.168176,0.000000,-0.000000,8808.450710
2674.168505,536.266849,-148.041188,9474.636058
2674.168834,1072.533697,518.144159,9104.533087
2674.169163,1455.581446,888.247130,7550.100608
2674.169492,919.314598,518.144159,9252.574275
2674.169821,1455.581446,-518.144159,9326.594869
2674.170150,1685.410096,-74.020594,8734.430116
2674.170479,1225.752797,-0.000000,8438.347739
2674.170808,459.657299,-518.144159,9474.636058
2674.171137,689.485948,-444.123565,9474.636058
2674.171466,536.266849,-0.000000,9030.512492
2674.171795,229.828649,-74.020594,8512.368333
2674.172124,-919.314598,-0.000000,9252.574275
2674.172453,-536.266849,-592.164754,9474.636058
2674.172782,76.609550,-962.267725,9474.636058
2674.173111,0.000000,-1258.350101,8808.450710
2674.173440,-689.485948,-1702.473667,9844.739029
2674.173769,-689.485948,-1554.432478,9770.718434
2674.174098,306.438199,-1998.556043,10140.821405
2674.174427,0.000000,-148.041188,8142.265362
2674.174757,0.000000,-444.123565,8142.265362
2674.175086,689.485948,-888.247130,9474.636058
2674.175415,1302.362347,-444.123565,8734.430116
2674.175744,995.924147,-370.102971,8216.285956
2674.176073,0.000000,-740.205942,8734.430116
2674.176402,153.219100,-1702.473667,10140.821405
2674.176731,459.657299,-1332.370696,9474.636058
2674.177060,0.000000,-740.205942,7920.203579
2674.177389,-842.705048,370.102971,8808.450710
2674.177718,-459.657299,-74.020594,9474.636058
2674.178047,76.609550,-740.205942,8956.491898
2674.178376,0.000000,-814.226536,7994.224174
2674.178705,-1378.971896,-1036.288319,9252.574275
2674.179034,-689.485948,-1110.308913,9548.656652
2674.179363,459.657299,-814.226536,9326.594869
2674.179692,612.876398,-0.000000,8512.368333
2674.180021,383.047749,-0.000000,8882.471304
2674.180350,1455.581446,222.061783,9400.615463
2674.180679,2374.896044,370.102971,8882.471304
2674.181008,2374.896044,2072.576638,7624.121203
2674.181337,1225.752797,2368.659014,7698.141797
2674.181667,1225.752797,1702.473667,9474.636058
2674.181996,1378.971896,1184.329507,9326.594869
2674.182325,919.314598,1184.329507,7994.224174
2674.182654,0.000000,814.226536,9178.553681
2674.182983,-229.828649,444.123565,9844.739029
2674.183312,0.000000,-592.164754,10214.842000
2674.183641,229.828649,518.144159,9178.553681
2674.183970,-995.924147,-148.041188,8882.471304
2674.184299,-612.876398,518.144159,9474.636058
2674.184628,229.828649,-0.000000,9992.780217
2674.184957,383.047749,-0.000000,8586.388927
2674.185286,1302.362347,888.247130,8734.430116
