#time,accel_x,accel_y,accel_z
2486.007343,383.047749,-518.144159,9252.574275
2486.007672,842.705048,-444.123565,9104.533087
2486.008001,383.047749,-444.123565,9252.574275
2486.008331,536.266849,-370.102971,9326.594869
2486.008660,306.438199,-296.082377,9104.533087
2486.008989,459.657299,-296.082377,9178.553681
2486.009318,536.266849,-222.061783,9252.574275
2486.009647,459.657299,-518.144159,9178.553681
2486.009977,383.047749,-444.123565,9400.615463
2486.010306,536.266849,-222.061783,9104.533087
2486.010635,689.485948,-370.102971,9326.594869
2486.010964,459.657299,-0.000000,9326.594869
2486.011293,229.828649,-148.041188,9252.574275
2486.011623,153.219100,-0.000000,9030.512492
2486.011952,306.438199,-74.020594,9104.533087
2486.012281,459.657299,-740.205942,9178.553681
2486.012610,383.047749,-592.164754,9104.533087
2486.012940,306.438199,-74.020594,9178.553681
2486.013269,229.828649,-148.041188,8808.450710
2486.013598,536.266849,-0.000000,8882.471304
2486.013927,536.266849,-0.000000,8956.491898
2486.014256,229.828649,-148.041188,8882.471304
2486.014586,0.000000,-296.082377,9178.553681
2486.014915,536.266849,-222.061783,8956.491898
2486.015244,459.657299,-222.061783,8808.450710
2486.015573,76.609550,-0.000000,8956.491898
2486.015902,229.828649,-74.020594,8956.491898
2486.016232,153.219100,-0.000000,9104.533087
2486.016561,229.828649,-296.082377,9104.533087
2486.016890,536.266849,-518.144159,8882.471304
2486.017219,229.828649,-370.102971,9178.553681
2486.017548,383.047749,-592.164754,9178.553681
2486.017878,766.095498,-444.123565,9326.594869
2486.018207,229.828649,-222.061783,9252.574275
2486.018536,612.876398,-74.020594,9104.533087
2486.018865,536.266849,-0.000000,9178.553681
2486.019194,536.266849,-74.020594,8956.491898
2486.019524,306.438199,-222.061783,9104.533087
2486.019853,306.438199,-296.082377,9400.615463
2486.020182,459.657299,-0.000000,9030.512492
2486.020511,-306.438199,148.041188,9622.677246
2486.020841,229.828649,-222.061783,9326.594869
2486.021170,0.000000,-296.082377,9178.553681
2486.021499,153.219100,-222.061783,9326.594869
2486.021828,153.219100,-148.041188,9326.594869
2486.022157,383.047749,-740.205942,9104.533087
2486.022487,-383.047749,-0.000000,9252.574275
2486.022816,229.828649,-148.041188,8882.471304
2486.023145,612.876398,-74.020594,9030.512492
2486.023474,383.047749,148.041188,9030.512492
2486.023803,383.047749,-0.000000,9030.512492
2486.024133,689.485948,-74.020594,8734.430116
2486.024462,306.438199,-0.000000,8808.450710
2486.024791,229.828649,-518.144159,8956.491898
2486.025120,229.828649,-222.061783,8956.491898
2486.025449,229.828649,-148.041188,8956.491898
2486.025779,383.047749,-148.041188,8956.491898
2486.026108,153.219100,-222.061783,8808.450710
2486.026437,383.047749,-0.000000,8956.491898
2486.026766,612.876398,-222.061783,8808.450710
2486.027095,306.438199,-148.041188,8956.491898
2486.027425,612.876398,-222.061783,8586.388927
2486.027754,383.047749,-0.000000,8956.491898
2486.028083,229.828649,-74.020594,8808.450710
2486.028412,459.657299,-74.020594,9030.512492
2486.028742,383.047749,-222.061783,9252.574275
2486.029071,76.609550,-444.123565,9252.574275
2486.029400,612.876398,-518.144159,9326.594869
2486.029729,76.609550,-296.082377,9104.533087
2486.030058,229.828649,-296.082377,9252.574275
2486.030388,229.828649,-222.061783,9252.574275
2486.030717,383.047749,-222.061783,9178.553681
2486.031046,536.266849,-148.041188,9400.615463
2486.031375,766.095498,-148.041188,9104.533087
2486.031704,0.000000,-148.041188,9326.594869
2486.032034,383.047749,-296.082377,9178.553681
2486.032363,459.657299,-74.020594,9178.553681
2486.032692,229.828649,-222.061783,9326.594869
2486.033021,153.219100,-518.144159,9696.697840
2486.033350,1225.752797,-1258.350101,9622.677246
2486.033680,1072.533697,-814.226536,9474.636058
2486.034009,1302.362347,-592.164754,9474.636058
2486.034338,2068.457845,-444.123565,9178.553681
2486.034667,2374.896044,296.082377,8734.430116
2486.034996,3524.039291,-0.000000,9030.512492
2486.035326,4213.525239,-222.061783,8586.388927
2486.035655,3830.477490,296.082377,8068.244768
2486.035984,3524.039291,814.226536,8586.388927
2486.036313,3140.991542,-0.000000,8290.306550
2486.036642,3217.601092,-74.020594,9474.636058
2486.036972,2451.505594,-296.082377,8734.430116
2486.037301,1302.362347,-666.185348,9548.656652
2486.037630,2068.457845,-1998.556043,9844.739029
2486.037959,2528.115143,-1184.329507,9400.615463
2486.038289,2528.115143,-592.164754,9474.636058
2486.038618,2221.676944,-1850.514855,9918.759623
2486.038947,2911.162892,-518.144159,8808.450710
2486.039276,4136.915689,592.164754,9474.636058
2486.039605,5056.230287,666.185348,7105.977043
2486.039935,4443.353888,1258.350101,8512.368333
2486.040264,5286.058936,1406.391290,9696.697840
2486.040593,4903.011187,740.205942,7328.038826
2486.040922,4596.572988,814.226536,8882.471304
2486.041251,3370.820191,-0.000000,8290.306550
2486.041581,2604.724693,518.144159,8882.471304
2486.041910,1532.190996,-740.205942,9474.636058
2486.042239,1378.971896,-888.247130,9696.697840
2486.042568,1072.533697,-1406.391290,10140.821405
2486.042897,689.485948,-1480.411884,9548.656652
2486.043227,1072.533697,-666.185348,10140.821405
2486.043556,1608.800546,-740.205942,10288.862594
2486.043885,2681.334243,370.102971,7994.224174
2486.044214,3370.820191,222.061783,9696.697840
2486.044543,4213.525239,1332.370696,8660.409521
2486.044873,4366.744339,518.144159,8142.265362
2486.045202,4366.744339,962.267725,8438.347739
2486.045531,4443.353888,592.164754,9178.553681
2486.045860,3983.696590,296.082377,8808.450710
2486.046190,3447.429741,-1110.308913,9400.615463
2486.046519,2528.115143,-888.247130,9474.636058
2486.046848,2298.286494,-1480.411884,10584.944971
2486.047177,2068.457845,-1628.453072,10140.821405
2486.047506,1838.629195,-1480.411884,9992.780217
2486.047836,2834.553343,-740.205942,9548.656652
2486.048165,3370.820191,222.061783,9400.615463
2486.048494,3217.601092,814.226536,8142.265362
2486.048823,3677.258390,1998.556043,8216.285956
2486.049152,3830.477490,2516.700203,7846.182985
2486.049482,3217.601092,2516.700203,6957.935855
2486.049811,3140.991542,2072.576638,7550.100608
2486.050140,2374.896044,1998.556043,7846.182985
2486.050469,1378.971896,-0.000000,7476.080014
2486.050798,536.266849,-1184.329507,9326.594869
2486.051128,0.000000,-1998.556043,9770.718434
2486.051457,-459.657299,-2590.720797,10362.883188
2486.051786,-536.266849,-3182.885551,10510.924376
2486.052115,0.000000,-2960.823768,10658.965565
2486.052444,689.485948,-2442.679609,10658.965565
2486.052774,1608.800546,-1110.308913,9918.759623
2486.053103,2528.115143,148.041188,9696.697840
2486.053432,3447.429741,1776.494261,8512.368333
2486.053761,4213.525239,3034.844362,7402.059420
2486.054091,3907.087040,3627.009116,7402.059420
2486.054420,2451.505594,3701.029710,7550.100608
2486.054749,1838.629195,2368.659014,7105.977043
2486.055078,383.047749,1184.329507,8290.306550
2486.055407,-1532.190996,-888.247130,9178.553681
2486.055737,-2145.067394,-3256.906145,11177.109724
2486.056066,-2374.896044,-3552.988522,9844.739029
2486.056395,-2528.115143,-3256.906145,9918.759623
2486.056724,-1915.238745,-3330.926739,10066.800811
2486.057053,-1915.238745,-2590.720797,10362.883188
2486.057383,-1608.800546,-1776.494261,12287.418637
2486.057712,-842.705048,-518.144159,10510.924376
2486.058041,459.657299,296.082377,9622.677246
2486.058370,0.000000,2072.576638,8512.368333
2486.058699,76.609550,2294.638420,9474.636058
2486.059029,0.000000,1258.350101,10140.821405
2486.059358,2757.943793,1850.514855,8660.409521
2486.059687,4136.915689,2294.638420,5847.626942
2486.060016,4903.011187,1628.453072,5107.421000
2486.060345,4290.134789,1480.411884,5329.482782
2486.060675,3294.210641,444.123565,6735.874072
2486.061004,2528.115143,-962.267725,7402.059420
2486.061333,1149.143247,-1702.473667,8364.327145
2486.061662,-383.047749,-2886.803174,9696.697840
2486.061991,-2221.676944,-3330.926739,10807.006753
2486.062321,-1838.629195,-2590.720797,10732.986159
2486.062650,-1685.410096,-1628.453072,10140.821405
2486.062979,-995.924147,-518.144159,10584.944971
2486.063308,-1149.143247,1258.350101,10510.924376
2486.063638,-842.705048,1998.556043,9992.780217
2486.063967,-1225.752797,1036.288319,9548.656652
2486.064296,0.000000,-444.123565,9252.574275
2486.064625,-842.705048,-1036.288319,9622.677246
2486.064954,-1455.581446,-1332.370696,9622.677246
2486.065284,-1072.533697,-2072.576638,9104.533087
2486.065613,-459.657299,-1184.329507,9030.512492
2486.065942,0.000000,-814.226536,8586.388927
2486.066271,383.047749,-740.205942,8216.285956
2486.066600,689.485948,-0.000000,8216.285956
2486.066930,1608.800546,222.061783,8216.285956
2486.067259,1762.019645,1036.288319,8438.347739
2486.067588,1762.019645,1702.473667,8808.450710
2486.067917,1762.019645,740.205942,9178.553681
2486.068246,2145.067394,888.247130,8956.491898
2486.068576,2145.067394,814.226536,8956.491898
2486.068905,1838.629195,444.123565,9178.553681
2486.069234,1762.019645,-74.020594,9252.574275
2486.069563,2145.067394,444.123565,9844.739029
2486.069892,995.924147,592.164754,9474.636058
2486.070222,766.095498,-0.000000,8734.430116
2486.070551,0.000000,-0.000000,8216.285956
2486.070880,0.000000,-148.041188,8808.450710
2486.071209,0.000000,-740.205942,9252.574275
2486.071539,-459.657299,-888.247130,8586.388927
2486.071868,-306.438199,-1110.308913,9770.718434
2486.072197,-459.657299,-888.247130,9400.615463
2486.072526,-536.266849,-888.247130,9474.636058
2486.072855,-536.266849,-888.247130,9696.697840
2486.073185,-383.047749,-740.205942,9918.759623
2486.073514,-612.876398,-0.000000,9918.759623
2486.073843,229.828649,-222.061783,9696.697840
2486.074172,1378.971896,592.164754,8808.450710
2486.074501,1455.581446,1480.411884,8512.368333
2486.074831,1455.581446,1480.411884,7772.162391
2486.075160,1762.019645,1406.391290,7476.080014
2486.075489,1685.410096,888.247130,7772.162391
2486.075818,1838.629195,-0.000000,8068.244768
2486.076147,1532.190996,-1776.494261,8512.368333
2486.076477,383.047749,-2146.597232,8956.491898
2486.076806,-536.266849,-2146.597232,9252.574275
2486.077135,-1072.533697,-2072.576638,9770.718434
2486.077464,0.000000,-1924.535449,10066.800811
2486.077793,-153.219100,-0.000000,9622.677246
2486.078123,-229.828649,-222.061783,10140.821405
2486.078452,842.705048,296.082377,9770.718434
2486.078781,0.000000,1702.473667,9474.636058
2486.079110,0.000000,1332.370696,8068.244768
2486.079440,919.314598,1924.535449,8364.327145
2486.079769,229.828649,-0.000000,8142.265362
2486.080098,0.000000,814.226536,7920.203579
2486.080427,-306.438199,-1850.514855,9400.615463
2486.080756,-1455.581446,-2368.659014,8734.430116
2486.081086,-919.314598,-2664.741391,9326.594869
2486.081415,-612.876398,-1702.473667,9474.636058
2486.081744,-842.705048,-1554.432478,9104.533087
2486.082073,-229.828649,-0.000000,9178.553681
2486.082402,0.000000,962.267725,9400.615463
2486.082732,306.438199,1110.308913,9474.636058
2486.083061,229.828649,1480.411884,8586.388927
2486.083390,229.828649,1110.308913,9178.553681
2486.083719,76.609550,592.164754,10288.862594
2486.084048,919.314598,-74.020594,8956.491898
2486.084377,1532.190996,-296.082377,8512.368333
2486.084707,1991.848295,-370.102971,8586.388927
2486.085036,1685.410096,-0.000000,8512.368333
2486.085365,2681.334243,-370.102971,8660.409521
2486.085694,2451.505594,-148.041188,8068.244768
2486.086023,2145.067394,-370.102971,8290.306550
2486.086353,1149.143247,-148.041188,8808.450710
2486.086682,383.047749,-296.082377,8956.491898
2486.087011,-459.657299,-0.000000,9474.636058
2486.087340,-919.314598,-74.020594,9696.697840
2486.087669,-995.924147,-74.020594,10288.862594
2486.087999,-842.705048,-1406.391290,9992.780217
2486.088328,-842.705048,-296.082377,9548.656652
2486.088657,-766.095498,-740.205942,10066.800811
2486.088986,-995.924147,-962.267725,9844.739029
2486.089315,-842.705048,-444.123565,9918.759623
2486.089645,-306.438199,-0.000000,9326.594869
2486.089974,-383.047749,296.082377,8956.491898
2486.090303,0.000000,1110.308913,9030.512492
2486.090632,76.609550,962.267725,8586.388927
2486.090961,612.876398,888.247130,8142.265362
2486.091291,612.876398,592.164754,8364.327145
2486.091620,1072.533697,-0.000000,8734.430116
2486.091949,1838.629195,-518.144159,8734.430116
2486.092278,1302.362347,-518.144159,8142.265362
2486.092607,1225.752797,-1184.329507,8512.368333
2486.092936,1225.752797,-740.205942,8808.450710
2486.093266,1378.971896,-296.082377,9400.615463
2486.093595,1532.190996,-296.082377,8808.450710
2486.093924,1149.143247,-74.020594,8956.491898
2486.094253,1149.143247,444.123565,9252.574275
2486.094582,76.609550,888.247130,8956.491898
2486.094912,689.485948,444.123565,9252.574275
2486.095241,76.609550,370.102971,8808.450710
2486.095570,0.000000,222.061783,8882.471304
2486.095899,-459.657299,-370.102971,8882.471304
2486.096228,-995.924147,-1258.350101,9474.636058
2486.096558,-995.924147,-1850.514855,9252.574275
2486.096887,-766.095498,-2664.741391,9326.594869
2486.097216,-689.485948,-1850.514855,9548.656652
2486.097545,-766.095498,-1406.391290,9918.759623
2486.097874,-612.876398,-740.205942,9770.718434
2486.098204,-383.047749,-74.020594,9622.677246
2486.098533,229.828649,370.102971,9252.574275
2486.098862,536.266849,1184.329507,8586.388927
2486.099191,383.047749,962.267725,8956.491898
2486.099520,995.924147,888.247130,9252.574275
2486.099850,1455.581446,592.164754,8364.327145
2486.100179,1915.238745,222.061783,7698.141797
2486.100508,2451.505594,-0.000000,7994.224174
2486.100837,2298.286494,-370.102971,7698.141797
2486.101166,2068.457845,-0.000000,8586.388927
2486.101495,1991.848295,-370.102971,8808.450710
2486.101825,1915.238745,-296.082377,7772.162391
2486.102154,1149.143247,-222.061783,9178.553681
2486.102483,536.266849,-0.000000,9178.553681
2486.102812,0.000000,-0.000000,9326.594869
2486.103141,-459.657299,-0.000000,9696.697840
2486.103471,0.000000,-444.123565,9622.677246
2486.103800,-383.047749,-148.041188,9770.718434
2486.104129,-306.438199,-222.061783,9326.594869
2486.104458,-612.876398,-592.164754,9474.636058
2486.104787,-689.485948,-962.267725,9474.636058
2486.105117,-536.266849,-740.205942,9178.553681
2486.105446,-383.047749,-740.205942,9326.594869
2486.105775,-383.047749,-370.102971,9178.553681
2486.106104,0.000000,148.041188,8586.388927
2486.106433,153.219100,-0.000000,9252.574275
2486.106763,306.438199,296.082377,8882.471304
2486.107092,153.219100,444.123565,8882.471304
2486.107421,766.095498,148.041188,9252.574275
2486.107750,1072.533697,148.041188,8586.388927
2486.108079,1762.019645,-0.000000,8364.327145
2486.108409,1838.629195,-296.082377,8364.327145
2486.108738,1532.190996,-444.123565,8660.409521
2486.109067,1455.581446,-888.247130,9252.574275
2486.109396,1838.629195,-518.144159,9104.533087
2486.109725,842.705048,-444.123565,9548.656652
2486.110055,459.657299,-0.000000,9474.636058
2486.110384,0.000000,-0.000000,9326.594869
2486.110713,-229.828649,-0.000000,9326.594869
2486.111042,-766.095498,-0.000000,9178.553681
2486.111371,-459.657299,222.061783,9400.615463
2486.111700,-536.266849,-296.082377,9474.636058
2486.112030,-383.047749,-222.061783,9326.594869
2486.112359,-536.266849,-1036.288319,8956.491898
2486.112688,-766.095498,-1258.350101,9400.615463
2486.113017,-536.266849,-1036.288319,9474.636058
2486.113346,-536.266849,-962.267725,8734.430116
2486.113676,0.000000,-444.123565,9474.636058
2486.114005,0.000000,-370.102971,8734.430116
2486.114334,76.609550,-0.000000,8734.430116
2486.114663,153.219100,592.164754,8586.388927
2486.114992,536.266849,740.205942,8586.388927
2486.115322,919.314598,740.205942,8364.327145
2486.115651,1302.362347,222.061783,8216.285956
2486.115980,1378.971896,-74.020594,8438.347739
2486.116309,1915.238745,-518.144159,7920.203579
2486.116638,1762.019645,-814.226536,8364.327145
2486.116968,1991.848295,-740.205942,8586.388927
2486.117297,1608.800546,-518.144159,8956.491898
2486.117626,1455.581446,-518.144159,9030.512492
2486.117955,1685.410096,-370.102971,9030.512492
2486.118284,1225.752797,-0.000000,9178.553681
2486.118614,612.876398,-222.061783,8808.450710
2486.118943,-306.438199,296.082377,9252.574275
2486.119272,-459.657299,-0.000000,9400.615463
2486.119601,-842.705048,-148.041188,9400.615463
2486.119930,-1149.143247,-592.164754,9474.636058
2486.120259,-1149.143247,-1332.370696,9992.780217
2486.120589,-1225.752797,-1628.453072,10140.821405
2486.120918,-1532.190996,-1480.411884,9918.759623
2486.121247,-1149.143247,-1628.453072,9770.718434
2486.121576,-842.705048,-666.185348,9918.759623
2486.121905,-536.266849,-0.000000,9326.594869
2486.122235,0.000000,592.164754,9104.533087
2486.122564,612.876398,1110.308913,8956.491898
2486.122893,1915.238745,1036.288319,7846.182985
2486.123222,2221.676944,1776.494261,7624.121203
2486.123551,2298.286494,1554.432478,8142.265362
2486.123881,2221.676944,962.267725,7994.224174
2486.124210,1608.800546,-0.000000,8290.306550
2486.124539,1149.143247,-518.144159,8512.368333
2486.124868,536.266849,-1036.288319,9326.594869
2486.125197,0.000000,-1628.453072,9918.759623
2486.125527,-766.095498,-1776.494261,9844.739029
2486.125856,-306.438199,-814.226536,9918.759623
2486.126185,-306.438199,-444.123565,9622.677246
2486.126514,0.000000,-0.000000,9104.533087
2486.126843,76.609550,814.226536,9178.553681
2486.127173,766.095498,1110.308913,8882.471304
2486.127502,766.095498,518.144159,8512.368333
2486.127831,842.705048,518.144159,8142.265362
2486.128160,153.219100,296.082377,8512.368333
2486.128489,229.828649,-518.144159,8512.368333
2486.128818,-306.438199,-1332.370696,9326.594869
2486.129148,-536.266849,-1554.432478,9548.656652
2486.129477,-612.876398,-1628.453072,9696.697840
2486.129806,-612.876398,-1406.391290,9474.636058
2486.130135,-536.266849,-888.247130,9474.636058
2486.130464,-383.047749,-222.061783,9326.594869
2486.130794,-153.219100,592.164754,8808.450710
2486.131123,76.609550,962.267725,8956.491898
2486.131452,306.438199,666.185348,9104.533087
2486.131781,689.485948,-74.020594,8882.471304
2486.132110,1915.238745,-0.000000,8882.471304
2486.132440,1838.629195,-296.082377,9104.533087
2486.132769,2298.286494,-518.144159,9030.512492
2486.133098,2068.457845,-518.144159,8586.388927
2486.133427,1915.238745,-222.061783,9030.512492
2486.133756,1838.629195,-148.041188,8882.471304
2486.134086,1455.581446,148.041188,9104.533087
2486.134415,919.314598,-0.000000,9104.533087
2486.134744,612.876398,-0.000000,9178.553681
2486.135073,-306.438199,-0.000000,8956.491898
2486.135402,-766.095498,-0.000000,8956.491898
2486.135732,-919.314598,-74.020594,9326.594869
2486.136061,-995.924147,-518.144159,9474.636058
2486.136390,-1532.190996,-962.267725,8882.471304
2486.136719,-1072.533697,-1258.350101,9770.718434
2486.137048,-1225.752797,-1184.329507,9696.697840
2486.137378,-1149.143247,-962.267725,9548.656652
2486.137707,-689.485948,-592.164754,9696.697840
2486.138036,-306.438199,-0.000000,9104.533087
2486.138365,76.609550,518.144159,9104.533087
2486.138694,1072.533697,518.144159,8808.450710
2486.139023,2451.505594,1332.370696,7920.203579
2486.139353,2451.505594,1184.329507,8068.244768
2486.139682,2834.553343,1036.288319,7476.080014
2486.140011,2451.505594,888.247130,7920.203579
2486.140340,1915.238745,148.041188,8290.306550
2486.140669,1225.752797,-370.102971,8512.368333
2486.140999,766.095498,-1554.432478,9474.636058
2486.141328,153.219100,-1702.473667,9844.739029
2486.141657,0.000000,-1184.329507,10288.862594
2486.141986,-995.924147,-1406.391290,10658.965565
2486.142315,-383.047749,-444.123565,9844.739029
2486.142645,0.000000,-0.000000,9622.677246
2486.142974,229.828649,518.144159,9474.636058
2486.143303,459.657299,1184.329507,8956.491898
2486.143632,1072.533697,370.102971,9104.533087
2486.143961,1072.533697,592.164754,8882.471304
2486.144291,842.705048,-0.000000,8882.471304
2486.144620,229.828649,-592.164754,9104.533087
2486.144949,-306.438199,-1110.308913,9474.636058
2486.145278,-842.705048,-1110.308913,9548.656652
2486.145607,-766.095498,-1258.350101,9474.636058
2486.145937,-689.485948,-592.164754,9548.656652
2486.146266,-1149.143247,-0.000000,9400.615463
2486.146595,-306.438199,518.144159,8660.409521
2486.146924,-383.047749,1184.329507,8808.450710
2486.147253,153.219100,962.267725,8956.491898
2486.147582,536.266849,518.144159,8956.491898
2486.147912,1302.362347,296.082377,8512.368333
2486.148241,1838.629195,-0.000000,8734.430116
2486.148570,2374.896044,-444.123565,8364.327145
2486.148899,2451.505594,-888.247130,8290.306550
2486.149228,2221.676944,-444.123565,8142.265362
2486.149558,2068.457845,-148.041188,8660.409521
2486.149887,1685.410096,-0.000000,8660.409521
2486.150216,1225.752797,-0.000000,8956.491898
2486.150545,612.876398,-0.000000,8956.491898
2486.150874,-229.828649,-0.000000,9252.574275
2486.151204,0.000000,-148.041188,9326.594869
2486.151533,-995.924147,-370.102971,9178.553681
2486.151862,-1225.752797,-518.144159,9474.636058
2486.152191,-1225.752797,-962.267725,9548.656652
2486.152520,-995.924147,-1406.391290,9696.697840
2486.152850,-1149.143247,-1332.370696,9844.739029
2486.153179,-1378.971896,-1406.391290,9770.718434
2486.153508,0.000000,-666.185348,9844.739029
2486.153837,-383.047749,-518.144159,9696.697840
2486.154166,0.000000,-0.000000,9474.636058
2486.154496,536.266849,740.205942,9030.512492
2486.154825,1225.752797,1184.329507,8142.265362
2486.155154,1225.752797,1554.432478,8068.244768
2486.155483,2221.676944,1406.391290,7550.100608
2486.155812,2221.676944,814.226536,7698.141797
2486.156141,1762.019645,740.205942,8142.265362
2486.156471,1149.143247,-74.020594,8734.430116
2486.156800,536.266849,-740.205942,9178.553681
2486.157129,-153.219100,-1258.350101,9474.636058
2486.157458,0.000000,-2072.576638,9696.697840
2486.157787,229.828649,-1406.391290,9918.759623
2486.158117,306.438199,-1036.288319,9474.636058
2486.158446,76.609550,-0.000000,9326.594869
2486.158775,536.266849,592.164754,8956.491898
2486.159104,459.657299,1184.329507,8660.409521
2486.159433,536.266849,740.205942,8290.306550
2486.159763,919.314598,666.185348,8438.347739
2486.160092,689.485948,-0.000000,8512.368333
2486.160421,459.657299,-444.123565,8956.491898
2486.160750,-842.705048,-1332.370696,9326.594869
2486.161079,-1072.533697,-1776.494261,9474.636058
2486.161409,-1225.752797,-1332.370696,9622.677246
2486.161738,-1149.143247,-1036.288319,9548.656652
2486.162067,-1149.143247,-296.082377,9252.574275
2486.162396,-612.876398,370.102971,9400.615463
2486.162725,0.000000,592.164754,8586.388927
2486.163055,0.000000,1036.288319,8808.450710
2486.163384,306.438199,666.185348,9400.615463
2486.163713,919.314598,-0.000000,9030.512492
2486.164042,1762.019645,-0.000000,8808.450710
2486.164371,1915.238745,-74.020594,8660.409521
2486.164701,2298.286494,-74.020594,8882.471304
2486.165030,2374.896044,-370.102971,8808.450710
2486.165359,2145.067394,-0.000000,8512.368333
2486.165688,1455.581446,296.082377,8808.450710
2486.166017,1149.143247,-0.000000,8882.471304
2486.166346,459.657299,222.061783,9104.533087
2486.166676,-306.438199,-0.000000,9770.718434
2486.167005,-766.095498,-0.000000,9400.615463
2486.167334,-1072.533697,-444.123565,9844.739029
2486.167663,-1072.533697,-296.082377,9622.677246
2486.167992,-995.924147,-888.247130,9326.594869
2486.168322,-919.314598,-1184.329507,9252.574275
2486.168651,-766.095498,-1628.453072,9474.636058
2486.168980,-383.047749,-1480.411884,9474.636058
2486.169309,-459.657299,-1480.411884,9548.656652
2486.169638,-459.657299,-666.185348,9474.636058
2486.169968,0.000000,-222.061783,8882.471304
2486.170297,612.876398,592.164754,8882.471304
2486.170626,842.705048,1258.350101,8216.285956
2486.170955,1532.190996,1628.453072,7846.182985
2486.171284,1838.629195,1776.494261,7624.121203
2486.171614,1608.800546,814.226536,8142.265362
2486.171943,1378.971896,-0.000000,8068.244768
2486.172272,766.095498,-444.123565,8512.368333
2486.172601,536.266849,-1406.391290,9030.512492
2486.172930,76.609550,-1628.453072,9400.615463
2486.173260,-229.828649,-1924.535449,9622.677246
2486.173589,76.609550,-2146.597232,9844.739029
2486.173918,612.876398,-1406.391290,9918.759623
2486.174247,0.000000,-444.123565,9474.636058
2486.174576,995.924147,444.123565,8586.388927
2486.174905,1072.533697,1110.308913,8808.450710
2486.175235,995.924147,1184.329507,8586.388927
2486.175564,919.314598,740.205942,8586.388927
2486.175893,459.657299,296.082377,9030.512492
2486.176222,0.000000,-518.144159,9252.574275
2486.176551,-766.095498,-1406.391290,9474.636058
2486.176881,-1455.581446,-1628.453072,9844.739029
2486.177210,-1378.971896,-1628.453072,10288.862594
2486.177539,-1378.971896,-1036.288319,9918.759623
2486.177868,-689.485948,-592.164754,10288.862594
2486.178197,-612.876398,-888.247130,10066.800811
2486.178527,-1532.190996,1110.308913,10140.821405
2486.178856,612.876398,592.164754,9548.656652
2486.179185,0.000000,1554.432478,8808.450710
2486.179514,1302.362347,888.247130,9622.677246
2486.179843,1991.848295,1036.288319,8734.430116
2486.180173,2911.162892,740.205942,8142.265362
2486.180502,3064.381992,666.185348,8068.244768
2486.180831,3294.210641,296.082377,8142.265362
2486.181160,2681.334243,-0.000000,8290.306550
2486.181489,2068.457845,444.123565,8660.409521
2486.181819,1455.581446,-74.020594,8808.450710
2486.182148,766.095498,-296.082377,9178.553681
2486.182477,0.000000,-148.041188,9178.553681
2486.182806,-766.095498,-222.061783,9326.594869
2486.183135,-995.924147,-518.144159,9400.615463
2486.183464,-919.314598,-148.041188,9400.615463
2486.183793,-612.876398,-148.041188,9252.574275
2486.184122,-842.705048,-814.226536,9400.615463
2486.184451,-766.095498,-1554.432478,9474.636058
2486.184780,-536.266849,-1184.329507,9400.615463
2486.185109,0.000000,-1332.370696,9622.677246
2486.185438,-306.438199,-1332.370696,9104.533087
2486.185767,-306.438199,-518.144159,9548.656652
2486.186096,536.266849,-0.000000,8808.450710
2486.186425,689.485948,518.144159,8586.388927
2486.186754,1915.238745,1110.308913,7920.203579
2486.187083,1685.410096,1258.350101,7624.121203
2486.187412,1455.581446,1480.411884,7920.203579
2486.187741,1149.143247,814.226536,7994.224174
2486.188070,995.924147,-148.041188,8290.306550
2486.188399,536.266849,-1036.288319,8734.430116
2486.188728,0.000000,-1406.391290,9696.697840
2486.189057,-306.438199,-1406.391290,9474.636058
2486.189386,0.000000,-1628.453072,9696.697840
2486.189715,306.438199,-1184.329507,9548.656652
2486.190044,536.266849,-0.000000,9474.636058
2486.190373,689.485948,592.164754,9030.512492
2486.190702,766.095498,592.164754,8956.491898
2486.191031,1072.533697,666.185348,8882.471304
2486.191360,612.876398,222.061783,8438.347739
2486.191689,0.000000,666.185348,8882.471304
2486.192018,-459.657299,-370.102971,8734.430116
2486.192347,-689.485948,-740.205942,9326.594869
2486.192676,-995.924147,-1258.350101,9770.718434
2486.193005,-1225.752797,-1628.453072,9474.636058
2486.193334,-1149.143247,-1184.329507,10066.800811
2486.193663,-1838.629195,-1036.288319,9622.677246
2486.193992,-689.485948,-370.102971,9474.636058
2486.194321,-229.828649,-222.061783,9548.656652
2486.194650,0.000000,666.185348,9178.553681
2486.194979,229.828649,962.267725,8734.430116
2486.195308,76.609550,296.082377,9326.594869
2486.195637,1149.143247,-0.000000,8956.491898
2486.195966,1991.848295,148.041188,8216.285956
2486.196295,2145.067394,222.061783,8216.285956
2486.196624,2068.457845,-74.020594,8290.306550
2486.196952,2374.896044,-222.061783,9030.512492
2486.197281,1608.800546,-222.061783,8882.471304
2486.197610,1608.800546,-444.123565,9178.553681
2486.197939,919.314598,-592.164754,9104.533087
2486.198268,0.000000,-296.082377,9474.636058
2486.198597,0.000000,-148.041188,9474.636058
2486.198926,-612.876398,370.102971,9030.512492
2486.199255,-536.266849,-74.020594,9548.656652
2486.199584,-459.657299,-222.061783,9252.574275
2486.199913,-919.314598,-0.000000,9326.594869
2486.200242,-689.485948,-1628.453072,9030.512492
2486.200571,-1149.143247,-1776.494261,9326.594869
2486.200900,-1072.533697,-888.247130,9844.739029
2486.201229,-689.485948,-1184.329507,9400.615463
2486.201558,-229.828649,-444.123565,9400.615463
2486.201887,-536.266849,-222.061783,9400.615463
2486.202216,0.000000,666.185348,8956.491898
2486.202545,383.047749,1184.329507,8882.471304
2486.202874,383.047749,1184.329507,8364.327145
2486.203203,1149.143247,1480.411884,8364.327145
2486.203532,1532.190996,1628.453072,8068.244768
2486.203861,1838.629195,666.185348,7846.182985
2486.204190,1762.019645,370.102971,8142.265362
2486.204519,1455.581446,-666.185348,8512.368333
2486.204848,1838.629195,-444.123565,8734.430116
2486.205177,1302.362347,-1036.288319,8808.450710
2486.205506,612.876398,-888.247130,9622.677246
2486.205835,459.657299,-666.185348,9548.656652
2486.206164,153.219100,-296.082377,9696.697840
2486.206493,76.609550,-0.000000,9474.636058
2486.206822,0.000000,370.102971,9474.636058
2486.207151,-229.828649,740.205942,9400.615463
2486.207480,-612.876398,148.041188,9548.656652
2486.207809,-383.047749,-370.102971,9474.636058
2486.208138,-306.438199,-0.000000,9252.574275
2486.208467,-842.705048,-518.144159,9474.636058
2486.208796,-842.705048,-1406.391290,9474.636058
2486.209125,-766.095498,-1702.473667,9844.739029
2486.209454,-1532.190996,-1480.411884,9844.739029
2486.209783,0.000000,-1036.288319,9622.677246
2486.210112,-536.266849,-592.164754,9548.656652
2486.210441,-459.657299,222.061783,9400.615463
2486.210770,0.000000,592.164754,8956.491898
2486.211099,0.000000,740.205942,8956.491898
2486.211428,306.438199,592.164754,9030.512492
2486.211757,1225.752797,592.164754,8586.388927
2486.212086,1455.581446,444.123565,8290.306550
2486.212415,1685.410096,296.082377,8438.347739
2486.212744,1915.238745,-296.082377,8586.388927
2486.213073,1762.019645,-444.123565,8290.306550
2486.213402,1685.410096,-74.020594,8364.327145
2486.213731,1378.971896,-74.020594,8512.368333
2486.214059,1378.971896,-74.020594,8586.388927
2486.214388,995.924147,-74.020594,9030.512492
2486.214717,0.000000,-0.000000,8882.471304
2486.215046,-919.314598,-222.061783,8956.491898
2486.215375,-766.095498,-222.061783,9030.512492
2486.215704,-842.705048,-444.123565,9178.553681
2486.216033,-919.314598,-1184.329507,9326.594869
2486.216362,-1149.143247,-1554.432478,9252.574275
2486.216691,-995.924147,-1480.411884,9696.697840
2486.217020,-766.095498,-1110.308913,9178.553681
2486.217349,-306.438199,-1036.288319,9474.636058
2486.217678,0.000000,-740.205942,9400.615463
2486.218007,459.657299,-0.000000,8882.471304
2486.218336,1455.581446,222.061783,8364.327145
2486.218665,2757.943793,1480.411884,7994.224174
2486.218994,2528.115143,1776.494261,7698.141797
2486.219323,1838.629195,1924.535449,8068.244768
2486.219652,1838.629195,1258.350101,8068.244768
2486.219981,1455.581446,-0.000000,8512.368333
2486.220310,766.095498,-592.164754,9030.512492
2486.220639,842.705048,-1924.535449,9918.759623
2486.220968,76.609550,-2146.597232,10066.800811
2486.221297,153.219100,-2072.576638,10288.862594
2486.221626,229.828649,-1628.453072,10362.883188
2486.221955,536.266849,-740.205942,9918.759623
2486.222284,842.705048,296.082377,9622.677246
2486.222613,1608.800546,962.267725,8882.471304
2486.222942,1991.848295,1480.411884,8660.409521
2486.223271,1762.019645,1258.350101,8068.244768
2486.223600,1302.362347,1332.370696,8438.347739
2486.223929,1149.143247,444.123565,7772.162391
2486.224258,76.609550,-0.000000,8660.409521
2486.224587,-689.485948,-888.247130,9104.533087
2486.224916,-1455.581446,-1554.432478,9548.656652
2486.225245,-1532.190996,-1628.453072,10362.883188
2486.225574,-1991.848295,-1406.391290,10066.800811
2486.225903,-1302.362347,-592.164754,9622.677246
2486.226232,-1225.752797,-444.123565,9622.677246
2486.226561,-383.047749,666.185348,9326.594869
2486.226890,0.000000,1036.288319,9400.615463
2486.227219,459.657299,592.164754,9326.594869
2486.227548,1455.581446,370.102971,8956.491898
2486.227877,2451.505594,888.247130,8438.347739
2486.228206,3294.210641,296.082377,7994.224174
2486.228535,2451.505594,-0.000000,8068.244768
2486.228864,2987.772442,-0.000000,8142.265362
2486.229193,2374.896044,-0.000000,8290.306550
2486.229522,1455.581446,-148.041188,8660.409521
2486.229851,766.095498,-592.164754,8734.430116
2486.230180,-229.828649,-740.205942,9548.656652
2486.230509,-1455.581446,-888.247130,9844.739029
2486.230838,-1378.971896,-444.123565,9696.697840
2486.231167,-1762.019645,-666.185348,9844.739029
2486.231495,-1685.410096,-518.144159,9696.697840
2486.231824,-1455.581446,-666.185348,9474.636058
2486.232153,-995.924147,-740.205942,9474.636058
2486.232482,-1302.362347,-1628.453072,9844.739029
2486.232811,-1225.752797,-1258.350101,9622.677246
2486.233140,-842.705048,-1036.288319,9474.636058
2486.233469,0.000000,-814.226536,9474.636058
2486.233798,229.828649,-370.102971,8956.491898
2486.234127,842.705048,518.144159,8586.388927
2486.234456,1149.143247,1628.453072,7920.203579
2486.234785,1685.410096,1258.350101,7920.203579
2486.235114,1608.800546,1258.350101,7328.038826
2486.235443,1378.971896,1480.411884,7920.203579
2486.235772,689.485948,666.185348,7994.224174
2486.236101,76.609550,-518.144159,8734.430116
2486.236430,-306.438199,-1110.308913,9474.636058
2486.236759,-459.657299,-1776.494261,9474.636058
2486.237088,-766.095498,-1406.391290,9696.697840
2486.237417,76.609550,-1998.556043,10066.800811
2486.237746,766.095498,-888.247130,9844.739029
2486.238075,1149.143247,-0.000000,9252.574275
2486.238404,2068.457845,740.205942,8734.430116
2486.238733,2451.505594,1480.411884,7994.224174
2486.239062,2145.067394,1776.494261,7920.203579
2486.239391,1915.238745,1332.370696,7772.162391
2486.239720,1149.143247,592.164754,8142.265362
2486.240049,689.485948,-0.000000,8734.430116
2486.240378,-766.095498,-888.247130,9178.553681
2486.240707,-1532.190996,-1924.535449,9992.780217
2486.241036,-1991.848295,-2368.659014,10288.862594
2486.241365,-1685.410096,-2146.597232,10066.800811
2486.241694,-1608.800546,-1258.350101,10436.903782
2486.242023,-536.266849,-1036.288319,9548.656652
2486.242352,-689.485948,148.041188,9474.636058
2486.242681,0.000000,888.247130,9400.615463
2486.243010,612.876398,814.226536,9548.656652
2486.243339,1685.410096,740.205942,8882.471304
2486.243668,2604.724693,1258.350101,8290.306550
2486.243997,3370.820191,1184.329507,8068.244768
2486.244326,3294.210641,888.247130,7550.100608
2486.244655,3524.039291,666.185348,8364.327145
2486.244984,2298.286494,-0.000000,8068.244768
2486.245313,1455.581446,-74.020594,8586.388927
2486.245642,306.438199,-666.185348,9252.574275
2486.245971,-612.876398,-814.226536,9548.656652
2486.246300,-1302.362347,-1036.288319,10436.903782
2486.246629,-1455.581446,-814.226536,10066.800811
2486.246958,-1532.190996,-444.123565,9326.594869
2486.247287,-1302.362347,-444.123565,9548.656652
2486.247616,-995.924147,-0.000000,9104.533087
2486.247945,-766.095498,-592.164754,9400.615463
2486.248274,-766.095498,-1036.288319,9252.574275
2486.248602,-536.266849,-1110.308913,9696.697840
2486.248931,-1378.971896,-1036.288319,9326.594869
2486.249260,-536.266849,-1036.288319,9474.636058
2486.249589,-306.438199,-962.267725,9326.594869
2486.249918,153.219100,-0.000000,8586.388927
2486.250247,995.924147,666.185348,8216.285956
2486.250576,766.095498,1184.329507,7846.182985
2486.250905,536.266849,1702.473667,8068.244768
2486.251234,1072.533697,1184.329507,7846.182985
2486.251563,536.266849,1184.329507,8364.327145
2486.251892,306.438199,-370.102971,8734.430116
2486.252221,0.000000,-962.267725,9030.512492
2486.252550,-229.828649,-1480.411884,9326.594869
2486.252879,0.000000,-2072.576638,9622.677246
2486.253208,383.047749,-1628.453072,9696.697840
2486.253537,612.876398,-1184.329507,9400.615463
2486.253866,1302.362347,-592.164754,9474.636058
2486.254195,1762.019645,74.020594,9178.553681
2486.254524,2068.457845,888.247130,8734.430116
2486.254853,1915.238745,1258.350101,8216.285956
2486.255182,1455.581446,1258.350101,8216.285956
2486.255511,995.924147,666.185348,8512.368333
2486.255840,229.828649,-0.000000,8734.430116
2486.256169,-612.876398,-1036.288319,9178.553681
2486.256498,-1608.800546,-1184.329507,9918.759623
2486.256827,-1915.238745,-1850.514855,9918.759623
2486.257156,-1608.800546,-1776.494261,9918.759623
2486.257485,-1302.362347,-1258.350101,9992.780217
2486.257814,-766.095498,-962.267725,9770.718434
2486.258143,0.000000,-296.082377,9770.718434
2486.258472,0.000000,888.247130,9622.677246
2486.258801,229.828649,814.226536,9474.636058
2486.259130,1838.629195,962.267725,8956.491898
2486.259459,2757.943793,1850.514855,7994.224174
2486.259788,3677.258390,1554.432478,7772.162391
2486.260117,3140.991542,1258.350101,7550.100608
2486.260446,3830.477490,518.144159,8068.244768
2486.260775,2757.943793,370.102971,8586.388927
2486.261104,1532.190996,-0.000000,8512.368333
2486.261433,383.047749,-740.205942,9548.656652
2486.261762,-306.438199,-1036.288319,9918.759623
2486.262091,-995.924147,-1406.391290,10288.862594
2486.262420,-842.705048,-740.205942,10288.862594
2486.262749,-995.924147,-222.061783,9770.718434
2486.263078,-612.876398,-0.000000,9622.677246
2486.263407,-153.219100,-0.000000,9918.759623
2486.263736,-153.219100,-222.061783,9178.553681
2486.264065,0.000000,-962.267725,9474.636058
2486.264394,0.000000,-518.144159,9400.615463
2486.264723,0.000000,-1184.329507,9104.533087
2486.265052,153.219100,-1110.308913,9178.553681
2486.265381,766.095498,-888.247130,9252.574275
2486.265709,0.000000,-296.082377,8660.409521
2486.266038,153.219100,-0.000000,8586.388927
2486.266367,536.266849,740.205942,8512.368333
2486.266696,306.438199,1184.329507,8438.347739
2486.267025,-153.219100,1258.350101,8512.368333
2486.267354,153.219100,592.164754,8586.388927
2486.267683,-383.047749,-0.000000,8586.388927
2486.268012,-612.876398,-888.247130,9104.533087
2486.268341,0.000000,-1332.370696,8956.491898
2486.268670,0.000000,-1702.473667,9030.512492
2486.268999,229.828649,-1702.473667,9104.533087
2486.269328,919.314598,-1036.288319,9474.636058
2486.269657,1532.190996,-370.102971,9326.594869
2486.269986,1685.410096,148.041188,8808.450710
2486.270315,1915.238745,814.226536,8438.347739
2486.270644,1608.800546,1406.391290,8364.327145
2486.270973,842.705048,1110.308913,8364.327145
2486.271302,459.657299,1036.288319,8142.265362
2486.271631,-306.438199,592.164754,8512.368333
2486.271960,-766.095498,-148.041188,9104.533087
2486.272289,-1532.190996,-1184.329507,9400.615463
2486.272618,-2374.896044,-1924.535449,10066.800811
2486.272947,-1991.848295,-2220.617826,9918.759623
2486.273276,-1608.800546,-1776.494261,9622.677246
2486.273605,-1532.190996,-1406.391290,9696.697840
2486.273934,-766.095498,-592.164754,10288.862594
2486.274263,-383.047749,-222.061783,9696.697840
2486.274592,306.438199,888.247130,9400.615463
2486.274921,612.876398,592.164754,9178.553681
2486.275250,1455.581446,814.226536,9696.697840
2486.275579,2145.067394,1036.288319,8142.265362
2486.275908,2681.334243,962.267725,8290.306550
2486.276237,3140.991542,444.123565,7772.162391
2486.276566,3064.381992,888.247130,8290.306550
2486.276895,2451.505594,222.061783,8438.347739
2486.277224,2298.286494,-444.123565,8734.430116
2486.277553,842.705048,-592.164754,9400.615463
2486.277882,-306.438199,-518.144159,9400.615463
2486.278211,-383.047749,-666.185348,9770.718434
2486.278540,-919.314598,-444.123565,9770.718434
2486.278869,-612.876398,-518.144159,9326.594869
2486.279198,-536.266849,-592.164754,9992.780217
2486.279527,-612.876398,-222.061783,9770.718434
2486.279856,-766.095498,-222.061783,9326.594869
2486.280185,-459.657299,-962.267725,9326.594869
2486.280514,-612.876398,-888.247130,9474.636058
2486.280843,-383.047749,-1110.308913,9474.636058
2486.281172,0.000000,-666.185348,9030.512492
2486.281501,76.609550,-740.205942,9030.512492
2486.281830,76.609550,-0.000000,9178.553681
2486.282159,919.314598,888.247130,8438.347739
2486.282488,919.314598,1406.391290,7994.224174
2486.282817,1225.752797,1850.514855,7550.100608
2486.283146,536.266849,2146.597232,7772.162391
2486.283475,1225.752797,1110.308913,7698.141797
2486.283804,612.876398,-0.000000,8142.265362
2486.284133,306.438199,-370.102971,9548.656652
2486.284463,1072.533697,-1554.432478,9326.594869
2486.284792,229.828649,-1184.329507,8808.450710
2486.285121,306.438199,-1776.494261,9400.615463
2486.285450,1072.533697,-1184.329507,9844.739029
2486.285779,459.657299,-888.247130,9918.759623
2486.286108,995.924147,888.247130,9548.656652
2486.286437,1685.410096,296.082377,9252.574275
2486.286767,536.266849,1332.370696,8808.450710
2486.287096,842.705048,814.226536,8586.388927
2486.287425,229.828649,444.123565,9104.533087
2486.287754,-383.047749,-0.000000,8808.450710
2486.288083,-229.828649,-518.144159,9400.615463
2486.288412,-1072.533697,-1036.288319,9474.636058
2486.288741,-1378.971896,-1628.453072,10066.800811
2486.289070,-1149.143247,-1776.494261,9474.636058
2486.289400,-1149.143247,-1406.391290,9844.739029
2486.289729,-1072.533697,-962.267725,9844.739029
2486.290058,0.000000,-296.082377,9770.718434
2486.290387,-306.438199,296.082377,9622.677246
2486.290716,76.609550,148.041188,9030.512492
2486.291045,689.485948,666.185348,9178.553681
2486.291374,1302.362347,888.247130,8512.368333
2486.291704,1915.238745,740.205942,8216.285956
2486.292033,2068.457845,592.164754,7772.162391
2486.292362,2451.505594,-0.000000,7846.182985
2486.292691,2145.067394,-592.164754,8438.347739
2486.293020,1149.143247,-1184.329507,8660.409521
2486.293349,536.266849,-888.247130,8512.368333
2486.293678,76.609550,-814.226536,9474.636058
2486.294007,0.000000,-814.226536,9030.512492
2486.294337,0.000000,-666.185348,9474.636058
2486.294666,0.000000,-222.061783,9030.512492
2486.294995,0.000000,-0.000000,9104.533087
2486.295324,76.609550,-444.123565,9178.553681
2486.295653,0.000000,-0.000000,8734.430116
2486.295982,-306.438199,-518.144159,9178.553681
2486.296311,-536.266849,-1036.288319,9104.533087
2486.296641,-689.485948,-1036.288319,9474.636058
2486.296970,-536.266849,-1406.391290,9474.636058
2486.297299,-612.876398,-888.247130,9696.697840
2486.297628,-383.047749,-1036.288319,9696.697840
2486.297957,0.000000,-0.000000,9400.615463
2486.298286,229.828649,592.164754,9030.512492
2486.298615,689.485948,814.226536,8512.368333
2486.298944,919.314598,1554.432478,8438.347739
2486.299274,1149.143247,1924.535449,8512.368333
2486.299603,1455.581446,814.226536,8216.285956
2486.299932,1838.629195,222.061783,8364.327145
2486.300261,1378.971896,-518.144159,8586.388927
2486.300590,1378.971896,-592.164754,8660.409521
2486.300919,1302.362347,-962.267725,9474.636058
2486.301248,995.924147,-888.247130,9474.636058
2486.301577,919.314598,-518.144159,9622.677246
2486.301907,1072.533697,-296.082377,9696.697840
2486.302236,1608.800546,-0.000000,9548.656652
2486.302565,919.314598,444.123565,9104.533087
2486.302894,612.876398,1184.329507,8882.471304
2486.303223,229.828649,962.267725,8956.491898
2486.303552,842.705048,444.123565,8882.471304
2486.303881,-459.657299,592.164754,8216.285956
2486.304211,-383.047749,-592.164754,9178.553681
2486.304540,-459.657299,-1554.432478,9178.553681
2486.304869,-1072.533697,-1628.453072,9770.718434
2486.305198,-1455.581446,-2072.576638,9622.677246
2486.305527,-1072.533697,-962.267725,9474.636058
2486.305856,-995.924147,-1110.308913,9548.656652
2486.306185,-689.485948,-0.000000,9326.594869
2486.306514,0.000000,-0.000000,9252.574275
2486.306844,-383.047749,370.102971,8956.491898
2486.307173,1225.752797,1036.288319,8734.430116
2486.307502,1915.238745,888.247130,8660.409521
2486.307831,1915.238745,666.185348,8216.285956
2486.308160,2374.896044,296.082377,8216.285956
2486.308489,2145.067394,-0.000000,8734.430116
2486.308818,1762.019645,-370.102971,8734.430116
2486.309148,1685.410096,-370.102971,9104.533087
2486.309477,1149.143247,-666.185348,9400.615463
2486.309806,153.219100,-222.061783,9548.656652
2486.310135,-153.219100,-444.123565,9622.677246
2486.310464,-459.657299,-222.061783,9474.636058
2486.310793,-689.485948,-0.000000,9474.636058
2486.311122,-153.219100,-0.000000,9252.574275
2486.311451,-383.047749,-222.061783,9326.594869
2486.311781,-459.657299,-296.082377,9326.594869
2486.312110,-459.657299,-370.102971,8808.450710
2486.312439,-689.485948,-962.267725,9770.718434
2486.312768,-459.657299,-1480.411884,9696.697840
2486.313097,-153.219100,-888.247130,9326.594869
2486.313426,-536.266849,-1480.411884,9400.615463
2486.313755,612.876398,-666.185348,8956.491898
2486.314085,76.609550,444.123565,8956.491898
2486.314414,612.876398,1184.329507,8068.244768
2486.314743,1225.752797,1850.514855,7994.224174
2486.315072,1072.533697,1480.411884,8290.306550
2486.315401,689.485948,1554.432478,7698.141797
2486.315730,919.314598,-0.000000,8216.285956
2486.316059,1072.533697,-666.185348,8734.430116
2486.316388,0.000000,-1406.391290,8956.491898
2486.316718,153.219100,-1480.411884,9474.636058
2486.317047,229.828649,-2368.659014,9474.636058
2486.317376,306.438199,-1480.411884,9992.780217
2486.317705,766.095498,-1110.308913,9696.697840
2486.318034,1149.143247,-148.041188,9400.615463
2486.318363,1762.019645,518.144159,8956.491898
2486.318692,2068.457845,1110.308913,8512.368333
2486.319022,1608.800546,1480.411884,8512.368333
2486.319351,1455.581446,1406.391290,8216.285956
2486.319680,1072.533697,962.267725,8438.347739
2486.320009,0.000000,-0.000000,9030.512492
2486.320338,-919.314598,-1036.288319,9104.533087
2486.320667,-1838.629195,-1998.556043,9918.759623
2486.320996,-2221.676944,-2442.679609,10658.965565
2486.321325,-1532.190996,-2368.659014,9918.759623
2486.321655,-1302.362347,-1628.453072,9992.780217
2486.321984,-1072.533697,-962.267725,9992.780217
2486.322313,-306.438199,296.082377,9548.656652
2486.322642,0.000000,888.247130,8956.491898
2486.322971,1072.533697,1110.308913,9770.718434
2486.323300,1685.410096,1628.453072,8660.409521
2486.323629,2911.162892,1406.391290,8216.285956
2486.323958,3217.601092,1480.411884,7698.141797
2486.324288,3294.210641,592.164754,7105.977043
2486.324617,2681.334243,814.226536,8438.347739
2486.324946,2145.067394,148.041188,8290.306550
2486.325275,995.924147,-296.082377,8956.491898
2486.325604,-383.047749,-518.144159,9474.636058
2486.325933,-919.314598,-1184.329507,9548.656652
2486.326262,-1991.848295,-1332.370696,10066.800811
2486.326592,-1762.019645,-740.205942,9622.677246
2486.326921,-1302.362347,-222.061783,9474.636058
2486.327250,-1072.533697,-518.144159,9770.718434
2486.327579,-689.485948,-0.000000,9178.553681
2486.327908,0.000000,-444.123565,9474.636058
2486.328237,-536.266849,-962.267725,9696.697840
2486.328566,-383.047749,-1184.329507,9474.636058
2486.328895,0.000000,-814.226536,9474.636058
2486.329225,0.000000,-370.102971,9030.512492
2486.329554,0.000000,-148.041188,9104.533087
2486.329883,0.000000,296.082377,8808.450710
2486.330212,229.828649,444.123565,8216.285956
2486.330541,153.219100,666.185348,8364.327145
2486.330870,153.219100,814.226536,8364.327145
2486.331199,-229.828649,814.226536,8438.347739
2486.331529,-383.047749,296.082377,8808.450710
2486.331858,-383.047749,-888.247130,8956.491898
2486.332187,-383.047749,-1184.329507,9474.636058
2486.332516,76.609550,-1924.535449,9400.615463
2486.332845,459.657299,-1998.556043,9622.677246
2486.333174,0.000000,-1480.411884,9548.656652
2486.333503,995.924147,-888.247130,9696.697840
2486.333832,1608.800546,-0.000000,9104.533087
2486.334162,2221.676944,740.205942,9030.512492
2486.334491,2451.505594,1406.391290,8438.347739
2486.334820,2451.505594,1850.514855,8142.265362
2486.335149,1915.238745,1628.453072,8290.306550
2486.335478,612.876398,888.247130,8364.327145
2486.335807,-459.657299,-0.000000,8364.327145
2486.336136,-919.314598,-592.164754,8956.491898
2486.336466,-1455.581446,-1628.453072,9770.718434
2486.336795,-1685.410096,-1998.556043,9548.656652
2486.337124,-1378.971896,-2146.597232,9770.718434
2486.337453,-1072.533697,-1850.514855,9992.780217
2486.337782,-842.705048,-888.247130,9622.677246
2486.338111,0.000000,-0.000000,9770.718434
2486.338440,153.219100,592.164754,9252.574275
2486.338769,536.266849,740.205942,9474.636058
2486.339099,1608.800546,888.247130,9474.636058
2486.339428,2528.115143,1184.329507,7920.203579
2486.339757,3370.820191,814.226536,8142.265362
2486.340086,3447.429741,1036.288319,7179.997637
2486.340415,3600.648841,518.144159,8216.285956
2486.340744,2681.334243,222.061783,8290.306550
2486.341073,2221.676944,-0.000000,8216.285956
2486.341403,1149.143247,-370.102971,9400.615463
2486.341732,0.000000,-814.226536,9770.718434
2486.342061,-383.047749,-1110.308913,10066.800811
2486.342390,-1455.581446,-888.247130,10362.883188
2486.342719,-536.266849,-1036.288319,9548.656652
2486.343048,-536.266849,-296.082377,9696.697840
2486.343377,-229.828649,-0.000000,9844.739029
2486.343706,-229.828649,-370.102971,9474.636058
2486.344036,306.438199,-814.226536,9474.636058
2486.344365,0.000000,-814.226536,9400.615463
2486.344694,76.609550,-666.185348,9252.574275
2486.345023,-153.219100,-888.247130,9326.594869
2486.345352,-229.828649,-814.226536,9474.636058
2486.345681,-229.828649,-296.082377,9252.574275
2486.346010,0.000000,-0.000000,8882.471304
2486.346339,0.000000,592.164754,8734.430116
2486.346669,536.266849,962.267725,8956.491898
2486.346998,-459.657299,1480.411884,8142.265362
2486.347327,229.828649,1036.288319,7994.224174
2486.347656,612.876398,148.041188,8290.306550
2486.347985,612.876398,-518.144159,8216.285956
2486.348314,766.095498,-1036.288319,8438.347739
2486.348643,766.095498,-1480.411884,8956.491898
2486.348973,842.705048,-2072.576638,9326.594869
2486.349302,689.485948,-1258.350101,9400.615463
2486.349631,383.047749,-296.082377,9622.677246
2486.349960,536.266849,-296.082377,9326.594869
2486.350289,766.095498,222.061783,9030.512492
2486.350618,612.876398,592.164754,8660.409521
2486.350947,766.095498,814.226536,8586.388927
2486.351276,76.609550,592.164754,8734.430116
2486.351606,-842.705048,222.061783,8956.491898
2486.351935,-383.047749,-222.061783,9104.533087
2486.352264,-842.705048,-814.226536,9104.533087
2486.352593,-1302.362347,-1554.432478,9400.615463
2486.352922,-1378.971896,-1924.535449,9622.677246
2486.353251,-1149.143247,-1702.473667,9696.697840
2486.353580,-766.095498,-1998.556043,9696.697840
2486.353910,-536.266849,-962.267725,10066.800811
2486.354239,153.219100,-74.020594,9474.636058
2486.354568,766.095498,740.205942,8882.471304
2486.354897,1532.190996,1480.411884,8734.430116
2486.355226,2145.067394,1480.411884,8290.306550
2486.355555,2068.457845,1258.350101,8660.409521
2486.355884,2221.676944,1036.288319,8808.450710
2486.356213,2221.676944,444.123565,8216.285956
2486.356543,1608.800546,-0.000000,9030.512492
2486.356872,1149.143247,-592.164754,9030.512492
2486.357201,536.266849,-1036.288319,9104.533087
2486.357530,0.000000,-1332.370696,9770.718434
2486.357859,0.000000,-1480.411884,9770.718434
2486.358188,306.438199,-518.144159,9474.636058
2486.358517,229.828649,-0.000000,9326.594869
2486.358847,459.657299,370.102971,8956.491898
2486.359176,76.609550,222.061783,9326.594869
2486.359505,1072.533697,-0.000000,8956.491898
2486.359834,842.705048,-0.000000,8660.409521
2486.360163,383.047749,-222.061783,8956.491898
2486.360492,0.000000,-1110.308913,9400.615463
2486.360821,-383.047749,-1406.391290,9326.594869
2486.361150,-995.924147,-1480.411884,9474.636058
2486.361480,-612.876398,-1480.411884,9770.718434
2486.361809,-1302.362347,-888.247130,9178.553681
2486.362138,-766.095498,-0.000000,9030.512492
2486.362467,-306.438199,814.226536,8882.471304
2486.362796,0.000000,1110.308913,8438.347739
2486.363125,459.657299,1258.350101,8216.285956
2486.363454,689.485948,888.247130,8364.327145
2486.363784,1302.362347,222.061783,8290.306550
2486.364113,1302.362347,-444.123565,8734.430116
2486.364442,1532.190996,-962.267725,8808.450710
2486.364771,1149.143247,-814.226536,8882.471304
2486.365100,689.485948,-962.267725,9252.574275
2486.365429,612.876398,-740.205942,9844.739029
2486.365758,766.095498,-666.185348,9474.636058
2486.366087,306.438199,-296.082377,9548.656652
2486.366417,76.609550,-296.082377,9474.636058
2486.366746,0.000000,444.123565,9400.615463
2486.367075,-536.266849,740.205942,8734.430116
2486.367404,-459.657299,666.185348,8882.471304
2486.367733,-766.095498,296.082377,8956.491898
2486.368062,-459.657299,-370.102971,9178.553681
2486.368391,-1225.752797,-1110.308913,9178.553681
2486.368720,-919.314598,-1702.473667,9326.594869
2486.369050,-1072.533697,-1924.535449,9252.574275
2486.369379,-1072.533697,-1480.411884,9548.656652
2486.369708,-766.095498,-814.226536,9474.636058
2486.370037,-383.047749,-296.082377,9548.656652
2486.370366,229.828649,444.123565,9326.594869
2486.370695,1225.752797,148.041188,8956.491898
2486.371024,1378.971896,1406.391290,8216.285956
2486.371354,1685.410096,1554.432478,7994.224174
2486.371683,2068.457845,1184.329507,8068.244768
2486.372012,2068.457845,740.205942,8068.244768
2486.372341,1991.848295,-0.000000,8438.347739
2486.372670,1838.629195,-296.082377,8734.430116
2486.372999,1302.362347,-666.185348,8734.430116
2486.373328,1072.533697,-1258.350101,8956.491898
2486.373657,153.219100,-1258.350101,9548.656652
2486.373987,153.219100,-740.205942,9474.636058
2486.374316,0.000000,-592.164754,9400.615463
2486.374645,76.609550,-74.020594,9474.636058
2486.374974,306.438199,-0.000000,9400.615463
2486.375303,76.609550,-296.082377,9400.615463
2486.375632,536.266849,-296.082377,9252.574275
2486.375961,229.828649,-592.164754,9178.553681
2486.376291,0.000000,-814.226536,9326.594869
2486.376620,-229.828649,-1184.329507,9622.677246
2486.376949,-536.266849,-1110.308913,9474.636058
2486.377278,-1149.143247,-1258.350101,9844.739029
2486.377607,-153.219100,-888.247130,9844.739029
2486.377936,-383.047749,-518.144159,9696.697840
2486.378265,0.000000,518.144159,9030.512492
2486.378594,383.047749,1184.329507,8512.368333
2486.378924,919.314598,1258.350101,8216.285956
2486.379253,919.314598,1480.411884,7846.182985
2486.379582,1302.362347,814.226536,7994.224174
2486.379911,1608.800546,666.185348,8216.285956
2486.380240,1532.190996,-444.123565,7550.100608
2486.380569,995.924147,-888.247130,8660.409521
2486.380898,1302.362347,-1110.308913,9104.533087
2486.381228,689.485948,-1258.350101,9474.636058
2486.381557,612.876398,-1036.288319,9474.636058
2486.381886,459.657299,-296.082377,9548.656652
2486.382215,766.095498,222.061783,9474.636058
2486.382544,995.924147,518.144159,8660.409521
2486.382873,536.266849,1110.308913,8660.409521
2486.383202,306.438199,1332.370696,8586.388927
2486.383531,153.219100,1036.288319,8512.368333
2486.383861,0.000000,518.144159,8660.409521
2486.384190,-306.438199,-222.061783,9104.533087
2486.384519,-536.266849,-1184.329507,9548.656652
2486.384848,-1532.190996,-2072.576638,9548.656652
2486.385177,-1455.581446,-2146.597232,10066.800811
2486.385506,-995.924147,-1924.535449,9474.636058
2486.385835,-842.705048,-962.267725,9696.697840
2486.386164,-612.876398,-148.041188,9770.718434
2486.386494,76.609550,444.123565,9992.780217
2486.386823,306.438199,962.267725,9474.636058
2486.387152,1762.019645,1406.391290,8586.388927
2486.387481,2068.457845,1480.411884,8364.327145
2486.387810,2298.286494,1480.411884,7994.224174
2486.388139,2374.896044,962.267725,7994.224174
2486.388468,1991.848295,444.123565,8438.347739
2486.388797,1991.848295,-0.000000,8586.388927
2486.389127,919.314598,-962.267725,8734.430116
2486.389456,612.876398,-962.267725,9326.594869
2486.389785,-306.438199,-888.247130,9474.636058
2486.390114,-536.266849,-1110.308913,9622.677246
2486.390443,-536.266849,-740.205942,9548.656652
2486.390772,-536.266849,-74.020594,9474.636058
2486.391101,-306.438199,-0.000000,9400.615463
2486.391430,0.000000,-0.000000,9178.553681
2486.391760,-306.438199,-0.000000,9326.594869
2486.392089,0.000000,-296.082377,9326.594869
2486.392418,0.000000,-518.144159,9178.553681
2486.392747,0.000000,-518.144159,9474.636058
2486.393076,-153.219100,-518.144159,9252.574275
2486.393405,-766.095498,-370.102971,9474.636058
2486.393734,76.609550,-370.102971,9104.533087
2486.394064,153.219100,-0.000000,8660.409521
2486.394393,153.219100,740.205942,8512.368333
2486.394722,536.266849,962.267725,8142.265362
2486.395051,536.266849,1110.308913,8142.265362
2486.395380,689.485948,666.185348,8216.285956
2486.395709,1072.533697,-0.000000,8586.388927
2486.396038,842.705048,-222.061783,8660.409521
2486.396367,306.438199,-888.247130,9252.574275
2486.396697,383.047749,-1480.411884,9474.636058
2486.397026,612.876398,-1554.432478,9696.697840
2486.397355,919.314598,-1258.350101,9770.718434
2486.397684,1072.533697,-518.144159,9696.697840
2486.398013,1455.581446,-74.020594,9474.636058
2486.398342,1225.752797,592.164754,9474.636058
2486.398671,1225.752797,814.226536,8882.471304
2486.399000,1149.143247,1258.350101,8364.327145
2486.399330,919.314598,1258.350101,8216.285956
2486.399659,153.219100,518.144159,8512.368333
2486.399988,-306.438199,-222.061783,8734.430116
2486.400317,-1072.533697,-1554.432478,9104.533087
2486.400646,-1991.848295,-2294.638420,9918.759623
2486.400975,-1685.410096,-1924.535449,10288.862594
2486.401304,-1838.629195,-1924.535449,9622.677246
2486.401633,-1149.143247,-1406.391290,9844.739029
2486.401963,-995.924147,-592.164754,9474.636058
2486.402292,-306.438199,370.102971,9548.656652
2486.402621,383.047749,888.247130,9252.574275
2486.402950,459.657299,888.247130,9622.677246
2486.403279,1762.019645,1628.453072,8364.327145
2486.403608,2374.896044,1702.473667,7994.224174
2486.403937,2451.505594,1258.350101,7698.141797
2486.404266,2681.334243,1036.288319,7402.059420
2486.404596,2298.286494,592.164754,7920.203579
2486.404925,1915.238745,-296.082377,7994.224174
2486.405254,1225.752797,-0.000000,8512.368333
2486.405583,229.828649,-592.164754,9326.594869
2486.405912,-766.095498,-962.267725,9252.574275
2486.406241,-459.657299,-1332.370696,9474.636058
2486.406570,-1072.533697,-74.020594,8882.471304
2486.406899,-842.705048,-814.226536,9844.739029
2486.407229,-766.095498,-740.205942,10066.800811
2486.407558,-229.828649,-0.000000,9770.718434
2486.407887,-459.657299,-740.205942,9326.594869
2486.408216,-153.219100,-444.123565,9474.636058
2486.408545,-766.095498,-1036.288319,9474.636058
2486.408874,-153.219100,-222.061783,9178.553681
2486.409203,-229.828649,-888.247130,9622.677246
2486.409532,-459.657299,-222.061783,9252.574275
2486.409862,0.000000,-0.000000,9252.574275
2486.410191,76.609550,370.102971,9178.553681
2486.410520,0.000000,296.082377,8290.306550
2486.410849,689.485948,1258.350101,8364.327145
2486.411178,306.438199,1110.308913,8512.368333
2486.411507,459.657299,666.185348,8586.388927
2486.411836,306.438199,-444.123565,9030.512492
2486.412166,766.095498,-1258.350101,9104.533087
2486.412495,612.876398,-1702.473667,9252.574275
2486.412824,919.314598,-740.205942,9474.636058
2486.413153,919.314598,-1110.308913,9474.636058
2486.413482,919.314598,-444.123565,9474.636058
2486.413811,1149.143247,-0.000000,9252.574275
2486.414140,995.924147,-0.000000,9178.553681
2486.414469,1225.752797,666.185348,8586.388927
2486.414799,1072.533697,1628.453072,8142.265362
2486.415128,536.266849,1036.288319,8512.368333
2486.415457,0.000000,518.144159,8512.368333
2486.415786,-153.219100,-0.000000,8734.430116
2486.416115,-536.266849,-740.205942,8808.450710
2486.416444,-689.485948,-1776.494261,9400.615463
2486.416773,-1455.581446,-2368.659014,9696.697840
2486.417102,-1302.362347,-2146.597232,10066.800811
2486.417432,-919.314598,-1702.473667,10140.821405
2486.417761,-612.876398,-962.267725,9844.739029
2486.418090,0.000000,-444.123565,9844.739029
2486.418419,995.924147,296.082377,9400.615463
2486.418748,1991.848295,1184.329507,8882.471304
2486.419077,2911.162892,1480.411884,7550.100608
2486.419406,2911.162892,1406.391290,7624.121203
2486.419735,2298.286494,1998.556043,8364.327145
2486.420065,2528.115143,1110.308913,7698.141797
2486.420394,2145.067394,-0.000000,8364.327145
2486.420723,1532.190996,-740.205942,8808.450710
2486.421052,995.924147,-1480.411884,9104.533087
2486.421381,153.219100,-1702.473667,9918.759623
2486.421710,76.609550,-1628.453072,10214.842000
2486.422039,-536.266849,-1258.350101,9918.759623
2486.422368,0.000000,-370.102971,9548.656652
2486.422698,229.828649,-0.000000,9400.615463
2486.423027,536.266849,592.164754,8882.471304
2486.423356,919.314598,666.185348,8882.471304
2486.423685,766.095498,518.144159,8808.450710
2486.424014,383.047749,148.041188,8808.450710
2486.424343,-229.828649,-518.144159,8956.491898
2486.424672,-306.438199,-592.164754,9326.594869
2486.425001,-995.924147,-1036.288319,9326.594869
2486.425331,-1072.533697,-1332.370696,9548.656652
2486.425660,-995.924147,-1036.288319,9696.697840
2486.425989,-1225.752797,-444.123565,9770.718434
2486.426318,-612.876398,-0.000000,9104.533087
2486.426647,-153.219100,962.267725,8216.285956
2486.426976,0.000000,888.247130,8512.368333
2486.427305,612.876398,814.226536,8808.450710
2486.427634,1378.971896,592.164754,7920.203579
2486.427964,1378.971896,-370.102971,8216.285956
2486.428293,1762.019645,-74.020594,8438.347739
2486.428622,1991.848295,-1110.308913,8882.471304
2486.428951,1685.410096,-592.164754,8956.491898
2486.429280,1302.362347,-1036.288319,9474.636058
2486.429609,459.657299,-518.144159,9400.615463
2486.429938,153.219100,-370.102971,9696.697840
2486.430267,0.000000,-74.020594,9696.697840
2486.430597,0.000000,-0.000000,9474.636058
2486.430926,0.000000,-0.000000,9326.594869
2486.431255,-1072.533697,370.102971,8882.471304
2486.431584,-766.095498,296.082377,8956.491898
2486.431913,-842.705048,-296.082377,8808.450710
2486.432242,-995.924147,-814.226536,9178.553681
2486.432571,-689.485948,-1850.514855,9474.636058
2486.432901,-919.314598,-1702.473667,9474.636058
2486.433230,-536.266849,-1480.411884,9474.636058
2486.433559,0.000000,-1258.350101,9474.636058
2486.433888,0.000000,-0.000000,9696.697840
2486.434217,612.876398,296.082377,9474.636058
2486.434546,1149.143247,1258.350101,8734.430116
2486.434875,1532.190996,1332.370696,8586.388927
2486.435204,1838.629195,1406.391290,8290.306550
2486.435534,2068.457845,1332.370696,7920.203579
2486.435863,1455.581446,814.226536,8512.368333
2486.436192,1532.190996,222.061783,8586.388927
2486.436521,1149.143247,-296.082377,8882.471304
2486.436850,919.314598,-1036.288319,9104.533087
2486.437179,919.314598,-962.267725,9474.636058
2486.437508,612.876398,-1628.453072,9918.759623
2486.437837,689.485948,-962.267725,9400.615463
2486.438167,1225.752797,-148.041188,9770.718434
2486.438496,995.924147,296.082377,9252.574275
2486.438825,1149.143247,740.205942,8808.450710
2486.439154,1225.752797,888.247130,9104.533087
2486.439483,1149.143247,518.144159,8586.388927
2486.439812,1225.752797,-0.000000,8808.450710
2486.440141,153.219100,-444.123565,9178.553681
2486.440470,-919.314598,-1036.288319,9474.636058
2486.440800,-689.485948,-1406.391290,9844.739029
2486.441129,-995.924147,-1554.432478,9548.656652
2486.441458,-1225.752797,-1184.329507,9548.656652
2486.441787,-612.876398,-814.226536,9548.656652
2486.442116,-306.438199,-74.020594,9178.553681
2486.442445,76.609550,666.185348,8956.491898
2486.442774,459.657299,888.247130,8586.388927
2486.443103,919.314598,1258.350101,8512.368333
2486.443433,1608.800546,962.267725,8216.285956
2486.443762,1762.019645,444.123565,8290.306550
2486.444091,2068.457845,-0.000000,8660.409521
2486.444420,2298.286494,-222.061783,8956.491898
2486.444749,1378.971896,-1258.350101,9104.533087
2486.445078,536.266849,-1258.350101,9326.594869
2486.445407,229.828649,-888.247130,9326.594869
2486.445736,0.000000,-666.185348,9474.636058
2486.446066,-383.047749,-518.144159,9400.615463
2486.446395,-689.485948,296.082377,9548.656652
2486.446724,-766.095498,148.041188,9474.636058
2486.447053,-766.095498,518.144159,9400.615463
2486.447382,-766.095498,518.144159,8956.491898
2486.447711,-995.924147,148.041188,8586.388927
2486.448040,-689.485948,-74.020594,8882.471304
2486.448369,-842.705048,-888.247130,8956.491898
2486.448699,-842.705048,-1554.432478,9104.533087
2486.449028,-766.095498,-1628.453072,9622.677246
2486.449357,-689.485948,-1036.288319,9918.759623
2486.449686,-995.924147,-740.205942,9844.739029
2486.450015,-229.828649,-74.020594,9400.615463
2486.450344,229.828649,370.102971,8956.491898
2486.450673,536.266849,1332.370696,8808.450710
2486.451002,1455.581446,1702.473667,8364.327145
2486.451332,1455.581446,1702.473667,8808.450710
2486.451661,1302.362347,740.205942,8438.347739
2486.451990,1991.848295,-74.020594,8142.265362
2486.452319,766.095498,-370.102971,8512.368333
2486.452648,766.095498,-888.247130,9252.574275
2486.452977,536.266849,-1184.329507,9252.574275
2486.453306,229.828649,-1110.308913,9622.677246
2486.453636,919.314598,-1628.453072,9770.718434
2486.453965,766.095498,-814.226536,9992.780217
2486.454294,766.095498,-74.020594,9474.636058
2486.454623,766.095498,296.082377,9400.615463
2486.454952,919.314598,666.185348,9178.553681
2486.455281,612.876398,296.082377,9104.533087
2486.455610,689.485948,666.185348,8808.450710
2486.455939,153.219100,-0.000000,8808.450710
2486.456269,-306.438199,-296.082377,9326.594869
2486.456598,-612.876398,-1406.391290,9474.636058
2486.456927,-612.876398,-1554.432478,9474.636058
2486.457256,-995.924147,-1554.432478,9770.718434
2486.457585,-842.705048,-1480.411884,9474.636058
2486.457914,-842.705048,-148.041188,9696.697840
2486.458243,0.000000,222.061783,9400.615463
2486.458572,766.095498,1110.308913,8808.450710
2486.458902,1149.143247,1406.391290,8290.306550
2486.459231,1762.019645,1332.370696,8142.265362
2486.459560,2221.676944,1184.329507,7846.182985
2486.459889,2604.724693,740.205942,7846.182985
2486.460218,2374.896044,-0.000000,7698.141797
2486.460547,2145.067394,-444.123565,8512.368333
2486.460876,1302.362347,-962.267725,8808.450710
2486.461205,1149.143247,-1258.350101,9548.656652
2486.461535,-612.876398,-1406.391290,9992.780217
2486.461864,0.000000,-1110.308913,9474.636058
2486.462193,0.000000,-666.185348,9770.718434
2486.462522,0.000000,222.061783,9326.594869
2486.462851,0.000000,666.185348,9178.553681
2486.463180,76.609550,666.185348,8956.491898
2486.463509,76.609550,888.247130,9178.553681
2486.463838,0.000000,148.041188,9104.533087
2486.464168,76.609550,-518.144159,8882.471304
2486.464497,-689.485948,-814.226536,9178.553681
2486.464826,-689.485948,-1332.370696,9474.636058
2486.465155,-995.924147,-1554.432478,9844.739029
2486.465484,-919.314598,-1332.370696,9992.780217
2486.465813,-306.438199,-1110.308913,9548.656652
2486.466142,-383.047749,-518.144159,10066.800811
2486.466471,-153.219100,370.102971,9400.615463
2486.466801,536.266849,814.226536,8660.409521
2486.467130,919.314598,1554.432478,8364.327145
2486.467459,1225.752797,1332.370696,8438.347739
2486.467788,1685.410096,1110.308913,7920.203579
2486.468117,1455.581446,518.144159,7846.182985
2486.468446,2298.286494,-444.123565,8512.368333
2486.468775,1991.848295,-1110.308913,8438.347739
2486.469104,1072.533697,-592.164754,8586.388927
2486.469434,842.705048,-666.185348,9030.512492
2486.469763,536.266849,-740.205942,9326.594869
2486.470092,229.828649,-296.082377,9252.574275
2486.470421,0.000000,-148.041188,9326.594869
2486.470750,383.047749,-74.020594,9252.574275
2486.471079,-612.876398,666.185348,9326.594869
2486.471408,-612.876398,296.082377,9252.574275
2486.471738,-459.657299,-74.020594,9474.636058
2486.472067,-689.485948,-444.123565,9400.615463
2486.472396,-919.314598,-1036.288319,9326.594869
2486.472725,-689.485948,-1184.329507,9844.739029
2486.473054,-766.095498,-1554.432478,9474.636058
2486.473383,-919.314598,-888.247130,9844.739029
2486.473712,0.000000,-592.164754,9770.718434
2486.474041,76.609550,444.123565,8882.471304
2486.474371,383.047749,1036.288319,8512.368333
2486.474700,1149.143247,1184.329507,8142.265362
2486.475029,1838.629195,1184.329507,8216.285956
2486.475358,1532.190996,1924.535449,8216.285956
2486.475687,1838.629195,444.123565,8512.368333
2486.476016,1762.019645,-148.041188,8734.430116
2486.476345,1378.971896,-592.164754,9104.533087
2486.476674,919.314598,-1110.308913,9252.574275
2486.477004,536.266849,-1332.370696,9696.697840
2486.477333,0.000000,-962.267725,10140.821405
2486.477662,-229.828649,-962.267725,10066.800811
2486.477991,919.314598,-222.061783,9918.759623
2486.478320,0.000000,222.061783,9400.615463
2486.478649,459.657299,962.267725,9030.512492
2486.478978,536.266849,1110.308913,8882.471304
2486.479307,459.657299,1110.308913,8512.368333
2486.479637,536.266849,740.205942,8438.347739
2486.479966,383.047749,-444.123565,8660.409521
2486.480295,0.000000,-370.102971,8956.491898
2486.480624,-459.657299,-1702.473667,9548.656652
2486.480953,-1072.533697,-1924.535449,9548.656652
2486.481282,-919.314598,-1554.432478,9696.697840
2486.481611,-612.876398,-814.226536,9474.636058
2486.481940,-383.047749,-296.082377,9252.574275
2486.482270,153.219100,-518.144159,9104.533087
2486.482599,536.266849,666.185348,8512.368333
2486.482928,842.705048,1480.411884,8808.450710
2486.483257,1302.362347,1776.494261,7846.182985
2486.483586,1685.410096,1628.453072,7846.182985
2486.483915,1608.800546,814.226536,8068.244768
2486.484244,2221.676944,222.061783,8290.306550
2486.484573,1838.629195,-518.144159,8660.409521
2486.484902,995.924147,-518.144159,8956.491898
2486.485231,1072.533697,-962.267725,9104.533087
2486.485561,383.047749,-1110.308913,9474.636058
2486.485890,229.828649,-814.226536,9622.677246
2486.486219,229.828649,-296.082377,9770.718434
2486.486548,0.000000,-148.041188,9400.615463
2486.486877,76.609550,-74.020594,9696.697840
2486.487206,-459.657299,-0.000000,9474.636058
2486.487535,0.000000,222.061783,9400.615463
2486.487864,-383.047749,-148.041188,9400.615463
2486.488193,-919.314598,-444.123565,9104.533087
2486.488522,-995.924147,-814.226536,9474.636058
2486.488852,-1072.533697,-888.247130,9474.636058
2486.489181,-1149.143247,-1184.329507,9474.636058
2486.489510,-612.876398,-888.247130,8660.409521
2486.489839,-536.266849,-444.123565,9622.677246
2486.490168,-689.485948,-0.000000,9104.533087
2486.490497,-229.828649,666.185348,8956.491898
2486.490826,459.657299,1258.350101,8808.450710
2486.491155,766.095498,1110.308913,8512.368333
2486.491484,919.314598,740.205942,8660.409521
2486.491813,1532.190996,296.082377,8586.388927
2486.492143,1455.581446,-296.082377,8364.327145
2486.492472,1455.581446,-518.144159,8586.388927
2486.492801,1302.362347,-518.144159,9178.553681
2486.493130,1149.143247,-814.226536,9178.553681
2486.493459,1149.143247,-740.205942,9104.533087
2486.493788,766.095498,-518.144159,9474.636058
2486.494117,1072.533697,-296.082377,9474.636058
2486.494446,1072.533697,-74.020594,9252.574275
2486.494775,229.828649,222.061783,8734.430116
2486.495104,153.219100,592.164754,8734.430116
2486.495433,153.219100,296.082377,8808.450710
2486.495763,-229.828649,-0.000000,8808.450710
2486.496092,0.000000,-666.185348,8808.450710
2486.496421,-689.485948,-1110.308913,9326.594869
2486.496750,-1225.752797,-1702.473667,9696.697840
2486.497079,-1149.143247,-1924.535449,9696.697840
2486.497408,-842.705048,-1702.473667,9474.636058
2486.497737,-459.657299,-1258.350101,9696.697840
2486.498066,229.828649,-592.164754,9400.615463
2486.498395,766.095498,592.164754,8882.471304
2486.498724,995.924147,1110.308913,8586.388927
2486.499054,1685.410096,1406.391290,7994.224174
2486.499383,2068.457845,1628.453072,7698.141797
2486.499712,2068.457845,1406.391290,8142.265362
2486.500041,2221.676944,814.226536,7920.203579
2486.500370,1762.019645,592.164754,8216.285956
2486.500699,1302.362347,-592.164754,9030.512492
2486.501028,995.924147,-888.247130,9400.615463
2486.501357,536.266849,-518.144159,9474.636058
2486.501686,76.609550,-1184.329507,9918.759623
2486.502015,0.000000,-370.102971,9548.656652
2486.502345,229.828649,-0.000000,9622.677246
2486.502674,536.266849,370.102971,9326.594869
2486.503003,536.266849,370.102971,9252.574275
2486.503332,689.485948,444.123565,8808.450710
2486.503661,1149.143247,518.144159,8290.306550
2486.503990,536.266849,148.041188,8586.388927
2486.504319,0.000000,-222.061783,8882.471304
2486.504648,-153.219100,-740.205942,9400.615463
2486.504977,-612.876398,-1036.288319,9548.656652
2486.505306,-612.876398,-1036.288319,9918.759623
2486.505635,-1149.143247,-592.164754,9696.697840
2486.505965,-995.924147,-0.000000,9696.697840
2486.506294,-766.095498,444.123565,9474.636058
2486.506623,-229.828649,814.226536,9252.574275
2486.506952,536.266849,592.164754,8734.430116
2486.507281,536.266849,740.205942,8734.430116
2486.507610,842.705048,370.102971,8660.409521
2486.507939,1378.971896,-518.144159,7698.141797
2486.508268,1225.752797,-370.102971,8660.409521
2486.508597,1455.581446,-888.247130,8956.491898
2486.508926,1149.143247,-814.226536,9326.594869
2486.509256,689.485948,-1036.288319,9474.636058
2486.509585,842.705048,-592.164754,9622.677246
2486.509914,689.485948,-222.061783,9474.636058
2486.510243,76.609550,-0.000000,9326.594869
2486.510572,306.438199,-0.000000,9178.553681
2486.510901,-229.828649,740.205942,9252.574275
2486.511230,-306.438199,740.205942,8808.450710
2486.511559,-612.876398,222.061783,8956.491898
2486.511888,-995.924147,-296.082377,8882.471304
2486.512217,-689.485948,-1184.329507,9326.594869
2486.512547,-842.705048,-2072.576638,9474.636058
2486.512876,-1225.752797,-2220.617826,9622.677246
2486.513205,-1149.143247,-1702.473667,9696.697840
2486.513534,-919.314598,-1332.370696,9400.615463
2486.513863,-306.438199,-296.082377,9474.636058
2486.514192,229.828649,444.123565,9030.512492
2486.514521,842.705048,1258.350101,8438.347739
2486.514850,1608.800546,1702.473667,8364.327145
2486.515179,1991.848295,2294.638420,7698.141797
2486.515508,2068.457845,1702.473667,7476.080014
2486.515837,1685.410096,1036.288319,7772.162391
2486.516167,1455.581446,-0.000000,8068.244768
2486.516496,1149.143247,-666.185348,8364.327145
2486.516825,919.314598,-1184.329507,8956.491898
2486.517154,306.438199,-1776.494261,9178.553681
2486.517483,-459.657299,-2072.576638,10066.800811
2486.517812,0.000000,-1480.411884,9770.718434
2486.518141,689.485948,-814.226536,9844.739029
2486.518470,766.095498,-74.020594,9474.636058
2486.518799,612.876398,666.185348,9252.574275
2486.519128,842.705048,814.226536,9178.553681
2486.519458,1225.752797,1850.514855,9400.615463
2486.519787,766.095498,444.123565,9252.574275
2486.520116,306.438199,296.082377,8956.491898
2486.520445,-229.828649,-592.164754,9548.656652
2486.520774,-766.095498,-1332.370696,9474.636058
2486.521103,-1225.752797,-1554.432478,9696.697840
2486.521432,-1378.971896,-1480.411884,10066.800811
2486.521761,-1225.752797,-1554.432478,9622.677246
2486.522090,-919.314598,-444.123565,9548.656652
2486.522419,-459.657299,444.123565,9104.533087
2486.522749,229.828649,1036.288319,9178.553681
2486.523078,1149.143247,1184.329507,8660.409521
2486.523407,1762.019645,1480.411884,8438.347739
2486.523736,2451.505594,814.226536,8364.327145
2486.524065,2451.505594,-0.000000,8290.306550
2486.524394,1915.238745,-0.000000,8586.388927
2486.524723,1532.190996,-148.041188,8882.471304
2486.525052,1072.533697,-518.144159,9104.533087
2486.525381,612.876398,-740.205942,9400.615463
2486.525710,0.000000,-592.164754,9696.697840
2486.526040,-536.266849,-666.185348,9770.718434
2486.526369,-229.828649,-74.020594,9474.636058
2486.526698,153.219100,148.041188,8734.430116
2486.527027,-306.438199,740.205942,8512.368333
2486.527356,-229.828649,592.164754,8734.430116
2486.527685,0.000000,-0.000000,8364.327145
2486.528014,0.000000,-518.144159,8216.285956
2486.528343,0.000000,-666.185348,8734.430116
2486.528672,-229.828649,-1258.350101,9252.574275
2486.529001,-536.266849,-1776.494261,9326.594869
2486.529330,-689.485948,-1554.432478,9770.718434
2486.529660,-766.095498,-888.247130,9770.718434
2486.529989,-689.485948,-296.082377,9474.636058
2486.530318,-153.219100,222.061783,9326.594869
2486.530647,0.000000,444.123565,8734.430116
2486.530976,459.657299,888.247130,8882.471304
2486.531305,1225.752797,740.205942,8512.368333
2486.531634,995.924147,444.123565,8216.285956
2486.531963,1072.533697,-0.000000,8364.327145
2486.532292,1225.752797,-370.102971,8290.306550
2486.532621,1455.581446,-1110.308913,8512.368333
2486.532951,1608.800546,-1036.288319,9030.512492
2486.533280,612.876398,-1036.288319,9548.656652
2486.533609,842.705048,-740.205942,9400.615463
2486.533938,612.876398,-222.061783,9252.574275
2486.534267,1072.533697,-222.061783,10066.800811
2486.534596,612.876398,-0.000000,9548.656652
2486.534925,0.000000,814.226536,9696.697840
2486.535254,0.000000,-148.041188,9474.636058
2486.535583,-536.266849,370.102971,8438.347739
2486.535912,-229.828649,-0.000000,9548.656652
2486.536242,-766.095498,-1036.288319,9622.677246
2486.536571,-766.095498,-370.102971,9474.636058
2486.536900,-919.314598,-1480.411884,9770.718434
2486.537229,-689.485948,-1110.308913,9104.533087
2486.537558,-459.657299,-888.247130,9548.656652
2486.537887,-153.219100,-296.082377,8808.450710
2486.538216,383.047749,296.082377,8808.450710
2486.538545,1608.800546,962.267725,9030.512492
2486.538874,1685.410096,1332.370696,8216.285956
2486.539203,2068.457845,1554.432478,8216.285956
2486.539532,1991.848295,1184.329507,8512.368333
2486.539862,2068.457845,444.123565,8068.244768
2486.540191,1915.238745,-0.000000,8586.388927
2486.540520,1149.143247,-1184.329507,9326.594869
2486.540849,383.047749,-1110.308913,9548.656652
2486.541178,153.219100,-1776.494261,9696.697840
2486.541507,0.000000,-1110.308913,10288.862594
2486.541836,153.219100,-666.185348,9844.739029
2486.542165,153.219100,-666.185348,9474.636058
2486.542494,306.438199,148.041188,9252.574275
2486.542823,1072.533697,592.164754,8882.471304
2486.543153,1072.533697,888.247130,8808.450710
2486.543482,1149.143247,296.082377,8586.388927
2486.543811,383.047749,-0.000000,8512.368333
2486.544140,0.000000,-296.082377,8734.430116
2486.544469,-536.266849,-814.226536,9104.533087
2486.544798,-995.924147,-1628.453072,9548.656652
2486.545127,-919.314598,-1554.432478,10214.842000
2486.545456,-766.095498,-1776.494261,10066.800811
2486.545785,-766.095498,-1036.288319,10362.883188
2486.546114,-612.876398,-74.020594,9770.718434
2486.546444,0.000000,444.123565,9622.677246
2486.546773,229.828649,1110.308913,8882.471304
2486.547102,842.705048,1406.391290,8438.347739
2486.547431,1608.800546,1480.411884,8068.244768
2486.547760,1838.629195,962.267725,8216.285956
2486.548089,1838.629195,592.164754,8142.265362
2486.548418,1915.238745,-0.000000,8734.430116
2486.548747,1762.019645,-592.164754,8290.306550
2486.549076,1149.143247,-962.267725,8438.347739
2486.549405,995.924147,-1184.329507,9178.553681
2486.549734,689.485948,-1628.453072,9474.636058
2486.550064,459.657299,-592.164754,9326.594869
2486.550393,306.438199,-814.226536,9548.656652
2486.550722,-306.438199,-0.000000,9400.615463
2486.551051,-383.047749,222.061783,8956.491898
2486.551380,-229.828649,444.123565,8956.491898
2486.551709,-459.657299,296.082377,8734.430116
2486.552038,-383.047749,-74.020594,9030.512492
2486.552367,-919.314598,-592.164754,9474.636058
2486.552696,-1378.971896,-1110.308913,9696.697840
2486.553025,-995.924147,-1776.494261,9844.739029
2486.553355,-919.314598,-1406.391290,9474.636058
2486.553684,-842.705048,-1258.350101,9770.718434
2486.554013,-536.266849,-222.061783,9326.594869
2486.554342,0.000000,-0.000000,9104.533087
2486.554671,459.657299,370.102971,9178.553681
2486.555000,1378.971896,592.164754,8586.388927
2486.555329,1455.581446,962.267725,7846.182985
2486.555658,1378.971896,888.247130,8142.265362
2486.555987,1685.410096,296.082377,8068.244768
2486.556316,1532.190996,222.061783,8734.430116
2486.556646,919.314598,-962.267725,8660.409521
2486.556975,1302.362347,-814.226536,9326.594869
2486.557304,76.609550,-1332.370696,9844.739029
2486.557633,383.047749,-888.247130,9474.636058
2486.557962,0.000000,-814.226536,9548.656652
2486.558291,0.000000,-148.041188,9400.615463
2486.558620,306.438199,444.123565,9178.553681
2486.558949,766.095498,888.247130,8956.491898
2486.559278,153.219100,592.164754,8290.306550
2486.559607,689.485948,740.205942,9030.512492
2486.559936,612.876398,-0.000000,8956.491898
2486.560266,153.219100,-296.082377,8660.409521
2486.560595,-612.876398,-1036.288319,9104.533087
2486.560924,-612.876398,-1258.350101,9622.677246
2486.561253,-766.095498,-1406.391290,9622.677246
2486.561582,-766.095498,-962.267725,9992.780217
2486.561911,-459.657299,-592.164754,9474.636058
2486.562240,-76.609550,-0.000000,9696.697840
2486.562569,-153.219100,962.267725,8882.471304
2486.562898,842.705048,1110.308913,9178.553681
2486.563227,1378.971896,962.267725,8142.265362
2486.563557,1608.800546,-0.000000,8364.327145
2486.563886,1991.848295,-0.000000,8734.430116
2486.564215,1991.848295,-0.000000,8512.368333
2486.564544,2374.896044,-444.123565,8216.285956
2486.564873,1608.800546,-370.102971,8882.471304
2486.565202,1302.362347,-814.226536,9178.553681
2486.565531,766.095498,-592.164754,9252.574275
2486.565860,766.095498,-666.185348,9548.656652
2486.566189,153.219100,-148.041188,9844.739029
2486.566518,229.828649,-74.020594,9474.636058
2486.566848,0.000000,-0.000000,9474.636058
2486.567177,-536.266849,444.123565,9178.553681
2486.567506,-459.657299,148.041188,9326.594869
2486.567835,-536.266849,-0.000000,8808.450710
2486.568164,-1149.143247,-518.144159,9178.553681
2486.568493,-995.924147,-1184.329507,9178.553681
2486.568822,-842.705048,-1776.494261,9178.553681
2486.569151,-995.924147,-1628.453072,9548.656652
2486.569480,-842.705048,-1110.308913,9400.615463
2486.569809,-766.095498,-222.061783,9326.594869
2486.570139,0.000000,-0.000000,9178.553681
2486.570468,306.438199,740.205942,8586.388927
2486.570797,842.705048,1332.370696,8142.265362
2486.571126,842.705048,1184.329507,8290.306550
2486.571455,995.924147,1184.329507,8290.306550
2486.571784,1455.581446,888.247130,8290.306550
2486.572113,1302.362347,-0.000000,8290.306550
2486.572442,842.705048,-814.226536,9030.512492
2486.572771,459.657299,-1554.432478,9178.553681
2486.573100,612.876398,-1480.411884,9178.553681
2486.573429,-153.219100,-1406.391290,9918.759623
2486.573759,0.000000,-1258.350101,9844.739029
2486.574088,229.828649,-592.164754,9474.636058
2486.574417,306.438199,-0.000000,9252.574275
2486.574746,612.876398,518.144159,9252.574275
2486.575075,766.095498,666.185348,9104.533087
2486.575404,842.705048,592.164754,9178.553681
2486.575733,536.266849,370.102971,9030.512492
2486.576062,76.609550,-0.000000,8882.471304
2486.576391,-153.219100,-1036.288319,9400.615463
2486.576720,-1072.533697,-814.226536,9622.677246
2486.577050,-995.924147,-2072.576638,9770.718434
2486.577379,-1225.752797,-1776.494261,9844.739029
2486.577708,-995.924147,-1184.329507,10066.800811
2486.578037,-612.876398,-592.164754,9474.636058
2486.578366,0.000000,-0.000000,9474.636058
2486.578695,842.705048,888.247130,9104.533087
2486.579024,1455.581446,1406.391290,8290.306550
2486.579353,1838.629195,1554.432478,7920.203579
2486.579682,2298.286494,1184.329507,8068.244768
2486.580011,2451.505594,666.185348,7698.141797
2486.580341,1838.629195,-0.000000,7920.203579
2486.580670,1762.019645,-370.102971,8882.471304
2486.580999,1991.848295,-888.247130,8956.491898
2486.581328,919.314598,-1184.329507,9474.636058
2486.581657,536.266849,-1036.288319,9622.677246
2486.581986,306.438199,-740.205942,9400.615463
2486.582315,459.657299,-74.020594,9474.636058
2486.582644,306.438199,370.102971,9030.512492
2486.582973,229.828649,740.205942,9104.533087
2486.583302,229.828649,444.123565,8956.491898
2486.583631,76.609550,962.267725,9104.533087
2486.583961,459.657299,-74.020594,8734.430116
2486.584290,0.000000,-370.102971,8882.471304
2486.584619,-612.876398,-962.267725,9400.615463
2486.584948,-612.876398,-1480.411884,9400.615463
2486.585277,-766.095498,-1332.370696,9696.697840
2486.585606,-766.095498,-1406.391290,9622.677246
2486.585935,-459.657299,-222.061783,9770.718434
2486.586264,-153.219100,222.061783,9622.677246
2486.586593,383.047749,592.164754,9326.594869
2486.586922,536.266849,962.267725,8734.430116
2486.587252,1072.533697,1110.308913,8512.368333
2486.587581,1532.190996,962.267725,8364.327145
2486.587910,1532.190996,370.102971,8290.306550
2486.588239,1762.019645,-296.082377,8808.450710
2486.588568,1762.019645,-740.205942,8660.409521
2486.588897,1149.143247,-740.205942,9326.594869
2486.589226,919.314598,-888.247130,9548.656652
2486.589555,459.657299,-666.185348,9400.615463
2486.589884,76.609550,-518.144159,9252.574275
2486.590214,383.047749,-74.020594,9548.656652
2486.590543,306.438199,370.102971,9474.636058
2486.590872,0.000000,-0.000000,9252.574275
2486.591201,-229.828649,666.185348,8808.450710
2486.591530,-536.266849,-0.000000,9030.512492
2486.591859,-689.485948,-0.000000,9104.533087
2486.592188,-536.266849,-370.102971,9178.553681
2486.592517,-1072.533697,-1776.494261,9622.677246
2486.592846,-1072.533697,-1850.514855,9696.697840
2486.593175,-1225.752797,-1628.453072,9622.677246
2486.593505,-919.314598,-1258.350101,9474.636058
2486.593834,-153.219100,-296.082377,9252.574275
2486.594163,229.828649,148.041188,8808.450710
2486.594492,842.705048,1406.391290,8512.368333
2486.594821,1455.581446,1628.453072,8142.265362
2486.595150,1685.410096,1702.473667,8068.244768
2486.595479,1762.019645,1184.329507,7994.224174
2486.595808,1378.971896,666.185348,8142.265362
2486.596137,1225.752797,-222.061783,8290.306550
2486.596466,842.705048,-888.247130,9030.512492
2486.596796,459.657299,-1406.391290,9474.636058
2486.597125,383.047749,-2146.597232,9548.656652
2486.597454,0.000000,-1776.494261,9770.718434
2486.597783,536.266849,-1332.370696,9918.759623
2486.598112,612.876398,-296.082377,9326.594869
2486.598441,766.095498,222.061783,9178.553681
2486.598770,919.314598,814.226536,8808.450710
2486.599099,1072.533697,592.164754,8808.450710
2486.599428,842.705048,814.226536,9030.512492
2486.599757,459.657299,296.082377,8290.306550
2486.600087,229.828649,-296.082377,9030.512492
2486.600416,-842.705048,-1036.288319,9474.636058
2486.600745,-842.705048,-1702.473667,9992.780217
2486.601074,-1302.362347,-1924.535449,9770.718434
2486.601403,-1225.752797,-1776.494261,9992.780217
2486.601732,-766.095498,-888.247130,9770.718434
2486.602061,-536.266849,-74.020594,9548.656652
2486.602390,229.828649,1036.288319,9178.553681
2486.602719,842.705048,1332.370696,8512.368333
2486.603049,1455.581446,1628.453072,7846.182985
2486.603378,1838.629195,1850.514855,7994.224174
2486.603707,2374.896044,1628.453072,8142.265362
2486.604036,2298.286494,444.123565,8068.244768
2486.604365,2221.676944,-74.020594,8734.430116
2486.604694,1915.238745,-444.123565,9030.512492
2486.605023,842.705048,-888.247130,9474.636058
2486.605352,383.047749,-1110.308913,9696.697840
2486.605681,76.609550,-888.247130,9770.718434
2486.606010,0.000000,-666.185348,9770.718434
2486.606340,-153.219100,-0.000000,9622.677246
2486.606669,-153.219100,296.082377,9696.697840
2486.606998,-153.219100,814.226536,9474.636058
2486.607327,153.219100,666.185348,8808.450710
2486.607656,-229.828649,148.041188,8882.471304
2486.607985,-306.438199,-74.020594,8956.491898
2486.608314,-536.266849,-740.205942,9030.512492
2486.608643,-766.095498,-1332.370696,9474.636058
2486.608972,-1072.533697,-1850.514855,9770.718434
2486.609301,-1302.362347,-1702.473667,9844.739029
2486.609631,-1072.533697,-1036.288319,9770.718434
2486.609960,-766.095498,-370.102971,9622.677246
2486.610289,-306.438199,-0.000000,9326.594869
2486.610618,0.000000,740.205942,9104.533087
2486.610947,919.314598,1110.308913,8660.409521
2486.611276,842.705048,1406.391290,8290.306550
2486.611605,1455.581446,814.226536,8364.327145
2486.611934,1455.581446,666.185348,8068.244768
2486.612263,1532.190996,-0.000000,8290.306550
2486.612592,1302.362347,-518.144159,8586.388927
2486.612922,842.705048,-740.205942,8734.430116
2486.613251,76.609550,-1406.391290,9252.574275
2486.613580,306.438199,-1332.370696,9252.574275
2486.613909,383.047749,-1332.370696,9474.636058
2486.614238,153.219100,-518.144159,9326.594869
2486.614567,0.000000,-0.000000,9178.553681
2486.614896,-306.438199,148.041188,9030.512492
2486.615225,0.000000,370.102971,9030.512492
2486.615554,383.047749,-0.000000,8734.430116
2486.615884,-306.438199,-0.000000,8438.347739
2486.616213,76.609550,-444.123565,8808.450710
2486.616542,-459.657299,-962.267725,9030.512492
2486.616871,-383.047749,-1406.391290,9030.512492
2486.617200,-766.095498,-1258.350101,9326.594869
2486.617529,-842.705048,-1036.288319,9474.636058
2486.617858,-995.924147,-666.185348,9104.533087
2486.618187,-612.876398,-0.000000,9474.636058
2486.618516,306.438199,666.185348,9030.512492
2486.618845,842.705048,1110.308913,8512.368333
2486.619175,1225.752797,1258.350101,8512.368333
2486.619504,1532.190996,1258.350101,8512.368333
2486.619833,1991.848295,518.144159,8364.327145
2486.620162,1762.019645,-0.000000,8586.388927
2486.620491,1608.800546,-1036.288319,9030.512492
2486.620820,1149.143247,-1036.288319,9252.574275
2486.621149,766.095498,-888.247130,9548.656652
2486.621478,306.438199,-962.267725,9770.718434
2486.621807,536.266849,-592.164754,9918.759623
2486.622136,536.266849,-74.020594,9770.718434
2486.622466,766.095498,-0.000000,9178.553681
2486.622795,1225.752797,740.205942,9400.615463
2486.623124,612.876398,1036.288319,8734.430116
2486.623453,383.047749,1036.288319,8808.450710
2486.623782,536.266849,444.123565,8512.368333
2486.624111,76.609550,-0.000000,8586.388927
2486.624440,-383.047749,-592.164754,8882.471304
2486.624769,-459.657299,-1480.411884,9474.636058
2486.625098,-689.485948,-1554.432478,9474.636058
2486.625427,-1225.752797,-1110.308913,10140.821405
2486.625757,-689.485948,-740.205942,9844.739029
2486.626086,-842.705048,-444.123565,9400.615463
2486.626415,-229.828649,148.041188,9326.594869
2486.626744,536.266849,1036.288319,8734.430116
2486.627073,689.485948,1184.329507,8142.265362
2486.627402,1838.629195,1184.329507,8290.306550
2486.627731,2374.896044,1110.308913,7772.162391
2486.628060,2451.505594,1036.288319,7698.141797
2486.628389,1991.848295,-0.000000,7994.224174
2486.628719,1838.629195,-518.144159,8512.368333
2486.629048,689.485948,-814.226536,8956.491898
2486.629377,612.876398,-1258.350101,9696.697840
2486.629706,0.000000,-592.164754,10658.965565
2486.630035,-229.828649,-1110.308913,9992.780217
2486.630364,-919.314598,-666.185348,9844.739029
2486.630693,-612.876398,-444.123565,9696.697840
2486.631022,-689.485948,-0.000000,9474.636058
2486.631351,-383.047749,370.102971,9326.594869
2486.631680,0.000000,-0.000000,8438.347739
2486.632010,-306.438199,-222.061783,9696.697840
2486.632339,-153.219100,-444.123565,9252.574275
2486.632668,-306.438199,-740.205942,8956.491898
2486.632997,-306.438199,-888.247130,9400.615463
2486.633326,-612.876398,-888.247130,9696.697840
2486.633655,-383.047749,-666.185348,9622.677246
2486.633984,-153.219100,-370.102971,9548.656652
2486.634313,229.828649,740.205942,8808.450710
2486.634642,229.828649,592.164754,8364.327145
2486.634971,919.314598,740.205942,8438.347739
2486.635301,766.095498,1554.432478,7994.224174
2486.635630,689.485948,444.123565,8586.388927
2486.635959,1072.533697,-0.000000,8438.347739
2486.636288,1072.533697,-370.102971,9178.553681
2486.636617,689.485948,-1110.308913,8586.388927
2486.636946,1072.533697,-592.164754,9030.512492
2486.637275,766.095498,-1628.453072,9474.636058
2486.637604,995.924147,-222.061783,8956.491898
2486.637933,1455.581446,-518.144159,9252.574275
2486.638262,842.705048,296.082377,8586.388927
2486.638592,1149.143247,296.082377,8660.409521
2486.638921,842.705048,1110.308913,8882.471304
2486.639250,536.266849,888.247130,8438.347739
2486.639579,919.314598,592.164754,8586.388927
2486.639908,76.609550,-0.000000,8882.471304
2486.640237,-536.266849,-592.164754,9030.512492
2486.640566,-1072.533697,-1628.453072,9400.615463
2486.640895,-1302.362347,-1480.411884,9918.759623
2486.641224,-1915.238745,-1850.514855,10288.862594
2486.641554,-1149.143247,-1554.432478,9622.677246
2486.641883,-842.705048,-518.144159,9696.697840
2486.642212,-306.438199,148.041188,9622.677246
2486.642541,459.657299,962.267725,8956.491898
2486.642870,1302.362347,1184.329507,8660.409521
2486.643199,1915.238745,1554.432478,8216.285956
2486.643528,2528.115143,814.226536,8216.285956
2486.643857,2374.896044,666.185348,8142.265362
2486.644186,2221.676944,296.082377,8216.285956
2486.644515,1915.238745,-518.144159,8438.347739
2486.644845,1225.752797,-666.185348,8956.491898
2486.645174,612.876398,-814.226536,9548.656652
2486.645503,0.000000,-1628.453072,9696.697840
2486.645832,0.000000,-888.247130,9622.677246
2486.646161,0.000000,-370.102971,9696.697840
2486.646490,-383.047749,-148.041188,9474.636058
2486.646819,-612.876398,-0.000000,9326.594869
2486.647148,-766.095498,592.164754,9104.533087
2486.647477,-383.047749,370.102971,9030.512492
2486.647806,-383.047749,-0.000000,9030.512492
2486.648136,-766.095498,-592.164754,8808.450710
2486.648465,-689.485948,-1406.391290,9326.594869
2486.648794,-1072.533697,-1258.350101,9178.553681
2486.649123,-995.924147,-1628.453072,9178.553681
2486.649452,-995.924147,-1184.329507,9548.656652
2486.649781,-995.924147,-888.247130,9474.636058
2486.650110,-689.485948,-518.144159,9030.512492
2486.650439,-536.266849,666.185348,9030.512492
2486.650768,612.876398,1332.370696,8364.327145
2486.651097,689.485948,1332.370696,8068.244768
2486.651427,1149.143247,1258.350101,8290.306550
2486.651756,1225.752797,740.205942,8142.265362
2486.652085,995.924147,-222.061783,8216.285956
2486.652414,1072.533697,-814.226536,8808.450710
2486.652743,766.095498,-1480.411884,9030.512492
2486.653072,1225.752797,-1406.391290,9400.615463
2486.653401,612.876398,-1332.370696,9918.759623
2486.653730,459.657299,-888.247130,9918.759623
2486.654059,229.828649,-592.164754,9622.677246
2486.654389,536.266849,-0.000000,9400.615463
2486.654718,153.219100,740.205942,9474.636058
2486.655047,1838.629195,1036.288319,9030.512492
2486.655376,153.219100,962.267725,8512.368333
2486.655705,-229.828649,592.164754,9104.533087
2486.656034,-229.828649,296.082377,8808.450710
2486.656363,-229.828649,-296.082377,9104.533087
2486.656692,-766.095498,-1628.453072,9178.553681
2486.657021,-995.924147,-1332.370696,9696.697840
2486.657350,-842.705048,-2146.597232,10214.842000
2486.657680,-1149.143247,-1258.350101,9474.636058
2486.658009,0.000000,-296.082377,9400.615463
2486.658338,306.438199,148.041188,9474.636058
2486.658667,919.314598,888.247130,8734.430116
2486.658996,1915.238745,1628.453072,8290.306550
2486.659325,2604.724693,1776.494261,7772.162391
2486.659654,2681.334243,1702.473667,7920.203579
2486.659983,2681.334243,888.247130,8068.244768
2486.660312,2145.067394,444.123565,7772.162391
2486.660641,1991.848295,-222.061783,8734.430116
2486.660971,1302.362347,-1036.288319,9178.553681
2486.661300,536.266849,-1110.308913,9622.677246
2486.661629,229.828649,-1554.432478,9992.780217
2486.661958,-536.266849,-1036.288319,10140.821405
2486.662287,153.219100,-1036.288319,9548.656652
2486.662616,0.000000,-0.000000,9770.718434
2486.662945,0.000000,592.164754,9178.553681
2486.663274,76.609550,518.144159,8882.471304
2486.663603,459.657299,370.102971,8808.450710
2486.663932,689.485948,-0.000000,8660.409521
2486.664262,306.438199,-518.144159,8956.491898
2486.664591,612.876398,-888.247130,9474.636058
2486.664920,-383.047749,-1554.432478,9400.615463
2486.665249,-995.924147,-1110.308913,9844.739029
2486.665578,-1072.533697,-1332.370696,9844.739029
2486.665907,-995.924147,-814.226536,9770.718434
2486.666236,-612.876398,-0.000000,9400.615463
2486.666565,-612.876398,740.205942,9548.656652
2486.666894,995.924147,888.247130,8734.430116
2486.667224,536.266849,1332.370696,8808.450710
2486.667553,1149.143247,1110.308913,8438.347739
2486.667882,1149.143247,592.164754,7920.203579
2486.668211,1455.581446,-0.000000,8364.327145
2486.668540,1455.581446,-962.267725,8882.471304
2486.668869,1455.581446,-1110.308913,8586.388927
2486.669198,1149.143247,-888.247130,8808.450710
2486.669527,1072.533697,-1110.308913,9252.574275
2486.669856,919.314598,-518.144159,9252.574275
2486.670185,612.876398,-0.000000,8956.491898
2486.670515,612.876398,296.082377,9030.512492
2486.670844,689.485948,-0.000000,8808.450710
2486.671173,536.266849,814.226536,8956.491898
2486.671502,153.219100,740.205942,8512.368333
2486.671831,-459.657299,-0.000000,8956.491898
2486.672160,-766.095498,-444.123565,8956.491898
2486.672489,-1149.143247,-1184.329507,9474.636058
2486.672818,-1378.971896,-1628.453072,9474.636058
2486.673147,-1225.752797,-1628.453072,9474.636058
2486.673476,-612.876398,-1480.411884,9992.780217
2486.673806,-689.485948,-1184.329507,9696.697840
2486.674135,-383.047749,-296.082377,9400.615463
2486.674464,383.047749,666.185348,9400.615463
2486.674793,1072.533697,1036.288319,8882.471304
2486.675122,1685.410096,1406.391290,8216.285956
2486.675451,2298.286494,1628.453072,8364.327145
2486.675780,2451.505594,1258.350101,8216.285956
2486.676109,2451.505594,-0.000000,8290.306550
2486.676438,1685.410096,-0.000000,8808.450710
2486.676767,1225.752797,-740.205942,8734.430116
2486.677097,536.266849,-1036.288319,9474.636058
2486.677426,0.000000,-1258.350101,9696.697840
2486.677755,-153.219100,-1776.494261,9622.677246
2486.678084,-153.219100,-592.164754,9622.677246
2486.678413,153.219100,-444.123565,9474.636058
2486.678742,0.000000,296.082377,8808.450710
2486.679071,0.000000,666.185348,9104.533087
2486.679400,229.828649,740.205942,8660.409521
2486.679729,459.657299,592.164754,8586.388927
2486.680059,536.266849,-0.000000,9104.533087
2486.680388,229.828649,-444.123565,9104.533087
2486.680717,0.000000,-1036.288319,9400.615463
2486.681046,-536.266849,-962.267725,9104.533087
2486.681375,-842.705048,-1184.329507,9400.615463
2486.681704,-689.485948,-888.247130,9622.677246
2486.682033,-383.047749,-296.082377,9326.594869
2486.682362,0.000000,444.123565,8956.491898
2486.682691,0.000000,592.164754,8586.388927
2486.683020,306.438199,1110.308913,8660.409521
2486.683350,689.485948,1480.411884,8216.285956
2486.683679,1149.143247,740.205942,8142.265362
2486.684008,1378.971896,-0.000000,8216.285956
2486.684337,1532.190996,-148.041188,8512.368333
2486.684666,1762.019645,-888.247130,8660.409521
2486.684995,1378.971896,-1036.288319,9400.615463
2486.685324,919.314598,-1406.391290,9474.636058
2486.685653,459.657299,-888.247130,9844.739029
2486.685982,689.485948,-518.144159,9622.677246
2486.686311,612.876398,-222.061783,9474.636058
2486.686641,536.266849,370.102971,9474.636058
2486.686970,229.828649,370.102971,9326.594869
2486.687299,-689.485948,666.185348,9400.615463
2486.687628,383.047749,592.164754,8882.471304
2486.687957,-459.657299,296.082377,9104.533087
2486.688286,-919.314598,-444.123565,9030.512492
2486.688615,-1149.143247,-1184.329507,9696.697840
2486.688944,-1378.971896,-1702.473667,9622.677246
2486.689273,-842.705048,-1776.494261,9992.780217
2486.689602,-842.705048,-1110.308913,9696.697840
2486.689932,-306.438199,-148.041188,9400.615463
2486.690261,0.000000,-0.000000,9326.594869
2486.690590,612.876398,1258.350101,8734.430116
2486.690919,1302.362347,1480.411884,8364.327145
2486.691248,1685.410096,1702.473667,8216.285956
2486.691577,2068.457845,1554.432478,8068.244768
2486.691906,2374.896044,518.144159,8290.306550
2486.692235,1991.848295,-74.020594,8512.368333
2486.692564,1455.581446,-666.185348,8882.471304
2486.692893,995.924147,-1258.350101,8808.450710
2486.693222,536.266849,-1258.350101,9178.553681
2486.693552,229.828649,-1406.391290,9400.615463
2486.693881,306.438199,-666.185348,9400.615463
2486.694210,919.314598,-592.164754,9400.615463
2486.694539,153.219100,-0.000000,9178.553681
2486.694868,459.657299,444.123565,8512.368333
2486.695197,153.219100,518.144159,8734.430116
2486.695526,306.438199,518.144159,8734.430116
2486.695855,76.609550,-74.020594,8660.409521
2486.696184,229.828649,-518.144159,8734.430116
2486.696513,-689.485948,-1110.308913,9252.574275
2486.696843,-459.657299,-2072.576638,9252.574275
2486.697172,-919.314598,-1850.514855,9548.656652
2486.697501,-1149.143247,-1406.391290,9622.677246
2486.697830,-842.705048,-1110.308913,9548.656652
2486.698159,-459.657299,-222.061783,9474.636058
2486.698488,306.438199,148.041188,8808.450710
2486.698817,459.657299,888.247130,8808.450710
2486.699146,1225.752797,1480.411884,8438.347739
2486.699475,1455.581446,1628.453072,8586.388927
2486.699804,1915.238745,1036.288319,8142.265362
2486.700134,1838.629195,666.185348,7994.224174
2486.700463,1685.410096,-148.041188,8660.409521
2486.700792,1532.190996,-1036.288319,9326.594869
2486.701121,1378.971896,-1406.391290,9326.594869
2486.701450,1072.533697,-1480.411884,9992.780217
2486.701779,153.219100,-740.205942,9844.739029
2486.702108,536.266849,-444.123565,9622.677246
2486.702437,459.657299,-0.000000,9326.594869
2486.702766,383.047749,888.247130,9326.594869
2486.703095,689.485948,1332.370696,9178.553681
2486.703425,-383.047749,1110.308913,8290.306550
2486.703754,536.266849,518.144159,8734.430116
2486.704083,153.219100,-0.000000,8364.327145
2486.704412,0.000000,-222.061783,8882.471304
2486.704741,-536.266849,-1110.308913,9474.636058
2486.705070,-766.095498,-1480.411884,9696.697840
2486.705399,-842.705048,-1258.350101,9770.718434
2486.705728,-1225.752797,-1110.308913,10436.903782
2486.706057,0.000000,-444.123565,9548.656652
2486.706386,0.000000,-0.000000,9696.697840
2486.706716,612.876398,666.185348,9030.512492
2486.707045,1225.752797,1554.432478,8438.347739
2486.707374,1991.848295,1406.391290,8586.388927
2486.707703,1608.800546,962.267725,7698.141797
2486.708032,2451.505594,592.164754,7846.182985
2486.708361,1991.848295,-0.000000,8068.244768
2486.708690,1685.410096,-592.164754,8808.450710
2486.709019,1149.143247,-1184.329507,9178.553681
2486.709348,536.266849,-1110.308913,9252.574275
2486.709677,0.000000,-1184.329507,9696.697840
2486.710007,-153.219100,-1036.288319,9844.739029
2486.710336,-229.828649,-814.226536,9918.759623
2486.710665,-536.266849,-74.020594,9622.677246
2486.710994,-459.657299,-0.000000,9474.636058
2486.711323,-689.485948,222.061783,9030.512492
2486.711652,-229.828649,148.041188,8808.450710
2486.711981,0.000000,-0.000000,8734.430116
2486.712310,-153.219100,-592.164754,8882.471304
2486.712639,-153.219100,-1406.391290,9030.512492
2486.712968,-459.657299,-1406.391290,9400.615463
2486.713297,-383.047749,-1036.288319,9326.594869
2486.713627,-612.876398,-666.185348,9400.615463
2486.713956,-612.876398,-370.102971,9178.553681
2486.714285,-383.047749,296.082377,8882.471304
2486.714614,0.000000,666.185348,8734.430116
2486.714943,229.828649,962.267725,8216.285956
2486.715272,689.485948,962.267725,8216.285956
2486.715601,689.485948,1406.391290,8364.327145
2486.715930,995.924147,296.082377,8290.306550
2486.716259,1072.533697,-370.102971,8438.347739
2486.716588,995.924147,-1036.288319,8956.491898
2486.716918,1149.143247,-1702.473667,9104.533087
2486.717247,766.095498,-1702.473667,9252.574275
2486.717576,995.924147,-888.247130,9474.636058
2486.717905,995.924147,-592.164754,9622.677246
2486.718234,919.314598,-148.041188,9326.594869
2486.718563,612.876398,592.164754,9178.553681
2486.718892,919.314598,814.226536,8882.471304
2486.719221,919.314598,1110.308913,8808.450710
2486.719550,459.657299,888.247130,8734.430116
2486.719879,76.609550,-0.000000,8586.388927
2486.720209,-459.657299,-222.061783,9178.553681
2486.720538,-842.705048,-1110.308913,9770.718434
2486.720867,-1302.362347,-1776.494261,9992.780217
2486.721196,-1685.410096,-2146.597232,9992.780217
2486.721525,-995.924147,-2220.617826,10510.924376
2486.721854,-536.266849,-888.247130,9696.697840
2486.722183,0.000000,-222.061783,9696.697840
2486.722512,0.000000,962.267725,10066.800811
2486.722841,1378.971896,1554.432478,8734.430116
2486.723170,2298.286494,1850.514855,8216.285956
2486.723500,2604.724693,1924.535449,7698.141797
2486.723829,2911.162892,1406.391290,7624.121203
2486.724158,2528.115143,1332.370696,8068.244768
2486.724487,3064.381992,-0.000000,8512.368333
2486.724816,1685.410096,-444.123565,8586.388927
2486.725145,766.095498,-962.267725,9178.553681
2486.725474,0.000000,-1184.329507,9474.636058
2486.725803,-459.657299,-1554.432478,9844.739029
2486.726132,-766.095498,-1480.411884,9844.739029
2486.726461,-612.876398,-740.205942,9474.636058
2486.726791,-689.485948,-370.102971,9548.656652
2486.727120,-383.047749,-74.020594,9178.553681
2486.727449,0.000000,296.082377,8808.450710
2486.727778,153.219100,-0.000000,8512.368333
2486.728107,383.047749,-0.000000,8290.306550
2486.728436,612.876398,-296.082377,9104.533087
2486.728765,0.000000,-888.247130,9030.512492
2486.729094,-229.828649,-962.267725,8956.491898
2486.729423,-459.657299,-740.205942,9474.636058
2486.729752,-919.314598,-592.164754,9474.636058
2486.730082,-842.705048,-296.082377,9548.656652
2486.730411,-995.924147,-0.000000,9326.594869
2486.730740,-306.438199,-0.000000,8882.471304
2486.731069,-612.876398,370.102971,9178.553681
2486.731398,153.219100,296.082377,8586.388927
2486.731727,612.876398,-0.000000,8734.430116
2486.732056,766.095498,-444.123565,8586.388927
2486.732385,995.924147,-592.164754,8660.409521
2486.732714,1149.143247,-1110.308913,9030.512492
2486.733043,1149.143247,-1184.329507,8364.327145
2486.733372,1302.362347,-888.247130,9178.553681
2486.733702,842.705048,-518.144159,9548.656652
2486.734031,1072.533697,-148.041188,9326.594869
2486.734360,919.314598,296.082377,9252.574275
2486.734689,689.485948,666.185348,9178.553681
2486.735018,459.657299,1332.370696,9252.574275
2486.735347,0.000000,740.205942,9030.512492
2486.735676,76.609550,-0.000000,9400.615463
2486.736005,-536.266849,-222.061783,9326.594869
2486.736334,-919.314598,-888.247130,9252.574275
2486.736663,-1302.362347,-1406.391290,9252.574275
2486.736993,-1532.190996,-1702.473667,9548.656652
2486.737322,-995.924147,-1628.453072,9548.656652
2486.737651,-536.266849,-1184.329507,9548.656652
2486.737980,0.000000,-444.123565,9474.636058
2486.738309,766.095498,148.041188,9548.656652
2486.738638,1838.629195,1258.350101,8808.450710
2486.738967,2068.457845,1628.453072,8216.285956
2486.739296,2528.115143,2146.597232,7846.182985
2486.739625,2681.334243,1554.432478,7920.203579
2486.739954,2681.334243,1332.370696,8364.327145
2486.740284,1991.848295,370.102971,8586.388927
2486.740613,2145.067394,-740.205942,8734.430116
2486.740942,1225.752797,-1184.329507,9104.533087
2486.741271,383.047749,-1480.411884,9622.677246
2486.741600,0.000000,-1258.350101,9770.718434
2486.741929,0.000000,-1110.308913,10066.800811
2486.742258,306.438199,-814.226536,9992.780217
2486.742587,229.828649,-222.061783,9696.697840
2486.742916,0.000000,444.123565,9400.615463
2486.743245,842.705048,592.164754,9104.533087
2486.743575,459.657299,592.164754,8586.388927
2486.743904,766.095498,222.061783,8808.450710
2486.744233,459.657299,-222.061783,8882.471304
2486.744562,-459.657299,-592.164754,8956.491898
2486.744891,-689.485948,-814.226536,9400.615463
2486.745220,-306.438199,-1184.329507,9474.636058
2486.745549,-1072.533697,-1406.391290,9696.697840
2486.745878,-1378.971896,-666.185348,9696.697840
2486.746207,-995.924147,-370.102971,9400.615463
2486.746536,-612.876398,518.144159,9104.533087
2486.746866,-153.219100,814.226536,8290.306550
2486.747195,689.485948,666.185348,8290.306550
2486.747524,1302.362347,1110.308913,8438.347739
2486.747853,1532.190996,148.041188,7994.224174
2486.748182,1685.410096,-0.000000,8068.244768
2486.748511,1762.019645,-296.082377,8364.327145
2486.748840,1685.410096,-592.164754,8586.388927
2486.749169,1302.362347,-1184.329507,9104.533087
2486.749498,1149.143247,-888.247130,9474.636058
2486.749827,766.095498,-740.205942,9400.615463
2486.750157,612.876398,-0.000000,9252.574275
2486.750486,-459.657299,370.102971,9918.759623
2486.750815,153.219100,-0.000000,9474.636058
2486.751144,-383.047749,888.247130,7994.224174
2486.751473,-766.095498,-222.061783,9178.553681
2486.751802,-612.876398,-0.000000,8882.471304
2486.752131,-919.314598,-222.061783,9326.594869
2486.752460,-1378.971896,-1554.432478,9474.636058
2486.752789,-766.095498,-1628.453072,9400.615463
2486.753118,-689.485948,-2590.720797,9474.636058
2486.753447,-459.657299,-1110.308913,9474.636058
2486.753777,0.000000,-1258.350101,9696.697840
2486.754106,0.000000,-222.061783,9326.594869
2486.754435,919.314598,814.226536,9104.533087
2486.754764,1991.848295,1628.453072,8882.471304
2486.755093,1685.410096,1554.432478,8512.368333
2486.755422,2374.896044,1850.514855,8142.265362
2486.755751,2145.067394,1110.308913,8142.265362
2486.756080,1685.410096,814.226536,8216.285956
2486.756409,919.314598,-0.000000,8660.409521
2486.756738,766.095498,-1110.308913,9104.533087
2486.757068,306.438199,-1480.411884,9548.656652
2486.757397,153.219100,-1850.514855,9474.636058
2486.757726,-153.219100,-1776.494261,9696.697840
2486.758055,0.000000,-962.267725,9474.636058
2486.758384,689.485948,-222.061783,8956.491898
2486.758713,766.095498,518.144159,9104.533087
2486.759042,536.266849,962.267725,8734.430116
2486.759371,1838.629195,888.247130,8660.409521
2486.759700,1378.971896,1258.350101,8660.409521
2486.760029,842.705048,222.061783,8956.491898
2486.760359,153.219100,-666.185348,8586.388927
2486.760688,-383.047749,-888.247130,9474.636058
2486.761017,-995.924147,-1554.432478,9696.697840
2486.761346,-1225.752797,-1406.391290,9474.636058
2486.761675,-1532.190996,-1036.288319,10288.862594
2486.762004,-1378.971896,-592.164754,9548.656652
2486.762333,0.000000,-296.082377,9030.512492
2486.762662,-306.438199,814.226536,8734.430116
2486.762991,459.657299,1036.288319,8660.409521
2486.763320,842.705048,1110.308913,8438.347739
2486.763650,1685.410096,962.267725,8216.285956
2486.763979,2374.896044,-0.000000,8216.285956
2486.764308,1225.752797,-148.041188,8512.368333
2486.764637,1838.629195,-370.102971,9030.512492
2486.764966,1532.190996,-666.185348,9178.553681
2486.765295,1072.533697,-740.205942,9326.594869
2486.765624,612.876398,-740.205942,9622.677246
2486.765953,153.219100,-740.205942,9992.780217
2486.766282,0.000000,-74.020594,9992.780217
2486.766611,-766.095498,-296.082377,9474.636058
2486.766941,-536.266849,148.041188,9326.594869
2486.767270,-995.924147,592.164754,8956.491898
2486.767599,-995.924147,222.061783,8956.491898
2486.767928,-536.266849,-0.000000,8660.409521
2486.768257,-766.095498,-296.082377,8660.409521
2486.768586,-459.657299,-1184.329507,9104.533087
2486.768915,-383.047749,-1184.329507,9474.636058
2486.769244,-383.047749,-1184.329507,9474.636058
2486.769573,-306.438199,-666.185348,9548.656652
2486.769902,-229.828649,-370.102971,9400.615463
2486.770232,153.219100,-0.000000,9474.636058
2486.770561,612.876398,962.267725,8882.471304
2486.770890,1225.752797,1702.473667,8956.491898
2486.771219,2068.457845,1184.329507,8068.244768
2486.771548,1225.752797,962.267725,8142.265362
2486.771877,1378.971896,370.102971,7994.224174
2486.772206,919.314598,148.041188,7920.203579
2486.772535,766.095498,-888.247130,8956.491898
2486.772864,459.657299,-1628.453072,9104.533087
2486.773193,0.000000,-1702.473667,9770.718434
2486.773522,536.266849,-1924.535449,9770.718434
2486.773852,0.000000,-740.205942,9252.574275
2486.774181,383.047749,-222.061783,9770.718434
2486.774510,842.705048,74.020594,9400.615463
2486.774839,1302.362347,1036.288319,8808.450710
2486.775168,1149.143247,740.205942,8956.491898
2486.775497,842.705048,666.185348,8956.491898
2486.775826,153.219100,-0.000000,8956.491898
2486.776155,-536.266849,-666.185348,9474.636058
2486.776484,-919.314598,-888.247130,9696.697840
2486.776813,-1302.362347,-1480.411884,9992.780217
2486.777143,-1532.190996,-1702.473667,9992.780217
2486.777472,-1532.190996,-1480.411884,10140.821405
2486.777801,-995.924147,-1258.350101,10140.821405
2486.778130,-995.924147,222.061783,10066.800811
2486.778459,-536.266849,-0.000000,9326.594869
2486.778788,459.657299,740.205942,8808.450710
2486.779117,1455.581446,1554.432478,8290.306550
2486.779446,2298.286494,1850.514855,7846.182985
2486.779775,2604.724693,1554.432478,7550.100608
2486.780104,2528.115143,888.247130,7179.997637
2486.780434,2374.896044,222.061783,8734.430116
2486.780763,2068.457845,-370.102971,8068.244768
2486.781092,919.314598,-592.164754,9548.656652
2486.781421,306.438199,-1702.473667,9770.718434
2486.781750,0.000000,-1184.329507,9622.677246
2486.782079,-229.828649,-888.247130,10066.800811
2486.782408,-766.095498,-592.164754,9992.780217
2486.782737,0.000000,-296.082377,9548.656652
2486.783066,0.000000,148.041188,9474.636058
2486.783395,383.047749,666.185348,8808.450710
2486.783725,306.438199,444.123565,8586.388927
2486.784054,536.266849,370.102971,8290.306550
2486.784383,459.657299,-0.000000,8364.327145
2486.784712,459.657299,-740.205942,9030.512492
2486.785041,-766.095498,-1110.308913,9178.553681
2486.785370,76.609550,-1554.432478,9548.656652
2486.785699,0.000000,-1036.288319,9622.677246
2486.786028,-153.219100,-592.164754,9622.677246
2486.786357,-229.828649,-222.061783,9474.636058
2486.786687,153.219100,592.164754,9326.594869
2486.787016,459.657299,740.205942,8882.471304
2486.787345,995.924147,888.247130,8808.450710
2486.787674,1455.581446,666.185348,8512.368333
2486.788003,1762.019645,-222.061783,8364.327145
2486.788332,1915.238745,-518.144159,8216.285956
2486.788661,1762.019645,-740.205942,8290.306550
2486.788990,1225.752797,-814.226536,8734.430116
2486.789320,1149.143247,-814.226536,8808.450710
2486.789649,842.705048,-666.185348,9252.574275
2486.789978,766.095498,-444.123565,9326.594869
2486.790307,612.876398,-222.061783,9252.574275
2486.790636,766.095498,518.144159,9474.636058
2486.790965,76.609550,370.102971,9326.594869
2486.791294,0.000000,370.102971,9326.594869
2486.791623,-229.828649,370.102971,9178.553681
2486.791953,-1072.533697,-74.020594,9104.533087
2486.792282,-1149.143247,-740.205942,9400.615463
2486.792611,-1455.581446,-1258.350101,9622.677246
2486.792940,-1532.190996,-1702.473667,9696.697840
2486.793269,-1378.971896,-1480.411884,9548.656652
2486.793598,-919.314598,-1110.308913,9474.636058
2486.793927,-995.924147,-592.164754,9326.594869
2486.794256,0.000000,370.102971,8956.491898
2486.794586,383.047749,888.247130,8290.306550
2486.794915,1532.190996,1332.370696,8142.265362
2486.795244,1685.410096,1258.350101,7920.203579
2486.795573,1991.848295,1406.391290,7994.224174
2486.795902,1991.848295,518.144159,7994.224174
2486.796231,1762.019645,-74.020594,8512.368333
2486.796560,919.314598,-814.226536,8734.430116
2486.796889,536.266849,-1406.391290,9548.656652
2486.797219,459.657299,-1924.535449,9918.759623
2486.797548,0.000000,-2146.597232,10066.800811
2486.797877,0.000000,-1258.350101,10510.924376
2486.798206,0.000000,-518.144159,9844.739029
2486.798535,0.000000,-0.000000,9474.636058
2486.798864,229.828649,592.164754,9400.615463
2486.799193,383.047749,1480.411884,9104.533087
2486.799522,536.266849,962.267725,8734.430116
2486.799852,842.705048,-0.000000,8734.430116
2486.800181,689.485948,148.041188,8290.306550
2486.800510,76.609550,-370.102971,8882.471304
2486.800839,-459.657299,-962.267725,9178.553681
2486.801168,-919.314598,-1480.411884,9474.636058
2486.801497,-612.876398,-962.267725,9770.718434
2486.801826,-612.876398,-1036.288319,9992.780217
2486.802155,-153.219100,-444.123565,9696.697840
2486.802485,536.266849,518.144159,9696.697840
2486.802814,536.266849,888.247130,8882.471304
2486.803143,1149.143247,1332.370696,8512.368333
2486.803472,1685.410096,1776.494261,8438.347739
2486.803801,2221.676944,1628.453072,7994.224174
2486.804130,2298.286494,666.185348,7846.182985
2486.804459,2451.505594,-0.000000,8290.306550
2486.804788,1762.019645,-74.020594,8142.265362
2486.805117,1685.410096,-592.164754,8882.471304
2486.805447,919.314598,-814.226536,9400.615463
2486.805776,536.266849,-962.267725,9622.677246
2486.806105,76.609550,-740.205942,9548.656652
2486.806434,229.828649,-296.082377,9622.677246
2486.806763,0.000000,-74.020594,9178.553681
2486.807092,76.609550,-0.000000,9252.574275
2486.807421,-153.219100,444.123565,9326.594869
2486.807750,0.000000,444.123565,8956.491898
2486.808080,-383.047749,-148.041188,9178.553681
2486.808409,-612.876398,-1036.288319,9326.594869
2486.808738,-995.924147,-1406.391290,9400.615463
2486.809067,-1455.581446,-1258.350101,9548.656652
2486.809396,-1149.143247,-1110.308913,9696.697840
2486.809725,-995.924147,-888.247130,9548.656652
2486.810054,-766.095498,-222.061783,9400.615463
2486.810383,-383.047749,148.041188,9030.512492
2486.810713,306.438199,962.267725,8734.430116
2486.811042,612.876398,1406.391290,7920.203579
2486.811371,842.705048,1036.288319,8142.265362
2486.811700,995.924147,888.247130,8290.306550
2486.812029,1072.533697,-0.000000,8512.368333
2486.812358,842.705048,-592.164754,8660.409521
2486.812687,612.876398,-1110.308913,9104.533087
2486.813016,0.000000,-1036.288319,9548.656652
2486.813346,306.438199,-1776.494261,9770.718434
2486.813675,459.657299,-1258.350101,9992.780217
2486.814004,0.000000,-814.226536,9474.636058
2486.814333,306.438199,-370.102971,9178.553681
2486.814662,229.828649,370.102971,8882.471304
2486.814991,536.266849,814.226536,8586.388927
2486.815320,536.266849,888.247130,8290.306550
2486.815649,383.047749,888.247130,8216.285956
2486.815979,536.266849,-0.000000,8660.409521
2486.816308,0.000000,-592.164754,8216.285956
2486.816637,-536.266849,-1406.391290,9030.512492
2486.816966,-842.705048,-1702.473667,9696.697840
2486.817295,-1072.533697,-1850.514855,9474.636058
2486.817624,-995.924147,-1554.432478,9992.780217
2486.817953,-229.828649,-1406.391290,9622.677246
2486.818282,229.828649,-222.061783,9474.636058
2486.818612,1225.752797,370.102971,9474.636058
2486.818941,1532.190996,1332.370696,8586.388927
2486.819270,1991.848295,1628.453072,8290.306550
2486.819599,2374.896044,1480.411884,7994.224174
2486.819928,2374.896044,370.102971,8068.244768
2486.820257,1915.238745,444.123565,8068.244768
2486.820586,2451.505594,-592.164754,8290.306550
2486.820915,1378.971896,-1036.288319,8586.388927
2486.821245,995.924147,-1258.350101,9548.656652
2486.821574,306.438199,-1110.308913,9548.656652
2486.821903,536.266849,-814.226536,9622.677246
2486.822232,306.438199,-592.164754,9918.759623
2486.822561,459.657299,-0.000000,9844.739029
2486.822890,1072.533697,1110.308913,8882.471304
2486.823219,766.095498,666.185348,9104.533087
2486.823548,842.705048,1184.329507,9104.533087
2486.823878,766.095498,592.164754,8956.491898
2486.824207,0.000000,-0.000000,9104.533087
2486.824536,-536.266849,-444.123565,9474.636058
2486.824865,-306.438199,-1258.350101,9474.636058
2486.825194,-689.485948,-888.247130,9770.718434
2486.825523,-995.924147,-666.185348,10066.800811
2486.825852,-1455.581446,-592.164754,9696.697840
2486.826181,-995.924147,-148.041188,9474.636058
2486.826511,-459.657299,370.102971,9104.533087
2486.826840,306.438199,888.247130,8438.347739
2486.827169,1302.362347,666.185348,7994.224174
2486.827498,1838.629195,1332.370696,8364.327145
2486.827827,1762.019645,740.205942,7920.203579
2486.828156,2068.457845,148.041188,7698.141797
2486.828485,1915.238745,-296.082377,8364.327145
2486.828814,1762.019645,-444.123565,8808.450710
2486.829144,842.705048,-888.247130,9178.553681
2486.829473,153.219100,-1258.350101,9992.780217
2486.829802,0.000000,-814.226536,9918.759623
2486.830131,0.000000,-1110.308913,10066.800811
2486.830460,-842.705048,-296.082377,9696.697840
2486.830789,-766.095498,-0.000000,9622.677246
2486.831118,-842.705048,296.082377,8956.491898
2486.831447,-766.095498,-0.000000,9178.553681
2486.831777,-459.657299,-370.102971,8882.471304
2486.832106,-229.828649,-666.185348,8882.471304
2486.832435,-536.266849,-1258.350101,8956.491898
2486.832764,-919.314598,-1110.308913,9474.636058
2486.833093,-612.876398,-1480.411884,9326.594869
2486.833422,-612.876398,-1110.308913,9474.636058
2486.833751,-229.828649,-740.205942,9474.636058
2486.834080,153.219100,-74.020594,9696.697840
2486.834410,612.876398,-0.000000,9400.615463
2486.834739,995.924147,888.247130,8586.388927
2486.835068,766.095498,1480.411884,8290.306550
2486.835397,1072.533697,1258.350101,8364.327145
2486.835726,1378.971896,888.247130,8216.285956
2486.836055,1149.143247,814.226536,8142.265362
2486.836384,1378.971896,-148.041188,8290.306550
2486.836713,1302.362347,-962.267725,9104.533087
2486.837043,1455.581446,-1628.453072,8882.471304
2486.837372,612.876398,-1332.370696,9030.512492
2486.837701,842.705048,-888.247130,9104.533087
2486.838030,842.705048,-444.123565,9326.594869
2486.838359,1149.143247,296.082377,9178.553681
2486.838688,1378.971896,814.226536,9326.594869
2486.839017,306.438199,962.267725,8956.491898
2486.839346,1072.533697,888.247130,9178.553681
2486.839676,689.485948,962.267725,9252.574275
2486.840005,0.000000,296.082377,9030.512492
2486.840334,-229.828649,-518.144159,9474.636058
2486.840663,-1072.533697,-1184.329507,9770.718434
2486.840992,-766.095498,-1628.453072,9992.780217
2486.841321,-1225.752797,-1554.432478,10066.800811
2486.841650,-1302.362347,-962.267725,9918.759623
2486.841979,-1072.533697,-666.185348,9770.718434
