#time,accel_x,accel_y,accel_z
2712.929198,306.438199,-0.000000,8734.430116
2712.929527,0.000000,-222.061783,8882.471304
2712.929857,76.609550,-444.123565,8882.471304
2712.930186,229.828649,-296.082377,9030.512492
2712.930515,153.219100,-296.082377,9030.512492
2712.930844,459.657299,-370.102971,9030.512492
2712.931174,306.438199,-296.082377,9030.512492
2712.931503,306.438199,-148.041188,9030.512492
2712.931832,0.000000,-370.102971,9252.574275
2712.932161,383.047749,-296.082377,9178.553681
2712.932490,383.047749,-148.041188,9326.594869
2712.932820,383.047749,-0.000000,9178.553681
2712.933149,306.438199,-0.000000,9030.512492
2712.933478,459.657299,-222.061783,9326.594869
2712.933807,459.657299,-296.082377,8956.491898
2712.934137,153.219100,-518.144159,9252.574275
2712.934466,229.828649,-370.102971,9400.615463
2712.934795,229.828649,-148.041188,9622.677246
2712.935124,-612.876398,-74.020594,9326.594869
2712.935453,153.219100,-222.061783,9104.533087
2712.935783,229.828649,-222.061783,9252.574275
2712.936112,383.047749,-0.000000,9400.615463
2712.936441,306.438199,-74.020594,9178.553681
2712.936770,536.266849,-296.082377,9178.553681
2712.937100,-153.219100,-0.000000,9474.636058
2712.937429,459.657299,-0.000000,9030.512492
2712.937758,153.219100,-0.000000,8956.491898
2712.938087,229.828649,-0.000000,8882.471304
2712.938416,383.047749,-0.000000,8956.491898
2712.938746,459.657299,-0.000000,9178.553681
2712.939075,383.047749,-296.082377,9104.533087
2712.939404,536.266849,-0.000000,8882.471304
2712.939733,229.828649,-0.000000,9030.512492
2712.940063,306.438199,-0.000000,9030.512492
2712.940392,153.219100,-148.041188,8808.450710
2712.940721,306.438199,-74.020594,8956.491898
2712.941050,536.266849,-74.020594,9178.553681
2712.941379,459.657299,-148.041188,9104.533087
2712.941709,153.219100,-74.020594,9030.512492
2712.942038,383.047749,-296.082377,9030.512492
2712.942367,536.266849,-74.020594,8882.471304
2712.942696,459.657299,-74.020594,8956.491898
2712.943025,383.047749,-0.000000,9104.533087
2712.943355,459.657299,-296.082377,9104.533087
2712.943684,536.266849,-370.102971,9252.574275
2712.944013,0.000000,-518.144159,9252.574275
2712.944342,306.438199,-444.123565,9178.553681
2712.944672,153.219100,-222.061783,9178.553681
2712.945001,306.438199,-296.082377,9030.512492
2712.945330,459.657299,-0.000000,9252.574275
2712.945659,536.266849,-148.041188,9326.594869
2712.945988,459.657299,-148.041188,9400.615463
2712.946318,612.876398,-222.061783,9104.533087
2712.946647,459.657299,-0.000000,8956.491898
2712.946976,306.438199,-0.000000,9326.594869
2712.947305,153.219100,-0.000000,9104.533087
2712.947635,306.438199,-74.020594,9252.574275
2712.947964,383.047749,-518.144159,9252.574275
2712.948293,306.438199,-296.082377,9178.553681
2712.948622,536.266849,-222.061783,9326.594869
2712.948951,153.219100,-222.061783,8956.491898
2712.949281,229.828649,-0.000000,8882.471304
2712.949610,459.657299,-0.000000,9030.512492
2712.949939,153.219100,-0.000000,8734.430116
2712.950268,536.266849,-0.000000,9252.574275
2712.950598,0.000000,-74.020594,9030.512492
2712.950927,306.438199,-296.082377,8808.450710
2712.951256,153.219100,-0.000000,8586.388927
2712.951585,306.438199,-74.020594,8808.450710
2712.951914,229.828649,-222.061783,8956.491898
2712.952244,153.219100,-222.061783,8882.471304
2712.952573,306.438199,-296.082377,9030.512492
2712.952902,229.828649,-296.082377,8956.491898
2712.953231,153.219100,444.123565,8882.471304
2712.953561,0.000000,-74.020594,9104.533087
2712.953890,383.047749,-296.082377,9104.533087
2712.954219,229.828649,-296.082377,8956.491898
2712.954548,306.438199,-222.061783,9104.533087
2712.954877,536.266849,-518.144159,9178.553681
2712.955207,76.609550,-518.144159,9104.533087
2712.955536,229.828649,-518.144159,9252.574275
2712.955865,459.657299,-296.082377,8956.491898
2712.956194,383.047749,-296.082377,9178.553681
2712.956524,536.266849,-148.041188,9178.553681
2712.956853,153.219100,-222.061783,9326.594869
2712.957182,306.438199,-370.102971,9030.512492
2712.957511,689.485948,-370.102971,8956.491898
2712.957840,536.266849,-370.102971,8882.471304
2712.958170,459.657299,-0.000000,9252.574275
2712.958499,536.266849,-296.082377,9030.512492
2712.958828,229.828649,-148.041188,9400.615463
2712.959157,459.657299,-370.102971,9104.533087
2712.959486,536.266849,-814.226536,9696.697840
2712.959816,1225.752797,-814.226536,9400.615463
2712.960145,1072.533697,-666.185348,9326.594869
2712.960474,2068.457845,-518.144159,9400.615463
2712.960803,2374.896044,-370.102971,8882.471304
2712.961133,2681.334243,666.185348,8660.409521
2712.961462,3524.039291,-0.000000,8808.450710
2712.961791,4213.525239,222.061783,8216.285956
2712.962120,3370.820191,740.205942,8216.285956
2712.962449,3140.991542,888.247130,8142.265362
2712.962779,2757.943793,-222.061783,8364.327145
2712.963108,3140.991542,-518.144159,9400.615463
2712.963437,1685.410096,-740.205942,9474.636058
2712.963766,1378.971896,-1406.391290,9992.780217
2712.964096,2068.457845,-2516.700203,9622.677246
2712.964425,2528.115143,-962.267725,9400.615463
2712.964754,2068.457845,-740.205942,9622.677246
2712.965083,3524.039291,-1480.411884,9696.697840
2712.965412,3524.039291,-0.000000,8438.347739
2712.965742,5209.449386,1036.288319,9030.512492
2712.966071,5669.106685,962.267725,7179.997637
2712.966400,4826.401637,1776.494261,9030.512492
2712.966729,5439.278036,1332.370696,8216.285956
2712.967059,4979.620737,1480.411884,7105.977043
2712.967388,4519.963438,518.144159,8512.368333
2712.967717,3064.381992,-0.000000,8734.430116
2712.968046,2604.724693,-0.000000,9622.677246
2712.968375,842.705048,-1554.432478,9770.718434
2712.968705,1072.533697,-962.267725,9918.759623
2712.969034,766.095498,-1480.411884,10214.842000
2712.969363,459.657299,-1332.370696,9918.759623
2712.969692,766.095498,-666.185348,9918.759623
2712.970022,2987.772442,444.123565,10140.821405
2712.970351,2911.162892,444.123565,8216.285956
2712.970680,4443.353888,888.247130,9770.718434
2712.971009,4519.963438,1628.453072,7550.100608
2712.971338,4826.401637,1184.329507,7920.203579
2712.971668,4826.401637,1480.411884,8586.388927
2712.971997,4060.306139,666.185348,8586.388927
2712.972326,3370.820191,-148.041188,8734.430116
2712.972655,2681.334243,-1628.453072,9696.697840
2712.972985,1991.848295,-1184.329507,10140.821405
2712.973314,1762.019645,-2146.597232,9918.759623
2712.973643,1762.019645,-1924.535449,9770.718434
2712.973972,2451.505594,-1184.329507,10288.862594
2712.974301,2681.334243,-592.164754,9326.594869
2712.974631,3217.601092,-148.041188,9030.512492
2712.974960,4519.963438,1036.288319,8660.409521
2712.975289,4366.744339,1702.473667,7994.224174
2712.975618,4826.401637,2368.659014,7550.100608
2712.975948,4443.353888,2368.659014,7105.977043
2712.976277,4060.306139,2220.617826,7846.182985
2712.976606,4749.792088,1332.370696,7994.224174
2712.976935,3294.210641,-148.041188,8364.327145
2712.977264,2528.115143,-740.205942,10288.862594
2712.977594,2068.457845,-2590.720797,10362.883188
2712.977923,1762.019645,-3034.844362,10288.862594
2712.978252,1991.848295,-2812.782580,11103.089130
2712.978581,2528.115143,-2442.679609,10955.047942
2712.978910,4060.306139,-1480.411884,10066.800811
2712.979240,4749.792088,-148.041188,9992.780217
2712.979569,5515.887586,1036.288319,8586.388927
2712.979898,5669.106685,2294.638420,8364.327145
2712.980227,5132.839837,3108.864956,7772.162391
2712.980557,4673.182538,3627.009116,7105.977043
2712.980886,4136.915689,3775.050304,7031.956449
2712.981215,3600.648841,1480.411884,7402.059420
2712.981544,2604.724693,-0.000000,8586.388927
2712.981873,153.219100,-3034.844362,10362.883188
2712.982203,-1225.752797,-3849.070898,10658.965565
2712.982532,-689.485948,-4959.379811,12065.356855
2712.982861,-919.314598,-3849.070898,10732.986159
2712.983190,0.000000,-1924.535449,10732.986159
2712.983520,689.485948,-888.247130,10140.821405
2712.983849,2681.334243,444.123565,10584.944971
2712.984178,5209.449386,962.267725,9474.636058
2712.984507,6894.859482,1850.514855,7846.182985
2712.984836,6588.421283,1406.391290,7698.141797
2712.985166,6358.592633,1628.453072,6957.935855
2712.985495,5669.106685,2960.823768,5847.626942
2712.985824,5745.716235,1850.514855,7846.182985
2712.986153,5286.058936,1702.473667,5995.668130
2712.986483,4903.011187,2960.823768,6957.935855
2712.986812,4826.401637,1110.308913,5847.626942
2712.987141,3753.867940,-1036.288319,7105.977043
2712.987470,766.095498,-5033.400406,11769.274478
2712.987799,-536.266849,-6661.853478,12065.356855
2712.988129,-1378.971896,-3108.864956,11991.336260
2712.988458,-1225.752797,-8068.244768,13693.809927
2712.988787,-1455.581446,-666.185348,10066.800811
2712.989116,1838.629195,-444.123565,13027.624579
2712.989446,2911.162892,1184.329507,9844.739029
2712.989775,5439.278036,2442.679609,9252.574275
2712.990104,7660.954980,666.185348,9918.759623
2712.990433,7354.516781,2664.741391,7920.203579
2712.990762,8273.831378,4441.235652,6365.771101
2712.991092,8350.440928,2368.659014,5921.647536
2712.991421,7737.564530,1924.535449,5255.462188
2712.991750,7277.907231,2960.823768,6291.750507
2712.992079,6205.373534,296.082377,6735.874072
2712.992409,3830.477490,2294.638420,6365.771101
2712.992738,4826.401637,-0.000000,7179.997637
2712.993067,1685.410096,-3034.844362,10288.862594
2712.993396,-1991.848295,-6587.832884,12361.439231
2712.993725,-2834.553343,-0.000000,11843.295072
2712.994055,-842.705048,-7476.080014,13767.830521
2712.994384,-1838.629195,-518.144159,9104.533087
2712.994713,1455.581446,1406.391290,13397.727550
2712.995042,919.314598,592.164754,10288.862594
2712.995371,153.219100,1480.411884,12065.356855
2712.995701,7048.078582,-1406.391290,9918.759623
2712.996030,9269.755526,1776.494261,6365.771101
2712.996359,7048.078582,1110.308913,7476.080014
2712.996688,6052.154434,296.082377,5181.441594
2712.997018,6665.030833,1036.288319,7105.977043
2712.997347,5745.716235,1184.329507,7402.059420
2712.997676,5745.716235,2072.576638,4589.276840
2712.998005,4443.353888,2368.659014,9326.594869
2712.998334,2757.943793,1184.329507,7031.956449
2712.998664,3907.087040,1258.350101,9326.594869
2712.998993,1302.362347,-1184.329507,9252.574275
2712.999322,995.924147,-3108.864956,11917.315666
2712.999651,-1072.533697,-1480.411884,11769.274478
2712.999981,153.219100,-5773.606348,12953.603985
2713.000310,-1915.238745,-1110.308913,9992.780217
2713.000639,1455.581446,296.082377,11843.295072
2713.000968,1455.581446,518.144159,9252.574275
2713.001297,2604.724693,666.185348,8512.368333
2713.001627,3983.696590,1036.288319,8142.265362
2713.001956,4673.182538,1332.370696,7920.203579
2713.002285,4136.915689,2072.576638,7105.977043
2713.002614,3907.087040,-1110.308913,8068.244768
2713.002943,3600.648841,-962.267725,8068.244768
2713.003272,3217.601092,-1924.535449,9770.718434
2713.003602,2681.334243,-1998.556043,10510.924376
2713.003931,1378.971896,-666.185348,9918.759623
2713.004260,2374.896044,-296.082377,11029.068536
2713.004589,2451.505594,1258.350101,9844.739029
2713.004918,4060.306139,888.247130,9400.615463
2713.005247,3447.429741,1036.288319,9178.553681
2713.005576,4673.182538,1776.494261,8068.244768
2713.005906,5592.497135,1406.391290,8586.388927
2713.006235,5439.278036,1554.432478,7772.162391
2713.006564,4826.401637,222.061783,7920.203579
2713.006893,3983.696590,-0.000000,8068.244768
2713.007222,3677.258390,-296.082377,7920.203579
2713.007551,2298.286494,-444.123565,8808.450710
2713.007881,919.314598,-1480.411884,10510.924376
2713.008210,229.828649,-2294.638420,10732.986159
2713.008539,459.657299,-2368.659014,10362.883188
2713.008868,1685.410096,-1554.432478,9696.697840
2713.009197,1532.190996,-1332.370696,10288.862594
2713.009526,1762.019645,-1258.350101,11251.130318
2713.009855,3524.039291,-148.041188,10066.800811
2713.010185,5822.325785,1850.514855,8438.347739
2713.010514,6818.249932,1850.514855,8068.244768
2713.010843,5209.449386,1258.350101,9104.533087
2713.011172,4673.182538,1036.288319,8808.450710
2713.011501,5286.058936,1776.494261,7179.997637
2713.011830,6205.373534,-74.020594,7624.121203
2713.012159,5439.278036,1258.350101,6957.935855
2713.012489,5286.058936,592.164754,7994.224174
2713.012818,4596.572988,-0.000000,7624.121203
2713.013147,3524.039291,-1258.350101,9104.533087
2713.013476,2298.286494,-3034.844362,11251.130318
2713.013805,1532.190996,-1184.329507,10955.047942
2713.014134,229.828649,-592.164754,10807.006753
2713.014463,766.095498,-888.247130,9992.780217
2713.014793,3064.381992,-1406.391290,9696.697840
2713.015122,2681.334243,-0.000000,10584.944971
2713.015451,3600.648841,814.226536,9696.697840
2713.015780,4749.792088,962.267725,7328.038826
2713.016109,4596.572988,2516.700203,6809.894666
2713.016438,4826.401637,2294.638420,7772.162391
2713.016767,5286.058936,296.082377,7550.100608
2713.017097,3064.381992,-0.000000,6735.874072
2713.017426,2604.724693,-0.000000,7994.224174
2713.017755,1608.800546,-1332.370696,8734.430116
2713.018084,1455.581446,-2072.576638,9400.615463
2713.018413,-153.219100,-2368.659014,9770.718434
2713.018742,-1225.752797,-1184.329507,9992.780217
2713.019071,0.000000,-2516.700203,9992.780217
2713.019401,383.047749,-74.020594,9030.512492
2713.019730,766.095498,-1036.288319,10658.965565
2713.020059,2451.505594,-592.164754,9918.759623
2713.020388,2681.334243,-0.000000,8956.491898
2713.020717,2681.334243,1628.453072,7698.141797
2713.021046,3447.429741,74.020594,8364.327145
2713.021375,4136.915689,1628.453072,7105.977043
2713.021705,3983.696590,2368.659014,6957.935855
2713.022034,3753.867940,888.247130,8734.430116
2713.022363,1685.410096,-0.000000,8364.327145
2713.022692,536.266849,-518.144159,8808.450710
2713.023021,-1149.143247,-1036.288319,9474.636058
2713.023350,-2681.334243,-1406.391290,9992.780217
2713.023679,-2604.724693,-1628.453072,11473.192101
2713.024009,-1685.410096,-1628.453072,9696.697840
2713.024338,-2221.676944,-1110.308913,10658.965565
2713.024667,-2068.457845,-370.102971,9178.553681
2713.024996,-995.924147,-518.144159,9770.718434
2713.025325,-1302.362347,-296.082377,11325.150913
2713.025654,-1532.190996,814.226536,10140.821405
2713.025983,-612.876398,-0.000000,9030.512492
2713.026313,-383.047749,-592.164754,9844.739029
2713.026642,766.095498,740.205942,9030.512492
2713.026971,2528.115143,148.041188,8882.471304
2713.027300,2451.505594,-0.000000,6735.874072
2713.027629,2145.067394,2072.576638,7476.080014
2713.027958,1685.410096,1924.535449,8512.368333
2713.028288,1225.752797,518.144159,7402.059420
2713.028617,612.876398,-370.102971,8290.306550
2713.028946,689.485948,-1184.329507,10066.800811
2713.029275,0.000000,-1554.432478,9326.594869
2713.029604,-306.438199,-2960.823768,10066.800811
2713.029933,-1149.143247,-814.226536,10140.821405
2713.030262,0.000000,-1036.288319,10658.965565
2713.030592,229.828649,-962.267725,9030.512492
2713.030921,536.266849,-592.164754,9104.533087
2713.031250,1838.629195,518.144159,9178.553681
2713.031579,2528.115143,962.267725,8438.347739
2713.031908,2604.724693,1036.288319,7476.080014
2713.032237,1532.190996,1110.308913,8956.491898
2713.032566,2451.505594,1110.308913,8290.306550
2713.032896,1532.190996,-0.000000,7105.977043
2713.033225,1149.143247,-740.205942,9326.594869
2713.033554,842.705048,-1110.308913,9696.697840
2713.033883,536.266849,-1036.288319,8734.430116
2713.034212,-612.876398,-1924.535449,9696.697840
2713.034541,-306.438199,-1776.494261,11103.089130
2713.034870,-383.047749,-962.267725,9844.739029
2713.035200,306.438199,-222.061783,8808.450710
2713.035529,306.438199,-222.061783,10362.883188
2713.035858,1072.533697,666.185348,9918.759623
2713.036187,1225.752797,592.164754,8068.244768
2713.036516,766.095498,740.205942,8956.491898
2713.036845,689.485948,962.267725,10288.862594
2713.037174,306.438199,296.082377,7550.100608
2713.037504,306.438199,592.164754,8290.306550
2713.037833,-153.219100,-74.020594,10436.903782
2713.038162,-383.047749,-1332.370696,9770.718434
2713.038491,-689.485948,-740.205942,8586.388927
2713.038820,-536.266849,-962.267725,9992.780217
2713.039149,-919.314598,-148.041188,10214.842000
2713.039478,-1302.362347,-444.123565,8290.306550
2713.039808,-459.657299,-740.205942,9622.677246
2713.040137,0.000000,-1036.288319,10214.842000
2713.040466,842.705048,296.082377,8068.244768
2713.040795,1149.143247,-0.000000,7476.080014
2713.041124,766.095498,1406.391290,8586.388927
2713.041453,383.047749,1110.308913,8882.471304
2713.041782,1072.533697,444.123565,7994.224174
2713.042112,383.047749,814.226536,8512.368333
2713.042441,536.266849,-0.000000,9770.718434
2713.042770,-153.219100,-888.247130,8808.450710
2713.043099,-919.314598,-888.247130,9178.553681
2713.043428,-459.657299,-962.267725,10584.944971
2713.043757,76.609550,-518.144159,9104.533087
2713.044086,-459.657299,-1258.350101,9104.533087
2713.044416,76.609550,-370.102971,10066.800811
2713.044745,1149.143247,370.102971,9030.512492
2713.045074,1762.019645,-296.082377,7920.203579
2713.045403,1225.752797,518.144159,6735.874072
2713.045732,1608.800546,1332.370696,9400.615463
2713.046061,995.924147,740.205942,7328.038826
2713.046390,689.485948,-0.000000,8068.244768
2713.046720,76.609550,-592.164754,10436.903782
2713.047049,153.219100,-74.020594,9326.594869
2713.047378,-612.876398,-444.123565,7994.224174
2713.047707,-1378.971896,-1332.370696,9918.759623
2713.048036,-536.266849,-74.020594,9992.780217
2713.048365,-689.485948,-814.226536,8142.265362
2713.048695,-536.266849,-1258.350101,9918.759623
2713.049024,-766.095498,-370.102971,10658.965565
2713.049353,383.047749,222.061783,8956.491898
2713.049682,-459.657299,1036.288319,7402.059420
2713.050011,306.438199,-0.000000,10362.883188
2713.050340,0.000000,-148.041188,8216.285956
2713.050669,383.047749,962.267725,8142.265362
2713.050999,842.705048,-1628.453072,9844.739029
2713.051328,383.047749,148.041188,8660.409521
2713.051657,306.438199,-666.185348,7846.182985
2713.051986,689.485948,-0.000000,8660.409521
2713.052315,612.876398,-814.226536,10066.800811
2713.052644,766.095498,-0.000000,9104.533087
2713.052973,1608.800546,-592.164754,7994.224174
2713.053303,306.438199,-148.041188,10436.903782
2713.053632,1762.019645,-1110.308913,9622.677246
2713.053961,1685.410096,-74.020594,8142.265362
2713.054290,995.924147,-666.185348,9696.697840
2713.054619,1072.533697,518.144159,9548.656652
2713.054948,1685.410096,-296.082377,8216.285956
2713.055277,919.314598,-888.247130,8068.244768
2713.055607,919.314598,-444.123565,9844.739029
2713.055936,1532.190996,-1110.308913,9770.718434
2713.056265,306.438199,-962.267725,8438.347739
2713.056594,229.828649,-1258.350101,9770.718434
2713.056923,-383.047749,-740.205942,10584.944971
2713.057252,612.876398,-888.247130,8142.265362
2713.057581,153.219100,-0.000000,8512.368333
2713.057911,1762.019645,-814.226536,10732.986159
2713.058240,919.314598,740.205942,8068.244768
2713.058569,1302.362347,-222.061783,8660.409521
2713.058898,-229.828649,888.247130,8734.430116
2713.059227,459.657299,740.205942,9326.594869
2713.059556,0.000000,-74.020594,7402.059420
2713.059885,-383.047749,-518.144159,9474.636058
2713.060215,76.609550,-518.144159,10881.027347
2713.060544,153.219100,-296.082377,8068.244768
2713.060873,-689.485948,-740.205942,8882.471304
2713.061202,-459.657299,666.185348,10510.924376
2713.061531,-383.047749,444.123565,7994.224174
2713.061860,-766.095498,-148.041188,7624.121203
2713.062189,-229.828649,-222.061783,9474.636058
2713.062519,76.609550,592.164754,9326.594869
2713.062848,766.095498,-74.020594,8512.368333
2713.063177,-306.438199,296.082377,8068.244768
2713.063506,-766.095498,-0.000000,10140.821405
2713.063835,0.000000,592.164754,8586.388927
2713.064164,-229.828649,-518.144159,8068.244768
2713.064493,-536.266849,-1554.432478,11251.130318
2713.064823,229.828649,-0.000000,9104.533087
2713.065152,536.266849,-888.247130,7994.224174
2713.065481,536.266849,-592.164754,9844.739029
2713.065810,842.705048,-148.041188,9548.656652
2713.066139,1149.143247,-74.020594,8512.368333
2713.066468,1838.629195,-444.123565,8512.368333
2713.066798,1685.410096,592.164754,9326.594869
2713.067127,1915.238745,-0.000000,7624.121203
2713.067456,1838.629195,740.205942,7105.977043
2713.067785,306.438199,148.041188,9400.615463
2713.068114,0.000000,444.123565,9252.574275
2713.068443,0.000000,-74.020594,8216.285956
2713.068772,-1378.971896,-1554.432478,10362.883188
2713.069102,-689.485948,-888.247130,11325.150913
2713.069431,-229.828649,-1184.329507,9474.636058
2713.069760,-1225.752797,-1480.411884,10214.842000
2713.070089,-612.876398,666.185348,10807.006753
2713.070418,229.828649,370.102971,9918.759623
2713.070747,459.657299,-148.041188,9252.574275
2713.071076,919.314598,1258.350101,9622.677246
2713.071406,2528.115143,518.144159,9178.553681
2713.071735,1762.019645,962.267725,6661.853478
2713.072064,1225.752797,962.267725,7920.203579
2713.072393,1072.533697,1480.411884,8882.471304
2713.072722,766.095498,888.247130,7179.997637
2713.073051,76.609550,-740.205942,7994.224174
2713.073380,-766.095498,-1110.308913,9770.718434
2713.073710,-383.047749,-1554.432478,9400.615463
2713.074039,-1302.362347,-1850.514855,9252.574275
2713.074368,-1838.629195,-1036.288319,10140.821405
2713.074697,-919.314598,-814.226536,10066.800811
2713.075026,-306.438199,-592.164754,8364.327145
2713.075355,-383.047749,-148.041188,9548.656652
2713.075684,-459.657299,-740.205942,10510.924376
2713.076014,1685.410096,-666.185348,9326.594869
2713.076343,1762.019645,592.164754,7772.162391
2713.076672,1378.971896,-0.000000,9252.574275
2713.077001,1532.190996,1480.411884,7105.977043
2713.077330,2451.505594,518.144159,6809.894666
2713.077659,842.705048,1702.473667,7550.100608
2713.077988,2451.505594,-740.205942,9474.636058
2713.078318,689.485948,-2072.576638,7624.121203
2713.078647,-1072.533697,-0.000000,9696.697840
2713.078976,-1072.533697,-2294.638420,12065.356855
2713.079305,-1685.410096,-1554.432478,8512.368333
2713.079634,-383.047749,-888.247130,7624.121203
2713.079963,153.219100,-444.123565,11029.068536
2713.080292,919.314598,-888.247130,9548.656652
2713.080622,1302.362347,148.041188,8068.244768
2713.080951,1762.019645,-296.082377,8512.368333
2713.081280,459.657299,888.247130,9030.512492
2713.081609,842.705048,296.082377,7179.997637
2713.081938,153.219100,740.205942,7846.182985
2713.082267,-229.828649,370.102971,10066.800811
2713.082596,0.000000,-740.205942,9474.636058
2713.082926,-689.485948,-592.164754,7920.203579
2713.083255,-2757.943793,-1628.453072,10732.986159
2713.083584,-1685.410096,-1258.350101,10658.965565
2713.083913,-1149.143247,-370.102971,8512.368333
2713.084242,-1225.752797,-666.185348,8956.491898
2713.084571,-536.266849,-444.123565,10436.903782
2713.084900,229.828649,592.164754,8734.430116
2713.085230,-842.705048,-222.061783,8956.491898
2713.085559,612.876398,148.041188,9992.780217
2713.085888,766.095498,962.267725,8438.347739
2713.086217,1455.581446,1036.288319,7698.141797
2713.086546,1149.143247,-74.020594,8068.244768
2713.086875,1532.190996,962.267725,9030.512492
2713.087205,1072.533697,-0.000000,7920.203579
2713.087534,766.095498,-296.082377,8586.388927
2713.087863,459.657299,-592.164754,10584.944971
2713.088192,0.000000,-518.144159,9252.574275
2713.088521,0.000000,-1406.391290,9918.759623
2713.088850,459.657299,-370.102971,10140.821405
2713.089179,1608.800546,-370.102971,10362.883188
2713.089509,1072.533697,-296.082377,8586.388927
2713.089838,1685.410096,1036.288319,9178.553681
2713.090167,995.924147,1110.308913,10066.800811
2713.090496,1838.629195,740.205942,7920.203579
2713.090825,1302.362347,740.205942,7920.203579
2713.091154,459.657299,-370.102971,10584.944971
2713.091483,766.095498,-444.123565,9104.533087
2713.091813,153.219100,-962.267725,8216.285956
2713.092142,-459.657299,-370.102971,10362.883188
2713.092471,-306.438199,-444.123565,10362.883188
2713.092800,919.314598,-1554.432478,8512.368333
2713.093129,-229.828649,-222.061783,8734.430116
2713.093458,842.705048,592.164754,10288.862594
2713.093787,1762.019645,740.205942,8438.347739
2713.094117,995.924147,1332.370696,7550.100608
2713.094446,995.924147,1332.370696,9104.533087
2713.094775,1608.800546,1480.411884,7920.203579
2713.095104,1378.971896,1036.288319,7031.956449
2713.095433,153.219100,-222.061783,9326.594869
2713.095762,76.609550,-222.061783,9474.636058
2713.096091,-919.314598,-1480.411884,8586.388927
2713.096421,-995.924147,-1628.453072,9030.512492
2713.096750,-995.924147,-1036.288319,10584.944971
2713.097079,-766.095498,-1480.411884,9696.697840
2713.097408,-1149.143247,-740.205942,8438.347739
2713.097737,-459.657299,-592.164754,10658.965565
2713.098066,995.924147,-814.226536,10140.821405
2713.098395,1072.533697,666.185348,7846.182985
2713.098725,1378.971896,814.226536,8808.450710
2713.099054,1302.362347,814.226536,8808.450710
2713.099383,1455.581446,1554.432478,7476.080014
2713.099712,1838.629195,148.041188,7994.224174
2713.100041,1685.410096,-222.061783,9844.739029
2713.100370,766.095498,-740.205942,9178.553681
2713.100699,0.000000,-1776.494261,8586.388927
2713.101029,-612.876398,-1850.514855,9622.677246
2713.101358,-1991.848295,-1554.432478,10881.027347
2713.101687,-612.876398,-1406.391290,9918.759623
2713.102016,0.000000,-962.267725,9548.656652
2713.102345,153.219100,666.185348,11029.068536
2713.102674,1762.019645,962.267725,9178.553681
2713.103003,1302.362347,-0.000000,8808.450710
2713.103333,306.438199,1998.556043,9844.739029
2713.103662,1455.581446,1258.350101,7846.182985
2713.103991,842.705048,962.267725,7105.977043
2713.104320,919.314598,222.061783,9252.574275
2713.104649,76.609550,-592.164754,10510.924376
2713.104978,-1378.971896,-1850.514855,9178.553681
2713.105307,-1991.848295,-2072.576638,9326.594869
2713.105636,-1838.629195,-296.082377,10436.903782
2713.105964,-229.828649,-518.144159,8068.244768
2713.106293,-919.314598,370.102971,7179.997637
2713.106622,0.000000,-370.102971,10288.862594
2713.106951,536.266849,-888.247130,10214.842000
2713.107280,612.876398,370.102971,6365.771101
2713.107609,1072.533697,222.061783,8068.244768
2713.107938,459.657299,1110.308913,9474.636058
2713.108267,229.828649,-222.061783,8364.327145
2713.108596,153.219100,370.102971,8438.347739
2713.108925,229.828649,-1554.432478,9992.780217
2713.109254,306.438199,-222.061783,8438.347739
2713.109583,-383.047749,-1924.535449,9104.533087
2713.109911,-1378.971896,-1036.288319,9474.636058
2713.110240,-1225.752797,-1258.350101,10436.903782
2713.110569,0.000000,-1628.453072,8734.430116
2713.110898,-306.438199,-814.226536,9918.759623
2713.111227,1149.143247,-222.061783,10140.821405
2713.111556,1455.581446,1628.453072,7328.038826
2713.111885,2757.943793,-0.000000,8216.285956
2713.112214,2068.457845,1480.411884,7476.080014
2713.112543,1762.019645,1850.514855,8290.306550
2713.112872,1838.629195,-74.020594,8068.244768
2713.113201,919.314598,296.082377,8660.409521
2713.113530,76.609550,-74.020594,9548.656652
2713.113859,842.705048,-1406.391290,9104.533087
2713.114187,-842.705048,-1850.514855,9400.615463
2713.114516,-995.924147,-1110.308913,10658.965565
2713.114845,-383.047749,-740.205942,9992.780217
2713.115174,-383.047749,-444.123565,8512.368333
2713.115503,0.000000,-888.247130,10436.903782
2713.115832,995.924147,666.185348,10362.883188
2713.116161,1149.143247,-0.000000,7624.121203
2713.116490,1072.533697,1110.308913,8290.306550
2713.116819,1149.143247,1184.329507,9252.574275
2713.117148,1149.143247,1480.411884,7846.182985
2713.117477,842.705048,1258.350101,8512.368333
2713.117806,306.438199,-0.000000,9844.739029
2713.118135,459.657299,-888.247130,9326.594869
2713.118463,0.000000,-666.185348,8512.368333
2713.118792,-1225.752797,-962.267725,9918.759623
2713.119121,-689.485948,-888.247130,10288.862594
2713.119450,-1149.143247,-1258.350101,8882.471304
2713.119779,-536.266849,-1480.411884,9104.533087
2713.120108,153.219100,-444.123565,9918.759623
2713.120437,1302.362347,-148.041188,9252.574275
2713.120766,766.095498,-0.000000,7698.141797
2713.121095,995.924147,1184.329507,9400.615463
2713.121424,1685.410096,1554.432478,8290.306550
2713.121753,2298.286494,1184.329507,5847.626942
2713.122082,1532.190996,148.041188,8882.471304
2713.122410,1608.800546,-0.000000,9696.697840
2713.122739,612.876398,-1184.329507,8956.491898
2713.123068,0.000000,-1406.391290,8956.491898
2713.123397,0.000000,-1184.329507,10362.883188
2713.123726,0.000000,-518.144159,9252.574275
2713.124055,-689.485948,-740.205942,8882.471304
2713.124384,0.000000,-962.267725,10584.944971
2713.124713,1072.533697,-0.000000,9770.718434
2713.125042,1072.533697,296.082377,8364.327145
2713.125371,153.219100,74.020594,8882.471304
2713.125700,842.705048,1554.432478,8956.491898
2713.126029,689.485948,1184.329507,7402.059420
2713.126358,0.000000,222.061783,7994.224174
2713.126686,459.657299,-0.000000,10362.883188
2713.127015,0.000000,-592.164754,9252.574275
2713.127344,-1225.752797,-592.164754,8734.430116
2713.127673,-1762.019645,-1184.329507,10510.924376
2713.128002,-1532.190996,-1480.411884,10214.842000
2713.128331,-766.095498,-740.205942,8364.327145
2713.128660,-995.924147,-444.123565,9252.574275
2713.128989,0.000000,-592.164754,10658.965565
2713.129318,1072.533697,444.123565,7550.100608
2713.129647,153.219100,-222.061783,8734.430116
2713.129976,-306.438199,1184.329507,9104.533087
2713.130305,766.095498,962.267725,8956.491898
2713.130634,919.314598,1258.350101,7994.224174
2713.130962,459.657299,1258.350101,9326.594869
2713.131291,919.314598,-0.000000,10881.027347
2713.131620,0.000000,-1702.473667,9030.512492
2713.131949,0.000000,370.102971,9474.636058
2713.132278,0.000000,-1406.391290,10510.924376
2713.132607,-459.657299,-444.123565,9770.718434
2713.132936,-383.047749,-1332.370696,9030.512492
2713.133265,995.924147,-148.041188,9992.780217
2713.133594,1455.581446,-518.144159,9622.677246
2713.133923,2451.505594,-962.267725,7994.224174
2713.134252,1302.362347,-148.041188,8290.306550
2713.134581,1762.019645,1702.473667,8882.471304
2713.134909,1915.238745,888.247130,7328.038826
2713.135238,1302.362347,-0.000000,8364.327145
2713.135567,1149.143247,370.102971,10881.027347
2713.135896,1225.752797,-74.020594,9474.636058
2713.136225,153.219100,-1184.329507,9326.594869
2713.136554,-1608.800546,-1258.350101,10066.800811
2713.136883,-383.047749,-814.226536,10584.944971
2713.137212,-766.095498,-592.164754,8734.430116
2713.137541,-612.876398,-962.267725,9178.553681
2713.137870,383.047749,-444.123565,9918.759623
2713.138199,766.095498,592.164754,8142.265362
2713.138528,766.095498,-0.000000,7179.997637
2713.138857,459.657299,148.041188,9104.533087
2713.139185,153.219100,1036.288319,8586.388927
2713.139514,459.657299,-0.000000,8290.306550
2713.139843,459.657299,-814.226536,8734.430116
2713.140172,612.876398,-74.020594,9400.615463
2713.140501,689.485948,296.082377,8142.265362
2713.140830,76.609550,-0.000000,7994.224174
2713.141159,-612.876398,-148.041188,10362.883188
2713.141488,-229.828649,-0.000000,9030.512492
2713.141817,919.314598,-0.000000,7179.997637
2713.142146,459.657299,-1036.288319,8586.388927
2713.142475,-766.095498,-0.000000,11029.068536
2713.142804,536.266849,-1998.556043,9918.759623
2713.143133,-612.876398,-148.041188,7105.977043
2713.143461,76.609550,-0.000000,9178.553681
2713.143790,383.047749,-444.123565,9030.512492
2713.144119,0.000000,-1036.288319,8734.430116
2713.144448,1762.019645,-222.061783,10140.821405
2713.144777,2298.286494,-888.247130,9104.533087
2713.145106,612.876398,222.061783,7624.121203
2713.145435,766.095498,-370.102971,10140.821405
2713.145764,689.485948,370.102971,10140.821405
2713.146093,1762.019645,370.102971,8364.327145
2713.146422,1762.019645,444.123565,8142.265362
2713.146751,383.047749,666.185348,10066.800811
2713.147080,1991.848295,-888.247130,10214.842000
2713.147408,229.828649,-148.041188,7105.977043
2713.147737,76.609550,-370.102971,9918.759623
2713.148066,-229.828649,-296.082377,8956.491898
2713.148395,612.876398,-148.041188,8364.327145
2713.148724,-229.828649,-1332.370696,9844.739029
2713.149053,1072.533697,-518.144159,10362.883188
2713.149382,306.438199,-1406.391290,8216.285956
2713.149711,-153.219100,370.102971,8882.471304
2713.150040,0.000000,-296.082377,9992.780217
2713.150369,-229.828649,1332.370696,8216.285956
2713.150698,153.219100,962.267725,8660.409521
2713.151027,-306.438199,666.185348,10584.944971
2713.151356,842.705048,-0.000000,9400.615463
2713.151684,919.314598,444.123565,7476.080014
2713.152013,-306.438199,-370.102971,8660.409521
2713.152342,-383.047749,-0.000000,9474.636058
2713.152671,-306.438199,-444.123565,7624.121203
2713.153000,-383.047749,-888.247130,8882.471304
2713.153329,-995.924147,-1184.329507,10584.944971
2713.153658,-229.828649,-518.144159,9400.615463
2713.153987,-612.876398,-1702.473667,9252.574275
2713.154316,-842.705048,-518.144159,9178.553681
2713.154645,0.000000,-0.000000,9400.615463
2713.154974,306.438199,-370.102971,8586.388927
2713.155303,383.047749,-222.061783,8956.491898
2713.155632,1608.800546,666.185348,9770.718434
2713.155960,2145.067394,-0.000000,8512.368333
2713.156289,919.314598,-0.000000,8216.285956
2713.156618,153.219100,1036.288319,9474.636058
2713.156947,-153.219100,666.185348,9104.533087
2713.157276,-153.219100,-518.144159,8364.327145
2713.157605,0.000000,-592.164754,9548.656652
2713.157934,-536.266849,-1110.308913,10362.883188
2713.158263,0.000000,-1776.494261,9474.636058
2713.158592,-383.047749,-1332.370696,8882.471304
2713.158921,153.219100,296.082377,10140.821405
2713.159250,689.485948,296.082377,8734.430116
2713.159579,612.876398,1110.308913,7994.224174
2713.159907,1455.581446,-148.041188,9326.594869
2713.160236,2068.457845,1036.288319,9474.636058
2713.160565,1532.190996,1332.370696,7920.203579
2713.160894,-689.485948,296.082377,8660.409521
2713.161223,-1072.533697,296.082377,9918.759623
2713.161552,-1149.143247,518.144159,9030.512492
2713.161881,-1378.971896,-888.247130,9326.594869
2713.162210,-536.266849,-1628.453072,10436.903782
2713.162539,-1225.752797,-1258.350101,9918.759623
2713.162868,-1455.581446,-2294.638420,9548.656652
2713.163197,-1225.752797,-814.226536,10066.800811
2713.163526,-229.828649,-962.267725,10214.842000
2713.163855,536.266849,-74.020594,8216.285956
2713.164183,1838.629195,962.267725,7772.162391
2713.164512,2528.115143,444.123565,9104.533087
2713.164841,2911.162892,1258.350101,7624.121203
2713.165170,2528.115143,888.247130,6957.935855
2713.165499,1532.190996,814.226536,7994.224174
2713.165828,1532.190996,-0.000000,8956.491898
2713.166157,689.485948,-888.247130,8808.450710
2713.166486,-383.047749,-1554.432478,9252.574275
2713.166815,0.000000,-1184.329507,11029.068536
2713.167144,-153.219100,-1776.494261,9622.677246
2713.167473,229.828649,-1258.350101,9474.636058
2713.167802,-766.095498,-370.102971,11473.192101
2713.168131,1149.143247,592.164754,8956.491898
2713.168459,1915.238745,-0.000000,8142.265362
2713.168788,2604.724693,962.267725,8956.491898
2713.169117,3830.477490,1480.411884,8660.409521
2713.169446,2987.772442,1554.432478,6439.791695
2713.169775,1225.752797,444.123565,7328.038826
2713.170104,1149.143247,814.226536,9326.594869
2713.170433,306.438199,296.082377,7624.121203
2713.170762,-153.219100,-814.226536,7624.121203
2713.171091,-995.924147,-1702.473667,11695.253884
2713.171420,-1149.143247,-2294.638420,11547.212695
2713.171749,-1225.752797,-1258.350101,9326.594869
2713.172078,-1838.629195,-2220.617826,10362.883188
2713.172407,-1915.238745,-370.102971,9844.739029
2713.172735,-153.219100,444.123565,9178.553681
2713.173064,0.000000,370.102971,8068.244768
2713.173393,1762.019645,740.205942,9474.636058
2713.173722,2681.334243,1110.308913,7846.182985
2713.174051,2298.286494,2442.679609,6809.894666
2713.174380,1149.143247,666.185348,8438.347739
2713.174709,689.485948,740.205942,7846.182985
2713.175038,229.828649,-74.020594,7846.182985
2713.175367,-995.924147,-740.205942,8956.491898
2713.175696,-1378.971896,-2368.659014,10955.047942
2713.176025,-1915.238745,-2072.576638,10288.862594
2713.176354,-1685.410096,-2072.576638,10066.800811
2713.176682,-1915.238745,-592.164754,10288.862594
2713.177011,-1532.190996,-0.000000,9918.759623
2713.177340,0.000000,-1406.391290,10436.903782
2713.177669,306.438199,444.123565,10288.862594
2713.177998,2221.676944,370.102971,8808.450710
2713.178327,2451.505594,592.164754,6957.935855
2713.178656,2374.896044,1332.370696,7550.100608
2713.178985,1302.362347,1406.391290,8956.491898
2713.179314,1685.410096,1480.411884,7550.100608
2713.179643,306.438199,-0.000000,7402.059420
2713.179972,229.828649,-666.185348,9992.780217
2713.180301,0.000000,-1554.432478,9844.739029
2713.180630,-1608.800546,-2220.617826,10214.842000
2713.180958,-1455.581446,-2442.679609,10362.883188
2713.181287,-1608.800546,-962.267725,10066.800811
2713.181616,-995.924147,-814.226536,9696.697840
2713.181945,-612.876398,-296.082377,9400.615463
2713.182274,919.314598,-222.061783,10362.883188
2713.182603,1762.019645,666.185348,7920.203579
2713.182932,1991.848295,1406.391290,7105.977043
2713.183261,1378.971896,1258.350101,7772.162391
2713.183590,1225.752797,1110.308913,8216.285956
2713.183919,842.705048,1184.329507,6883.915261
2713.184248,306.438199,-0.000000,9474.636058
2713.184577,-612.876398,-1776.494261,9474.636058
2713.184906,-1225.752797,-1628.453072,9474.636058
2713.185234,-2221.676944,-2812.782580,9696.697840
2713.185563,-2068.457845,-888.247130,10214.842000
2713.185892,-842.705048,-1924.535449,9844.739029
2713.186221,-766.095498,-370.102971,9178.553681
2713.186550,383.047749,-592.164754,10140.821405
2713.186879,1532.190996,370.102971,9030.512492
2713.187208,2987.772442,592.164754,7105.977043
2713.187537,1302.362347,1702.473667,7105.977043
2713.187866,1915.238745,1406.391290,8586.388927
2713.188195,2068.457845,1480.411884,8290.306550
2713.188524,1685.410096,-0.000000,8438.347739
2713.188853,995.924147,-0.000000,9992.780217
2713.189181,689.485948,-1776.494261,10066.800811
2713.189510,-383.047749,-2590.720797,9400.615463
2713.189839,-1302.362347,-1702.473667,10214.842000
2713.190168,-459.657299,-1036.288319,11103.089130
2713.190497,-306.438199,-1258.350101,9918.759623
2713.190826,1072.533697,296.082377,9104.533087
2713.191155,2145.067394,1554.432478,9400.615463
2713.191484,2757.943793,1258.350101,8734.430116
2713.191813,2834.553343,1554.432478,7179.997637
2713.192142,1991.848295,1332.370696,8512.368333
2713.192471,919.314598,1480.411884,8364.327145
2713.192800,612.876398,-296.082377,8734.430116
2713.193129,-1149.143247,-1184.329507,9178.553681
2713.193457,-689.485948,-1110.308913,11177.109724
2713.193786,-842.705048,-1924.535449,8882.471304
2713.194115,-2145.067394,-1628.453072,9326.594869
2713.194444,-1762.019645,-1406.391290,10955.047942
2713.194773,-1455.581446,-370.102971,9474.636058
2713.195102,0.000000,-518.144159,8512.368333
2713.195431,383.047749,-0.000000,9400.615463
2713.195760,1149.143247,518.144159,8586.388927
2713.196089,1072.533697,1924.535449,7550.100608
2713.196418,995.924147,1406.391290,7698.141797
2713.196747,689.485948,962.267725,9104.533087
2713.197076,306.438199,962.267725,7476.080014
2713.197405,-919.314598,-0.000000,8364.327145
2713.197733,-1302.362347,-1258.350101,10584.944971
2713.198062,-612.876398,-1702.473667,10288.862594
2713.198391,-1455.581446,-1554.432478,9548.656652
2713.198720,-1762.019645,-2294.638420,10732.986159
2713.199049,-689.485948,-1110.308913,10436.903782
2713.199378,383.047749,-888.247130,8290.306550
2713.199707,306.438199,-1036.288319,8734.430116
2713.200036,2145.067394,-222.061783,9474.636058
2713.200365,3370.820191,1036.288319,7772.162391
2713.200694,3447.429741,1554.432478,6291.750507
2713.201023,2987.772442,1998.556043,7402.059420
2713.201352,2528.115143,1258.350101,7698.141797
2713.201680,1991.848295,-0.000000,7698.141797
2713.202009,153.219100,-592.164754,8956.491898
2713.202338,76.609550,-2072.576638,10436.903782
2713.202667,-1225.752797,-2146.597232,9474.636058
2713.202996,-1302.362347,-2516.700203,10362.883188
2713.203325,-2298.286494,-1406.391290,10732.986159
2713.203654,-1302.362347,-888.247130,9548.656652
2713.203983,-995.924147,-1332.370696,9474.636058
2713.204312,0.000000,-814.226536,11695.253884
2713.204641,1608.800546,962.267725,7920.203579
2713.204970,2604.724693,370.102971,7254.018232
2713.205299,2374.896044,962.267725,7846.182985
2713.205628,2528.115143,3034.844362,8512.368333
2713.205956,2068.457845,1332.370696,7624.121203
2713.206285,1455.581446,1628.453072,6661.853478
2713.206614,842.705048,-592.164754,9400.615463
2713.206943,-383.047749,-888.247130,9918.759623
2713.207272,-842.705048,-2220.617826,9178.553681
2713.207601,-2221.676944,-1184.329507,10510.924376
2713.207930,-1838.629195,-1850.514855,11251.130318
2713.208259,-1838.629195,-962.267725,10436.903782
2713.208588,-612.876398,-1110.308913,10140.821405
2713.208916,0.000000,-666.185348,9622.677246
2713.209245,1149.143247,740.205942,8438.347739
2713.209574,2451.505594,1258.350101,7550.100608
2713.209903,1685.410096,1702.473667,8068.244768
2713.210232,2451.505594,1702.473667,8660.409521
2713.210561,1915.238745,1110.308913,7254.018232
2713.210890,1149.143247,296.082377,8512.368333
2713.211219,1378.971896,-1184.329507,9770.718434
2713.211548,536.266849,-1776.494261,9178.553681
2713.211876,-995.924147,-1554.432478,9474.636058
2713.212205,-1302.362347,-1998.556043,11177.109724
2713.212534,-1149.143247,-1036.288319,10362.883188
2713.212863,-1072.533697,-1406.391290,9474.636058
2713.213192,-612.876398,-814.226536,10658.965565
2713.213521,1378.971896,-370.102971,9696.697840
2713.213850,1149.143247,1184.329507,8142.265362
2713.214179,2068.457845,1480.411884,7328.038826
2713.214508,1225.752797,1406.391290,9104.533087
2713.214836,1149.143247,1258.350101,7624.121203
2713.215165,1072.533697,666.185348,7698.141797
2713.215494,0.000000,-1036.288319,9474.636058
2713.215823,-1072.533697,-1628.453072,9918.759623
2713.216152,-1225.752797,-1924.535449,9400.615463
2713.216481,-2374.896044,-1406.391290,9992.780217
2713.216810,-2374.896044,-2220.617826,10362.883188
2713.217139,-1532.190996,-1332.370696,9104.533087
2713.217468,-383.047749,-370.102971,8586.388927
2713.217796,0.000000,-0.000000,10066.800811
2713.218125,1302.362347,888.247130,7920.203579
2713.218454,1608.800546,1184.329507,6883.915261
2713.218783,1455.581446,1110.308913,8216.285956
2713.219112,919.314598,2294.638420,7994.224174
2713.219441,1302.362347,222.061783,7402.059420
2713.219770,229.828649,444.123565,7994.224174
2713.220099,766.095498,-592.164754,10214.842000
2713.220428,-459.657299,-1332.370696,8512.368333
2713.220756,-1378.971896,-1776.494261,9104.533087
2713.221085,-1608.800546,-2220.617826,11251.130318
2713.221414,-306.438199,-1480.411884,9400.615463
2713.221743,-689.485948,-1332.370696,9178.553681
2713.222072,383.047749,-814.226536,9622.677246
2713.222401,1608.800546,-0.000000,9992.780217
2713.222730,2757.943793,1184.329507,8882.471304
2713.223059,2298.286494,1184.329507,7624.121203
2713.223388,2451.505594,2294.638420,8660.409521
2713.223717,2681.334243,2738.761985,8512.368333
2713.224045,2068.457845,1850.514855,7920.203579
2713.224374,1762.019645,592.164754,9992.780217
2713.224703,1685.410096,444.123565,9252.574275
2713.225032,0.000000,-1776.494261,9844.739029
2713.225361,-306.438199,-518.144159,10881.027347
2713.225690,-1915.238745,-1850.514855,10881.027347
2713.226019,-1532.190996,-2146.597232,11177.109724
2713.226348,-536.266849,-1110.308913,10214.842000
2713.226677,-766.095498,-1110.308913,9400.615463
2713.227005,1149.143247,-1036.288319,8734.430116
2713.227334,1838.629195,1110.308913,7920.203579
2713.227663,1608.800546,1258.350101,8142.265362
2713.227992,2451.505594,2220.617826,8290.306550
2713.228321,2068.457845,888.247130,7105.977043
2713.228650,1225.752797,962.267725,8142.265362
2713.228979,2068.457845,222.061783,9474.636058
2713.229308,536.266849,-370.102971,7920.203579
2713.229637,-383.047749,-888.247130,8882.471304
2713.229965,-689.485948,-1480.411884,10140.821405
2713.230294,-1532.190996,-1850.514855,9548.656652
2713.230623,-1225.752797,-2590.720797,8512.368333
2713.230952,-1455.581446,-1702.473667,10214.842000
2713.231281,-766.095498,-1332.370696,10288.862594
2713.231610,-306.438199,-0.000000,8068.244768
2713.231939,-383.047749,-0.000000,8216.285956
2713.232268,0.000000,1480.411884,9178.553681
2713.232597,1302.362347,814.226536,7402.059420
2713.232925,229.828649,1110.308913,7920.203579
2713.233254,919.314598,-444.123565,9548.656652
2713.233583,766.095498,-74.020594,8438.347739
2713.233912,766.095498,-740.205942,7550.100608
2713.234241,-306.438199,-222.061783,8956.491898
2713.234570,-306.438199,-740.205942,10658.965565
2713.234899,766.095498,-1702.473667,9696.697840
2713.235228,76.609550,-1554.432478,8956.491898
2713.235557,0.000000,-814.226536,10510.924376
2713.235885,229.828649,-592.164754,9252.574275
2713.236214,766.095498,296.082377,7994.224174
2713.236543,0.000000,962.267725,9400.615463
2713.236872,153.219100,1258.350101,8734.430116
2713.237201,459.657299,370.102971,8438.347739
2713.237530,153.219100,-222.061783,9178.553681
2713.237859,-459.657299,444.123565,9992.780217
2713.238188,76.609550,-1110.308913,8660.409521
2713.238517,-1685.410096,-592.164754,8438.347739
2713.238845,-1378.971896,-0.000000,11251.130318
2713.239174,-612.876398,-444.123565,9178.553681
2713.239503,-612.876398,-1702.473667,9696.697840
2713.239832,-306.438199,-962.267725,9326.594869
2713.240161,919.314598,-740.205942,10436.903782
2713.240490,306.438199,-518.144159,8142.265362
2713.240819,919.314598,444.123565,8216.285956
2713.241148,1149.143247,962.267725,9326.594869
2713.241477,689.485948,1258.350101,7920.203579
2713.241805,1225.752797,518.144159,8216.285956
2713.242134,919.314598,444.123565,8882.471304
2713.242463,1225.752797,-148.041188,9326.594869
2713.242792,0.000000,-814.226536,8808.450710
2713.243121,-536.266849,-1258.350101,9622.677246
2713.243450,-536.266849,-148.041188,10362.883188
2713.243779,459.657299,-1332.370696,8734.430116
2713.244108,842.705048,-888.247130,8808.450710
2713.244437,1302.362347,-666.185348,10362.883188
2713.244765,1762.019645,148.041188,8956.491898
2713.245094,2451.505594,592.164754,8290.306550
2713.245423,2374.896044,1036.288319,8660.409521
2713.245752,1915.238745,1628.453072,8290.306550
2713.246081,1608.800546,1184.329507,7994.224174
2713.246410,459.657299,296.082377,8216.285956
2713.246739,0.000000,-1850.514855,12509.480420
2713.247068,612.876398,-962.267725,7698.141797
2713.247397,306.438199,-592.164754,9548.656652
2713.247725,306.438199,-518.144159,8660.409521
2713.248054,536.266849,370.102971,8438.347739
2713.248383,153.219100,-148.041188,9474.636058
2713.248712,842.705048,-222.061783,8956.491898
2713.249041,1685.410096,-148.041188,8808.450710
2713.249370,1455.581446,-0.000000,7624.121203
2713.249699,1072.533697,518.144159,7254.018232
2713.250028,0.000000,-0.000000,9696.697840
2713.250357,229.828649,592.164754,8512.368333
2713.250685,0.000000,-518.144159,8512.368333
2713.251014,-229.828649,-148.041188,10066.800811
2713.251343,-459.657299,-74.020594,9474.636058
2713.251672,-612.876398,-1480.411884,9622.677246
2713.252001,-2221.676944,-370.102971,8660.409521
2713.252330,-1302.362347,-444.123565,10881.027347
2713.252659,-919.314598,-666.185348,9326.594869
2713.252988,-766.095498,-814.226536,9252.574275
2713.253317,-459.657299,-444.123565,10214.842000
2713.253645,306.438199,-296.082377,8734.430116
2713.253974,536.266849,-0.000000,8216.285956
2713.254303,153.219100,-148.041188,8438.347739
2713.254632,229.828649,296.082377,9178.553681
2713.254961,153.219100,370.102971,7994.224174
2713.255290,459.657299,-444.123565,8956.491898
2713.255619,766.095498,-814.226536,9326.594869
2713.255948,1532.190996,-592.164754,9474.636058
2713.256277,536.266849,-0.000000,7402.059420
2713.256605,229.828649,-1480.411884,10288.862594
2713.256934,229.828649,-222.061783,9770.718434
2713.257263,383.047749,-296.082377,7698.141797
2713.257592,1149.143247,-370.102971,9030.512492
2713.257921,689.485948,-0.000000,9104.533087
2713.258250,536.266849,-592.164754,9030.512492
2713.258579,689.485948,-148.041188,8660.409521
2713.258908,0.000000,592.164754,8808.450710
2713.259237,0.000000,-148.041188,9400.615463
2713.259565,-153.219100,-740.205942,7920.203579
2713.259894,-842.705048,-148.041188,9622.677246
2713.260223,0.000000,-1702.473667,10955.047942
2713.260552,-459.657299,-1184.329507,7994.224174
2713.260881,-536.266849,-518.144159,9474.636058
2713.261210,383.047749,740.205942,9770.718434
2713.261539,1685.410096,296.082377,8734.430116
2713.261868,306.438199,-74.020594,8734.430116
2713.262197,995.924147,1110.308913,9104.533087
2713.262525,1838.629195,666.185348,8660.409521
2713.262854,1378.971896,1480.411884,7846.182985
2713.263183,612.876398,814.226536,8734.430116
2713.263512,306.438199,592.164754,9030.512492
2713.263841,0.000000,-0.000000,9030.512492
2713.264170,-612.876398,-296.082377,9030.512492
2713.264499,0.000000,-1184.329507,11029.068536
2713.264828,-306.438199,-592.164754,9400.615463
2713.265157,-459.657299,-740.205942,9474.636058
2713.265485,-383.047749,-518.144159,10510.924376
2713.265814,229.828649,296.082377,9696.697840
2713.266143,689.485948,-444.123565,8734.430116
2713.266472,1838.629195,-222.061783,9178.553681
2713.266801,2451.505594,814.226536,9178.553681
2713.267130,3140.991542,1406.391290,8216.285956
2713.267459,2374.896044,740.205942,7920.203579
2713.267788,2451.505594,666.185348,9474.636058
2713.268117,1838.629195,444.123565,7772.162391
2713.268446,1072.533697,370.102971,8512.368333
2713.268774,459.657299,-1332.370696,9992.780217
2713.269103,-153.219100,-296.082377,10288.862594
2713.269432,-689.485948,-2072.576638,10584.944971
2713.269761,-1762.019645,-962.267725,9770.718434
2713.270090,-1455.581446,-1628.453072,10510.924376
2713.270419,0.000000,-518.144159,8882.471304
2713.270748,383.047749,-222.061783,8142.265362
2713.271077,919.314598,370.102971,9400.615463
2713.271406,2068.457845,-0.000000,8808.450710
2713.271734,1838.629195,740.205942,7846.182985
2713.272063,459.657299,370.102971,7994.224174
2713.272392,229.828649,888.247130,8734.430116
2713.272721,0.000000,-518.144159,8142.265362
2713.273050,-383.047749,-0.000000,9178.553681
2713.273379,-689.485948,-1184.329507,9474.636058
2713.273708,-1302.362347,-2146.597232,9252.574275
2713.274037,-1838.629195,-1406.391290,9104.533087
2713.274366,-2068.457845,-1628.453072,9178.553681
2713.274694,-1838.629195,-1776.494261,9326.594869
2713.275023,-919.314598,-370.102971,8512.368333
2713.275352,-689.485948,-1406.391290,9992.780217
2713.275681,0.000000,-296.082377,9252.574275
2713.276010,766.095498,-222.061783,7402.059420
2713.276339,689.485948,-222.061783,7476.080014
2713.276668,1072.533697,1036.288319,8438.347739
2713.276997,1378.971896,518.144159,7698.141797
2713.277326,689.485948,-74.020594,7698.141797
2713.277654,1149.143247,-370.102971,8808.450710
2713.277983,919.314598,-740.205942,9770.718434
2713.278312,459.657299,-148.041188,8956.491898
2713.278641,76.609550,-518.144159,8956.491898
2713.278970,459.657299,222.061783,10066.800811
2713.279299,306.438199,296.082377,9104.533087
2713.279628,995.924147,-370.102971,8512.368333
2713.279957,766.095498,-74.020594,9992.780217
2713.280286,1532.190996,740.205942,9252.574275
2713.280614,1378.971896,592.164754,7994.224174
2713.280943,612.876398,-0.000000,9326.594869
2713.281272,229.828649,444.123565,10066.800811
2713.281601,-229.828649,296.082377,9400.615463
2713.281930,-383.047749,-1332.370696,9770.718434
2713.282259,-153.219100,-74.020594,10955.047942
2713.282588,383.047749,-592.164754,9770.718434
2713.282917,153.219100,-814.226536,9696.697840
2713.283246,229.828649,-148.041188,9844.739029
2713.283574,1149.143247,740.205942,9400.615463
2713.283903,1991.848295,370.102971,8660.409521
2713.284232,1302.362347,370.102971,8512.368333
2713.284561,1762.019645,1184.329507,8734.430116
2713.284890,2757.943793,1406.391290,7105.977043
2713.285219,1302.362347,1036.288319,7994.224174
2713.285548,-153.219100,1184.329507,9474.636058
2713.285877,153.219100,-0.000000,8512.368333
2713.286206,-1149.143247,-1036.288319,8660.409521
2713.286534,-842.705048,-1480.411884,10658.965565
2713.286863,-229.828649,-1480.411884,10362.883188
2713.287192,-1608.800546,-2516.700203,9696.697840
2713.287521,-1762.019645,-1036.288319,8882.471304
2713.287850,-995.924147,-296.082377,9178.553681
2713.288179,1072.533697,-888.247130,8364.327145
2713.288508,919.314598,-0.000000,8364.327145
2713.288837,1838.629195,1110.308913,9400.615463
2713.289166,3064.381992,1184.329507,7105.977043
2713.289494,2834.553343,2220.617826,5255.462188
2713.289823,1685.410096,1850.514855,9104.533087
2713.290152,1455.581446,962.267725,9622.677246
2713.290481,459.657299,-0.000000,7179.997637
2713.290810,76.609550,-74.020594,10362.883188
2713.291139,-689.485948,-1554.432478,10658.965565
2713.291468,-842.705048,-2294.638420,9844.739029
2713.291797,-1149.143247,-1776.494261,9474.636058
2713.292126,-1915.238745,-1406.391290,9992.780217
2713.292454,-689.485948,-1184.329507,9918.759623
2713.292783,0.000000,-518.144159,8142.265362
2713.293112,-536.266849,740.205942,8512.368333
2713.293441,-229.828649,444.123565,9326.594869
2713.293770,-153.219100,1332.370696,7402.059420
2713.294099,-536.266849,1480.411884,7402.059420
2713.294428,-1915.238745,1184.329507,8808.450710
2713.294757,-2757.943793,962.267725,8438.347739
2713.295086,-3370.820191,-1036.288319,9030.512492
2713.295414,-4213.525239,-2368.659014,10807.006753
2713.295743,-4060.306139,-2442.679609,9474.636058
2713.296072,-4366.744339,-2368.659014,9918.759623
2713.296401,-5822.325785,-2886.803174,9844.739029
2713.296730,-6358.592633,-1036.288319,9918.759623
2713.297059,-4519.963438,-1702.473667,10362.883188
2713.297388,-3907.087040,-1110.308913,7920.203579
2713.297717,-2987.772442,-1184.329507,9918.759623
2713.298046,-1685.410096,740.205942,9696.697840
2713.298374,-1149.143247,296.082377,8068.244768
2713.298703,-1302.362347,962.267725,8660.409521
2713.299032,-689.485948,1924.535449,6809.894666
2713.299361,306.438199,1998.556043,7179.997637
2713.299690,-1149.143247,2146.597232,6513.812290
2713.300019,-1225.752797,296.082377,8956.491898
2713.300348,-2451.505594,-1776.494261,9770.718434
2713.300677,-1991.848295,-2368.659014,9474.636058
2713.301006,-2221.676944,-1554.432478,9770.718434
2713.301334,-3140.991542,-1554.432478,10214.842000
2713.301663,-3294.210641,-1332.370696,10214.842000
2713.301992,-1915.238745,370.102971,9548.656652
2713.302321,-306.438199,148.041188,9548.656652
2713.302650,-1149.143247,-666.185348,9622.677246
2713.302979,0.000000,444.123565,9696.697840
2713.303308,153.219100,1924.535449,7476.080014
2713.303637,-229.828649,1924.535449,7402.059420
2713.303966,-766.095498,2072.576638,7105.977043
2713.304294,-995.924147,1924.535449,7846.182985
2713.304623,-1455.581446,888.247130,8438.347739
2713.304952,-2451.505594,-592.164754,9030.512492
2713.305281,-3217.601092,-2072.576638,10066.800811
2713.305610,-4903.011187,-1998.556043,8734.430116
2713.305939,-5209.449386,-2146.597232,10584.944971
2713.306268,-6511.811733,-2294.638420,10881.027347
2713.306597,-5898.935335,-2294.638420,10955.047942
2713.306926,-4979.620737,-1036.288319,10288.862594
2713.307255,-3217.601092,666.185348,9326.594869
2713.307584,-2145.067394,-148.041188,8734.430116
2713.307913,-2987.772442,222.061783,8808.450710
2713.308242,-2681.334243,1332.370696,8956.491898
2713.308571,-1915.238745,1702.473667,9178.553681
2713.308900,-1915.238745,1480.411884,6365.771101
2713.309229,-1532.190996,962.267725,8438.347739
2713.309558,-2451.505594,666.185348,7994.224174
2713.309887,-2681.334243,-148.041188,7698.141797
2713.310216,-1762.019645,-1406.391290,9030.512492
2713.310545,-2451.505594,-666.185348,8364.327145
2713.310874,-3447.429741,-1850.514855,10584.944971
2713.311203,-3447.429741,-1776.494261,10436.903782
2713.311532,-3217.601092,-740.205942,9622.677246
2713.311861,-3064.381992,-296.082377,10362.883188
2713.312190,-2221.676944,-222.061783,10140.821405
2713.312519,-2451.505594,-518.144159,10288.862594
2713.312848,-1378.971896,814.226536,9252.574275
2713.313177,-1072.533697,1480.411884,8142.265362
2713.313506,-1302.362347,-148.041188,9178.553681
2713.313835,-919.314598,-666.185348,8586.388927
2713.314164,-306.438199,666.185348,7402.059420
2713.314493,-536.266849,814.226536,6661.853478
2713.314822,-1455.581446,-0.000000,7328.038826
2713.315151,-2451.505594,-1036.288319,9844.739029
2713.315480,-3064.381992,-1924.535449,9400.615463
2713.315809,-2681.334243,-888.247130,8290.306550
2713.316138,-3600.648841,-1998.556043,9326.594869
2713.316467,-3983.696590,-2146.597232,10140.821405
2713.316796,-4136.915689,-1776.494261,11621.233289
2713.317125,-3677.258390,-1924.535449,11251.130318
2713.317454,-2911.162892,-1332.370696,10140.821405
2713.317783,-2757.943793,-518.144159,9474.636058
2713.318112,-2221.676944,1258.350101,8216.285956
2713.318441,-1608.800546,1924.535449,7994.224174
2713.318770,-1838.629195,444.123565,8142.265362
2713.319099,-1608.800546,-0.000000,8808.450710
2713.319428,-1225.752797,-0.000000,8364.327145
2713.319757,-1762.019645,962.267725,6957.935855
2713.320086,-1455.581446,740.205942,6809.894666
2713.320415,-1915.238745,-888.247130,7994.224174
2713.320744,-1991.848295,-1184.329507,9326.594869
2713.321073,-2604.724693,-1628.453072,9992.780217
2713.321402,-2604.724693,-148.041188,9844.739029
2713.321731,-3370.820191,1554.432478,8290.306550
2713.322060,-3217.601092,1850.514855,7994.224174
2713.322389,-3217.601092,592.164754,9770.718434
2713.322718,-3907.087040,-0.000000,10066.800811
2713.323047,-4443.353888,592.164754,9918.759623
2713.323376,-4060.306139,-0.000000,9770.718434
2713.323705,-4366.744339,-888.247130,9400.615463
2713.324034,-3983.696590,-1332.370696,10140.821405
2713.324363,-3983.696590,-1850.514855,9696.697840
2713.324693,-3370.820191,-1776.494261,9104.533087
2713.325022,-3140.991542,-1036.288319,9400.615463
2713.325351,-2757.943793,-222.061783,8882.471304
2713.325680,-2604.724693,-0.000000,9326.594869
2713.326009,-2298.286494,296.082377,9400.615463
2713.326338,-1915.238745,370.102971,9252.574275
2713.326667,-1608.800546,-0.000000,9548.656652
2713.326996,-1608.800546,-0.000000,9622.677246
2713.327325,-1378.971896,-0.000000,9548.656652
2713.327654,-1532.190996,-370.102971,9548.656652
2713.327983,-1915.238745,-0.000000,9326.594869
2713.328312,-1302.362347,-0.000000,9252.574275
2713.328641,-1762.019645,148.041188,8216.285956
2713.328970,-1225.752797,518.144159,7994.224174
2713.329299,-1149.143247,-74.020594,7772.162391
2713.329628,-2298.286494,-444.123565,8512.368333
2713.329957,-2757.943793,-740.205942,8290.306550
2713.330286,-2911.162892,-1110.308913,8660.409521
2713.330615,-2834.553343,-296.082377,8512.368333
2713.330944,-3447.429741,-148.041188,9030.512492
2713.331273,-3753.867940,592.164754,9104.533087
2713.331602,-4749.792088,296.082377,9400.615463
2713.331931,-4903.011187,-148.041188,10214.842000
2713.332260,-4443.353888,-1406.391290,10214.842000
2713.332589,-3753.867940,-2294.638420,10732.986159
2713.332918,-2987.772442,-2442.679609,10732.986159
2713.333247,-1378.971896,-1776.494261,9474.636058
2713.333576,-1225.752797,148.041188,7846.182985
2713.333905,-842.705048,1702.473667,7698.141797
2713.334234,689.485948,222.061783,10362.883188
2713.334563,919.314598,2072.576638,5847.626942
2713.334892,2681.334243,2294.638420,7328.038826
2713.335221,-229.828649,1998.556043,5699.585753
2713.335550,-536.266849,1850.514855,7624.121203
2713.335879,-2757.943793,-0.000000,9918.759623
2713.336208,-3677.258390,-1406.391290,10362.883188
2713.336537,-3753.867940,-2294.638420,9622.677246
2713.336866,-5592.497135,-1406.391290,9770.718434
2713.337195,-7201.297681,-3256.906145,11251.130318
2713.337524,-8120.612279,-2368.659014,12213.398043
2713.337853,-4979.620737,-1480.411884,12361.439231
2713.338182,-4366.744339,-1258.350101,10288.862594
2713.338511,-1532.190996,-296.082377,9474.636058
2713.338840,-766.095498,1998.556043,7920.203579
2713.339169,-306.438199,1406.391290,6439.791695
2713.339498,1072.533697,-814.226536,12953.603985
2713.339827,1915.238745,1924.535449,5477.523971
2713.340156,4673.182538,1628.453072,7105.977043
2713.340485,1302.362347,1480.411884,5181.441594
2713.340814,383.047749,2146.597232,7031.956449
2713.341143,-1762.019645,-1184.329507,10732.986159
2713.341472,-3370.820191,-370.102971,8808.450710
2713.341801,-2221.676944,-1702.473667,11399.171507
2713.342130,-4060.306139,-1480.411884,10288.862594
2713.342459,-6052.154434,-740.205942,8882.471304
2713.342788,-6894.859482,-2886.803174,11473.192101
2713.343117,-5898.935335,-444.123565,9844.739029
2713.343446,-5209.449386,-1776.494261,10658.965565
2713.343775,-4290.134789,-1850.514855,9326.594869
2713.344104,-3140.991542,592.164754,8660.409521
2713.344433,-2987.772442,-2294.638420,8734.430116
2713.344762,-2451.505594,-1184.329507,8290.306550
2713.345091,-2221.676944,666.185348,8956.491898
2713.345420,-1378.971896,-666.185348,9474.636058
2713.345749,-2221.676944,518.144159,9030.512492
2713.346078,-2451.505594,-0.000000,9992.780217
2713.346407,-3294.210641,74.020594,8956.491898
2713.346736,-3140.991542,370.102971,9178.553681
2713.347065,-2145.067394,814.226536,8882.471304
2713.347394,-2145.067394,1480.411884,9104.533087
2713.347723,-1915.238745,1554.432478,7994.224174
2713.348052,-2834.553343,1258.350101,7476.080014
2713.348381,-2451.505594,962.267725,8216.285956
2713.348710,-1991.848295,518.144159,7550.100608
2713.349039,-2221.676944,-0.000000,7476.080014
2713.349368,-2145.067394,-296.082377,7994.224174
2713.349697,-2451.505594,-518.144159,9178.553681
2713.350026,-3447.429741,666.185348,8882.471304
2713.350355,-3524.039291,1554.432478,8882.471304
2713.350684,-3447.429741,1258.350101,9178.553681
2713.351013,-3064.381992,1332.370696,9696.697840
2713.351342,-2834.553343,1924.535449,9474.636058
2713.351671,-3294.210641,888.247130,10732.986159
2713.352000,-3524.039291,666.185348,11103.089130
2713.352329,-2451.505594,222.061783,10510.924376
2713.352658,-1455.581446,666.185348,9178.553681
2713.352987,-689.485948,444.123565,9104.533087
2713.353316,-995.924147,1332.370696,8438.347739
2713.353645,0.000000,-962.267725,12287.418637
2713.353974,1532.190996,1776.494261,8142.265362
2713.354303,3677.258390,3108.864956,7328.038826
2713.354632,4060.306139,3775.050304,5329.482782
2713.354961,3064.381992,4737.318029,5921.647536
2713.355290,3370.820191,4589.276840,9104.533087
2713.355619,1838.629195,4071.132681,7328.038826
2713.355948,1838.629195,2886.803174,9770.718434
2713.356277,-612.876398,1850.514855,10288.862594
2713.356606,-1225.752797,2664.741391,10881.027347
2713.356935,-2451.505594,370.102971,12583.501014
2713.357264,-2068.457845,1480.411884,10288.862594
2713.357593,-1532.190996,1332.370696,11695.253884
2713.357922,-689.485948,1702.473667,10362.883188
2713.358251,1149.143247,4145.153275,9400.615463
2713.358580,1532.190996,2442.679609,8364.327145
2713.358909,2374.896044,3627.009116,6587.832884
2713.359238,3370.820191,5847.626942,6143.709319
2713.359567,2604.724693,4367.215058,6957.935855
2713.359896,1685.410096,5625.565159,7105.977043
2713.360225,842.705048,4663.297435,7994.224174
2713.360554,-1225.752797,2590.720797,9622.677246
2713.360883,-3064.381992,1480.411884,10510.924376
2713.361212,-3983.696590,-370.102971,12435.459826
2713.361541,-4213.525239,962.267725,10881.027347
2713.361870,-3677.258390,2886.803174,9992.780217
2713.362199,-3677.258390,2220.617826,10584.944971
2713.362528,-3677.258390,2146.597232,10658.965565
2713.362857,-2451.505594,2072.576638,10955.047942
2713.363186,-1762.019645,2664.741391,9992.780217
2713.363515,-536.266849,3108.864956,7476.080014
2713.363844,-536.266849,2960.823768,7920.203579
2713.364173,-919.314598,2368.659014,10140.821405
2713.364502,1608.800546,2220.617826,9400.615463
2713.364831,3600.648841,4441.235652,5107.421000
2713.365160,4749.792088,4219.173869,6957.935855
2713.365489,2298.286494,4737.318029,6365.771101
2713.365818,3677.258390,5847.626942,8438.347739
2713.366147,1991.848295,7179.997637,6439.791695
2713.366476,1991.848295,4885.359217,7105.977043
2713.366805,76.609550,5329.482782,8660.409521
2713.367134,-229.828649,6513.812290,6587.832884
2713.367463,-766.095498,1628.453072,10881.027347
2713.367792,-3064.381992,-74.020594,11399.171507
2713.368121,-1455.581446,-296.082377,9770.718434
2713.368450,-2298.286494,-0.000000,11251.130318
2713.368779,-1762.019645,814.226536,11251.130318
2713.369108,-1455.581446,4071.132681,10362.883188
2713.369437,1915.238745,2738.761985,8808.450710
2713.369766,1838.629195,6513.812290,7994.224174
2713.370095,3753.867940,3997.112087,8142.265362
2713.370424,3217.601092,4811.338623,8586.388927
2713.370753,3064.381992,5773.606348,6439.791695
2713.371082,2681.334243,4885.359217,8216.285956
2713.371411,383.047749,4293.194464,6513.812290
2713.371740,1838.629195,3627.009116,9844.739029
2713.372069,-995.924147,1924.535449,11103.089130
2713.372398,-1991.848295,-1110.308913,12953.603985
2713.372727,-3524.039291,1628.453072,10584.944971
2713.373056,-1991.848295,-2664.741391,11695.253884
2713.373385,-3524.039291,2664.741391,8068.244768
2713.373714,-1838.629195,1332.370696,11769.274478
2713.374043,-1149.143247,2368.659014,9326.594869
2713.374372,1378.971896,1480.411884,13249.686362
2713.374701,2987.772442,2294.638420,7105.977043
2713.375030,5592.497135,2886.803174,8142.265362
2713.375359,2604.724693,3182.885551,6439.791695
2713.375688,4136.915689,3923.091493,5033.400406
2713.376017,3140.991542,4811.338623,7994.224174
2713.376346,2374.896044,3627.009116,7698.141797
2713.376675,2374.896044,4737.318029,7105.977043
2713.377004,1149.143247,2664.741391,9474.636058
2713.377333,-2911.162892,-1258.350101,10732.986159
2713.377662,-4060.306139,-4071.132681,13767.830521
2713.377991,-3677.258390,-370.102971,11843.295072
2713.378320,-3677.258390,-2516.700203,12065.356855
2713.378649,-4443.353888,1554.432478,8734.430116
2713.378978,-1915.238745,1850.514855,10436.903782
2713.379307,-306.438199,3256.906145,8290.306550
2713.379636,-229.828649,4367.215058,7624.121203
2713.379965,4213.525239,2294.638420,10955.047942
2713.380294,2145.067394,4145.153275,4071.132681
2713.380623,4826.401637,4737.318029,9474.636058
2713.380952,3294.210641,7031.956449,3552.988522
2713.381281,5132.839837,3923.091493,6217.729913
2713.381610,2451.505594,4737.318029,7105.977043
2713.381939,3294.210641,5181.441594,7476.080014
2713.382268,995.924147,4367.215058,7254.018232
2713.382597,-919.314598,5403.503377,6957.935855
2713.382926,-4903.011187,-666.185348,12435.459826
2713.383255,-5669.106685,-2590.720797,15100.201217
2713.383584,-3370.820191,2886.803174,9400.615463
2713.383913,-1915.238745,-4885.359217,12287.418637
2713.384242,-4213.525239,592.164754,9918.759623
2713.384571,-766.095498,3182.885551,12657.521608
2713.384900,-1532.190996,2146.597232,8438.347739
2713.385229,-2221.676944,4811.338623,9400.615463
2713.385558,4060.306139,1924.535449,11473.192101
2713.385887,3830.477490,5847.626942,3552.988522
2713.386216,3217.601092,4737.318029,9844.739029
2713.386545,2987.772442,4367.215058,7031.956449
2713.386874,4290.134789,5995.668130,6957.935855
2713.387203,689.485948,4071.132681,8216.285956
2713.387532,0.000000,6587.832884,5699.585753
2713.387861,-229.828649,5403.503377,11695.253884
2713.388190,-689.485948,4515.256246,6217.729913
2713.388519,-1072.533697,1554.432478,11843.295072
2713.388848,-4903.011187,-1406.391290,12361.439231
2713.389177,-2145.067394,-148.041188,9992.780217
2713.389506,-2528.115143,-370.102971,12287.418637
2713.389835,-1608.800546,-1924.535449,10510.924376
2713.390164,-1838.629195,3256.906145,10584.944971
2713.390493,995.924147,1702.473667,8142.265362
2713.390822,1838.629195,6291.750507,6587.832884
2713.391151,2987.772442,5699.585753,8512.368333
2713.391480,2528.115143,4737.318029,8290.306550
2713.391809,459.657299,4737.318029,8808.450710
2713.392138,229.828649,5995.668130,9104.533087
2713.392467,0.000000,4071.132681,6291.750507
2713.392796,2221.676944,3478.967927,9030.512492
2713.393125,1685.410096,1406.391290,10584.944971
2713.393454,-919.314598,740.205942,12879.583391
2713.393783,-1685.410096,814.226536,9918.759623
2713.394112,-536.266849,1110.308913,9992.780217
2713.394441,-306.438199,1998.556043,9474.636058
2713.394770,-153.219100,4885.359217,8882.471304
2713.395099,0.000000,4515.256246,8734.430116
2713.395428,766.095498,3256.906145,8734.430116
2713.395757,2834.553343,3256.906145,7328.038826
2713.396086,3753.867940,4885.359217,7772.162391
2713.396415,2221.676944,3923.091493,8438.347739
2713.396744,1149.143247,2960.823768,8660.409521
2713.397073,1072.533697,3108.864956,8216.285956
2713.397402,1915.238745,4071.132681,8586.388927
2713.397731,1302.362347,3256.906145,9548.656652
2713.398060,-383.047749,2516.700203,11029.068536
2713.398389,-1685.410096,2590.720797,9622.677246
2713.398718,-1225.752797,666.185348,10881.027347
2713.399047,-766.095498,-962.267725,10881.027347
2713.399376,-1378.971896,666.185348,10214.842000
2713.399705,-1378.971896,2294.638420,9918.759623
2713.400034,766.095498,2072.576638,9104.533087
2713.400363,2681.334243,3034.844362,7698.141797
2713.400692,2987.772442,4219.173869,6883.915261
2713.401021,536.266849,3404.947333,7994.224174
2713.401350,383.047749,2368.659014,8438.347739
2713.401679,2145.067394,2072.576638,7772.162391
2713.402008,1915.238745,2368.659014,8142.265362
2713.402337,-766.095498,1554.432478,9622.677246
2713.402666,-1915.238745,962.267725,10510.924376
2713.402995,-1991.848295,-1628.453072,11325.150913
2713.403324,-2528.115143,1036.288319,9178.553681
2713.403653,-2987.772442,2146.597232,10066.800811
2713.403982,-3064.381992,444.123565,10955.047942
2713.404311,-2221.676944,2590.720797,9030.512492
2713.404640,612.876398,2294.638420,7328.038826
2713.404969,995.924147,2738.761985,7179.997637
2713.405298,1149.143247,2886.803174,8586.388927
2713.405627,1608.800546,4219.173869,7179.997637
2713.405956,842.705048,3701.029710,6661.853478
2713.406285,995.924147,3108.864956,7698.141797
2713.406614,1915.238745,888.247130,9474.636058
2713.406943,612.876398,444.123565,11251.130318
2713.407272,-229.828649,1332.370696,9548.656652
2713.407601,-689.485948,2368.659014,10658.965565
2713.407930,-919.314598,2072.576638,11029.068536
2713.408259,-1455.581446,2738.761985,10658.965565
2713.408589,-1532.190996,2220.617826,10510.924376
2713.408918,-766.095498,444.123565,10658.965565
2713.409247,2068.457845,2072.576638,9400.615463
2713.409576,1915.238745,2664.741391,8142.265362
2713.409905,2451.505594,2368.659014,8586.388927
2713.410234,2987.772442,1406.391290,8586.388927
2713.410563,1685.410096,2738.761985,7105.977043
2713.410892,1225.752797,3627.009116,7402.059420
2713.411221,1762.019645,2886.803174,7550.100608
2713.411550,2757.943793,1628.453072,8882.471304
2713.411879,3140.991542,1184.329507,8956.491898
2713.412208,1608.800546,-592.164754,9992.780217
2713.412538,229.828649,-1924.535449,10732.986159
2713.412867,-689.485948,1184.329507,10436.903782
2713.413196,-1378.971896,296.082377,11917.315666
2713.413525,-2374.896044,666.185348,9178.553681
2713.413854,0.000000,-814.226536,10658.965565
2713.414183,-459.657299,1036.288319,9178.553681
2713.414512,-229.828649,666.185348,9474.636058
2713.414841,612.876398,-444.123565,8956.491898
2713.415170,1225.752797,370.102971,7105.977043
2713.415499,612.876398,1850.514855,6735.874072
2713.415828,1149.143247,222.061783,7179.997637
2713.416157,766.095498,-1480.411884,8142.265362
2713.416487,536.266849,-518.144159,8290.306550
2713.416816,995.924147,-0.000000,8586.388927
2713.417145,-383.047749,-1258.350101,9178.553681
2713.417474,-1149.143247,-1184.329507,9992.780217
2713.417803,-1685.410096,814.226536,10288.862594
2713.418132,-1378.971896,-1554.432478,10362.883188
2713.418461,-995.924147,-518.144159,10140.821405
2713.418790,229.828649,-74.020594,9992.780217
2713.419119,153.219100,-74.020594,9918.759623
2713.419448,153.219100,-0.000000,9326.594869
2713.419777,919.314598,-0.000000,7402.059420
2713.420107,0.000000,1036.288319,7105.977043
2713.420436,766.095498,1036.288319,8586.388927
2713.420765,1532.190996,-296.082377,7624.121203
2713.421094,1608.800546,-1184.329507,7254.018232
2713.421423,2298.286494,-1406.391290,8956.491898
2713.421752,2298.286494,-1850.514855,8438.347739
2713.422081,0.000000,-0.000000,8882.471304
2713.422410,-306.438199,666.185348,9326.594869
2713.422739,229.828649,296.082377,9474.636058
2713.423068,459.657299,518.144159,10881.027347
2713.423397,766.095498,666.185348,9548.656652
2713.423726,-153.219100,-1110.308913,9844.739029
2713.424056,536.266849,-222.061783,10066.800811
2713.424385,229.828649,1184.329507,7550.100608
2713.424714,-229.828649,370.102971,8290.306550
2713.425043,153.219100,-518.144159,10510.924376
2713.425372,919.314598,-1258.350101,8364.327145
2713.425701,766.095498,-1110.308913,7402.059420
2713.426030,306.438199,-1702.473667,8438.347739
2713.426359,76.609550,-1258.350101,9326.594869
2713.426688,-842.705048,-444.123565,8882.471304
2713.427017,-995.924147,-888.247130,9104.533087
2713.427346,-612.876398,-1036.288319,9992.780217
2713.427675,-459.657299,-0.000000,9696.697840
2713.428005,306.438199,-296.082377,9770.718434
2713.428334,612.876398,-444.123565,10066.800811
2713.428663,536.266849,296.082377,9400.615463
2713.428992,-153.219100,1184.329507,8290.306550
2713.429321,-459.657299,148.041188,9548.656652
2713.429650,-306.438199,-814.226536,10214.842000
2713.429979,153.219100,-222.061783,8142.265362
2713.430308,0.000000,-1480.411884,8660.409521
2713.430637,-153.219100,-1776.494261,9178.553681
2713.430966,-536.266849,-1628.453072,9844.739029
2713.431295,-995.924147,-296.082377,8142.265362
2713.431625,-306.438199,-518.144159,8660.409521
2713.431954,536.266849,-296.082377,10140.821405
2713.432283,536.266849,222.061783,8808.450710
2713.432612,1762.019645,296.082377,9474.636058
2713.432941,2068.457845,666.185348,9844.739029
2713.433270,1378.971896,2294.638420,8438.347739
2713.433599,1685.410096,1628.453072,8956.491898
2713.433928,2068.457845,-0.000000,9844.739029
2713.434257,2221.676944,1850.514855,8512.368333
2713.434586,1455.581446,1332.370696,7624.121203
2713.434915,306.438199,222.061783,9400.615463
2713.435244,-153.219100,-444.123565,10288.862594
2713.435574,-842.705048,-962.267725,9178.553681
2713.435903,-306.438199,-1406.391290,8586.388927
2713.436232,-459.657299,-2146.597232,10362.883188
2713.436561,-919.314598,-962.267725,9104.533087
2713.436890,-612.876398,-1258.350101,9030.512492
2713.437219,842.705048,-888.247130,10288.862594
2713.437548,612.876398,888.247130,8438.347739
2713.437877,1685.410096,1332.370696,7772.162391
2713.438206,1455.581446,1850.514855,9030.512492
2713.438535,1915.238745,1406.391290,9474.636058
2713.438864,1378.971896,1480.411884,8290.306550
2713.439193,459.657299,-0.000000,8290.306550
2713.439523,0.000000,-1406.391290,10066.800811
2713.439852,-689.485948,-1184.329507,9992.780217
2713.440181,-1302.362347,-1184.329507,8734.430116
2713.440510,-1685.410096,-2442.679609,9474.636058
2713.440839,-1455.581446,-1998.556043,9474.636058
2713.441168,-1302.362347,-1628.453072,8660.409521
2713.441497,-1378.971896,-2294.638420,9104.533087
2713.441826,-459.657299,-1406.391290,9104.533087
2713.442155,-229.828649,-444.123565,7550.100608
2713.442484,842.705048,296.082377,7031.956449
2713.442813,1532.190996,-1036.288319,9326.594869
2713.443143,1838.629195,-0.000000,8956.491898
2713.443472,1762.019645,370.102971,7846.182985
2713.443801,1991.848295,296.082377,9030.512492
2713.444130,1378.971896,-0.000000,9252.574275
2713.444459,76.609550,1184.329507,8882.471304
2713.444788,383.047749,296.082377,8956.491898
2713.445117,153.219100,-814.226536,10140.821405
2713.445446,229.828649,-74.020594,9548.656652
2713.445775,0.000000,-888.247130,9030.512492
2713.446104,0.000000,-1406.391290,10510.924376
2713.446433,229.828649,296.082377,8882.471304
2713.446762,153.219100,962.267725,7105.977043
2713.447092,536.266849,518.144159,9400.615463
2713.447421,1532.190996,-370.102971,9696.697840
2713.447750,1838.629195,-0.000000,9178.553681
2713.448079,1378.971896,370.102971,9104.533087
2713.448408,1225.752797,-888.247130,9548.656652
2713.448737,536.266849,1184.329507,9918.759623
2713.449066,229.828649,962.267725,8808.450710
2713.449395,459.657299,-222.061783,10214.842000
2713.449724,459.657299,148.041188,10584.944971
2713.450053,459.657299,148.041188,8586.388927
2713.450382,459.657299,-518.144159,8808.450710
2713.450711,153.219100,222.061783,9252.574275
2713.451041,0.000000,740.205942,8216.285956
2713.451370,-383.047749,-666.185348,8660.409521
2713.451699,0.000000,-1554.432478,8734.430116
2713.452028,306.438199,-888.247130,8586.388927
2713.452357,0.000000,-148.041188,7402.059420
2713.452686,-383.047749,-740.205942,9178.553681
2713.453015,-229.828649,-962.267725,10140.821405
2713.453344,-919.314598,-296.082377,8586.388927
2713.453673,-689.485948,-1184.329507,9474.636058
2713.454002,-306.438199,-1184.329507,10066.800811
2713.454331,306.438199,-148.041188,9474.636058
2713.454661,459.657299,296.082377,8512.368333
2713.454990,1302.362347,-666.185348,9030.512492
2713.455319,1532.190996,740.205942,8660.409521
2713.455648,1532.190996,1036.288319,7476.080014
2713.455977,1225.752797,296.082377,7994.224174
2713.456306,1608.800546,296.082377,8290.306550
2713.456635,1225.752797,592.164754,8142.265362
2713.456964,459.657299,-518.144159,8660.409521
2713.457293,0.000000,-1036.288319,9696.697840
2713.457622,-536.266849,-0.000000,9326.594869
2713.457951,-1225.752797,-0.000000,8956.491898
2713.458280,-766.095498,-1776.494261,10140.821405
2713.458610,-459.657299,-518.144159,10140.821405
2713.458939,-919.314598,-666.185348,9918.759623
2713.459268,0.000000,-222.061783,9548.656652
2713.459597,689.485948,-888.247130,9770.718434
2713.459926,689.485948,1110.308913,8512.368333
2713.460255,1072.533697,1480.411884,7846.182985
2713.460584,1762.019645,222.061783,8216.285956
2713.460913,2757.943793,592.164754,8586.388927
2713.461242,2374.896044,1036.288319,7920.203579
2713.461571,1455.581446,-0.000000,7920.203579
2713.461900,76.609550,592.164754,8734.430116
2713.462229,-766.095498,1110.308913,8586.388927
2713.462559,-1225.752797,-814.226536,8734.430116
2713.462888,-1455.581446,-2294.638420,10436.903782
2713.463217,-1225.752797,-1998.556043,10955.047942
2713.463546,-1532.190996,-1924.535449,9844.739029
2713.463875,-1149.143247,-1480.411884,10658.965565
2713.464204,76.609550,222.061783,9918.759623
2713.464533,0.000000,148.041188,8882.471304
2713.464862,612.876398,-0.000000,9326.594869
2713.465191,1991.848295,-0.000000,8882.471304
2713.465520,2987.772442,1258.350101,7624.121203
2713.465849,2681.334243,1998.556043,7698.141797
2713.466179,2451.505594,-74.020594,9178.553681
2713.466508,842.705048,592.164754,8512.368333
2713.466837,153.219100,-74.020594,7772.162391
2713.467166,-229.828649,-888.247130,9474.636058
2713.467495,-1532.190996,-1776.494261,10732.986159
2713.467824,-1072.533697,-2442.679609,10658.965565
2713.468153,-1149.143247,-2368.659014,9844.739029
2713.468482,-995.924147,-1628.453072,10214.842000
2713.468811,-1302.362347,222.061783,9696.697840
2713.469140,-689.485948,518.144159,9030.512492
2713.469469,689.485948,-74.020594,9548.656652
2713.469798,1915.238745,962.267725,8364.327145
2713.470128,2604.724693,1110.308913,7476.080014
2713.470457,2068.457845,-74.020594,8290.306550
2713.470786,1608.800546,888.247130,9178.553681
2713.471115,1302.362347,1924.535449,8512.368333
2713.471444,153.219100,-296.082377,8068.244768
2713.471773,0.000000,222.061783,9548.656652
2713.472102,-383.047749,-1184.329507,9844.739029
2713.472431,-1149.143247,-1554.432478,9992.780217
2713.472760,-1072.533697,-2294.638420,10288.862594
2713.473089,-1378.971896,-1258.350101,9474.636058
2713.473418,-1608.800546,518.144159,9400.615463
2713.473747,-383.047749,-0.000000,8364.327145
2713.474077,459.657299,222.061783,8734.430116
2713.474406,1685.410096,1776.494261,8290.306550
2713.474735,1991.848295,222.061783,8364.327145
2713.475064,2068.457845,-444.123565,8068.244768
2713.475393,536.266849,1110.308913,8956.491898
2713.475722,536.266849,962.267725,7846.182985
2713.476051,0.000000,-592.164754,8882.471304
2713.476380,0.000000,-444.123565,10214.842000
2713.476709,153.219100,-444.123565,9992.780217
2713.477038,-229.828649,-888.247130,9474.636058
2713.477367,0.000000,-1332.370696,9992.780217
2713.477696,0.000000,-0.000000,9178.553681
2713.478026,-306.438199,296.082377,8956.491898
2713.478355,766.095498,-666.185348,9992.780217
2713.478684,1225.752797,962.267725,8586.388927
2713.479013,1685.410096,518.144159,8290.306550
2713.479342,2068.457845,740.205942,8290.306550
2713.479671,1762.019645,-0.000000,9030.512492
2713.480000,612.876398,1480.411884,8216.285956
2713.480329,0.000000,296.082377,8364.327145
2713.480658,-229.828649,-1332.370696,10214.842000
2713.480987,-459.657299,-962.267725,10732.986159
2713.481316,76.609550,-1628.453072,10140.821405
2713.481646,0.000000,-1776.494261,10436.903782
2713.481975,-76.609550,-296.082377,9992.780217
2713.482304,76.609550,1110.308913,8660.409521
2713.482633,459.657299,-74.020594,9474.636058
2713.482962,1838.629195,962.267725,8808.450710
2713.483291,1685.410096,1258.350101,7328.038826
2713.483620,1838.629195,370.102971,8586.388927
2713.483949,1608.800546,888.247130,8586.388927
2713.484278,1149.143247,-0.000000,8512.368333
2713.484607,0.000000,592.164754,8290.306550
2713.484936,-1072.533697,-1998.556043,9474.636058
2713.485265,-1532.190996,-1554.432478,10658.965565
2713.485595,-1149.143247,-2294.638420,9696.697840
2713.485924,-1455.581446,-2368.659014,9474.636058
2713.486253,-1225.752797,-2368.659014,10732.986159
2713.486582,153.219100,-370.102971,9844.739029
2713.486911,0.000000,-222.061783,8290.306550
2713.487240,1455.581446,-370.102971,9030.512492
2713.487569,2221.676944,296.082377,8216.285956
2713.487898,2681.334243,1702.473667,7402.059420
2713.488227,2911.162892,444.123565,7920.203579
2713.488556,2451.505594,518.144159,8364.327145
2713.488885,842.705048,1998.556043,6957.935855
2713.489214,306.438199,-296.082377,8956.491898
2713.489544,0.000000,-518.144159,9326.594869
2713.489873,-842.705048,-1776.494261,9400.615463
2713.490202,-1455.581446,-1258.350101,9548.656652
2713.490531,-1072.533697,-2220.617826,10436.903782
2713.490860,-1838.629195,-2146.597232,11103.089130
2713.491189,-1532.190996,-1258.350101,9178.553681
2713.491518,-229.828649,-814.226536,9548.656652
2713.491847,919.314598,-0.000000,9400.615463
2713.492176,1915.238745,1406.391290,7846.182985
2713.492505,2451.505594,1110.308913,8438.347739
2713.492834,2987.772442,1184.329507,8660.409521
2713.493164,2068.457845,2368.659014,7772.162391
2713.493493,1532.190996,2146.597232,7254.018232
2713.493822,1072.533697,962.267725,8068.244768
2713.494151,383.047749,-0.000000,9474.636058
2713.494480,-229.828649,-74.020594,9474.636058
2713.494809,-1378.971896,-1702.473667,9548.656652
2713.495138,-1685.410096,-2516.700203,10436.903782
2713.495467,-1838.629195,-888.247130,9844.739029
2713.495796,-1762.019645,-1332.370696,9696.697840
2713.496125,-1072.533697,-1406.391290,10140.821405
2713.496454,459.657299,370.102971,8512.368333
2713.496783,1225.752797,296.082377,8438.347739
2713.497113,2068.457845,518.144159,8586.388927
2713.497442,2604.724693,1110.308913,7624.121203
2713.497771,2528.115143,1702.473667,7402.059420
2713.498100,1608.800546,1480.411884,7624.121203
2713.498429,1685.410096,370.102971,8808.450710
2713.498758,995.924147,-296.082377,9178.553681
2713.499087,0.000000,-296.082377,8956.491898
2713.499416,-229.828649,-2442.679609,10807.006753
2713.499745,-459.657299,-1776.494261,10140.821405
2713.500074,-842.705048,-370.102971,9474.636058
2713.500403,-1225.752797,-1110.308913,9548.656652
2713.500732,-842.705048,-1702.473667,10881.027347
2713.501062,306.438199,444.123565,9400.615463
2713.501391,1149.143247,-666.185348,8068.244768
2713.501720,1915.238745,-0.000000,8882.471304
2713.502049,1762.019645,444.123565,8734.430116
2713.502378,1838.629195,1776.494261,7254.018232
2713.502707,1149.143247,666.185348,8808.450710
2713.503036,1149.143247,-222.061783,9178.553681
2713.503365,383.047749,1332.370696,9474.636058
2713.503694,383.047749,-518.144159,9178.553681
2713.504023,-383.047749,-1850.514855,9770.718434
2713.504352,-1455.581446,148.041188,9474.636058
2713.504682,-1302.362347,-1554.432478,9696.697840
2713.505011,-1762.019645,-1554.432478,10140.821405
2713.505340,-229.828649,-0.000000,9548.656652
2713.505669,842.705048,-74.020594,8734.430116
2713.505998,766.095498,592.164754,8364.327145
2713.506327,1455.581446,740.205942,8290.306550
2713.506656,1225.752797,1258.350101,7476.080014
2713.506985,459.657299,888.247130,7698.141797
2713.507314,612.876398,-0.000000,9326.594869
2713.507643,76.609550,-0.000000,8438.347739
2713.507973,-612.876398,-666.185348,9178.553681
2713.508302,-306.438199,-2368.659014,9992.780217
2713.508631,-689.485948,-1924.535449,9622.677246
2713.508960,-995.924147,-1998.556043,9622.677246
2713.509289,-306.438199,-2072.576638,9030.512492
2713.509618,0.000000,-222.061783,9696.697840
2713.509947,766.095498,592.164754,9030.512492
2713.510277,1608.800546,592.164754,7031.956449
2713.510606,2528.115143,-0.000000,9474.636058
2713.510935,2298.286494,888.247130,8438.347739
2713.511264,1302.362347,1110.308913,7550.100608
2713.511593,1149.143247,-518.144159,8808.450710
2713.511922,1378.971896,-814.226536,9178.553681
2713.512251,459.657299,-592.164754,9918.759623
2713.512581,-1225.752797,-1850.514855,9918.759623
2713.512910,153.219100,-2220.617826,9844.739029
2713.513239,-919.314598,-0.000000,9696.697840
2713.513568,-919.314598,-518.144159,8882.471304
2713.513897,-153.219100,-888.247130,10288.862594
2713.514226,536.266849,-740.205942,9400.615463
2713.514555,842.705048,444.123565,8142.265362
2713.514885,1378.971896,-814.226536,9474.636058
2713.515214,1378.971896,-148.041188,8808.450710
2713.515543,1225.752797,1554.432478,8216.285956
2713.515872,1225.752797,1628.453072,6957.935855
2713.516201,919.314598,444.123565,8512.368333
2713.516530,153.219100,1036.288319,9326.594869
2713.516859,306.438199,-444.123565,8956.491898
2713.517189,0.000000,-1036.288319,9252.574275
2713.517518,-459.657299,-962.267725,9992.780217
2713.517847,-1685.410096,-0.000000,9252.574275
2713.518176,-1149.143247,-1702.473667,9696.697840
2713.518505,-229.828649,-1406.391290,10584.944971
2713.518834,459.657299,-518.144159,9030.512492
2713.519163,919.314598,296.082377,7994.224174
2713.519493,1838.629195,-0.000000,9696.697840
2713.519822,1455.581446,1628.453072,7920.203579
2713.520151,1225.752797,1776.494261,7254.018232
2713.520480,919.314598,1184.329507,8216.285956
2713.520809,1225.752797,-0.000000,9178.553681
2713.521138,612.876398,222.061783,8142.265362
2713.521467,0.000000,-1406.391290,9030.512492
2713.521797,-306.438199,-1924.535449,10658.965565
2713.522126,-1149.143247,-740.205942,8956.491898
2713.522455,-1608.800546,-1332.370696,9696.697840
2713.522784,-689.485948,-1480.411884,10436.903782
2713.523113,0.000000,-444.123565,9548.656652
2713.523442,383.047749,666.185348,8660.409521
2713.523771,1608.800546,-444.123565,8882.471304
2713.524101,1149.143247,-0.000000,9178.553681
2713.524430,1072.533697,1332.370696,7920.203579
2713.524759,383.047749,518.144159,8438.347739
2713.525088,536.266849,-592.164754,9548.656652
2713.525417,842.705048,-0.000000,8956.491898
2713.525746,0.000000,222.061783,8956.491898
2713.526075,-1149.143247,-1850.514855,9992.780217
2713.526405,-1838.629195,-1110.308913,9474.636058
2713.526734,-995.924147,-888.247130,9918.759623
2713.527063,-1455.581446,-888.247130,9622.677246
2713.527392,-689.485948,-1998.556043,10510.924376
2713.527721,-383.047749,-666.185348,8364.327145
2713.528050,306.438199,-222.061783,8734.430116
2713.528379,1762.019645,666.185348,9844.739029
2713.528709,842.705048,740.205942,8438.347739
2713.529038,612.876398,2590.720797,7402.059420
2713.529367,1608.800546,1332.370696,8660.409521
2713.529696,1455.581446,1480.411884,8364.327145
2713.530025,842.705048,-592.164754,9548.656652
2713.530354,536.266849,-1776.494261,8660.409521
2713.530683,76.609550,-1628.453072,9548.656652
2713.531013,-766.095498,-148.041188,9844.739029
2713.531342,-1225.752797,-888.247130,9104.533087
2713.531671,-383.047749,-740.205942,9622.677246
2713.532000,306.438199,-0.000000,9474.636058
2713.532329,536.266849,518.144159,8364.327145
2713.532658,1149.143247,-148.041188,9400.615463
2713.532988,1915.238745,-0.000000,8808.450710
2713.533317,1302.362347,962.267725,8438.347739
2713.533646,1072.533697,814.226536,8438.347739
2713.533975,1302.362347,-592.164754,9326.594869
2713.534304,1532.190996,148.041188,8586.388927
2713.534633,1149.143247,518.144159,8512.368333
2713.534962,766.095498,-592.164754,9770.718434
2713.535292,383.047749,370.102971,9474.636058
2713.535621,-766.095498,1110.308913,8660.409521
2713.535950,-306.438199,-1554.432478,9696.697840
2713.536279,-383.047749,-1480.411884,10140.821405
2713.536608,-306.438199,-814.226536,9104.533087
2713.536937,0.000000,-1036.288319,8660.409521
2713.537266,229.828649,-888.247130,9992.780217
2713.537596,-383.047749,-444.123565,8882.471304
2713.537925,-536.266849,370.102971,8068.244768
2713.538254,-153.219100,-0.000000,9326.594869
2713.538583,689.485948,-592.164754,9252.574275
2713.538912,383.047749,740.205942,8438.347739
2713.539241,612.876398,-370.102971,8512.368333
2713.539570,536.266849,-296.082377,9474.636058
2713.539900,153.219100,296.082377,9400.615463
2713.540229,-153.219100,-222.061783,8586.388927
2713.540558,229.828649,-1332.370696,9622.677246
2713.540887,229.828649,-0.000000,9696.697840
2713.541216,153.219100,-74.020594,8512.368333
2713.541545,-306.438199,-740.205942,7994.224174
2713.541874,0.000000,-0.000000,9400.615463
2713.542204,0.000000,296.082377,8956.491898
2713.542533,-536.266849,-370.102971,8438.347739
2713.542862,536.266849,-518.144159,9844.739029
2713.543191,1532.190996,-888.247130,9104.533087
2713.543520,766.095498,-0.000000,8660.409521
2713.543849,689.485948,-1110.308913,10066.800811
2713.544178,1225.752797,518.144159,8882.471304
2713.544508,995.924147,1036.288319,8586.388927
2713.544837,995.924147,370.102971,9326.594869
2713.545166,1532.190996,-0.000000,9178.553681
2713.545495,995.924147,740.205942,8734.430116
2713.545824,766.095498,444.123565,8586.388927
2713.546153,76.609550,-370.102971,9844.739029
2713.546482,-536.266849,-74.020594,9474.636058
2713.546812,-766.095498,370.102971,8808.450710
2713.547141,-766.095498,-1110.308913,10288.862594
2713.547470,-536.266849,-1702.473667,10066.800811
2713.547799,-919.314598,-666.185348,9622.677246
2713.548128,0.000000,-666.185348,9326.594869
2713.548457,459.657299,-666.185348,10066.800811
2713.548786,689.485948,740.205942,8882.471304
2713.549116,306.438199,814.226536,8068.244768
2713.549445,1378.971896,-74.020594,9178.553681
2713.549774,1991.848295,444.123565,8734.430116
2713.550103,1072.533697,148.041188,8512.368333
2713.550432,689.485948,-1332.370696,9400.615463
2713.550761,383.047749,-1036.288319,9474.636058
2713.551090,-153.219100,222.061783,8586.388927
2713.551420,-842.705048,-222.061783,8586.388927
2713.551749,0.000000,-740.205942,9548.656652
2713.552078,-306.438199,-296.082377,8216.285956
2713.552407,0.000000,-740.205942,9252.574275
2713.552736,0.000000,-1036.288319,9400.615463
2713.553065,229.828649,-296.082377,8808.450710
2713.553394,536.266849,592.164754,7772.162391
2713.553724,1149.143247,-0.000000,8956.491898
2713.554053,1915.238745,296.082377,9178.553681
2713.554382,1915.238745,-296.082377,8660.409521
2713.554711,1762.019645,1036.288319,8290.306550
2713.555040,1608.800546,-0.000000,9622.677246
2713.555369,1072.533697,1258.350101,8586.388927
2713.555698,383.047749,1184.329507,8290.306550
2713.556028,306.438199,666.185348,9696.697840
2713.556357,0.000000,-814.226536,10584.944971
2713.556686,-612.876398,-296.082377,9252.574275
2713.557015,0.000000,-814.226536,9400.615463
2713.557344,842.705048,-148.041188,9548.656652
2713.557673,0.000000,518.144159,8734.430116
2713.558002,-689.485948,592.164754,8660.409521
2713.558332,0.000000,-296.082377,9918.759623
2713.558661,459.657299,888.247130,8956.491898
2713.558990,536.266849,888.247130,8438.347739
2713.559319,459.657299,-666.185348,8808.450710
2713.559648,459.657299,-592.164754,9474.636058
2713.559977,229.828649,-222.061783,9400.615463
2713.560306,-459.657299,-666.185348,9104.533087
2713.560636,-153.219100,-666.185348,10436.903782
2713.560965,-306.438199,-74.020594,9326.594869
2713.561294,0.000000,296.082377,8586.388927
2713.561623,306.438199,-444.123565,9474.636058
2713.561952,-612.876398,-1036.288319,8956.491898
2713.562281,0.000000,296.082377,8216.285956
2713.562610,0.000000,-370.102971,9178.553681
2713.562940,459.657299,-1036.288319,9104.533087
2713.563269,536.266849,-148.041188,8438.347739
2713.563598,229.828649,-888.247130,9104.533087
2713.563927,306.438199,-814.226536,8882.471304
2713.564256,536.266849,-0.000000,9030.512492
2713.564585,0.000000,-74.020594,9178.553681
2713.564914,229.828649,-518.144159,9474.636058
2713.565244,842.705048,-962.267725,9918.759623
2713.565573,689.485948,-296.082377,8512.368333
2713.565902,689.485948,518.144159,9104.533087
2713.566231,995.924147,-592.164754,10362.883188
2713.566560,2221.676944,-0.000000,8216.285956
2713.566889,1225.752797,666.185348,8734.430116
2713.567218,1378.971896,592.164754,8512.368333
2713.567548,1302.362347,814.226536,8290.306550
2713.567877,842.705048,1184.329507,8586.388927
2713.568206,689.485948,-518.144159,8882.471304
2713.568535,229.828649,-518.144159,9696.697840
2713.568864,-229.828649,148.041188,9400.615463
2713.569193,-536.266849,-370.102971,8586.388927
2713.569523,-383.047749,-1036.288319,10584.944971
2713.569852,0.000000,-1036.288319,10140.821405
2713.570181,-306.438199,-518.144159,9474.636058
2713.570510,0.000000,-148.041188,9770.718434
2713.570839,1225.752797,518.144159,9030.512492
2713.571168,995.924147,2294.638420,8068.244768
2713.571497,1072.533697,888.247130,8882.471304
2713.571827,1762.019645,296.082377,8142.265362
2713.572156,1685.410096,1110.308913,8290.306550
2713.572485,1225.752797,1184.329507,8290.306550
2713.572814,306.438199,-296.082377,8734.430116
2713.573143,-536.266849,296.082377,9400.615463
2713.573472,-1455.581446,-0.000000,8068.244768
2713.573801,-1072.533697,-888.247130,10066.800811
2713.574131,-1532.190996,-1628.453072,10362.883188
2713.574460,-995.924147,-2072.576638,9474.636058
2713.574789,-689.485948,-1480.411884,9622.677246
2713.575118,0.000000,-1776.494261,10362.883188
2713.575447,766.095498,-0.000000,9178.553681
2713.575776,612.876398,888.247130,7772.162391
2713.576105,1991.848295,-518.144159,8660.409521
2713.576435,2604.724693,1480.411884,7846.182985
2713.576764,2681.334243,1628.453072,8142.265362
2713.577093,2068.457845,888.247130,7624.121203
2713.577422,1608.800546,740.205942,8364.327145
2713.577751,536.266849,370.102971,8364.327145
2713.578080,-1532.190996,-518.144159,9104.533087
2713.578409,-689.485948,-1998.556043,11399.171507
2713.578739,-1378.971896,-2590.720797,10214.842000
2713.579068,-1532.190996,-1332.370696,9844.739029
2713.579397,-1149.143247,-1554.432478,10362.883188
2713.579726,-689.485948,-1184.329507,9696.697840
2713.580055,0.000000,-0.000000,9474.636058
2713.580384,842.705048,-1036.288319,8660.409521
2713.580713,1991.848295,-0.000000,8512.368333
2713.581043,2145.067394,1480.411884,7846.182985
2713.581372,1838.629195,1406.391290,7920.203579
2713.581701,1915.238745,444.123565,8734.430116
2713.582030,1072.533697,740.205942,8290.306550
2713.582359,229.828649,296.082377,8142.265362
2713.582688,-612.876398,-74.020594,9548.656652
2713.583017,-995.924147,-2516.700203,10066.800811
2713.583347,-1532.190996,-2220.617826,9400.615463
2713.583676,-1685.410096,-1110.308913,9622.677246
2713.584005,-1302.362347,-2812.782580,10955.047942
2713.584334,-1378.971896,-370.102971,9030.512492
2713.584663,-383.047749,592.164754,8660.409521
2713.584992,1149.143247,740.205942,8586.388927
2713.585321,1608.800546,888.247130,7994.224174
2713.585651,2068.457845,1332.370696,8068.244768
2713.585980,2298.286494,-0.000000,8068.244768
2713.586309,1762.019645,888.247130,8586.388927
2713.586638,1302.362347,296.082377,8290.306550
2713.586967,76.609550,-0.000000,7994.224174
2713.587296,-383.047749,-1554.432478,11103.089130
2713.587625,153.219100,-1406.391290,10288.862594
2713.587955,-612.876398,-1332.370696,9030.512492
2713.588284,-766.095498,-1406.391290,10584.944971
2713.588613,-229.828649,-666.185348,9622.677246
2713.588942,-229.828649,-370.102971,9400.615463
2713.589271,536.266849,-148.041188,9030.512492
2713.589600,1685.410096,-74.020594,8364.327145
2713.589929,2451.505594,1110.308913,8290.306550
2713.590259,1915.238745,888.247130,8142.265362
2713.590588,2145.067394,148.041188,8734.430116
2713.590917,995.924147,518.144159,8956.491898
2713.591246,612.876398,1406.391290,7994.224174
2713.591575,-383.047749,-148.041188,8734.430116
2713.591904,-459.657299,-1110.308913,10288.862594
2713.592233,-995.924147,-814.226536,9918.759623
2713.592563,-1378.971896,-2072.576638,9844.739029
2713.592892,-919.314598,-2146.597232,10732.986159
2713.593221,-842.705048,-740.205942,8956.491898
2713.593550,-612.876398,-0.000000,8956.491898
2713.593879,153.219100,-148.041188,8808.450710
2713.594208,1915.238745,-592.164754,8290.306550
2713.594537,2221.676944,1036.288319,8216.285956
2713.594867,2221.676944,-0.000000,7254.018232
2713.595196,1685.410096,1332.370696,7402.059420
2713.595525,536.266849,1258.350101,7476.080014
2713.595854,0.000000,814.226536,7698.141797
2713.596183,-766.095498,-666.185348,9696.697840
2713.596512,-536.266849,-1924.535449,10362.883188
2713.596841,-1838.629195,-1406.391290,9252.574275
2713.597171,-1991.848295,-2886.803174,10214.842000
2713.597500,-1455.581446,-2072.576638,10140.821405
2713.597829,-1378.971896,-666.185348,9030.512492
2713.598158,-383.047749,-1184.329507,9918.759623
2713.598487,995.924147,-0.000000,9030.512492
2713.598816,2145.067394,666.185348,7550.100608
2713.599145,2528.115143,1110.308913,7994.224174
2713.599475,2987.772442,592.164754,8216.285956
2713.599804,2145.067394,1258.350101,8290.306550
2713.600133,995.924147,1480.411884,7476.080014
2713.600462,383.047749,1036.288319,9104.533087
2713.600791,0.000000,-0.000000,9548.656652
2713.601120,-995.924147,-1258.350101,9696.697840
2713.601449,-1149.143247,-1406.391290,10140.821405
2713.601779,-1225.752797,-2368.659014,11103.089130
2713.602108,-1838.629195,-888.247130,10140.821405
2713.602437,-1838.629195,222.061783,9696.697840
2713.602766,-536.266849,-0.000000,10658.965565
2713.603095,76.609550,-0.000000,9474.636058
2713.603424,2068.457845,1776.494261,8290.306550
2713.603753,2528.115143,740.205942,8660.409521
2713.604083,2145.067394,1776.494261,8512.368333
2713.604412,2068.457845,2220.617826,7698.141797
2713.604741,842.705048,1480.411884,8142.265362
2713.605070,306.438199,1332.370696,9844.739029
2713.605399,229.828649,740.205942,9104.533087
2713.605728,-612.876398,-148.041188,8956.491898
2713.606058,-1302.362347,-1258.350101,10732.986159
2713.606387,-1149.143247,-2294.638420,10658.965565
2713.606716,-1685.410096,-1628.453072,9696.697840
2713.607045,-1608.800546,-1406.391290,9918.759623
2713.607374,-306.438199,-1480.411884,9844.739029
2713.607703,383.047749,814.226536,8438.347739
2713.608032,1762.019645,814.226536,7698.141797
2713.608361,2298.286494,-0.000000,8290.306550
2713.608690,2068.457845,1924.535449,8068.244768
2713.609019,2145.067394,1702.473667,6809.894666
2713.609348,1532.190996,666.185348,7402.059420
2713.609677,1991.848295,296.082377,8734.430116
2713.610006,1302.362347,-444.123565,8660.409521
2713.610335,-306.438199,-1850.514855,9474.636058
2713.610664,229.828649,-2590.720797,9918.759623
2713.610993,-536.266849,-2220.617826,9474.636058
2713.611323,-995.924147,-888.247130,9178.553681
2713.611652,-229.828649,-1184.329507,9918.759623
2713.611981,0.000000,-1110.308913,9548.656652
2713.612310,-536.266849,666.185348,7994.224174
2713.612639,995.924147,-1110.308913,9474.636058
2713.612968,1838.629195,962.267725,8216.285956
2713.613297,1302.362347,-0.000000,7698.141797
2713.613626,995.924147,814.226536,8216.285956
2713.613955,1149.143247,-518.144159,8808.450710
2713.614284,689.485948,-444.123565,9400.615463
2713.614613,306.438199,-296.082377,9252.574275
2713.614942,153.219100,-1776.494261,10436.903782
2713.615271,-459.657299,-1110.308913,9696.697840
2713.615600,-536.266849,-0.000000,8586.388927
2713.615929,-689.485948,-814.226536,10214.842000
2713.616258,0.000000,-370.102971,10214.842000
2713.616587,229.828649,-222.061783,9622.677246
2713.616916,536.266849,-0.000000,8586.388927
2713.617245,1608.800546,-0.000000,8586.388927
2713.617574,1072.533697,-148.041188,8956.491898
2713.617903,459.657299,296.082377,8512.368333
2713.618232,383.047749,-592.164754,8512.368333
2713.618561,459.657299,-1110.308913,8882.471304
2713.618890,0.000000,-0.000000,8882.471304
2713.619219,-459.657299,-1924.535449,9474.636058
2713.619548,-842.705048,-1850.514855,9696.697840
2713.619877,-229.828649,-296.082377,9178.553681
2713.620206,-153.219100,-1332.370696,9400.615463
2713.620536,-306.438199,-444.123565,9326.594869
2713.620865,536.266849,-740.205942,9696.697840
2713.621194,1072.533697,-0.000000,7920.203579
2713.621523,1455.581446,222.061783,8808.450710
2713.621852,2068.457845,-370.102971,9104.533087
2713.622181,1378.971896,1184.329507,7624.121203
2713.622510,842.705048,2072.576638,7846.182985
2713.622839,1072.533697,-0.000000,9030.512492
2713.623168,689.485948,-0.000000,8808.450710
2713.623497,-689.485948,-740.205942,9030.512492
2713.623826,0.000000,-2220.617826,10436.903782
2713.624155,-612.876398,-1110.308913,10214.842000
2713.624484,-1302.362347,-518.144159,9326.594869
2713.624813,-1302.362347,222.061783,9030.512492
2713.625142,-1072.533697,-74.020594,10362.883188
2713.625471,0.000000,1036.288319,9622.677246
2713.625800,536.266849,1406.391290,7920.203579
2713.626129,689.485948,296.082377,9030.512492
2713.626458,995.924147,1258.350101,8808.450710
2713.626787,383.047749,1924.535449,7920.203579
2713.627116,383.047749,148.041188,9030.512492
2713.627445,536.266849,592.164754,8216.285956
2713.627774,306.438199,666.185348,9030.512492
2713.628103,-383.047749,-222.061783,9622.677246
2713.628432,-459.657299,-222.061783,9400.615463
2713.628761,-766.095498,814.226536,9252.574275
2713.629090,-1378.971896,1258.350101,8586.388927
2713.629419,-1225.752797,-888.247130,10436.903782
2713.629748,-766.095498,-814.226536,10214.842000
2713.630078,76.609550,-0.000000,9474.636058
2713.630407,1302.362347,-814.226536,9474.636058
2713.630736,1455.581446,-296.082377,8512.368333
2713.631065,1762.019645,1184.329507,9252.574275
2713.631394,1302.362347,1554.432478,8438.347739
2713.631723,1838.629195,814.226536,8364.327145
2713.632052,1915.238745,1776.494261,8216.285956
2713.632381,1455.581446,1554.432478,7846.182985
2713.632710,995.924147,148.041188,9030.512492
2713.633039,919.314598,-1184.329507,9992.780217
2713.633368,153.219100,-2146.597232,9104.533087
2713.633697,-536.266849,-1628.453072,9770.718434
2713.634026,0.000000,-2368.659014,10881.027347
2713.634355,-536.266849,-1406.391290,9992.780217
2713.634684,0.000000,-592.164754,9400.615463
2713.635013,995.924147,-0.000000,9030.512492
2713.635342,919.314598,-148.041188,8808.450710
2713.635671,459.657299,1406.391290,9178.553681
2713.636000,229.828649,-0.000000,8734.430116
2713.636329,1302.362347,-444.123565,8882.471304
2713.636658,1225.752797,-74.020594,8808.450710
2713.636987,766.095498,-1998.556043,9030.512492
2713.637316,0.000000,-1998.556043,10066.800811
2713.637645,153.219100,-1258.350101,8882.471304
2713.637974,0.000000,-444.123565,8068.244768
2713.638303,-229.828649,-1332.370696,9474.636058
2713.638632,0.000000,-962.267725,9474.636058
2713.638961,0.000000,-74.020594,8142.265362
2713.639291,0.000000,-370.102971,8956.491898
2713.639620,536.266849,-888.247130,9178.553681
2713.639949,-229.828649,-0.000000,8438.347739
2713.640278,306.438199,-0.000000,8364.327145
2713.640607,766.095498,-814.226536,8882.471304
2713.640936,229.828649,-222.061783,8660.409521
2713.641265,229.828649,-370.102971,9252.574275
2713.641594,459.657299,-962.267725,9178.553681
2713.641923,0.000000,-0.000000,8512.368333
2713.642252,153.219100,1110.308913,7920.203579
2713.642581,536.266849,-0.000000,8216.285956
2713.642910,0.000000,-666.185348,10288.862594
2713.643239,995.924147,-222.061783,8734.430116
2713.643568,153.219100,-444.123565,8216.285956
2713.643897,383.047749,-592.164754,9844.739029
2713.644226,766.095498,296.082377,9104.533087
2713.644555,0.000000,666.185348,8438.347739
2713.644884,383.047749,222.061783,9030.512492
2713.645213,1149.143247,740.205942,9326.594869
2713.645542,689.485948,666.185348,8734.430116
2713.645871,229.828649,1110.308913,9104.533087
2713.646200,459.657299,-296.082377,9622.677246
2713.646529,0.000000,296.082377,9326.594869
2713.646858,0.000000,370.102971,9252.574275
2713.647187,0.000000,-814.226536,10066.800811
2713.647516,995.924147,-370.102971,9770.718434
2713.647845,1072.533697,148.041188,8586.388927
2713.648174,1225.752797,-148.041188,9548.656652
2713.648504,76.609550,-0.000000,9474.636058
2713.648833,-153.219100,814.226536,8734.430116
2713.649162,-306.438199,1258.350101,9030.512492
2713.649491,0.000000,-370.102971,10066.800811
2713.649820,689.485948,-0.000000,9770.718434
2713.650149,459.657299,-666.185348,9252.574275
2713.650478,0.000000,-1258.350101,9696.697840
2713.650807,306.438199,148.041188,9104.533087
2713.651136,0.000000,592.164754,8512.368333
2713.651465,0.000000,222.061783,8956.491898
2713.651794,306.438199,592.164754,8808.450710
2713.652123,306.438199,370.102971,8438.347739
2713.652452,229.828649,444.123565,8364.327145
2713.652781,689.485948,-518.144159,9622.677246
2713.653110,76.609550,-592.164754,8956.491898
2713.653439,-229.828649,296.082377,8734.430116
2713.653768,153.219100,-1110.308913,9696.697840
2713.654097,995.924147,-1258.350101,9770.718434
2713.654426,1378.971896,-740.205942,9030.512492
2713.654755,536.266849,-296.082377,8660.409521
2713.655084,536.266849,-592.164754,9104.533087
2713.655413,1302.362347,1850.514855,7920.203579
2713.655742,842.705048,1184.329507,8142.265362
2713.656071,842.705048,370.102971,9030.512492
2713.656400,1149.143247,-888.247130,8734.430116
2713.656729,612.876398,-148.041188,8660.409521
2713.657058,459.657299,-1480.411884,9474.636058
2713.657387,76.609550,-1406.391290,9844.739029
2713.657717,-766.095498,-370.102971,8660.409521
2713.658046,-766.095498,222.061783,8956.491898
2713.658375,459.657299,-370.102971,10584.944971
2713.658704,459.657299,222.061783,8068.244768
2713.659033,766.095498,-0.000000,8734.430116
2713.659362,1072.533697,-888.247130,10436.903782
2713.659691,1225.752797,-666.185348,8586.388927
2713.660020,612.876398,814.226536,8290.306550
2713.660349,383.047749,-148.041188,8956.491898
2713.660678,76.609550,-740.205942,9474.636058
2713.661007,153.219100,-296.082377,9326.594869
2713.661336,536.266849,-1406.391290,8660.409521
2713.661665,-153.219100,-1702.473667,9326.594869
2713.661994,-1225.752797,-518.144159,8660.409521
2713.662323,-1991.848295,-888.247130,9400.615463
2713.662652,-1608.800546,-1036.288319,9474.636058
2713.662981,-153.219100,-1480.411884,9326.594869
2713.663310,-153.219100,-814.226536,8808.450710
2713.663639,229.828649,-666.185348,9474.636058
2713.663968,919.314598,-888.247130,9326.594869
2713.664297,1149.143247,-0.000000,8290.306550
2713.664626,766.095498,1702.473667,8142.265362
2713.664955,1378.971896,222.061783,9252.574275
2713.665284,1455.581446,740.205942,8364.327145
2713.665613,1072.533697,666.185348,7698.141797
2713.665942,1225.752797,-888.247130,9104.533087
2713.666271,306.438199,-962.267725,9400.615463
2713.666600,-612.876398,-370.102971,9252.574275
2713.666930,-766.095498,-74.020594,9030.512492
2713.667259,-306.438199,-1554.432478,9992.780217
2713.667588,-766.095498,-1036.288319,9474.636058
2713.667917,-229.828649,-962.267725,9400.615463
2713.668246,0.000000,-222.061783,9548.656652
2713.668575,689.485948,-74.020594,8660.409521
2713.668904,612.876398,1554.432478,8364.327145
2713.669233,536.266849,1036.288319,8216.285956
2713.669562,1685.410096,518.144159,9252.574275
2713.669891,1532.190996,962.267725,8734.430116
2713.670220,1149.143247,-222.061783,8882.471304
2713.670549,1302.362347,-74.020594,9474.636058
2713.670878,153.219100,296.082377,9030.512492
2713.671207,-536.266849,814.226536,9252.574275
2713.671536,-919.314598,370.102971,9474.636058
2713.671865,-383.047749,-1258.350101,9992.780217
2713.672194,-842.705048,148.041188,8660.409521
2713.672523,-229.828649,-1406.391290,10140.821405
2713.672852,0.000000,-444.123565,9400.615463
2713.673181,0.000000,-0.000000,8216.285956
2713.673510,0.000000,1036.288319,8216.285956
2713.673839,536.266849,-148.041188,9252.574275
2713.674168,1225.752797,-0.000000,9400.615463
2713.674497,1225.752797,814.226536,7772.162391
2713.674826,1225.752797,296.082377,8068.244768
2713.675155,919.314598,148.041188,9548.656652
2713.675484,383.047749,1406.391290,8882.471304
2713.675813,459.657299,518.144159,9696.697840
2713.676143,383.047749,-370.102971,9622.677246
2713.676472,766.095498,518.144159,9030.512492
2713.676801,229.828649,-0.000000,9770.718434
2713.677130,383.047749,-518.144159,10066.800811
2713.677459,1072.533697,-1406.391290,9844.739029
2713.677788,612.876398,592.164754,8512.368333
2713.678117,612.876398,296.082377,8586.388927
2713.678446,1225.752797,296.082377,9104.533087
2713.678775,1455.581446,592.164754,8290.306550
2713.679104,1149.143247,370.102971,8660.409521
2713.679433,842.705048,-370.102971,8808.450710
2713.679762,153.219100,-592.164754,9326.594869
2713.680091,-536.266849,-444.123565,9400.615463
2713.680420,-306.438199,-1628.453072,9770.718434
2713.680749,-229.828649,-1850.514855,10288.862594
2713.681078,-229.828649,-1850.514855,9992.780217
2713.681407,-689.485948,-1998.556043,9770.718434
2713.681736,0.000000,-2368.659014,10732.986159
2713.682065,306.438199,-740.205942,9400.615463
2713.682394,459.657299,-296.082377,8512.368333
2713.682723,306.438199,-222.061783,8956.491898
2713.683052,1455.581446,-1998.556043,8882.471304
2713.683381,1225.752797,-444.123565,7994.224174
2713.683710,536.266849,-2368.659014,8512.368333
2713.684039,536.266849,-3108.864956,9326.594869
2713.684368,-459.657299,-2590.720797,8882.471304
2713.684697,-612.876398,-2368.659014,9030.512492
2713.685026,-1072.533697,-3256.906145,9474.636058
2713.685355,-612.876398,-4367.215058,9474.636058
2713.685685,-842.705048,-3034.844362,8586.388927
2713.686014,-536.266849,-3404.947333,9992.780217
2713.686343,306.438199,-3478.967927,9474.636058
2713.686672,995.924147,-2072.576638,7698.141797
2713.687001,919.314598,-1332.370696,7920.203579
2713.687330,1378.971896,-1924.535449,9104.533087
2713.687659,2757.943793,-1702.473667,7920.203579
2713.687988,1991.848295,-1406.391290,7254.018232
2713.688317,1915.238745,-1480.411884,8068.244768
2713.688646,1149.143247,-3256.906145,8512.368333
2713.688975,536.266849,-2886.803174,7994.224174
2713.689304,-612.876398,-2886.803174,8512.368333
2713.689633,-1149.143247,-4071.132681,9696.697840
2713.689962,-306.438199,-5033.400406,9696.697840
2713.690291,-459.657299,-4515.256246,9696.697840
2713.690620,-383.047749,-3701.029710,9326.594869
2713.690949,0.000000,-4663.297435,9918.759623
2713.691278,1072.533697,-3849.070898,9770.718434
2713.691607,1838.629195,-1924.535449,8882.471304
2713.691936,2068.457845,-1554.432478,8586.388927
2713.692265,2298.286494,-2072.576638,8142.265362
2713.692594,3064.381992,-1776.494261,8512.368333
2713.692923,2451.505594,-1036.288319,7550.100608
2713.693252,995.924147,-1628.453072,8142.265362
2713.693581,0.000000,-3701.029710,9696.697840
2713.693910,-459.657299,-3552.988522,9178.553681
2713.694239,-1072.533697,-3775.050304,9474.636058
2713.694568,-2451.505594,-4515.256246,9474.636058
2713.694898,-2221.676944,-6217.729913,10362.883188
2713.695227,-1685.410096,-5329.482782,11029.068536
2713.695556,-1072.533697,-4959.379811,9474.636058
2713.695885,-1149.143247,-3627.009116,8512.368333
2713.696214,0.000000,-3478.967927,10066.800811
2713.696543,1685.410096,-2442.679609,9474.636058
2713.696872,2911.162892,-1702.473667,7328.038826
2713.697201,2451.505594,-1628.453072,7328.038826
2713.697530,2834.553343,-1480.411884,7476.080014
2713.697859,3064.381992,-1184.329507,8142.265362
2713.698188,2451.505594,-2072.576638,7846.182985
2713.698517,1225.752797,-2442.679609,7328.038826
2713.698846,-536.266849,-3552.988522,10066.800811
2713.699175,-1762.019645,-4737.318029,9696.697840
2713.699504,-1302.362347,-4219.173869,9696.697840
2713.699833,-1838.629195,-4293.194464,10066.800811
2713.700162,-2604.724693,-3775.050304,10584.944971
2713.700491,-2221.676944,-4515.256246,11029.068536
2713.700820,-306.438199,-4145.153275,9992.780217
2713.701149,1532.190996,-3404.947333,9770.718434
2713.701478,1915.238745,-2072.576638,9474.636058
2713.701807,1762.019645,-2146.597232,8734.430116
2713.702136,2911.162892,-1184.329507,8956.491898
2713.702465,4213.525239,-296.082377,8216.285956
2713.702794,3830.477490,888.247130,7476.080014
2713.703123,2451.505594,296.082377,7846.182985
2713.703452,2221.676944,-1554.432478,8512.368333
2713.703781,1915.238745,-2368.659014,8290.306550
2713.704111,1149.143247,-3182.885551,9104.533087
2713.704440,-1072.533697,-4811.338623,9770.718434
2713.704769,-2528.115143,-5403.503377,10066.800811
2713.705098,-3064.381992,-5255.462188,10658.965565
2713.705427,-2298.286494,-4737.318029,10066.800811
2713.705756,-2145.067394,-4145.153275,9770.718434
2713.706085,-1838.629195,-3775.050304,8808.450710
2713.706414,-383.047749,-1998.556043,9474.636058
2713.706743,612.876398,-2220.617826,8956.491898
2713.707072,2068.457845,-2368.659014,7179.997637
2713.707401,2757.943793,-1850.514855,7624.121203
2713.707730,3064.381992,-2664.741391,8142.265362
2713.708059,1685.410096,-2886.803174,8290.306550
2713.708388,1915.238745,-3701.029710,8438.347739
2713.708717,1838.629195,-2664.741391,8290.306550
2713.709046,612.876398,-2590.720797,8364.327145
2713.709375,-383.047749,-3034.844362,9474.636058
2713.709704,-919.314598,-3997.112087,9992.780217
2713.710033,-1378.971896,-3775.050304,9696.697840
2713.710362,-1149.143247,-3775.050304,8660.409521
2713.710691,-766.095498,-4737.318029,9548.656652
2713.711020,-612.876398,-5107.421000,10288.862594
2713.711350,76.609550,-5403.503377,10066.800811
2713.711679,383.047749,-5329.482782,9548.656652
2713.712008,766.095498,-3997.112087,8734.430116
2713.712337,995.924147,-1998.556043,8290.306550
2713.712666,306.438199,-444.123565,8290.306550
2713.712995,1149.143247,-1110.308913,8734.430116
2713.713324,1225.752797,-1480.411884,8808.450710
2713.713653,1608.800546,-1850.514855,8734.430116
2713.713982,1685.410096,-2442.679609,9104.533087
2713.714311,306.438199,-3108.864956,8882.471304
2713.714640,153.219100,-3775.050304,8808.450710
2713.714969,76.609550,-3701.029710,9400.615463
2713.715298,1149.143247,-3627.009116,9104.533087
2713.715627,919.314598,-3404.947333,8882.471304
2713.715956,459.657299,-2886.803174,8660.409521
2713.716285,0.000000,-2812.782580,8882.471304
2713.716614,-383.047749,-2516.700203,8586.388927
2713.716943,-995.924147,-2812.782580,9696.697840
2713.717272,-995.924147,-3552.988522,9548.656652
2713.717601,-536.266849,-3923.091493,9770.718434
2713.717930,459.657299,-4959.379811,10288.862594
2713.718260,612.876398,-4515.256246,9400.615463
2713.718589,1455.581446,-3478.967927,9252.574275
2713.718918,1838.629195,-2590.720797,8142.265362
2713.719247,2451.505594,-1998.556043,7402.059420
2713.719576,3140.991542,-1258.350101,7105.977043
2713.719905,3140.991542,-1628.453072,6365.771101
2713.720234,2681.334243,-2664.741391,7328.038826
2713.720563,1378.971896,-3849.070898,8438.347739
2713.720892,-306.438199,-4959.379811,9252.574275
2713.721221,-1991.848295,-5255.462188,10140.821405
2713.721550,-2834.553343,-5255.462188,10807.006753
2713.721879,-4519.963438,-4885.359217,10584.944971
2713.722208,-3677.258390,-3701.029710,10881.027347
2713.722537,-2681.334243,-3182.885551,10214.842000
2713.722866,-1302.362347,-2516.700203,9104.533087
2713.723195,612.876398,-2516.700203,8808.450710
2713.723524,2451.505594,-2590.720797,8512.368333
2713.723853,3753.867940,-2294.638420,7772.162391
2713.724182,4903.011187,-2368.659014,7402.059420
2713.724511,4979.620737,-1924.535449,7550.100608
2713.724841,5515.887586,-1554.432478,7105.977043
2713.725170,4366.744339,-148.041188,7031.956449
2713.725499,3447.429741,-222.061783,7254.018232
2713.725828,1991.848295,-1406.391290,8142.265362
2713.726157,-1149.143247,-3108.864956,9696.697840
2713.726486,-3140.991542,-4589.276840,10807.006753
2713.726815,-4519.963438,-5403.503377,12287.418637
2713.727144,-5286.058936,-7179.997637,12953.603985
2713.727473,-5515.887586,-5625.565159,11621.233289
2713.727802,-3983.696590,-5107.421000,10214.842000
2713.728131,-3217.601092,-3923.091493,9474.636058
2713.728460,-2528.115143,-2590.720797,8956.491898
2713.728789,1455.581446,-3108.864956,10881.027347
2713.729118,3064.381992,-370.102971,6365.771101
2713.729447,5209.449386,-518.144159,7179.997637
2713.729776,4136.915689,-1184.329507,5625.565159
2713.730105,5056.230287,-592.164754,6069.688724
2713.730434,4749.792088,-222.061783,7254.018232
2713.730763,4366.744339,-1036.288319,7328.038826
2713.731092,4060.306139,-74.020594,6661.853478
2713.731421,2757.943793,296.082377,7179.997637
2713.731751,153.219100,-2220.617826,8808.450710
2713.732080,-2987.772442,-6217.729913,12213.398043
2713.732409,-3524.039291,-4959.379811,11843.295072
2713.732738,-3294.210641,-6513.812290,12879.583391
2713.733067,-4213.525239,-7920.203579,11843.295072
2713.733396,-4290.134789,-5699.585753,10732.986159
2713.733725,-766.095498,-7550.100608,11843.295072
2713.734054,153.219100,-4145.153275,8142.265362
2713.734383,4366.744339,-1850.514855,7550.100608
2713.734712,5822.325785,-444.123565,5477.523971
2713.735041,4826.401637,1184.329507,5403.503377
2713.735370,3294.210641,444.123565,7254.018232
2713.735699,2298.286494,-444.123565,4959.379811
2713.736028,3600.648841,-2886.803174,8956.491898
2713.736357,0.000000,-5551.544565,11769.274478
2713.736686,-2451.505594,-6513.812290,12065.356855
2713.737015,-5515.887586,-6439.791695,12287.418637
2713.737344,-4903.011187,-9178.553681,14434.015869
2713.737673,-5286.058936,-4737.318029,9474.636058
2713.738002,-2911.162892,-4219.173869,10288.862594
2713.738332,-3524.039291,-1924.535449,8438.347739
2713.738661,-1762.019645,-2368.659014,7920.203579
2713.738990,1838.629195,-4959.379811,11843.295072
2713.739319,2757.943793,-1036.288319,3997.112087
2713.739648,5669.106685,-1258.350101,6957.935855
2713.739977,3294.210641,-1406.391290,4145.153275
2713.740306,3983.696590,370.102971,5329.482782
2713.740635,2681.334243,962.267725,6957.935855
2713.740964,1991.848295,3182.885551,5625.565159
2713.741293,1225.752797,-0.000000,8364.327145
2713.741622,-2604.724693,-1628.453072,10732.986159
2713.741951,-4903.011187,-5107.421000,11103.089130
2713.742280,-6205.373534,-5181.441594,13323.706956
2713.742609,-5362.668486,-6587.832884,12213.398043
2713.742938,-6205.373534,-3923.091493,10362.883188
2713.743267,-4366.744339,-3108.864956,10732.986159
2713.743596,-3524.039291,-1110.308913,9104.533087
2713.743925,-3370.820191,-1776.494261,9104.533087
2713.744254,-2757.943793,-0.000000,7328.038826
2713.744583,-2604.724693,740.205942,8290.306550
2713.744912,-1302.362347,-296.082377,11399.171507
2713.745242,-1302.362347,1036.288319,5921.647536
2713.745571,383.047749,-444.123565,9030.512492
2713.745900,0.000000,-148.041188,6365.771101
2713.746229,689.485948,-0.000000,8290.306550
2713.746558,-1225.752797,-296.082377,9696.697840
2713.746887,-2145.067394,518.144159,9992.780217
2713.747216,-3217.601092,-444.123565,10955.047942
2713.747545,-3753.867940,370.102971,10066.800811
2713.747874,-5286.058936,444.123565,10510.924376
2713.748203,-3753.867940,-74.020594,10584.944971
2713.748532,-2604.724693,-592.164754,9178.553681
2713.748861,-2604.724693,-2368.659014,10140.821405
2713.749190,-2145.067394,-2368.659014,9844.739029
2713.749519,-2221.676944,-1110.308913,8956.491898
2713.749848,-2221.676944,-1998.556043,8512.368333
2713.750177,-1532.190996,518.144159,7402.059420
2713.750506,-689.485948,2220.617826,7254.018232
2713.750835,-995.924147,740.205942,7920.203579
2713.751164,-459.657299,518.144159,9400.615463
2713.751493,-1915.238745,-518.144159,9474.636058
2713.751823,-3677.258390,-1554.432478,9770.718434
2713.752152,-4290.134789,-1924.535449,11103.089130
2713.752481,-4519.963438,-1628.453072,11325.150913
2713.752810,-4060.306139,-148.041188,10510.924376
2713.753139,-3447.429741,370.102971,9326.594869
2713.753468,-2221.676944,592.164754,8512.368333
2713.753797,-1762.019645,1110.308913,7772.162391
2713.754126,-2145.067394,962.267725,7328.038826
2713.754455,-2298.286494,814.226536,7179.997637
2713.754784,-2145.067394,148.041188,7328.038826
