#time,accel_x,accel_y,accel_z
2732.890321,153.219100,-74.020594,9252.574275
2732.890650,536.266849,-370.102971,9474.636058
2732.890979,383.047749,-444.123565,9178.553681
2732.891308,842.705048,-148.041188,9400.615463
2732.891636,536.266849,-74.020594,9326.594869
2732.891965,306.438199,-74.020594,9178.553681
2732.892294,459.657299,-148.041188,9104.533087
2732.892623,459.657299,-74.020594,9178.553681
2732.892952,306.438199,-0.000000,9474.636058
2732.893281,306.438199,-296.082377,9474.636058
2732.893609,383.047749,-74.020594,9178.553681
2732.893938,306.438199,296.082377,9400.615463
2732.894267,76.609550,-0.000000,9030.512492
2732.894596,229.828649,-74.020594,9104.533087
2732.894925,76.609550,-74.020594,8882.471304
2732.895254,459.657299,-0.000000,8882.471304
2732.895582,76.609550,-74.020594,9030.512492
2732.895911,76.609550,444.123565,8734.430116
2732.896240,153.219100,-0.000000,9326.594869
2732.896569,76.609550,-0.000000,8956.491898
2732.896898,153.219100,-0.000000,8808.450710
2732.897227,306.438199,-222.061783,8956.491898
2732.897555,459.657299,-0.000000,8956.491898
2732.897884,383.047749,-296.082377,9104.533087
2732.898213,306.438199,-148.041188,8882.471304
2732.898542,383.047749,-148.041188,9030.512492
2732.898871,76.609550,148.041188,9474.636058
2732.899200,536.266849,-370.102971,9178.553681
2732.899528,459.657299,-148.041188,8956.491898
2732.899857,459.657299,-0.000000,9178.553681
2732.900186,306.438199,-148.041188,9104.533087
2732.900515,536.266849,-222.061783,9178.553681
2732.900844,229.828649,-148.041188,9252.574275
2732.901173,-229.828649,-222.061783,9474.636058
2732.901501,76.609550,-444.123565,9400.615463
2732.901830,383.047749,-74.020594,9178.553681
2732.902159,536.266849,-74.020594,9178.553681
2732.902488,383.047749,-222.061783,9030.512492
2732.902817,306.438199,-296.082377,9030.512492
2732.903146,459.657299,-370.102971,9548.656652
2732.903474,76.609550,-296.082377,9326.594869
2732.903803,383.047749,-148.041188,8808.450710
2732.904132,306.438199,-370.102971,9178.553681
2732.904461,229.828649,-222.061783,8956.491898
2732.904790,383.047749,-222.061783,8956.491898
2732.905119,306.438199,-0.000000,8956.491898
2732.905447,229.828649,-0.000000,9104.533087
2732.905776,459.657299,-666.185348,8068.244768
2732.906105,459.657299,-222.061783,9252.574275
2732.906434,153.219100,-74.020594,8882.471304
2732.906763,0.000000,-0.000000,8586.388927
2732.907092,306.438199,-0.000000,8734.430116
2732.907420,229.828649,-0.000000,8882.471304
2732.907749,689.485948,-592.164754,8808.450710
2732.908078,459.657299,-148.041188,9104.533087
2732.908407,459.657299,-74.020594,9030.512492
2732.908736,536.266849,-74.020594,9178.553681
2732.909065,306.438199,-148.041188,8956.491898
2732.909393,383.047749,-222.061783,9030.512492
2732.909722,229.828649,-74.020594,9104.533087
2732.910051,612.876398,-74.020594,9030.512492
2732.910380,536.266849,-0.000000,9030.512492
2732.910709,536.266849,-148.041188,9252.574275
2732.911038,153.219100,-222.061783,9326.594869
2732.911366,306.438199,-148.041188,9178.553681
2732.911695,459.657299,-222.061783,9104.533087
2732.912024,306.438199,-370.102971,9178.553681
2732.912353,536.266849,-518.144159,9104.533087
2732.912682,-306.438199,-296.082377,9326.594869
2732.913011,306.438199,-222.061783,9326.594869
2732.913340,306.438199,-370.102971,9104.533087
2732.913668,153.219100,-148.041188,9104.533087
2732.913997,306.438199,-0.000000,9252.574275
2732.914326,612.876398,-148.041188,8956.491898
2732.914655,383.047749,-0.000000,8956.491898
2732.914984,842.705048,-592.164754,9326.594869
2732.915313,306.438199,-444.123565,8882.471304
2732.915641,229.828649,-148.041188,9030.512492
2732.915970,153.219100,-74.020594,9030.512492
2732.916299,229.828649,-148.041188,8956.491898
2732.916628,229.828649,-74.020594,9104.533087
2732.916957,536.266849,-222.061783,9104.533087
2732.917286,383.047749,-0.000000,8882.471304
2732.917614,612.876398,-0.000000,8734.430116
2732.917943,229.828649,-0.000000,8734.430116
2732.918272,229.828649,-0.000000,8882.471304
2732.918601,306.438199,-0.000000,8660.409521
2732.918930,306.438199,-0.000000,8882.471304
2732.919259,383.047749,-74.020594,9178.553681
2732.919587,536.266849,-222.061783,9030.512492
2732.919916,383.047749,-222.061783,9030.512492
2732.920245,153.219100,-148.041188,9030.512492
2732.920574,383.047749,-148.041188,9030.512492
2732.920903,76.609550,-222.061783,8808.450710
2732.921232,153.219100,-74.020594,9104.533087
2732.921560,153.219100,-0.000000,8808.450710
2732.921889,459.657299,-444.123565,9104.533087
2732.922218,0.000000,-296.082377,9400.615463
2732.922547,153.219100,-148.041188,9104.533087
2732.922876,383.047749,-370.102971,9104.533087
2732.923205,383.047749,-222.061783,9104.533087
2732.923533,0.000000,-0.000000,9400.615463
2732.923862,229.828649,-444.123565,9178.553681
2732.924191,306.438199,-296.082377,9252.574275
2732.924520,306.438199,-592.164754,8956.491898
2732.924849,229.828649,-222.061783,9178.553681
2732.925178,383.047749,-296.082377,9030.512492
2732.925506,306.438199,-148.041188,9178.553681
2732.925835,153.219100,-148.041188,8956.491898
2732.926164,536.266849,-74.020594,9104.533087
2732.926493,612.876398,-222.061783,9104.533087
2732.926822,-76.609550,-0.000000,9104.533087
2732.927151,229.828649,-74.020594,9104.533087
2732.927479,153.219100,-222.061783,8808.450710
2732.927808,383.047749,-0.000000,8956.491898
2732.928137,459.657299,-0.000000,8956.491898
2732.928466,536.266849,-0.000000,8882.471304
2732.928795,842.705048,-444.123565,9178.553681
2732.929124,766.095498,-148.041188,9030.512492
2732.929452,689.485948,-444.123565,9474.636058
2732.929781,1302.362347,-740.205942,9326.594869
2732.930110,1685.410096,-592.164754,9178.553681
2732.930439,1762.019645,-74.020594,9548.656652
2732.930768,2374.896044,-666.185348,8808.450710
2732.931097,3140.991542,-0.000000,8808.450710
2732.931425,3370.820191,740.205942,9178.553681
2732.931754,4136.915689,-148.041188,8438.347739
2732.932083,3294.210641,518.144159,8364.327145
2732.932412,2757.943793,666.185348,8512.368333
2732.932741,2604.724693,74.020594,8438.347739
2732.933070,3140.991542,-740.205942,9474.636058
2732.933398,2374.896044,-444.123565,9252.574275
2732.933727,995.924147,-814.226536,10066.800811
2732.934056,2221.676944,-2368.659014,9696.697840
2732.934385,2451.505594,-1110.308913,9326.594869
2732.934714,2374.896044,-148.041188,9622.677246
2732.935043,2987.772442,-1480.411884,9992.780217
2732.935371,3140.991542,-0.000000,9326.594869
2732.935700,3753.867940,962.267725,9548.656652
2732.936029,5822.325785,814.226536,7624.121203
2732.936358,4290.134789,1628.453072,8882.471304
2732.936687,5132.839837,1036.288319,9252.574275
2732.937016,4596.572988,1258.350101,7105.977043
2732.937345,4060.306139,592.164754,8586.388927
2732.937673,3753.867940,-222.061783,8808.450710
2732.938002,2604.724693,-0.000000,9104.533087
2732.938331,1302.362347,-444.123565,9918.759623
2732.938660,1225.752797,-1036.288319,9992.780217
2732.938989,1455.581446,-1184.329507,9992.780217
2732.939318,612.876398,-1258.350101,9918.759623
2732.939646,1608.800546,-444.123565,9622.677246
2732.939975,2221.676944,-444.123565,10510.924376
2732.940304,3524.039291,148.041188,7624.121203
2732.940633,4290.134789,518.144159,9474.636058
2732.940962,4290.134789,1480.411884,7994.224174
2732.941291,4519.963438,1110.308913,7698.141797
2732.941619,4596.572988,1184.329507,8142.265362
2732.941948,4213.525239,370.102971,8808.450710
2732.942277,3600.648841,-444.123565,8660.409521
2732.942606,2987.772442,-1406.391290,9548.656652
2732.942935,2374.896044,-1406.391290,9918.759623
2732.943264,2298.286494,-1702.473667,10140.821405
2732.943592,1762.019645,-2146.597232,9844.739029
2732.943921,2145.067394,-1776.494261,10214.842000
2732.944250,2451.505594,-814.226536,9844.739029
2732.944579,3140.991542,-296.082377,9252.574275
2732.944908,3753.867940,444.123565,8734.430116
2732.945237,3753.867940,2072.576638,8734.430116
2732.945565,4596.572988,2368.659014,7920.203579
2732.945894,4749.792088,2516.700203,7105.977043
2732.946223,4213.525239,2294.638420,7698.141797
2732.946552,4290.134789,1850.514855,7920.203579
2732.946881,3907.087040,370.102971,7624.121203
2732.947210,3217.601092,-1184.329507,9474.636058
2732.947538,2451.505594,-2442.679609,9696.697840
2732.947867,2068.457845,-3330.926739,10881.027347
2732.948196,1455.581446,-3404.947333,11103.089130
2732.948525,2298.286494,-2960.823768,11177.109724
2732.948854,3140.991542,-1702.473667,10955.047942
2732.949183,3830.477490,-444.123565,9918.759623
2732.949511,5286.058936,1036.288319,9474.636058
2732.949840,5898.935335,1924.535449,8586.388927
2732.950169,4749.792088,2738.761985,8142.265362
2732.950498,4979.620737,3330.926739,7624.121203
2732.950827,4596.572988,4071.132681,6513.812290
2732.951156,4213.525239,2590.720797,7031.956449
2732.951484,3907.087040,2886.803174,6143.709319
2732.951813,2681.334243,-296.082377,8290.306550
2732.952142,0.000000,-3997.112087,10658.965565
2732.952471,-842.705048,-3997.112087,10436.903782
2732.952800,-689.485948,-4885.359217,12509.480420
2732.953129,-1149.143247,-4293.194464,11103.089130
2732.953457,-612.876398,-1110.308913,10955.047942
2732.953786,842.705048,-1184.329507,10658.965565
2732.954115,2374.896044,962.267725,10436.903782
2732.954444,5592.497135,1332.370696,9918.759623
2732.954773,7354.516781,1332.370696,8290.306550
2732.955102,6588.421283,1480.411884,7846.182985
2732.955430,5975.544884,1406.391290,7105.977043
2732.955759,5822.325785,3034.844362,5995.668130
2732.956088,5132.839837,1406.391290,6957.935855
2732.956417,4903.011187,2886.803174,5255.462188
2732.956746,5745.716235,2294.638420,7402.059420
2732.957075,4826.401637,1184.329507,5699.585753
2732.957403,3447.429741,-2146.597232,9178.553681
2732.957732,229.828649,-7105.977043,12287.418637
2732.958061,-842.705048,-5181.441594,11029.068536
2732.958390,-2298.286494,-3849.070898,13915.871710
2732.958719,-1149.143247,-6957.935855,13693.809927
2732.959048,-995.924147,444.123565,10510.924376
2732.959376,2757.943793,-370.102971,11769.274478
2732.959705,3830.477490,1554.432478,9844.739029
2732.960034,6205.373534,1406.391290,9252.574275
2732.960363,7660.954980,888.247130,9622.677246
2732.960692,7584.345430,3404.947333,6735.874072
2732.961021,7967.393179,4959.379811,4811.338623
2732.961349,7277.907231,2146.597232,4737.318029
2732.961678,7737.564530,2146.597232,6069.688724
2732.962007,6588.421283,2220.617826,6883.915261
2732.962336,4903.011187,888.247130,6513.812290
2732.962665,3600.648841,2220.617826,4959.379811
2732.962994,3524.039291,-2146.597232,10140.821405
2732.963323,-689.485948,-5181.441594,14434.015869
2732.963651,-3064.381992,-4293.194464,11325.150913
2732.963980,-1378.971896,-2738.761985,14804.118840
2732.964309,-1225.752797,-5847.626942,11621.233289
2732.964638,-766.095498,2072.576638,10955.047942
2732.964967,1838.629195,-518.144159,10362.883188
2732.965296,-459.657299,2590.720797,9548.656652
2732.965624,4596.572988,-0.000000,12213.398043
2732.965953,8273.831378,1110.308913,5403.503377
2732.966282,8120.612279,1332.370696,8216.285956
2732.966611,5209.449386,1702.473667,6217.729913
2732.966940,7201.297681,1332.370696,4737.318029
2732.967269,5975.544884,888.247130,8290.306550
2732.967597,6281.983084,1850.514855,4737.318029
2732.967926,4826.401637,1850.514855,9104.533087
2732.968255,2757.943793,2072.576638,6957.935855
2732.968584,3600.648841,-962.267725,9992.780217
2732.968913,459.657299,-888.247130,10584.944971
2732.969242,842.705048,-4293.194464,11621.233289
2732.969570,-842.705048,-0.000000,11251.130318
2732.969899,229.828649,-5699.585753,14063.912898
2732.970228,-1072.533697,-74.020594,8586.388927
2732.970557,2374.896044,-0.000000,11695.253884
2732.970886,2604.724693,2516.700203,8808.450710
2732.971215,3753.867940,2146.597232,8512.368333
2732.971543,4366.744339,370.102971,7105.977043
2732.971872,4519.963438,1036.288319,7698.141797
2732.972201,3830.477490,1480.411884,7550.100608
2732.972530,3447.429741,-1110.308913,6957.935855
2732.972859,3064.381992,-2516.700203,8808.450710
2732.973188,2068.457845,-2072.576638,9992.780217
2732.973516,1685.410096,-2516.700203,10732.986159
2732.973845,919.314598,-1184.329507,10732.986159
2732.974174,2068.457845,-1184.329507,10732.986159
2732.974503,3600.648841,1554.432478,10362.883188
2732.974832,2834.553343,1184.329507,8882.471304
2732.975161,4826.401637,1628.453072,9474.636058
2732.975490,5669.106685,1554.432478,8068.244768
2732.975819,6052.154434,2072.576638,7624.121203
2732.976148,5362.668486,2146.597232,7402.059420
2732.976477,4903.011187,1554.432478,7402.059420
2732.976806,4366.744339,148.041188,7476.080014
2732.977135,3907.087040,-444.123565,7550.100608
2732.977463,3217.601092,-1406.391290,8956.491898
2732.977792,766.095498,-2886.803174,10584.944971
2732.978121,-306.438199,-2516.700203,10955.047942
2732.978450,-383.047749,-3552.988522,11473.192101
2732.978779,459.657299,-1628.453072,9696.697840
2732.979108,1685.410096,-1332.370696,10584.944971
2732.979437,919.314598,-1184.329507,11103.089130
2732.979766,3064.381992,592.164754,10881.027347
2732.980095,6205.373534,1776.494261,8438.347739
2732.980424,7277.907231,2146.597232,7920.203579
2732.980753,6052.154434,1554.432478,8660.409521
2732.981082,4826.401637,962.267725,7994.224174
2732.981411,4673.182538,1332.370696,7698.141797
2732.981740,6052.154434,518.144159,7772.162391
2732.982069,5592.497135,370.102971,7402.059420
2732.982398,4366.744339,962.267725,8882.471304
2732.982727,3600.648841,-1258.350101,8364.327145
2732.983056,3370.820191,-1554.432478,9548.656652
2732.983385,2145.067394,-2368.659014,9400.615463
2732.983714,1991.848295,-1258.350101,11843.295072
2732.984042,842.705048,-666.185348,10732.986159
2732.984371,1608.800546,-0.000000,9400.615463
2732.984700,2987.772442,-666.185348,9696.697840
2732.985029,3294.210641,740.205942,9696.697840
2732.985358,4060.306139,-0.000000,9400.615463
2732.985687,3447.429741,2368.659014,7105.977043
2732.986016,5592.497135,1258.350101,7846.182985
2732.986345,4519.963438,740.205942,7550.100608
2732.986674,2987.772442,1776.494261,8586.388927
2732.987003,4060.306139,-2072.576638,9844.739029
2732.987332,1532.190996,-296.082377,8512.368333
2732.987661,1762.019645,-1184.329507,8142.265362
2732.987990,1685.410096,-1998.556043,9326.594869
2732.988319,842.705048,-2146.597232,11547.212695
2732.988648,-306.438199,-1036.288319,10807.006753
2732.988977,1149.143247,-1036.288319,9030.512492
2732.989306,-229.828649,-444.123565,10214.842000
2732.989635,2451.505594,-814.226536,10436.903782
2732.989964,3753.867940,518.144159,9400.615463
2732.990293,3294.210641,-0.000000,9178.553681
2732.990622,4443.353888,592.164754,8438.347739
2732.990950,3677.258390,222.061783,8808.450710
2732.991279,4596.572988,592.164754,9104.533087
2732.991608,5209.449386,370.102971,7105.977043
2732.991937,5439.278036,1110.308913,8216.285956
2732.992266,4749.792088,-296.082377,8586.388927
2732.992595,4903.011187,370.102971,8142.265362
2732.992924,3294.210641,-296.082377,8882.471304
2732.993253,2911.162892,-444.123565,9474.636058
2732.993582,2298.286494,-1406.391290,10584.944971
2732.993911,2298.286494,-518.144159,9474.636058
2732.994240,2221.676944,-74.020594,9548.656652
2732.994569,2834.553343,-0.000000,8808.450710
2732.994898,1378.971896,666.185348,8586.388927
2732.995227,1838.629195,592.164754,8808.450710
2732.995556,2451.505594,-148.041188,9104.533087
2732.995885,1149.143247,1036.288319,8216.285956
2732.996214,1072.533697,-222.061783,7179.997637
2732.996543,383.047749,-518.144159,9992.780217
2732.996872,-153.219100,-74.020594,8216.285956
2732.997201,-153.219100,-666.185348,8586.388927
2732.997529,-995.924147,-1776.494261,10066.800811
2732.997858,-1149.143247,-592.164754,9400.615463
2732.998187,-1072.533697,-1628.453072,8586.388927
2732.998516,-995.924147,-1850.514855,10066.800811
2732.998845,0.000000,-1258.350101,9844.739029
2732.999174,306.438199,-0.000000,8808.450710
2732.999503,0.000000,-370.102971,9252.574275
2732.999832,919.314598,370.102971,9844.739029
2733.000161,1225.752797,1702.473667,8142.265362
2733.000490,2068.457845,296.082377,8660.409521
2733.000819,2298.286494,592.164754,9252.574275
2733.001148,1762.019645,592.164754,8808.450710
2733.001477,1225.752797,-0.000000,8068.244768
2733.001806,76.609550,-814.226536,10140.821405
2733.002135,-459.657299,-740.205942,10881.027347
2733.002464,-536.266849,-1406.391290,9400.615463
2733.002793,-229.828649,-1924.535449,11399.171507
2733.003122,-229.828649,-740.205942,10140.821405
2733.003451,1225.752797,-592.164754,9400.615463
2733.003780,1302.362347,-0.000000,8808.450710
2733.004108,2068.457845,370.102971,9178.553681
2733.004437,3907.087040,-222.061783,8216.285956
2733.004766,3447.429741,2146.597232,8956.491898
2733.005095,4290.134789,1628.453072,7846.182985
2733.005424,3217.601092,2294.638420,7476.080014
2733.005753,2528.115143,1554.432478,8438.347739
2733.006082,1762.019645,962.267725,8734.430116
2733.006411,459.657299,962.267725,8586.388927
2733.006740,-1149.143247,-2220.617826,10140.821405
2733.007069,-2068.457845,-1776.494261,10140.821405
2733.007398,-1378.971896,-1036.288319,9178.553681
2733.007727,-2221.676944,-1924.535449,9844.739029
2733.008056,-1991.848295,-1258.350101,9696.697840
2733.008385,-1991.848295,-1036.288319,9252.574275
2733.008714,-1378.971896,-814.226536,10140.821405
2733.009043,-612.876398,-370.102971,9770.718434
2733.009372,-1149.143247,-592.164754,9474.636058
2733.009701,-1991.848295,148.041188,9030.512492
2733.010030,-766.095498,-296.082377,9844.739029
2733.010359,-1378.971896,-666.185348,9474.636058
2733.010687,0.000000,518.144159,8438.347739
2733.011016,1378.971896,-0.000000,8956.491898
2733.011345,1302.362347,-518.144159,6587.832884
2733.011674,1838.629195,370.102971,6513.812290
2733.012003,2145.067394,-0.000000,7698.141797
2733.012332,1455.581446,740.205942,7476.080014
2733.012661,995.924147,740.205942,8734.430116
2733.012990,766.095498,-592.164754,9178.553681
2733.013319,153.219100,296.082377,9696.697840
2733.013648,-1225.752797,-222.061783,9770.718434
2733.013977,-1149.143247,-592.164754,10955.047942
2733.014306,-689.485948,-814.226536,11547.212695
2733.014635,-536.266849,-0.000000,9400.615463
2733.014964,-306.438199,-0.000000,10584.944971
2733.015293,0.000000,-148.041188,9770.718434
2733.015622,229.828649,-0.000000,8438.347739
2733.015951,842.705048,-666.185348,9400.615463
2733.016280,1149.143247,-74.020594,8438.347739
2733.016609,2145.067394,-0.000000,7624.121203
2733.016938,1991.848295,-0.000000,8142.265362
2733.017267,1532.190996,518.144159,8512.368333
2733.017595,766.095498,814.226536,7994.224174
2733.017924,306.438199,-444.123565,8142.265362
2733.018253,459.657299,-518.144159,9400.615463
2733.018582,0.000000,-222.061783,9548.656652
2733.018911,-612.876398,-666.185348,9474.636058
2733.019240,-459.657299,-1258.350101,10658.965565
2733.019569,-612.876398,222.061783,9400.615463
2733.019898,0.000000,-296.082377,9400.615463
2733.020227,0.000000,-148.041188,10066.800811
2733.020556,0.000000,-1184.329507,10066.800811
2733.020885,842.705048,-370.102971,8956.491898
2733.021214,1608.800546,-1480.411884,9326.594869
2733.021543,919.314598,-0.000000,7328.038826
2733.021872,1225.752797,740.205942,8734.430116
2733.022201,1072.533697,-518.144159,10584.944971
2733.022530,1532.190996,740.205942,8290.306550
2733.022859,842.705048,-74.020594,7550.100608
2733.023188,1838.629195,-1036.288319,9474.636058
2733.023517,995.924147,-148.041188,8512.368333
2733.023846,766.095498,-222.061783,9474.636058
2733.024174,0.000000,-1184.329507,9474.636058
2733.024503,536.266849,-296.082377,9030.512492
2733.024832,383.047749,-740.205942,8734.430116
2733.025161,306.438199,-74.020594,9696.697840
2733.025490,842.705048,-1110.308913,9844.739029
2733.025819,-383.047749,-1184.329507,8734.430116
2733.026148,0.000000,-518.144159,10066.800811
2733.026477,0.000000,296.082377,8660.409521
2733.026806,76.609550,-814.226536,8512.368333
2733.027135,459.657299,370.102971,8068.244768
2733.027464,612.876398,-74.020594,10214.842000
2733.027793,919.314598,444.123565,7402.059420
2733.028122,1608.800546,-222.061783,8512.368333
2733.028451,1532.190996,-74.020594,9326.594869
2733.028780,689.485948,888.247130,7402.059420
2733.029109,1838.629195,296.082377,9474.636058
2733.029438,383.047749,-666.185348,8586.388927
2733.029767,842.705048,1406.391290,8882.471304
2733.030096,76.609550,-296.082377,9252.574275
2733.030425,0.000000,-0.000000,9252.574275
2733.030753,-459.657299,-222.061783,9474.636058
2733.031082,153.219100,-1406.391290,8734.430116
2733.031411,-536.266849,-1480.411884,9474.636058
2733.031740,-689.485948,-74.020594,9104.533087
2733.032069,-1149.143247,-1332.370696,9474.636058
2733.032398,-459.657299,-444.123565,9474.636058
2733.032727,383.047749,-222.061783,9030.512492
2733.033056,-383.047749,296.082377,7994.224174
2733.033385,1072.533697,-222.061783,9992.780217
2733.033714,1762.019645,444.123565,8438.347739
2733.034043,1302.362347,1258.350101,7550.100608
2733.034372,842.705048,1406.391290,9622.677246
2733.034701,153.219100,-0.000000,9030.512492
2733.035030,-153.219100,-222.061783,8290.306550
2733.035359,229.828649,-296.082377,9696.697840
2733.035688,-306.438199,-74.020594,9326.594869
2733.036017,-689.485948,-1628.453072,8734.430116
2733.036346,-612.876398,-296.082377,9918.759623
2733.036675,-612.876398,-1036.288319,9918.759623
2733.037004,-766.095498,-148.041188,8216.285956
2733.037332,-229.828649,-444.123565,9474.636058
2733.037661,153.219100,148.041188,10214.842000
2733.037990,0.000000,1110.308913,8142.265362
2733.038319,-459.657299,518.144159,9474.636058
2733.038648,-842.705048,740.205942,10436.903782
2733.038977,0.000000,1036.288319,9400.615463
2733.039306,383.047749,-296.082377,9918.759623
2733.039635,536.266849,222.061783,9178.553681
2733.039964,153.219100,-74.020594,9030.512492
2733.040293,0.000000,-518.144159,9622.677246
2733.040622,-229.828649,-888.247130,9844.739029
2733.040951,0.000000,-222.061783,8512.368333
2733.041280,995.924147,-444.123565,8216.285956
2733.041609,1225.752797,-222.061783,9104.533087
2733.041938,459.657299,-222.061783,8216.285956
2733.042267,1072.533697,-0.000000,8808.450710
2733.042596,1685.410096,-222.061783,9400.615463
2733.042925,2145.067394,-0.000000,8586.388927
2733.043254,1072.533697,148.041188,8142.265362
2733.043583,1149.143247,-148.041188,9770.718434
2733.043912,1378.971896,-444.123565,9474.636058
2733.044240,1302.362347,-0.000000,8068.244768
2733.044569,1378.971896,-740.205942,9622.677246
2733.044898,1302.362347,-370.102971,9326.594869
2733.045227,229.828649,-0.000000,9252.574275
2733.045556,1455.581446,-962.267725,9548.656652
2733.045885,306.438199,222.061783,7476.080014
2733.046214,842.705048,-74.020594,9696.697840
2733.046543,76.609550,-2072.576638,9770.718434
2733.046872,-995.924147,1036.288319,9696.697840
2733.047201,-306.438199,-1554.432478,8364.327145
2733.047530,-1302.362347,-1776.494261,9696.697840
2733.047859,-612.876398,148.041188,10658.965565
2733.048188,-1302.362347,-888.247130,9252.574275
2733.048517,-919.314598,-518.144159,9770.718434
2733.048846,-995.924147,-666.185348,9548.656652
2733.049175,153.219100,370.102971,8290.306550
2733.049504,-842.705048,-666.185348,9474.636058
2733.049833,1455.581446,-148.041188,8734.430116
2733.050162,459.657299,1110.308913,7031.956449
2733.050491,0.000000,888.247130,8882.471304
2733.050819,153.219100,-444.123565,8882.471304
2733.051148,76.609550,222.061783,7105.977043
2733.051477,-1225.752797,-148.041188,9104.533087
2733.051806,76.609550,-1850.514855,10510.924376
2733.052135,-1072.533697,-592.164754,8956.491898
2733.052464,-612.876398,-962.267725,8808.450710
2733.052793,-459.657299,-0.000000,9844.739029
2733.053122,0.000000,-1480.411884,9474.636058
2733.053451,306.438199,444.123565,8882.471304
2733.053780,2068.457845,-1184.329507,9844.739029
2733.054109,1532.190996,518.144159,8216.285956
2733.054438,1838.629195,1184.329507,7698.141797
2733.054767,2374.896044,814.226536,9030.512492
2733.055096,1915.238745,1184.329507,8512.368333
2733.055425,1608.800546,-0.000000,7994.224174
2733.055754,1225.752797,-148.041188,9104.533087
2733.056083,1149.143247,-518.144159,9844.739029
2733.056412,459.657299,-1258.350101,9548.656652
2733.056741,-229.828649,-1258.350101,9844.739029
2733.057070,-612.876398,-814.226536,10584.944971
2733.057398,-689.485948,-518.144159,9770.718434
2733.057727,-306.438199,-0.000000,9104.533087
2733.058056,0.000000,-0.000000,9474.636058
2733.058385,919.314598,-0.000000,8956.491898
2733.058714,1149.143247,592.164754,9030.512492
2733.059043,76.609550,370.102971,9474.636058
2733.059372,766.095498,-0.000000,9178.553681
2733.059701,1302.362347,-222.061783,9178.553681
2733.060030,919.314598,-0.000000,8882.471304
2733.060359,1455.581446,-0.000000,7994.224174
2733.060688,612.876398,814.226536,8364.327145
2733.061017,919.314598,-592.164754,9992.780217
2733.061346,1149.143247,444.123565,7846.182985
2733.061675,536.266849,-592.164754,8364.327145
2733.062004,689.485948,-74.020594,9326.594869
2733.062333,0.000000,-0.000000,9400.615463
2733.062662,-612.876398,-148.041188,9400.615463
2733.062991,76.609550,-444.123565,8586.388927
2733.063320,995.924147,-370.102971,9696.697840
2733.063649,-153.219100,-592.164754,9104.533087
2733.063977,995.924147,-444.123565,9474.636058
2733.064306,1225.752797,-74.020594,9030.512492
2733.064635,995.924147,-0.000000,8586.388927
2733.064964,1072.533697,-518.144159,9770.718434
2733.065293,1838.629195,-370.102971,9030.512492
2733.065622,1608.800546,148.041188,8142.265362
2733.065951,2757.943793,296.082377,9104.533087
2733.066280,2451.505594,-0.000000,8068.244768
2733.066609,1225.752797,-0.000000,7994.224174
2733.066938,995.924147,-518.144159,8808.450710
2733.067267,459.657299,-74.020594,9400.615463
2733.067596,-306.438199,-370.102971,8290.306550
2733.067925,-689.485948,-1702.473667,9474.636058
2733.068254,-1378.971896,-1184.329507,9622.677246
2733.068583,-842.705048,-444.123565,9252.574275
2733.068912,-842.705048,-370.102971,9992.780217
2733.069241,-1225.752797,-148.041188,9474.636058
2733.069570,-1149.143247,370.102971,9548.656652
2733.069899,-1072.533697,-370.102971,9622.677246
2733.070228,306.438199,-222.061783,9400.615463
2733.070557,459.657299,666.185348,8438.347739
2733.070885,0.000000,-0.000000,7772.162391
2733.071214,842.705048,-518.144159,9400.615463
2733.071543,536.266849,296.082377,7624.121203
2733.071872,536.266849,-0.000000,7179.997637
2733.072201,919.314598,-1332.370696,9548.656652
2733.072530,0.000000,-814.226536,8068.244768
2733.072859,-536.266849,-0.000000,9178.553681
2733.073188,-612.876398,-1036.288319,9400.615463
2733.073517,-842.705048,-740.205942,9030.512492
2733.073846,-459.657299,-222.061783,9030.512492
2733.074175,0.000000,-296.082377,9474.636058
2733.074504,-766.095498,-148.041188,9992.780217
2733.074833,-306.438199,-444.123565,9030.512492
2733.075162,383.047749,592.164754,9104.533087
2733.075491,612.876398,1036.288319,8512.368333
2733.075820,1225.752797,-74.020594,7772.162391
2733.076149,766.095498,296.082377,9622.677246
2733.076478,1608.800546,-518.144159,9400.615463
2733.076807,1532.190996,-222.061783,6439.791695
2733.077136,1838.629195,-222.061783,9548.656652
2733.077465,0.000000,-0.000000,9548.656652
2733.077794,612.876398,-1184.329507,8808.450710
2733.078123,153.219100,-1184.329507,9918.759623
2733.078451,0.000000,-0.000000,9252.574275
2733.078780,76.609550,-0.000000,8808.450710
2733.079109,-689.485948,-370.102971,10436.903782
2733.079438,-229.828649,-148.041188,9548.656652
2733.079767,383.047749,-0.000000,9030.512492
2733.080096,-689.485948,-296.082377,9622.677246
2733.080425,-153.219100,222.061783,9770.718434
2733.080754,536.266849,-222.061783,8512.368333
2733.081083,76.609550,370.102971,9178.553681
2733.081412,1302.362347,-1110.308913,9252.574275
2733.081741,612.876398,-0.000000,8808.450710
2733.082070,536.266849,-1258.350101,9178.553681
2733.082399,1072.533697,592.164754,8808.450710
2733.082728,995.924147,814.226536,8660.409521
2733.083057,229.828649,-518.144159,8734.430116
2733.083386,459.657299,-0.000000,9770.718434
2733.083715,0.000000,666.185348,9252.574275
2733.084044,-536.266849,-1184.329507,8438.347739
2733.084373,1072.533697,-592.164754,9770.718434
2733.084702,229.828649,592.164754,9178.553681
2733.085031,1072.533697,-0.000000,7846.182985
2733.085360,919.314598,-222.061783,9474.636058
2733.085689,1762.019645,222.061783,8068.244768
2733.086018,1991.848295,888.247130,7476.080014
2733.086347,2221.676944,-222.061783,9622.677246
2733.086676,1072.533697,518.144159,7846.182985
2733.087005,459.657299,-0.000000,8290.306550
2733.087334,229.828649,-0.000000,9326.594869
2733.087663,0.000000,296.082377,9252.574275
2733.087992,-536.266849,-1406.391290,9030.512492
2733.088321,-995.924147,-1332.370696,10362.883188
2733.088650,0.000000,-888.247130,9918.759623
2733.088979,-459.657299,-1184.329507,8142.265362
2733.089308,-689.485948,-814.226536,10658.965565
2733.089637,-612.876398,-666.185348,10066.800811
2733.089966,-229.828649,-148.041188,8512.368333
2733.090295,1072.533697,-296.082377,8512.368333
2733.090624,766.095498,814.226536,8290.306550
2733.090953,459.657299,-222.061783,9400.615463
2733.091282,1072.533697,-370.102971,8438.347739
2733.091611,536.266849,-370.102971,8142.265362
2733.091940,536.266849,592.164754,7994.224174
2733.092269,0.000000,-148.041188,8068.244768
2733.092597,-459.657299,-222.061783,10214.842000
2733.092926,-229.828649,-814.226536,10140.821405
2733.093255,-842.705048,-222.061783,9104.533087
2733.093584,-689.485948,-1406.391290,10732.986159
2733.093913,-1225.752797,-74.020594,10140.821405
2733.094242,-383.047749,296.082377,9992.780217
2733.094571,229.828649,666.185348,9474.636058
2733.094900,76.609550,296.082377,9844.739029
2733.095229,459.657299,1184.329507,9326.594869
2733.095558,995.924147,222.061783,9770.718434
2733.095887,1302.362347,-74.020594,8734.430116
2733.096216,1762.019645,740.205942,7254.018232
2733.096545,1455.581446,-666.185348,9326.594869
2733.096874,1149.143247,-370.102971,8660.409521
2733.097203,306.438199,296.082377,8364.327145
2733.097532,-459.657299,-1110.308913,9474.636058
2733.097861,-383.047749,-592.164754,9770.718434
2733.098190,0.000000,-148.041188,9326.594869
2733.098519,-383.047749,-740.205942,9622.677246
2733.098848,-153.219100,-74.020594,10214.842000
2733.099177,-383.047749,-0.000000,8660.409521
2733.099506,-612.876398,296.082377,9474.636058
2733.099835,0.000000,-0.000000,9918.759623
2733.100164,306.438199,-518.144159,8438.347739
2733.100493,1225.752797,-0.000000,8660.409521
2733.100822,1378.971896,-1036.288319,9474.636058
2733.101151,766.095498,-296.082377,7698.141797
2733.101480,229.828649,-444.123565,9474.636058
2733.101809,536.266849,-814.226536,10066.800811
2733.102138,153.219100,666.185348,7328.038826
2733.102467,689.485948,-1036.288319,10658.965565
2733.102796,1302.362347,-518.144159,9104.533087
2733.103125,-612.876398,1184.329507,8882.471304
2733.103454,0.000000,-1036.288319,9622.677246
2733.103783,306.438199,-222.061783,9104.533087
2733.104112,689.485948,1036.288319,9918.759623
2733.104441,0.000000,-148.041188,8364.327145
2733.104770,1072.533697,-444.123565,9992.780217
2733.105099,0.000000,-1628.453072,9178.553681
2733.105428,1915.238745,296.082377,7550.100608
2733.105757,842.705048,-1332.370696,9326.594869
2733.106086,612.876398,-0.000000,8808.450710
2733.106415,995.924147,-0.000000,7846.182985
2733.106743,1302.362347,-0.000000,8882.471304
2733.107072,612.876398,-0.000000,8660.409521
2733.107401,1225.752797,-888.247130,8660.409521
2733.107730,0.000000,-592.164754,10140.821405
2733.108059,-459.657299,-518.144159,9770.718434
2733.108388,-842.705048,-814.226536,8068.244768
2733.108717,0.000000,-666.185348,9400.615463
2733.109046,-229.828649,-518.144159,10140.821405
2733.109375,689.485948,814.226536,7846.182985
2733.109704,153.219100,-1776.494261,8956.491898
2733.110033,153.219100,740.205942,9252.574275
2733.110362,1225.752797,740.205942,8290.306550
2733.110691,612.876398,-0.000000,8438.347739
2733.111020,1149.143247,-148.041188,9104.533087
2733.111349,766.095498,1406.391290,8882.471304
2733.111678,0.000000,-592.164754,8882.471304
2733.112007,-229.828649,-0.000000,9918.759623
2733.112336,0.000000,-74.020594,10066.800811
2733.112665,-689.485948,-1480.411884,9770.718434
2733.112994,-306.438199,-888.247130,10510.924376
2733.113323,-689.485948,-0.000000,9326.594869
2733.113652,0.000000,-0.000000,9622.677246
2733.113981,153.219100,296.082377,9844.739029
2733.114310,0.000000,222.061783,9326.594869
2733.114639,689.485948,-222.061783,8364.327145
2733.114968,1149.143247,-0.000000,8734.430116
2733.115297,383.047749,370.102971,8734.430116
2733.115626,459.657299,-0.000000,8438.347739
2733.115955,76.609550,-962.267725,8882.471304
2733.116284,76.609550,592.164754,8734.430116
2733.116613,0.000000,-370.102971,8216.285956
2733.116942,-153.219100,-1110.308913,9918.759623
2733.117271,-383.047749,-962.267725,9178.553681
2733.117600,76.609550,-0.000000,8956.491898
2733.117929,0.000000,-740.205942,9622.677246
2733.118258,-229.828649,370.102971,8956.491898
2733.118587,459.657299,962.267725,8512.368333
2733.118916,766.095498,296.082377,9326.594869
2733.119245,153.219100,-74.020594,8734.430116
2733.119574,536.266849,1110.308913,7698.141797
2733.119903,76.609550,-0.000000,8512.368333
2733.120232,0.000000,-222.061783,9178.553681
2733.120561,0.000000,-0.000000,7846.182985
2733.120889,-229.828649,-1184.329507,9104.533087
2733.121218,-383.047749,-1184.329507,10140.821405
2733.121547,-153.219100,-0.000000,9400.615463
2733.121876,-306.438199,-1110.308913,9844.739029
2733.122205,0.000000,-740.205942,9622.677246
2733.122534,459.657299,-1036.288319,8586.388927
2733.122863,766.095498,-74.020594,9400.615463
2733.123192,1838.629195,-0.000000,8734.430116
2733.123521,2068.457845,518.144159,8586.388927
2733.123850,1149.143247,592.164754,8808.450710
2733.124179,1608.800546,-0.000000,9104.533087
2733.124508,1149.143247,592.164754,9030.512492
2733.124837,995.924147,444.123565,8734.430116
2733.125166,536.266849,-1702.473667,10436.903782
2733.125495,-306.438199,-1628.453072,11177.109724
2733.125824,-306.438199,-518.144159,8068.244768
2733.126153,842.705048,-888.247130,9844.739029
2733.126482,76.609550,-666.185348,11029.068536
2733.126811,1302.362347,-0.000000,8290.306550
2733.127140,3524.039291,-0.000000,8586.388927
2733.127469,2145.067394,1850.514855,7772.162391
2733.127798,2757.943793,1036.288319,7846.182985
2733.128127,2374.896044,518.144159,8660.409521
2733.128456,1072.533697,1110.308913,7624.121203
2733.128785,995.924147,-74.020594,8290.306550
2733.129114,383.047749,-1332.370696,8660.409521
2733.129443,-383.047749,-1406.391290,9992.780217
2733.129772,-612.876398,-1110.308913,9696.697840
2733.130101,-1302.362347,-1184.329507,9696.697840
2733.130430,-995.924147,-1998.556043,9918.759623
2733.130759,-536.266849,-962.267725,9400.615463
2733.131088,-1072.533697,-0.000000,8512.368333
2733.131417,842.705048,-0.000000,8734.430116
2733.131746,536.266849,1332.370696,8364.327145
2733.132075,1302.362347,1480.411884,7772.162391
2733.132404,383.047749,592.164754,8216.285956
2733.132733,306.438199,1480.411884,8142.265362
2733.133062,229.828649,-1258.350101,9030.512492
2733.133391,-689.485948,74.020594,9474.636058
2733.133720,-383.047749,-888.247130,10140.821405
2733.134049,-919.314598,-1258.350101,9030.512492
2733.134378,-536.266849,-1184.329507,9992.780217
2733.134707,-536.266849,-1036.288319,9474.636058
2733.135035,-306.438199,-518.144159,8586.388927
2733.135364,536.266849,-74.020594,9844.739029
2733.135693,1455.581446,296.082377,9178.553681
2733.136022,612.876398,962.267725,7920.203579
2733.136351,766.095498,-0.000000,9918.759623
2733.136680,1072.533697,814.226536,9178.553681
2733.137009,995.924147,296.082377,8216.285956
2733.137338,689.485948,-592.164754,9400.615463
2733.137667,229.828649,222.061783,9474.636058
2733.137996,76.609550,-962.267725,9844.739029
2733.138325,153.219100,-1406.391290,10584.944971
2733.138654,0.000000,-222.061783,9622.677246
2733.138983,-383.047749,-888.247130,9030.512492
2733.139312,-383.047749,-222.061783,9548.656652
2733.139641,153.219100,-0.000000,9992.780217
2733.139970,-1149.143247,-888.247130,9104.533087
2733.140299,229.828649,-518.144159,9030.512492
2733.140628,-229.828649,-148.041188,8438.347739
2733.140957,383.047749,-0.000000,8660.409521
2733.141286,536.266849,-0.000000,7476.080014
2733.141615,229.828649,-296.082377,8956.491898
2733.141944,1072.533697,-0.000000,9326.594869
2733.142273,0.000000,-0.000000,7698.141797
2733.142602,0.000000,-962.267725,9992.780217
2733.142931,76.609550,-0.000000,8882.471304
2733.143260,229.828649,-74.020594,8586.388927
2733.143589,0.000000,-888.247130,9104.533087
2733.143918,0.000000,-148.041188,9474.636058
2733.144247,-306.438199,-0.000000,9104.533087
2733.144576,0.000000,-444.123565,9918.759623
2733.144905,0.000000,-592.164754,9030.512492
2733.145234,459.657299,-888.247130,9030.512492
2733.145563,0.000000,-444.123565,9178.553681
2733.145892,229.828649,-666.185348,9178.553681
2733.146221,536.266849,-444.123565,8290.306550
2733.146550,1072.533697,-222.061783,9030.512492
2733.146879,1608.800546,296.082377,9252.574275
2733.147208,2298.286494,444.123565,8142.265362
2733.147537,2451.505594,-74.020594,8882.471304
2733.147866,2528.115143,370.102971,8956.491898
2733.148195,1915.238745,666.185348,7920.203579
2733.148524,1378.971896,-0.000000,9104.533087
2733.148853,383.047749,592.164754,9326.594869
2733.149181,306.438199,-592.164754,8586.388927
2733.149510,-612.876398,-1480.411884,9622.677246
2733.149839,-766.095498,-814.226536,10881.027347
2733.150168,-995.924147,-1702.473667,10140.821405
2733.150497,-1072.533697,-666.185348,9992.780217
2733.150826,-766.095498,-518.144159,10288.862594
2733.151155,383.047749,-0.000000,8808.450710
2733.151484,536.266849,1110.308913,8290.306550
2733.151813,1762.019645,444.123565,8882.471304
2733.152142,1915.238745,1702.473667,8364.327145
2733.152471,995.924147,888.247130,8438.347739
2733.152800,919.314598,1110.308913,7920.203579
2733.153129,229.828649,814.226536,8586.388927
2733.153458,0.000000,-666.185348,8882.471304
2733.153787,-229.828649,-1480.411884,9474.636058
2733.154116,-1302.362347,-1258.350101,10066.800811
2733.154445,-1915.238745,-1850.514855,9400.615463
2733.154774,-1762.019645,-2072.576638,10066.800811
2733.155103,-1302.362347,-1332.370696,9992.780217
2733.155432,0.000000,-592.164754,8512.368333
2733.155761,76.609550,-74.020594,9030.512492
2733.156090,919.314598,222.061783,7920.203579
2733.156419,1685.410096,1332.370696,7920.203579
2733.156748,2374.896044,666.185348,8142.265362
2733.157077,995.924147,1406.391290,6957.935855
2733.157406,1455.581446,-444.123565,8734.430116
2733.157735,1302.362347,-740.205942,8808.450710
2733.158064,459.657299,-0.000000,8660.409521
2733.158393,76.609550,-888.247130,9474.636058
2733.158722,-306.438199,-1258.350101,10140.821405
2733.159051,-229.828649,-1332.370696,10732.986159
2733.159380,459.657299,-148.041188,9104.533087
2733.159709,229.828649,-888.247130,9104.533087
2733.160038,1225.752797,666.185348,10140.821405
2733.160367,1302.362347,1406.391290,7994.224174
2733.160696,0.000000,1554.432478,9104.533087
2733.161025,1225.752797,1110.308913,9400.615463
2733.161354,1608.800546,444.123565,7994.224174
2733.161683,383.047749,-74.020594,8586.388927
2733.162012,153.219100,-888.247130,9696.697840
2733.162341,-689.485948,-1480.411884,9252.574275
2733.162670,-459.657299,-962.267725,9770.718434
2733.162999,-766.095498,-888.247130,10362.883188
2733.163327,-842.705048,-1036.288319,9474.636058
2733.163656,0.000000,-962.267725,9548.656652
2733.163985,1149.143247,-148.041188,10436.903782
2733.164314,689.485948,1110.308913,8438.347739
2733.164643,229.828649,74.020594,8734.430116
2733.164972,1149.143247,296.082377,9104.533087
2733.165301,1608.800546,1258.350101,8882.471304
2733.165630,995.924147,962.267725,7254.018232
2733.165959,1378.971896,-666.185348,9104.533087
2733.166288,536.266849,-222.061783,9548.656652
2733.166617,766.095498,592.164754,8586.388927
2733.166946,689.485948,-1110.308913,9400.615463
2733.167275,0.000000,-1184.329507,9992.780217
2733.167604,-229.828649,-518.144159,9400.615463
2733.167933,842.705048,-370.102971,9252.574275
2733.168262,995.924147,-0.000000,8586.388927
2733.168591,689.485948,-0.000000,9030.512492
2733.168920,153.219100,-0.000000,9548.656652
2733.169249,-229.828649,740.205942,10066.800811
2733.169578,-153.219100,-518.144159,8660.409521
2733.169907,0.000000,-518.144159,8364.327145
2733.170236,-383.047749,-592.164754,9548.656652
2733.170565,-383.047749,-962.267725,9326.594869
2733.170894,-689.485948,-1110.308913,9252.574275
2733.171223,-1072.533697,-1258.350101,9992.780217
2733.171552,0.000000,-518.144159,8438.347739
2733.171881,76.609550,-666.185348,8438.347739
2733.172210,306.438199,-444.123565,8808.450710
2733.172539,919.314598,-0.000000,7994.224174
2733.172868,459.657299,-222.061783,8290.306550
2733.173197,0.000000,-518.144159,8364.327145
2733.173526,306.438199,-148.041188,8586.388927
2733.173855,-612.876398,-1480.411884,8808.450710
2733.174184,-842.705048,-592.164754,9104.533087
2733.174513,-995.924147,-518.144159,8216.285956
2733.174842,-1302.362347,-740.205942,9992.780217
2733.175171,-536.266849,-444.123565,9918.759623
2733.175500,229.828649,-74.020594,9030.512492
2733.175829,612.876398,370.102971,8512.368333
2733.176158,1838.629195,296.082377,9548.656652
2733.176487,2298.286494,1480.411884,8882.471304
2733.176816,2145.067394,962.267725,7994.224174
2733.177145,2757.943793,1036.288319,7698.141797
2733.177474,2451.505594,1332.370696,8364.327145
2733.177803,1225.752797,814.226536,8512.368333
2733.178133,1455.581446,444.123565,11177.109724
2733.178462,0.000000,-148.041188,8882.471304
2733.178791,-306.438199,-1258.350101,10807.006753
2733.179120,-1378.971896,-1480.411884,10510.924376
2733.179449,-1915.238745,-1332.370696,12139.377449
2733.179778,-459.657299,-1628.453072,10436.903782
2733.180107,-842.705048,-1110.308913,7698.141797
2733.180436,536.266849,-0.000000,10658.965565
2733.180765,1072.533697,666.185348,9104.533087
2733.181094,2068.457845,444.123565,8438.347739
2733.181423,1532.190996,962.267725,8882.471304
2733.181753,1915.238745,1258.350101,7105.977043
2733.182082,1991.848295,-518.144159,9252.574275
2733.182411,2068.457845,222.061783,7698.141797
2733.182740,2068.457845,-0.000000,8068.244768
2733.183069,1072.533697,-1184.329507,8660.409521
2733.183398,612.876398,-148.041188,8956.491898
2733.183727,-919.314598,-0.000000,8364.327145
2733.184056,-383.047749,-2294.638420,10584.944971
2733.184385,-229.828649,-740.205942,9400.615463
2733.184714,-306.438199,-148.041188,8586.388927
2733.185043,-1685.410096,-1110.308913,9844.739029
2733.185373,-383.047749,-222.061783,10140.821405
2733.185702,0.000000,-0.000000,8956.491898
2733.186031,229.828649,-74.020594,8364.327145
2733.186360,919.314598,-814.226536,9326.594869
2733.186689,1072.533697,592.164754,8660.409521
2733.187018,1532.190996,-0.000000,7624.121203
2733.187347,1838.629195,-0.000000,8438.347739
2733.187676,1225.752797,-148.041188,8660.409521
2733.188005,1378.971896,370.102971,8512.368333
2733.188334,1532.190996,-370.102971,9474.636058
2733.188663,1378.971896,370.102971,8438.347739
2733.188993,76.609550,518.144159,9474.636058
2733.189322,0.000000,-444.123565,9696.697840
2733.189651,0.000000,-0.000000,9992.780217
2733.189980,-689.485948,740.205942,9400.615463
2733.190309,-919.314598,-444.123565,9400.615463
2733.190638,-919.314598,-296.082377,10362.883188
2733.190967,-1532.190996,-592.164754,9326.594869
2733.191296,-995.924147,-1110.308913,9474.636058
2733.191625,-995.924147,-962.267725,9622.677246
2733.191954,-612.876398,-1258.350101,8734.430116
2733.192284,-766.095498,-296.082377,9326.594869
2733.192613,383.047749,-888.247130,9474.636058
2733.192942,153.219100,444.123565,8216.285956
2733.193271,766.095498,-0.000000,9030.512492
2733.193600,0.000000,-222.061783,10436.903782
2733.193929,-153.219100,-0.000000,8734.430116
2733.194258,153.219100,370.102971,8438.347739
2733.194587,1378.971896,-0.000000,9474.636058
2733.194916,-383.047749,-148.041188,8808.450710
2733.195245,-536.266849,-814.226536,9178.553681
2733.195574,536.266849,-518.144159,9770.718434
2733.195904,229.828649,-518.144159,8660.409521
2733.196233,689.485948,-740.205942,8512.368333
2733.196562,229.828649,-444.123565,8290.306550
2733.196891,919.314598,-0.000000,9030.512492
2733.197220,1378.971896,222.061783,8364.327145
2733.197549,1532.190996,-222.061783,8068.244768
2733.197878,1225.752797,-74.020594,7846.182985
2733.198207,1455.581446,-0.000000,9400.615463
2733.198536,1532.190996,-740.205942,8808.450710
2733.198865,1838.629195,-0.000000,9252.574275
2733.199194,1072.533697,370.102971,8142.265362
2733.199524,1378.971896,-296.082377,9622.677246
2733.199853,1072.533697,370.102971,9696.697840
2733.200182,1378.971896,740.205942,7624.121203
2733.200511,1225.752797,-74.020594,9696.697840
2733.200840,1455.581446,-370.102971,9400.615463
2733.201169,1072.533697,-148.041188,8216.285956
2733.201498,689.485948,296.082377,8882.471304
2733.201827,306.438199,222.061783,8956.491898
2733.202156,-306.438199,-222.061783,8808.450710
2733.202485,-995.924147,-1258.350101,9992.780217
2733.202814,-153.219100,-1184.329507,10807.006753
2733.203144,-919.314598,-1554.432478,9326.594869
2733.203473,-1532.190996,-814.226536,10288.862594
2733.203802,-689.485948,-1110.308913,10807.006753
2733.204131,-766.095498,-0.000000,9474.636058
2733.204460,-383.047749,-592.164754,9400.615463
2733.204789,536.266849,-222.061783,9770.718434
2733.205118,0.000000,814.226536,9400.615463
2733.205447,-229.828649,-74.020594,8290.306550
2733.205776,536.266849,296.082377,8660.409521
2733.206105,-383.047749,518.144159,8068.244768
2733.206435,-612.876398,-1480.411884,9030.512492
2733.206764,76.609550,-814.226536,8512.368333
2733.207093,1072.533697,-518.144159,7772.162391
2733.207422,229.828649,-0.000000,7254.018232
2733.207751,536.266849,-0.000000,8956.491898
2733.208080,919.314598,-444.123565,9696.697840
2733.208409,459.657299,1776.494261,7105.977043
2733.208738,766.095498,1110.308913,8438.347739
2733.209067,766.095498,-814.226536,9400.615463
2733.209396,0.000000,1036.288319,7476.080014
2733.209725,-459.657299,-1036.288319,10584.944971
2733.210055,-459.657299,-518.144159,9030.512492
2733.210384,0.000000,-222.061783,8512.368333
2733.210713,-842.705048,-888.247130,9770.718434
2733.211042,612.876398,-0.000000,9548.656652
2733.211371,-689.485948,-592.164754,8586.388927
2733.211700,-383.047749,-148.041188,9474.636058
2733.212029,919.314598,222.061783,9030.512492
2733.212358,459.657299,-74.020594,8808.450710
2733.212687,612.876398,-370.102971,8142.265362
2733.213016,536.266849,-370.102971,10066.800811
2733.213345,0.000000,-0.000000,8882.471304
2733.213675,842.705048,-222.061783,8882.471304
2733.214004,0.000000,-740.205942,10658.965565
2733.214333,-842.705048,-0.000000,10881.027347
2733.214662,-153.219100,-740.205942,9548.656652
2733.214991,229.828649,-962.267725,9474.636058
2733.215320,0.000000,592.164754,9918.759623
2733.215649,383.047749,-148.041188,9178.553681
2733.215978,0.000000,-518.144159,9696.697840
2733.216307,1149.143247,-0.000000,9104.533087
2733.216636,1532.190996,-148.041188,7328.038826
2733.216966,2068.457845,-296.082377,9104.533087
2733.217295,1378.971896,814.226536,8734.430116
2733.217624,2145.067394,1110.308913,7328.038826
2733.217953,1532.190996,296.082377,8808.450710
2733.218282,1455.581446,-0.000000,9178.553681
2733.218611,1685.410096,1036.288319,9326.594869
2733.218940,1302.362347,-0.000000,8956.491898
2733.219269,1302.362347,-1110.308913,9918.759623
2733.219598,995.924147,370.102971,8734.430116
2733.219927,612.876398,-666.185348,9178.553681
2733.220256,766.095498,148.041188,9104.533087
2733.220586,383.047749,740.205942,8586.388927
2733.220915,842.705048,-370.102971,8808.450710
2733.221244,1378.971896,-518.144159,9400.615463
2733.221573,229.828649,518.144159,7402.059420
2733.221902,306.438199,-666.185348,8586.388927
2733.222231,229.828649,-74.020594,9326.594869
2733.222560,-995.924147,-1036.288319,8882.471304
2733.222889,-995.924147,-1332.370696,9696.697840
2733.223218,-766.095498,-2146.597232,10584.944971
2733.223547,-1225.752797,-1332.370696,9622.677246
2733.223876,-995.924147,-814.226536,9474.636058
2733.224206,-153.219100,-1110.308913,9326.594869
2733.224535,0.000000,-370.102971,9252.574275
2733.224864,919.314598,-222.061783,8364.327145
2733.225193,1455.581446,-0.000000,8142.265362
2733.225522,842.705048,444.123565,7476.080014
2733.225851,995.924147,296.082377,7772.162391
2733.226180,919.314598,-814.226536,8586.388927
2733.226509,76.609550,740.205942,8290.306550
2733.226838,-612.876398,-592.164754,8882.471304
2733.227167,-1225.752797,-888.247130,10066.800811
2733.227496,-1838.629195,-1110.308913,10066.800811
2733.227826,-1915.238745,-740.205942,9844.739029
2733.228155,-1302.362347,-1776.494261,9474.636058
2733.228484,-995.924147,-518.144159,10140.821405
2733.228813,-459.657299,-814.226536,9178.553681
2733.229142,1149.143247,-0.000000,8438.347739
2733.229471,1608.800546,1554.432478,8882.471304
2733.229800,1915.238745,1184.329507,7920.203579
2733.230129,2451.505594,370.102971,8142.265362
2733.230458,1302.362347,888.247130,8808.450710
2733.230787,2068.457845,888.247130,7624.121203
2733.231117,1915.238745,444.123565,8438.347739
2733.231446,536.266849,-74.020594,8512.368333
2733.231775,153.219100,592.164754,9548.656652
2733.232104,-383.047749,-222.061783,10066.800811
2733.232433,-536.266849,-1998.556043,9992.780217
2733.232762,76.609550,518.144159,9696.697840
2733.233091,-536.266849,-444.123565,8364.327145
2733.233420,-536.266849,-370.102971,11251.130318
2733.233749,306.438199,-0.000000,10288.862594
2733.234078,612.876398,-0.000000,7179.997637
2733.234407,229.828649,-444.123565,10288.862594
2733.234737,995.924147,222.061783,8512.368333
2733.235066,842.705048,444.123565,8586.388927
2733.235395,612.876398,222.061783,8586.388927
2733.235724,0.000000,-0.000000,7994.224174
2733.236053,0.000000,148.041188,9770.718434
2733.236382,0.000000,296.082377,9474.636058
2733.236711,-1455.581446,-1110.308913,8512.368333
2733.237040,-1762.019645,-0.000000,8660.409521
2733.237369,-1455.581446,-888.247130,9622.677246
2733.237698,-2604.724693,-148.041188,9992.780217
2733.238027,-2987.772442,-666.185348,9326.594869
2733.238357,-3140.991542,-1850.514855,9696.697840
2733.238686,-2987.772442,222.061783,9474.636058
2733.239015,-2681.334243,-518.144159,9326.594869
2733.239344,-2757.943793,-592.164754,8512.368333
2733.239673,-2528.115143,-888.247130,9918.759623
2733.240002,-1915.238745,-0.000000,9178.553681
2733.240331,-2451.505594,-0.000000,7846.182985
2733.240660,-2451.505594,-0.000000,9326.594869
2733.240989,-2451.505594,222.061783,8586.388927
2733.241318,-2145.067394,-0.000000,7476.080014
2733.241647,-2298.286494,-0.000000,8142.265362
2733.241977,-1762.019645,518.144159,8216.285956
2733.242306,-2451.505594,-148.041188,8142.265362
2733.242635,-3447.429741,-148.041188,9400.615463
2733.242964,-3447.429741,-148.041188,9178.553681
2733.243293,-3447.429741,-0.000000,7698.141797
2733.243622,-3294.210641,-1628.453072,9474.636058
2733.243951,-3140.991542,-1184.329507,10510.924376
2733.244280,-3064.381992,-1924.535449,10214.842000
2733.244609,-3447.429741,-2368.659014,9326.594869
2733.244938,-3370.820191,-1702.473667,10436.903782
2733.245268,-2451.505594,-222.061783,10288.862594
2733.245597,-2145.067394,-740.205942,8512.368333
2733.245926,-2757.943793,-296.082377,9400.615463
2733.246255,-1302.362347,148.041188,10066.800811
2733.246584,-766.095498,1332.370696,8734.430116
2733.246913,-1225.752797,962.267725,7476.080014
2733.247242,-1149.143247,1184.329507,7698.141797
2733.247571,-1149.143247,1480.411884,7179.997637
2733.247900,-2068.457845,370.102971,7402.059420
2733.248229,-2911.162892,-0.000000,9178.553681
2733.248558,-2834.553343,-1480.411884,10510.924376
2733.248888,-2681.334243,-1406.391290,8808.450710
2733.249217,-3983.696590,-1406.391290,9252.574275
2733.249546,-4826.401637,-1554.432478,10807.006753
2733.249875,-4673.182538,-1406.391290,9770.718434
2733.250204,-3370.820191,-740.205942,9548.656652
2733.250533,-3064.381992,-518.144159,9918.759623
2733.250862,-2298.286494,-444.123565,9992.780217
2733.251191,-1762.019645,-74.020594,8660.409521
2733.251520,-1991.848295,222.061783,6957.935855
2733.251849,-1838.629195,444.123565,9030.512492
2733.252178,-1378.971896,1036.288319,7698.141797
2733.252508,-919.314598,2220.617826,7402.059420
2733.252837,-1532.190996,1036.288319,7994.224174
2733.253166,-2374.896044,-0.000000,8660.409521
2733.253495,-3064.381992,-1406.391290,9992.780217
2733.253824,-3217.601092,-2368.659014,9548.656652
2733.254153,-2374.896044,-296.082377,8808.450710
2733.254482,-3064.381992,-888.247130,9474.636058
2733.254811,-3524.039291,-1110.308913,10362.883188
2733.255140,-2374.896044,-0.000000,10288.862594
2733.255469,-842.705048,444.123565,8808.450710
2733.255799,-1072.533697,-222.061783,8364.327145
2733.256128,-2451.505594,-296.082377,9696.697840
2733.256457,-2451.505594,148.041188,10807.006753
2733.256786,-1915.238745,888.247130,8734.430116
2733.257115,-1455.581446,1332.370696,7254.018232
2733.257444,-2298.286494,444.123565,7698.141797
2733.257773,-2221.676944,888.247130,9992.780217
2733.258102,-2604.724693,148.041188,8216.285956
2733.258431,-2374.896044,-1036.288319,8660.409521
2733.258760,-3064.381992,-2294.638420,8364.327145
2733.259089,-4366.744339,-1554.432478,9844.739029
2733.259419,-3907.087040,-1406.391290,10807.006753
2733.259748,-4366.744339,-1554.432478,9844.739029
2733.260077,-3983.696590,-2368.659014,9696.697840
2733.260406,-3830.477490,-1036.288319,11177.109724
2733.260735,-3370.820191,-1406.391290,10584.944971
2733.261064,-2221.676944,962.267725,9400.615463
2733.261393,-1072.533697,740.205942,8068.244768
2733.261722,-1915.238745,888.247130,7920.203579
2733.262051,-2221.676944,148.041188,9400.615463
2733.262380,-1915.238745,-0.000000,9104.533087
2733.262709,-1149.143247,1258.350101,6143.709319
2733.263039,-1302.362347,1332.370696,7254.018232
2733.263368,-2451.505594,-592.164754,7550.100608
2733.263697,-2374.896044,-1036.288319,9178.553681
2733.264026,-2528.115143,-1332.370696,8586.388927
2733.264355,-1915.238745,-740.205942,8142.265362
2733.264684,-1915.238745,-740.205942,8586.388927
2733.265013,-2221.676944,-888.247130,8956.491898
2733.265342,-2911.162892,-1554.432478,10214.842000
2733.265671,-2604.724693,-740.205942,9696.697840
2733.266000,-1838.629195,-0.000000,9400.615463
2733.266329,-1915.238745,962.267725,9474.636058
2733.266659,-1991.848295,2072.576638,8956.491898
2733.266988,-2145.067394,962.267725,9474.636058
2733.267317,-2145.067394,-74.020594,9400.615463
2733.267646,-1991.848295,1406.391290,8808.450710
2733.267975,-2221.676944,444.123565,8216.285956
2733.268304,-1838.629195,222.061783,7772.162391
2733.268633,-2681.334243,-962.267725,8512.368333
2733.268962,-3447.429741,-2812.782580,9474.636058
2733.269291,-4290.134789,-2220.617826,9844.739029
2733.269620,-4136.915689,-1184.329507,9992.780217
2733.269950,-4903.011187,-814.226536,9622.677246
2733.270279,-4213.525239,-444.123565,10214.842000
2733.270608,-4443.353888,-1036.288319,10436.903782
2733.270937,-3600.648841,-666.185348,10732.986159
2733.271266,-2604.724693,518.144159,9622.677246
2733.271595,-2451.505594,1776.494261,8290.306550
2733.271924,-1378.971896,1702.473667,8364.327145
2733.272253,-766.095498,1184.329507,8216.285956
2733.272582,-1378.971896,-370.102971,8882.471304
2733.272911,-1915.238745,-0.000000,7920.203579
2733.273240,-2068.457845,-666.185348,8290.306550
2733.273570,-2451.505594,-814.226536,7994.224174
2733.273899,-2451.505594,-444.123565,7994.224174
2733.274228,-3294.210641,-370.102971,9252.574275
2733.274557,-3294.210641,-0.000000,9178.553681
2733.274886,-2834.553343,-222.061783,9252.574275
2733.275215,-3447.429741,-74.020594,9400.615463
2733.275544,-3294.210641,-296.082377,9918.759623
2733.275873,-3600.648841,-222.061783,9770.718434
2733.276202,-3600.648841,-518.144159,9992.780217
2733.276531,-3217.601092,-0.000000,9474.636058
2733.276860,-1762.019645,1480.411884,8956.491898
2733.277190,-1838.629195,740.205942,8142.265362
2733.277519,-1532.190996,148.041188,7624.121203
2733.277848,-1685.410096,-888.247130,8586.388927
2733.278177,-2528.115143,-1110.308913,8734.430116
2733.278506,-2681.334243,-1036.288319,8734.430116
2733.278835,-3140.991542,-666.185348,8734.430116
2733.279164,-3140.991542,-666.185348,9474.636058
2733.279494,-3447.429741,-0.000000,9474.636058
2733.279823,-3217.601092,-518.144159,9696.697840
2733.280152,-3294.210641,-222.061783,9770.718434
2733.280481,-2604.724693,-592.164754,9918.759623
2733.280810,-1838.629195,-666.185348,9770.718434
2733.281139,-1608.800546,-962.267725,9992.780217
2733.281468,-1685.410096,-518.144159,8586.388927
2733.281798,-1225.752797,-0.000000,8438.347739
2733.282127,-842.705048,-296.082377,9178.553681
2733.282456,0.000000,740.205942,7846.182985
2733.282785,459.657299,1036.288319,6883.915261
2733.283114,-306.438199,370.102971,7031.956449
2733.283443,-1532.190996,222.061783,8068.244768
2733.283773,-2681.334243,-370.102971,9252.574275
2733.284102,-3140.991542,-1480.411884,9696.697840
2733.284431,-3217.601092,-1480.411884,9474.636058
2733.284760,-3983.696590,-1702.473667,9918.759623
2733.285089,-5286.058936,-2368.659014,10140.821405
2733.285418,-5439.278036,-2146.597232,11177.109724
2733.285747,-4673.182538,-1332.370696,11399.171507
2733.286077,-3677.258390,-222.061783,9770.718434
2733.286406,-1838.629195,444.123565,8734.430116
2733.286735,-536.266849,2220.617826,8142.265362
2733.287064,-1072.533697,2072.576638,5995.668130
2733.287393,-612.876398,592.164754,9252.574275
2733.287722,842.705048,666.185348,7328.038826
2733.288051,1455.581446,1480.411884,5255.462188
2733.288381,1532.190996,-0.000000,7772.162391
2733.288710,-995.924147,592.164754,6661.853478
2733.289039,-1608.800546,-1406.391290,10436.903782
2733.289368,-2987.772442,-1036.288319,9474.636058
2733.289697,-1685.410096,-1258.350101,10288.862594
2733.290026,-2681.334243,-1036.288319,10214.842000
2733.290356,-3217.601092,-0.000000,9770.718434
2733.290685,-4903.011187,-444.123565,10584.944971
2733.291014,-4903.011187,-0.000000,10214.842000
2733.291343,-4060.306139,-148.041188,10288.862594
2733.291672,-4060.306139,-148.041188,9474.636058
2733.292001,-3370.820191,296.082377,9104.533087
2733.292330,-3907.087040,-444.123565,8216.285956
2733.292660,-3524.039291,-2294.638420,8956.491898
2733.292989,-3217.601092,-1036.288319,8586.388927
2733.293318,-3140.991542,-1258.350101,8956.491898
2733.293647,-3217.601092,-1480.411884,9696.697840
2733.293976,-3983.696590,-518.144159,9400.615463
2733.294305,-3753.867940,-666.185348,10140.821405
2733.294634,-3983.696590,-444.123565,9474.636058
2733.294964,-3064.381992,518.144159,9918.759623
2733.295293,-2451.505594,1332.370696,9104.533087
2733.295622,-1991.848295,2146.597232,8734.430116
2733.295951,-2145.067394,2368.659014,7550.100608
2733.296280,-1991.848295,2072.576638,7476.080014
2733.296609,-1608.800546,2072.576638,7254.018232
2733.296939,-1378.971896,1184.329507,7624.121203
2733.297268,-1991.848295,666.185348,7328.038826
2733.297597,-2451.505594,-0.000000,7402.059420
2733.297926,-2834.553343,-370.102971,8364.327145
2733.298255,-2834.553343,370.102971,8142.265362
2733.298584,-2757.943793,740.205942,8512.368333
2733.298913,-3064.381992,518.144159,8882.471304
2733.299243,-3753.867940,222.061783,10584.944971
2733.299572,-4290.134789,444.123565,10955.047942
2733.299901,-4826.401637,-222.061783,11251.130318
2733.300230,-4213.525239,-0.000000,11547.212695
2733.300559,-2451.505594,370.102971,10881.027347
2733.300888,-1149.143247,296.082377,9770.718434
2733.301217,-536.266849,1406.391290,8290.306550
2733.301547,-229.828649,1258.350101,9548.656652
2733.301876,1225.752797,148.041188,11029.068536
2733.302205,2911.162892,4737.318029,5107.421000
2733.302534,5132.839837,3034.844362,7550.100608
2733.302863,3600.648841,4663.297435,4885.359217
2733.303192,4290.134789,4737.318029,7105.977043
2733.303521,2834.553343,4441.235652,8142.265362
2733.303851,2374.896044,3997.112087,7550.100608
2733.304180,1838.629195,2146.597232,10584.944971
2733.304509,-689.485948,2146.597232,9400.615463
2733.304838,-1991.848295,1036.288319,12139.377449
2733.305167,-2451.505594,814.226536,12139.377449
2733.305496,-612.876398,1998.556043,10066.800811
2733.305826,-995.924147,1628.453072,11695.253884
2733.306155,-306.438199,2886.803174,9918.759623
2733.306484,229.828649,3627.009116,9104.533087
2733.306813,1072.533697,1554.432478,7772.162391
2733.307142,2298.286494,4145.153275,7402.059420
2733.307471,2681.334243,4811.338623,5699.585753
2733.307800,2451.505594,4219.173869,7328.038826
2733.308130,1378.971896,4737.318029,7254.018232
2733.308459,689.485948,3627.009116,7698.141797
2733.308788,-1225.752797,2590.720797,8512.368333
2733.309117,-2681.334243,2294.638420,9918.759623
2733.309446,-3140.991542,1332.370696,11473.192101
2733.309775,-3217.601092,2368.659014,10510.924376
2733.310104,-2987.772442,3478.967927,8660.409521
2733.310434,-2911.162892,2220.617826,11621.233289
2733.310763,-3600.648841,2664.741391,10510.924376
2733.311092,-2757.943793,2368.659014,10732.986159
2733.311421,-1762.019645,2220.617826,9696.697840
2733.311750,-995.924147,2664.741391,8660.409521
2733.312079,-1225.752797,2146.597232,8808.450710
2733.312409,-459.657299,3108.864956,9474.636058
2733.312738,0.000000,1776.494261,11547.212695
2733.313067,2068.457845,3330.926739,8290.306550
2733.313396,4443.353888,4959.379811,6661.853478
2733.313725,3907.087040,5329.482782,6143.709319
2733.314054,2757.943793,6143.709319,7031.956449
2733.314383,3064.381992,7254.018232,8364.327145
2733.314713,2068.457845,5847.626942,8216.285956
2733.315042,1532.190996,5921.647536,8142.265362
2733.315371,0.000000,5181.441594,8586.388927
2733.315700,0.000000,5551.544565,7698.141797
2733.316029,-1608.800546,2146.597232,9844.739029
2733.316358,-1838.629195,-1110.308913,11251.130318
2733.316687,-1378.971896,1332.370696,9770.718434
2733.317017,-1378.971896,-666.185348,11177.109724
2733.317346,-1225.752797,1554.432478,9400.615463
2733.317675,-536.266849,3404.947333,11399.171507
2733.318004,1608.800546,3330.926739,9104.533087
2733.318333,2221.676944,5699.585753,7846.182985
2733.318662,3294.210641,3849.070898,7476.080014
2733.318991,3524.039291,5181.441594,7772.162391
2733.319321,2068.457845,5181.441594,7624.121203
2733.319650,1455.581446,5255.462188,7402.059420
2733.319979,-306.438199,2294.638420,9030.512492
2733.320308,-1532.190996,814.226536,11769.274478
2733.320637,-2374.896044,592.164754,10584.944971
2733.320966,-2298.286494,592.164754,11399.171507
2733.321296,-2451.505594,-888.247130,9770.718434
2733.321625,-1915.238745,1332.370696,9844.739029
2733.321954,-1455.581446,1258.350101,8956.491898
2733.322283,-995.924147,962.267725,10066.800811
2733.322612,1225.752797,1628.453072,9770.718434
2733.322941,3370.820191,2072.576638,7254.018232
2733.323270,4060.306139,2886.803174,7254.018232
2733.323600,2987.772442,2738.761985,7105.977043
2733.323929,3524.039291,3701.029710,6513.812290
2733.324258,2987.772442,3701.029710,8586.388927
2733.324587,2068.457845,3923.091493,7476.080014
2733.324916,1302.362347,4663.297435,7328.038826
2733.325245,-306.438199,2812.782580,8808.450710
2733.325574,-2987.772442,-2516.700203,11843.295072
2733.325904,-3140.991542,-1332.370696,11473.192101
2733.326233,-2757.943793,-1480.411884,11843.295072
2733.326562,-3524.039291,-1628.453072,10510.924376
2733.326891,-3140.991542,1998.556043,10955.047942
2733.327220,-1149.143247,1924.535449,8660.409521
2733.327549,-306.438199,3182.885551,8142.265362
2733.327879,1685.410096,2294.638420,11177.109724
2733.328208,3753.867940,1184.329507,8734.430116
2733.328537,4443.353888,3775.050304,7476.080014
2733.328866,4136.915689,5625.565159,2960.823768
2733.329195,3907.087040,5477.523971,5699.585753
2733.329524,3753.867940,4367.215058,8290.306550
2733.329853,2681.334243,5255.462188,5995.668130
2733.330183,3677.258390,3701.029710,8216.285956
2733.330512,76.609550,5329.482782,7031.956449
2733.330841,0.000000,4589.276840,7254.018232
2733.331170,-4060.306139,-296.082377,10732.986159
2733.331499,-4673.182538,-1554.432478,13619.789333
2733.331828,-2911.162892,3108.864956,9770.718434
2733.332157,-1762.019645,-4663.297435,9622.677246
2733.332487,-3600.648841,1850.514855,9474.636058
2733.332816,-1685.410096,1702.473667,14063.912898
2733.333145,-1762.019645,2516.700203,8438.347739
2733.333474,-2145.067394,4737.318029,9844.739029
2733.333803,1762.019645,1406.391290,11547.212695
2733.334132,2451.505594,4663.297435,8290.306550
2733.334462,2911.162892,5773.606348,8068.244768
2733.334791,2681.334243,3627.009116,4663.297435
2733.335120,2451.505594,4441.235652,8068.244768
2733.335449,612.876398,5033.400406,9474.636058
2733.335778,-459.657299,5477.523971,8734.430116
2733.336107,0.000000,5477.523971,9474.636058
2733.336436,-1072.533697,2442.679609,9252.574275
2733.336766,-2528.115143,1554.432478,11547.212695
2733.337095,-3294.210641,2146.597232,10881.027347
2733.337424,-1378.971896,1184.329507,12065.356855
2733.337753,-1838.629195,-1776.494261,11843.295072
2733.338082,-766.095498,740.205942,10288.862594
2733.338411,-229.828649,2072.576638,8660.409521
2733.338740,383.047749,3034.844362,8956.491898
2733.339070,2451.505594,4737.318029,8142.265362
2733.339399,3753.867940,6365.771101,8660.409521
2733.339728,2528.115143,5329.482782,8290.306550
2733.340057,766.095498,5181.441594,9770.718434
2733.340386,459.657299,5107.421000,9178.553681
2733.340715,229.828649,4959.379811,7846.182985
2733.341044,1455.581446,4293.194464,8438.347739
2733.341374,2145.067394,2738.761985,9548.656652
2733.341703,995.924147,592.164754,11695.253884
2733.342032,-229.828649,370.102971,10436.903782
2733.342361,612.876398,1702.473667,8660.409521
2733.342690,842.705048,2294.638420,8956.491898
2733.343019,459.657299,3849.070898,8438.347739
2733.343349,-153.219100,4959.379811,9178.553681
2733.343678,842.705048,3627.009116,8290.306550
2733.344007,1838.629195,3997.112087,7698.141797
2733.344336,2528.115143,4441.235652,7698.141797
2733.344665,2604.724693,3404.947333,8512.368333
2733.344994,689.485948,2960.823768,8808.450710
2733.345323,612.876398,1480.411884,8808.450710
2733.345653,-383.047749,1702.473667,9992.780217
2733.345982,-919.314598,1850.514855,10510.924376
2733.346311,-2068.457845,3404.947333,9548.656652
2733.346640,-2145.067394,1480.411884,10807.006753
2733.346969,-2068.457845,962.267725,9252.574275
2733.347298,-1455.581446,-0.000000,10658.965565
2733.347627,-1762.019645,-0.000000,10288.862594
2733.347957,-1072.533697,1258.350101,9770.718434
2733.348286,1378.971896,1924.535449,8734.430116
2733.348615,2834.553343,2590.720797,6809.894666
2733.348944,2374.896044,2960.823768,7402.059420
2733.349273,536.266849,3256.906145,8438.347739
2733.349602,1225.752797,2368.659014,7920.203579
2733.349932,2757.943793,4145.153275,7772.162391
2733.350261,1915.238745,4219.173869,7105.977043
2733.350590,0.000000,3923.091493,8586.388927
2733.350919,-1149.143247,962.267725,11325.150913
2733.351248,-383.047749,222.061783,10881.027347
2733.351577,-1838.629195,222.061783,9104.533087
2733.351906,-3140.991542,740.205942,10436.903782
2733.352236,-2374.896044,1406.391290,11843.295072
2733.352565,-1685.410096,962.267725,9474.636058
2733.352894,-919.314598,2960.823768,7031.956449
2733.353223,-536.266849,3182.885551,7402.059420
2733.353552,306.438199,3034.844362,8438.347739
2733.353881,1532.190996,4219.173869,7698.141797
2733.354210,1149.143247,4071.132681,6439.791695
2733.354540,766.095498,2886.803174,7698.141797
2733.354869,1608.800546,2220.617826,9770.718434
2733.355198,919.314598,962.267725,10658.965565
2733.355527,-383.047749,1998.556043,10362.883188
2733.355856,0.000000,2590.720797,10214.842000
2733.356185,536.266849,3108.864956,10436.903782
2733.356514,-1149.143247,4293.194464,10066.800811
2733.356844,-689.485948,3256.906145,10362.883188
2733.357173,0.000000,2368.659014,10510.924376
2733.357502,1378.971896,3775.050304,8734.430116
2733.357831,919.314598,3404.947333,8142.265362
2733.358160,1608.800546,2146.597232,9918.759623
2733.358489,919.314598,1332.370696,8882.471304
2733.358819,995.924147,1924.535449,8142.265362
2733.359148,1149.143247,3108.864956,8438.347739
2733.359477,1762.019645,2368.659014,8438.347739
2733.359806,2145.067394,3478.967927,8734.430116
2733.360135,1685.410096,4515.256246,9104.533087
2733.360464,1608.800546,2146.597232,9548.656652
2733.360793,766.095498,1924.535449,9474.636058
2733.361123,0.000000,3478.967927,10288.862594
2733.361452,-1302.362347,2368.659014,10510.924376
2733.361781,-842.705048,1480.411884,10066.800811
2733.362110,-459.657299,888.247130,9992.780217
2733.362439,-995.924147,740.205942,9400.615463
2733.362768,-1225.752797,1332.370696,9104.533087
2733.363097,-689.485948,1850.514855,8882.471304
2733.363427,-1608.800546,962.267725,7624.121203
2733.363756,-383.047749,814.226536,8586.388927
2733.364085,306.438199,-74.020594,8512.368333
2733.364414,229.828649,-74.020594,8956.491898
2733.364743,842.705048,296.082377,9104.533087
2733.365072,1302.362347,518.144159,8438.347739
2733.365402,689.485948,1628.453072,9178.553681
2733.365731,766.095498,1776.494261,9252.574275
2733.366060,1149.143247,1702.473667,8216.285956
2733.366389,689.485948,2368.659014,9474.636058
2733.366718,1378.971896,2590.720797,8512.368333
2733.367047,766.095498,222.061783,9178.553681
2733.367376,229.828649,222.061783,9918.759623
2733.367706,153.219100,666.185348,8586.388927
2733.368035,-612.876398,-592.164754,8364.327145
2733.368364,-1838.629195,-814.226536,9696.697840
2733.368693,76.609550,-1036.288319,9770.718434
2733.369022,306.438199,-1184.329507,7772.162391
2733.369351,153.219100,-0.000000,7698.141797
2733.369680,1149.143247,-0.000000,9326.594869
2733.370010,383.047749,1554.432478,8068.244768
2733.370339,995.924147,1332.370696,7846.182985
2733.370668,1762.019645,1258.350101,8956.491898
2733.370997,1915.238745,1036.288319,9104.533087
2733.371326,1302.362347,740.205942,9030.512492
2733.371655,766.095498,666.185348,9548.656652
2733.371984,383.047749,1184.329507,9104.533087
2733.372314,-306.438199,-888.247130,9474.636058
2733.372643,-689.485948,-888.247130,9918.759623
2733.372972,-153.219100,-1628.453072,9770.718434
2733.373301,-459.657299,-1332.370696,9326.594869
2733.373630,-766.095498,-370.102971,9104.533087
2733.373959,-459.657299,-2146.597232,10510.924376
2733.374289,-383.047749,-814.226536,7994.224174
2733.374618,0.000000,-962.267725,9326.594869
2733.374947,306.438199,-962.267725,10362.883188
2733.375276,306.438199,-814.226536,8734.430116
2733.375605,766.095498,-74.020594,8882.471304
2733.375934,1149.143247,1332.370696,8882.471304
2733.376263,1149.143247,740.205942,8956.491898
2733.376593,0.000000,148.041188,9326.594869
2733.376922,536.266849,-74.020594,9548.656652
2733.377251,459.657299,296.082377,8808.450710
2733.377580,-306.438199,-1776.494261,9178.553681
2733.377909,-766.095498,-518.144159,9400.615463
2733.378239,-689.485948,-3034.844362,10658.965565
2733.378568,-1225.752797,-1702.473667,8808.450710
2733.378897,-842.705048,-814.226536,9400.615463
2733.379226,229.828649,-1406.391290,9474.636058
2733.379555,-536.266849,-1258.350101,8586.388927
2733.379885,229.828649,-74.020594,9622.677246
2733.380214,2221.676944,-296.082377,8142.265362
2733.380543,1072.533697,370.102971,8512.368333
2733.380872,1608.800546,962.267725,9770.718434
2733.381201,2451.505594,370.102971,8438.347739
2733.381531,1455.581446,1776.494261,8438.347739
2733.381860,1072.533697,1628.453072,8808.450710
2733.382189,1532.190996,444.123565,8882.471304
2733.382518,459.657299,444.123565,8438.347739
2733.382847,383.047749,-0.000000,9400.615463
2733.383177,383.047749,-814.226536,9696.697840
2733.383506,0.000000,-1184.329507,8364.327145
2733.383835,-306.438199,-740.205942,8734.430116
2733.384164,153.219100,-518.144159,9400.615463
2733.384493,0.000000,-740.205942,8364.327145
2733.384823,0.000000,-518.144159,8956.491898
2733.385152,766.095498,296.082377,9474.636058
2733.385481,842.705048,-0.000000,8586.388927
2733.385810,153.219100,666.185348,8142.265362
2733.386139,612.876398,814.226536,9918.759623
2733.386469,842.705048,-370.102971,8956.491898
2733.386798,459.657299,-0.000000,8216.285956
2733.387127,995.924147,222.061783,9326.594869
2733.387456,459.657299,-1184.329507,8882.471304
2733.387785,-536.266849,370.102971,8586.388927
2733.388115,306.438199,-148.041188,8956.491898
2733.388444,306.438199,-518.144159,8068.244768
2733.388773,0.000000,-740.205942,8734.430116
2733.389102,536.266849,-888.247130,9770.718434
2733.389431,76.609550,-1776.494261,8956.491898
2733.389761,-459.657299,-1332.370696,9178.553681
2733.390090,-383.047749,-962.267725,9252.574275
2733.390419,-153.219100,-444.123565,9992.780217
2733.390748,-459.657299,-666.185348,9622.677246
2733.391077,0.000000,-0.000000,9474.636058
2733.391407,383.047749,-444.123565,9844.739029
2733.391736,153.219100,-518.144159,10214.842000
2733.392065,1225.752797,1110.308913,9178.553681
2733.392394,1072.533697,-0.000000,9696.697840
2733.392723,995.924147,1480.411884,7994.224174
2733.393053,919.314598,370.102971,9104.533087
2733.393382,1072.533697,148.041188,9400.615463
2733.393711,153.219100,-1480.411884,8882.471304
2733.394040,459.657299,-222.061783,9474.636058
2733.394369,0.000000,-74.020594,9326.594869
2733.394699,0.000000,-444.123565,8808.450710
2733.395028,-995.924147,-74.020594,10140.821405
2733.395357,-306.438199,-444.123565,10288.862594
2733.395686,-153.219100,-296.082377,9326.594869
2733.396015,-153.219100,-592.164754,9474.636058
2733.396345,842.705048,222.061783,8956.491898
2733.396674,1455.581446,296.082377,9474.636058
2733.397003,689.485948,148.041188,8808.450710
2733.397332,1455.581446,-444.123565,8586.388927
2733.397661,1838.629195,962.267725,7772.162391
2733.397990,842.705048,444.123565,8364.327145
2733.398320,995.924147,814.226536,8808.450710
2733.398649,995.924147,-888.247130,7920.203579
2733.398978,306.438199,-814.226536,8660.409521
2733.399307,153.219100,592.164754,9030.512492
2733.399636,153.219100,-2146.597232,10288.862594
2733.399966,-689.485948,-1036.288319,7920.203579
2733.400295,0.000000,-518.144159,9326.594869
2733.400624,995.924147,-518.144159,9474.636058
2733.400953,76.609550,-962.267725,7624.121203
2733.401282,1225.752797,-0.000000,10066.800811
2733.401612,1838.629195,814.226536,7550.100608
2733.401941,1072.533697,296.082377,7698.141797
2733.402270,306.438199,1036.288319,9178.553681
2733.402599,919.314598,-74.020594,8512.368333
2733.402928,153.219100,148.041188,8586.388927
2733.403258,0.000000,-370.102971,8216.285956
2733.403587,0.000000,-1110.308913,10510.924376
2733.403916,-612.876398,-2072.576638,10288.862594
2733.404245,-383.047749,-296.082377,9030.512492
2733.404574,-536.266849,-1110.308913,9474.636058
2733.404904,-229.828649,-666.185348,8956.491898
2733.405233,-612.876398,-0.000000,9548.656652
2733.405562,1532.190996,74.020594,9622.677246
2733.405891,1225.752797,1184.329507,7254.018232
2733.406220,689.485948,1036.288319,8512.368333
2733.406550,536.266849,1480.411884,8808.450710
2733.406879,459.657299,-666.185348,9326.594869
2733.407208,-306.438199,-888.247130,9326.594869
2733.407537,-383.047749,-962.267725,9474.636058
2733.407866,0.000000,-1110.308913,10436.903782
2733.408196,-459.657299,-444.123565,8882.471304
2733.408525,-536.266849,-740.205942,10140.821405
2733.408854,153.219100,518.144159,8734.430116
2733.409183,229.828649,444.123565,8290.306550
2733.409512,995.924147,1406.391290,9770.718434
2733.409842,1915.238745,814.226536,7920.203579
2733.410171,1378.971896,1184.329507,8808.450710
2733.410500,1225.752797,962.267725,9030.512492
2733.410829,1838.629195,-666.185348,8216.285956
2733.411158,536.266849,-296.082377,8808.450710
2733.411488,76.609550,-148.041188,9844.739029
2733.411817,612.876398,-444.123565,9992.780217
2733.412146,0.000000,-1036.288319,9474.636058
2733.412475,0.000000,-148.041188,8882.471304
2733.412804,459.657299,-0.000000,9252.574275
2733.413134,229.828649,-444.123565,9326.594869
2733.413463,229.828649,222.061783,9178.553681
2733.413792,1685.410096,-296.082377,9326.594869
2733.414121,689.485948,-592.164754,8068.244768
2733.414450,306.438199,-740.205942,9474.636058
2733.414780,842.705048,-148.041188,9474.636058
2733.415109,536.266849,-1036.288319,8586.388927
2733.415438,76.609550,1036.288319,8660.409521
2733.415767,229.828649,-666.185348,9844.739029
2733.416096,0.000000,-0.000000,9178.553681
2733.416426,0.000000,444.123565,8586.388927
2733.416755,153.219100,-1110.308913,9844.739029
2733.417084,0.000000,-1184.329507,9104.533087
2733.417413,0.000000,-444.123565,8734.430116
2733.417742,306.438199,-518.144159,8956.491898
2733.418072,459.657299,-0.000000,8290.306550
2733.418401,229.828649,-0.000000,8290.306550
2733.418730,76.609550,666.185348,8216.285956
2733.419059,459.657299,370.102971,8142.265362
2733.419388,306.438199,296.082377,8734.430116
2733.419718,-383.047749,-0.000000,9252.574275
2733.420047,76.609550,-1036.288319,8956.491898
2733.420376,0.000000,-518.144159,9104.533087
2733.420705,0.000000,-592.164754,9696.697840
2733.421034,689.485948,-444.123565,9474.636058
2733.421363,1149.143247,370.102971,7994.224174
2733.421693,1225.752797,-0.000000,9474.636058
2733.422022,1762.019645,962.267725,8808.450710
2733.422351,1762.019645,888.247130,7402.059420
2733.422680,536.266849,1406.391290,8364.327145
2733.423009,229.828649,740.205942,9326.594869
2733.423339,459.657299,-592.164754,8808.450710
2733.423668,-842.705048,-1258.350101,10362.883188
2733.423997,76.609550,-1184.329507,10066.800811
2733.424326,-842.705048,-1924.535449,9696.697840
2733.424655,-842.705048,-962.267725,10362.883188
2733.424985,-459.657299,-888.247130,10510.924376
2733.425314,229.828649,-888.247130,10066.800811
2733.425643,689.485948,296.082377,8882.471304
2733.425972,1378.971896,740.205942,9252.574275
2733.426301,1762.019645,592.164754,8956.491898
2733.426631,612.876398,1480.411884,7624.121203
2733.426960,1378.971896,-148.041188,9622.677246
2733.427289,689.485948,296.082377,8216.285956
2733.427618,-153.219100,-962.267725,9326.594869
2733.427947,-229.828649,-74.020594,10288.862594
2733.428277,-229.828649,-1554.432478,9326.594869
2733.428606,-1532.190996,-1036.288319,9696.697840
2733.428935,-1378.971896,-0.000000,10584.944971
2733.429264,-612.876398,-444.123565,9252.574275
2733.429593,-689.485948,-1184.329507,9622.677246
2733.429923,0.000000,-74.020594,9474.636058
2733.430252,1455.581446,-370.102971,8364.327145
2733.430581,1455.581446,740.205942,8290.306550
2733.430910,1378.971896,962.267725,7920.203579
2733.431239,1838.629195,888.247130,7994.224174
2733.431569,919.314598,814.226536,7920.203579
2733.431898,1378.971896,518.144159,7994.224174
2733.432227,459.657299,-296.082377,9400.615463
2733.432556,0.000000,-592.164754,8364.327145
2733.432885,-536.266849,-1110.308913,9474.636058
2733.433215,-842.705048,-1110.308913,9622.677246
2733.433544,-1378.971896,-1184.329507,9548.656652
2733.433873,-689.485948,-962.267725,9622.677246
2733.434202,0.000000,-666.185348,9400.615463
2733.434531,536.266849,-666.185348,8512.368333
2733.434861,229.828649,962.267725,9030.512492
2733.435190,919.314598,296.082377,8290.306550
2733.435519,1072.533697,222.061783,8142.265362
2733.435848,766.095498,-0.000000,8586.388927
2733.436177,842.705048,-444.123565,8956.491898
2733.436507,76.609550,-962.267725,9326.594869
2733.436836,76.609550,-444.123565,8808.450710
2733.437165,0.000000,-148.041188,9992.780217
2733.437494,-383.047749,-444.123565,9326.594869
2733.437823,-383.047749,-888.247130,9178.553681
2733.438153,0.000000,370.102971,9770.718434
2733.438482,919.314598,-222.061783,8586.388927
2733.438811,536.266849,-222.061783,8512.368333
2733.439140,459.657299,518.144159,9548.656652
2733.439469,689.485948,962.267725,8290.306550
2733.439799,306.438199,-74.020594,8882.471304
2733.440128,689.485948,814.226536,9474.636058
2733.440457,995.924147,-370.102971,8956.491898
2733.440786,-229.828649,-444.123565,9474.636058
2733.441115,0.000000,-814.226536,10288.862594
2733.441445,153.219100,-148.041188,9622.677246
2733.441774,0.000000,-444.123565,8734.430116
2733.442103,229.828649,148.041188,9844.739029
2733.442432,842.705048,-444.123565,9400.615463
2733.442761,1072.533697,-0.000000,8512.368333
2733.443091,842.705048,1036.288319,8512.368333
2733.443420,995.924147,-0.000000,8142.265362
2733.443749,689.485948,888.247130,9178.553681
2733.444078,229.828649,-0.000000,9030.512492
2733.444407,689.485948,-740.205942,9474.636058
2733.444736,-536.266849,-814.226536,9622.677246
2733.445066,-689.485948,-518.144159,9474.636058
2733.445395,-689.485948,-1480.411884,10140.821405
2733.445724,-536.266849,-1406.391290,9474.636058
2733.446053,-612.876398,-1480.411884,10362.883188
2733.446382,229.828649,-296.082377,10436.903782
2733.446712,459.657299,-0.000000,7328.038826
2733.447041,766.095498,222.061783,8364.327145
2733.447370,766.095498,1184.329507,9252.574275
2733.447699,689.485948,-592.164754,8808.450710
2733.448028,842.705048,148.041188,8734.430116
2733.448358,1532.190996,-0.000000,7994.224174
2733.448687,766.095498,370.102971,8808.450710
2733.449016,-306.438199,-74.020594,9474.636058
2733.449345,-229.828649,-814.226536,9548.656652
2733.449674,76.609550,-1036.288319,8882.471304
2733.450004,0.000000,-1554.432478,9400.615463
2733.450333,-229.828649,444.123565,10362.883188
2733.450662,766.095498,-888.247130,8734.430116
2733.450991,459.657299,-370.102971,8586.388927
2733.451320,689.485948,518.144159,9400.615463
2733.451650,1302.362347,-74.020594,8216.285956
2733.451979,1225.752797,-74.020594,8068.244768
2733.452308,1455.581446,666.185348,8660.409521
2733.452637,1532.190996,-74.020594,8660.409521
2733.452966,1072.533697,-592.164754,8290.306550
2733.453296,306.438199,-518.144159,8882.471304
2733.453625,229.828649,222.061783,8882.471304
2733.453954,-383.047749,-74.020594,9178.553681
2733.454283,-612.876398,-962.267725,9178.553681
2733.454612,-306.438199,-1332.370696,9252.574275
2733.454942,76.609550,-1036.288319,9178.553681
2733.455271,-153.219100,-1110.308913,9770.718434
2733.455600,-306.438199,148.041188,8882.471304
2733.455929,0.000000,-814.226536,8882.471304
2733.456258,459.657299,518.144159,9030.512492
2733.456588,1072.533697,-296.082377,9178.553681
2733.456917,766.095498,-222.061783,8734.430116
2733.457246,536.266849,-0.000000,7920.203579
2733.457575,459.657299,-74.020594,8882.471304
2733.457904,766.095498,-0.000000,9178.553681
2733.458234,0.000000,-1036.288319,9474.636058
2733.458563,459.657299,-888.247130,9770.718434
2733.458892,383.047749,370.102971,8068.244768
2733.459221,0.000000,370.102971,9104.533087
2733.459550,-306.438199,-0.000000,10362.883188
2733.459880,689.485948,296.082377,9178.553681
2733.460209,459.657299,-592.164754,8882.471304
2733.460538,689.485948,592.164754,9474.636058
2733.460867,1149.143247,222.061783,8660.409521
2733.461196,536.266849,-0.000000,9030.512492
2733.461526,306.438199,740.205942,9178.553681
2733.461855,1225.752797,-0.000000,8586.388927
2733.462184,459.657299,-0.000000,8882.471304
2733.462513,76.609550,444.123565,9918.759623
2733.462842,1225.752797,-444.123565,9178.553681
2733.463172,689.485948,-444.123565,7550.100608
2733.463501,0.000000,592.164754,8808.450710
2733.463830,689.485948,-888.247130,10510.924376
2733.464159,-229.828649,-0.000000,8660.409521
2733.464488,-459.657299,-370.102971,8808.450710
2733.464818,383.047749,-148.041188,9178.553681
2733.465147,-383.047749,-74.020594,8956.491898
2733.465476,0.000000,-1332.370696,9844.739029
2733.465805,0.000000,-666.185348,8808.450710
2733.466134,0.000000,-296.082377,8734.430116
2733.466464,-229.828649,370.102971,9474.636058
2733.466793,459.657299,-296.082377,9474.636058
2733.467122,842.705048,-518.144159,8216.285956
2733.467451,459.657299,740.205942,8290.306550
2733.467780,536.266849,1258.350101,9030.512492
2733.468109,229.828649,-0.000000,8438.347739
2733.468439,0.000000,518.144159,9104.533087
2733.468768,536.266849,-0.000000,9326.594869
2733.469097,612.876398,-1628.453072,9178.553681
2733.469426,0.000000,-1036.288319,9252.574275
2733.469755,0.000000,-814.226536,9622.677246
2733.470085,612.876398,-592.164754,9326.594869
2733.470414,76.609550,-74.020594,8956.491898
2733.470743,612.876398,148.041188,9400.615463
2733.471072,919.314598,148.041188,8068.244768
2733.471401,995.924147,222.061783,8586.388927
2733.471731,306.438199,1110.308913,8512.368333
2733.472060,536.266849,148.041188,9030.512492
2733.472389,383.047749,-444.123565,8808.450710
2733.472718,459.657299,-1036.288319,9548.656652
2733.473047,766.095498,-222.061783,8216.285956
2733.473377,-383.047749,-888.247130,8438.347739
2733.473706,-229.828649,222.061783,9400.615463
2733.474035,153.219100,-444.123565,9770.718434
2733.474364,0.000000,-444.123565,8734.430116
2733.474693,-306.438199,-0.000000,8290.306550
2733.475023,536.266849,-296.082377,9178.553681
2733.475352,-383.047749,-592.164754,8364.327145
2733.475682,0.000000,-740.205942,9992.780217
2733.476011,229.828649,-0.000000,9252.574275
2733.476340,76.609550,-666.185348,7994.224174
2733.476669,76.609550,-296.082377,9770.718434
2733.476998,612.876398,-0.000000,9326.594869
2733.477327,76.609550,-1480.411884,8882.471304
2733.477656,76.609550,-74.020594,8882.471304
2733.477985,689.485948,1480.411884,8956.491898
2733.478315,612.876398,-592.164754,8882.471304
2733.478644,76.609550,-0.000000,9474.636058
2733.478973,995.924147,-1554.432478,9400.615463
2733.479302,995.924147,-518.144159,8142.265362
2733.479631,383.047749,-0.000000,8438.347739
2733.479960,612.876398,-592.164754,9992.780217
2733.480289,229.828649,-296.082377,9474.636058
2733.480618,995.924147,-0.000000,9252.574275
2733.480948,536.266849,-0.000000,9104.533087
2733.481277,612.876398,1554.432478,9030.512492
2733.481606,459.657299,-370.102971,9622.677246
2733.481935,306.438199,-296.082377,10066.800811
2733.482264,1455.581446,370.102971,8586.388927
2733.482593,1072.533697,-0.000000,8882.471304
2733.482922,-306.438199,592.164754,10066.800811
2733.483252,1149.143247,148.041188,9178.553681
2733.483581,842.705048,444.123565,7994.224174
2733.483910,459.657299,1036.288319,9178.553681
2733.484239,612.876398,1036.288319,9400.615463
2733.484568,229.828649,-222.061783,8734.430116
2733.484897,919.314598,296.082377,9474.636058
2733.485226,689.485948,-666.185348,10066.800811
2733.485555,0.000000,-1332.370696,8956.491898
2733.485885,-766.095498,-296.082377,9178.553681
2733.486214,153.219100,-444.123565,9918.759623
2733.486543,-306.438199,-0.000000,8660.409521
2733.486872,-383.047749,-1110.308913,9326.594869
2733.487201,-153.219100,-666.185348,8956.491898
2733.487530,612.876398,-0.000000,8364.327145
2733.487859,-229.828649,-74.020594,9326.594869
2733.488188,-306.438199,-0.000000,9030.512492
2733.488518,0.000000,-518.144159,7698.141797
2733.488847,459.657299,-592.164754,9326.594869
2733.489176,536.266849,-148.041188,8882.471304
2733.489505,689.485948,-1998.556043,9030.512492
2733.489834,0.000000,962.267725,7994.224174
2733.490163,536.266849,1110.308913,9178.553681
2733.490492,229.828649,962.267725,8882.471304
2733.490821,-536.266849,222.061783,8290.306550
2733.491151,459.657299,-222.061783,9326.594869
2733.491480,919.314598,-0.000000,8660.409521
2733.491809,766.095498,-666.185348,9178.553681
2733.492138,0.000000,-814.226536,10658.965565
2733.492467,229.828649,-518.144159,9326.594869
2733.492796,383.047749,-0.000000,8734.430116
2733.493125,153.219100,-370.102971,9844.739029
2733.493455,689.485948,814.226536,8956.491898
2733.493784,766.095498,962.267725,7920.203579
2733.494113,919.314598,1998.556043,9178.553681
2733.494442,1455.581446,1036.288319,8808.450710
2733.494771,766.095498,888.247130,7476.080014
2733.495100,229.828649,-592.164754,9474.636058
2733.495429,995.924147,-0.000000,8734.430116
2733.495758,0.000000,-1110.308913,9030.512492
2733.496088,-766.095498,-296.082377,10214.842000
2733.496417,-383.047749,-592.164754,9844.739029
2733.496746,-766.095498,-518.144159,9030.512492
2733.497075,-1225.752797,-592.164754,9770.718434
2733.497404,-536.266849,-370.102971,10362.883188
2733.497733,-459.657299,-1258.350101,9474.636058
2733.498062,-383.047749,-370.102971,9474.636058
2733.498391,459.657299,-444.123565,9474.636058
2733.498721,536.266849,-0.000000,8660.409521
2733.499050,919.314598,-814.226536,9326.594869
2733.499379,1378.971896,-148.041188,9474.636058
2733.499708,1608.800546,1110.308913,7550.100608
2733.500037,766.095498,740.205942,7624.121203
2733.500366,306.438199,1258.350101,9178.553681
2733.500695,459.657299,-74.020594,9252.574275
2733.501024,-306.438199,-1036.288319,8956.491898
2733.501354,-536.266849,-1110.308913,10510.924376
2733.501683,-306.438199,-1406.391290,10436.903782
2733.502012,-459.657299,-2368.659014,9474.636058
2733.502341,-229.828649,-592.164754,10140.821405
2733.502670,536.266849,-148.041188,9104.533087
2733.502999,919.314598,-666.185348,8956.491898
2733.503328,1455.581446,1554.432478,8512.368333
2733.503658,3217.601092,814.226536,8660.409521
2733.503987,1685.410096,962.267725,7920.203579
2733.504316,1149.143247,1702.473667,8142.265362
2733.504645,1608.800546,592.164754,8438.347739
2733.504974,306.438199,444.123565,8216.285956
2733.505303,76.609550,-0.000000,9844.739029
2733.505632,0.000000,-2072.576638,10066.800811
2733.505961,-459.657299,-814.226536,9030.512492
2733.506291,-612.876398,-1776.494261,10140.821405
2733.506620,-536.266849,-444.123565,8882.471304
2733.506949,-766.095498,370.102971,9104.533087
2733.507278,0.000000,-222.061783,9326.594869
2733.507607,766.095498,444.123565,7994.224174
2733.507936,1378.971896,-74.020594,8512.368333
2733.508265,1378.971896,370.102971,7402.059420
2733.508594,153.219100,962.267725,8438.347739
2733.508924,459.657299,-148.041188,8808.450710
2733.509253,229.828649,-1184.329507,8808.450710
2733.509582,0.000000,-444.123565,9844.739029
2733.509911,229.828649,-1406.391290,9474.636058
2733.510240,-306.438199,-814.226536,8734.430116
2733.510569,-1225.752797,-148.041188,10140.821405
2733.510898,306.438199,-444.123565,8734.430116
2733.511228,229.828649,-0.000000,8142.265362
2733.511557,536.266849,518.144159,10140.821405
2733.511886,1149.143247,296.082377,8142.265362
2733.512215,919.314598,592.164754,8512.368333
2733.512544,0.000000,444.123565,9548.656652
2733.512873,1149.143247,-296.082377,9326.594869
2733.513202,229.828649,-444.123565,9474.636058
2733.513531,76.609550,-444.123565,9474.636058
2733.513861,306.438199,-592.164754,10140.821405
2733.514190,0.000000,-666.185348,9770.718434
2733.514519,0.000000,-222.061783,9548.656652
2733.514848,306.438199,-74.020594,9548.656652
2733.515177,459.657299,-666.185348,9474.636058
2733.515506,689.485948,-296.082377,9696.697840
2733.515835,1378.971896,-0.000000,8956.491898
2733.516164,1149.143247,444.123565,7994.224174
2733.516494,842.705048,1332.370696,8808.450710
2733.516823,842.705048,1332.370696,8808.450710
2733.517152,459.657299,-0.000000,8956.491898
2733.517481,919.314598,-444.123565,9474.636058
2733.517810,383.047749,-444.123565,9474.636058
2733.518139,229.828649,-592.164754,9400.615463
2733.518468,-995.924147,-444.123565,8586.388927
2733.518797,-766.095498,-814.226536,10066.800811
2733.519127,0.000000,-518.144159,9548.656652
2733.519456,-306.438199,-1332.370696,9178.553681
2733.519785,766.095498,-296.082377,8734.430116
2733.520114,1455.581446,-666.185348,7328.038826
2733.520443,995.924147,-148.041188,8142.265362
2733.520772,689.485948,1036.288319,8956.491898
2733.521101,689.485948,-592.164754,8216.285956
2733.521431,689.485948,-148.041188,8364.327145
2733.521760,306.438199,-0.000000,9030.512492
2733.522089,536.266849,-1480.411884,9474.636058
2733.522418,-306.438199,-1628.453072,9030.512492
2733.522747,0.000000,-814.226536,9548.656652
2733.523076,0.000000,-444.123565,8956.491898
2733.523405,-383.047749,-814.226536,9104.533087
2733.523734,76.609550,-888.247130,9770.718434
2733.524064,1302.362347,-148.041188,8734.430116
2733.524393,1455.581446,-0.000000,8290.306550
2733.524722,612.876398,666.185348,8586.388927
2733.525051,459.657299,444.123565,8956.491898
2733.525380,612.876398,-0.000000,9104.533087
2733.525709,612.876398,-0.000000,8660.409521
2733.526038,689.485948,-1110.308913,8956.491898
2733.526367,0.000000,-814.226536,9178.553681
2733.526697,0.000000,-740.205942,9548.656652
2733.527026,76.609550,-592.164754,9252.574275
2733.527355,0.000000,-222.061783,8438.347739
2733.527684,0.000000,-0.000000,9474.636058
2733.528013,383.047749,518.144159,9548.656652
2733.528342,919.314598,-0.000000,7772.162391
2733.528671,383.047749,-0.000000,8290.306550
2733.529000,306.438199,1480.411884,9548.656652
2733.529330,766.095498,-370.102971,8882.471304
2733.529659,153.219100,296.082377,9326.594869
2733.529988,76.609550,-148.041188,9474.636058
2733.530317,459.657299,-518.144159,8512.368333
2733.530646,-383.047749,-0.000000,9696.697840
2733.530975,0.000000,-148.041188,9918.759623
2733.531304,0.000000,-74.020594,8364.327145
2733.531634,-306.438199,-296.082377,9992.780217
2733.531963,459.657299,-666.185348,9770.718434
2733.532292,842.705048,-444.123565,7846.182985
2733.532621,689.485948,370.102971,8660.409521
2733.532950,995.924147,666.185348,9918.759623
2733.533279,612.876398,444.123565,9474.636058
2733.533608,153.219100,-962.267725,8660.409521
2733.533937,459.657299,518.144159,9696.697840
2733.534267,0.000000,-148.041188,9696.697840
2733.534596,-612.876398,-888.247130,8808.450710
2733.534925,-459.657299,592.164754,8808.450710
2733.535254,0.000000,-1184.329507,10066.800811
2733.535583,0.000000,-222.061783,9326.594869
2733.535912,229.828649,-1110.308913,9400.615463
2733.536241,612.876398,-370.102971,8586.388927
2733.536570,1149.143247,444.123565,8586.388927
2733.536900,536.266849,296.082377,8438.347739
2733.537229,0.000000,-0.000000,8808.450710
2733.537558,919.314598,1850.514855,7994.224174
2733.537887,536.266849,-0.000000,8956.491898
2733.538216,76.609550,-148.041188,9696.697840
2733.538545,153.219100,-1110.308913,9104.533087
2733.538874,-459.657299,-1998.556043,9252.574275
2733.539204,-459.657299,592.164754,9030.512492
2733.539533,0.000000,-444.123565,9548.656652
2733.539862,-536.266849,-666.185348,9252.574275
2733.540191,612.876398,592.164754,8956.491898
2733.540520,1915.238745,-222.061783,9030.512492
2733.540849,1302.362347,-148.041188,8142.265362
2733.541178,995.924147,1628.453072,8512.368333
2733.541507,1149.143247,370.102971,7920.203579
2733.541837,459.657299,888.247130,8956.491898
2733.542166,1149.143247,-222.061783,10066.800811
2733.542495,1072.533697,-666.185348,8290.306550
2733.542824,0.000000,-740.205942,9400.615463
2733.543153,459.657299,444.123565,9548.656652
2733.543482,689.485948,-888.247130,9178.553681
2733.543811,76.609550,-222.061783,9844.739029
2733.544140,0.000000,518.144159,9252.574275
2733.544470,1072.533697,-888.247130,9178.553681
2733.544799,536.266849,-148.041188,8734.430116
2733.545128,1149.143247,-444.123565,8882.471304
2733.545457,1225.752797,592.164754,8512.368333
2733.545786,306.438199,-1332.370696,8660.409521
2733.546115,459.657299,-0.000000,9770.718434
2733.546444,153.219100,-74.020594,9400.615463
2733.546773,76.609550,-1036.288319,9030.512492
2733.547103,-306.438199,-518.144159,9770.718434
2733.547432,-229.828649,-370.102971,9548.656652
2733.547761,229.828649,-1776.494261,9252.574275
2733.548090,0.000000,-1036.288319,9992.780217
2733.548419,-306.438199,-888.247130,9696.697840
2733.548748,689.485948,-962.267725,8956.491898
2733.549077,76.609550,-592.164754,8734.430116
2733.549407,306.438199,592.164754,8364.327145
2733.549736,689.485948,-0.000000,8364.327145
2733.550065,766.095498,-444.123565,8586.388927
2733.550394,612.876398,-814.226536,9696.697840
2733.550723,995.924147,-1110.308913,8512.368333
2733.551052,-306.438199,-740.205942,8290.306550
2733.551381,-229.828649,-296.082377,9030.512492
2733.551710,229.828649,-814.226536,9030.512492
2733.552040,0.000000,-1776.494261,9030.512492
2733.552369,153.219100,-592.164754,9770.718434
2733.552698,229.828649,-444.123565,8882.471304
2733.553027,919.314598,-74.020594,7920.203579
2733.553356,612.876398,1036.288319,8808.450710
2733.553685,995.924147,592.164754,8512.368333
2733.554014,459.657299,-74.020594,7698.141797
2733.554343,689.485948,592.164754,9030.512492
2733.554673,1149.143247,-296.082377,8438.347739
2733.555002,0.000000,-666.185348,9030.512492
2733.555331,0.000000,-0.000000,8882.471304
2733.555660,0.000000,-444.123565,8586.388927
2733.555989,-842.705048,-0.000000,9326.594869
2733.556318,-766.095498,-222.061783,9992.780217
2733.556647,0.000000,-370.102971,9622.677246
2733.556976,229.828649,-222.061783,8882.471304
2733.557306,153.219100,-0.000000,7920.203579
2733.557635,76.609550,-740.205942,9622.677246
2733.557964,0.000000,222.061783,9400.615463
2733.558293,229.828649,666.185348,8882.471304
2733.558622,1072.533697,814.226536,9104.533087
2733.558951,306.438199,-0.000000,9178.553681
2733.559280,383.047749,666.185348,9548.656652
2733.559610,76.609550,962.267725,8808.450710
2733.559939,153.219100,296.082377,9030.512492
2733.560268,-689.485948,-0.000000,9326.594869
2733.560597,0.000000,-296.082377,10214.842000
2733.560926,0.000000,-666.185348,8808.450710
2733.561255,0.000000,-518.144159,9178.553681
2733.561584,-306.438199,222.061783,9030.512492
2733.561913,1072.533697,-0.000000,9104.533087
2733.562243,536.266849,-0.000000,9474.636058
2733.562572,459.657299,370.102971,9030.512492
2733.562901,919.314598,370.102971,8882.471304
2733.563230,459.657299,888.247130,8438.347739
2733.563559,766.095498,962.267725,9474.636058
2733.563888,995.924147,518.144159,9326.594869
2733.564217,1225.752797,-444.123565,9178.553681
2733.564546,689.485948,-370.102971,9770.718434
2733.564876,1762.019645,518.144159,8512.368333
2733.565205,1072.533697,-222.061783,9326.594869
2733.565534,612.876398,-0.000000,9474.636058
2733.565863,459.657299,814.226536,8512.368333
2733.566192,536.266849,-518.144159,9104.533087
2733.566521,612.876398,518.144159,9030.512492
2733.566850,1072.533697,-0.000000,9400.615463
2733.567180,306.438199,-666.185348,9400.615463
2733.567509,-306.438199,-222.061783,9030.512492
2733.567838,0.000000,-1258.350101,10066.800811
2733.568167,229.828649,-740.205942,8882.471304
2733.568496,-383.047749,-444.123565,9770.718434
2733.568825,0.000000,-0.000000,9474.636058
2733.569154,842.705048,-1110.308913,9400.615463
2733.569483,536.266849,-370.102971,8586.388927
2733.569813,153.219100,-0.000000,8956.491898
2733.570142,1072.533697,-888.247130,8512.368333
2733.570471,306.438199,-370.102971,8438.347739
2733.570800,1225.752797,-0.000000,9178.553681
2733.571129,689.485948,-740.205942,8068.244768
2733.571458,-153.219100,-666.185348,8956.491898
2733.571787,-842.705048,148.041188,8956.491898
2733.572116,306.438199,-592.164754,8734.430116
2733.572446,-229.828649,-296.082377,9252.574275
2733.572775,0.000000,-888.247130,9104.533087
2733.573104,383.047749,-1406.391290,9474.636058
2733.573433,76.609550,-740.205942,8586.388927
2733.573762,-459.657299,-0.000000,9104.533087
2733.574091,306.438199,-0.000000,9252.574275
2733.574420,0.000000,666.185348,8142.265362
2733.574749,612.876398,444.123565,9178.553681
2733.575079,1149.143247,370.102971,7920.203579
2733.575408,536.266849,-0.000000,8956.491898
2733.575737,459.657299,740.205942,9326.594869
2733.576066,1072.533697,-74.020594,8290.306550
2733.576395,383.047749,296.082377,8512.368333
2733.576724,153.219100,-148.041188,9474.636058
2733.577053,383.047749,-370.102971,9622.677246
2733.577383,306.438199,-444.123565,8586.388927
2733.577712,229.828649,-148.041188,9252.574275
2733.578041,536.266849,-0.000000,9770.718434
2733.578370,0.000000,-0.000000,8586.388927
2733.578699,0.000000,-0.000000,9622.677246
2733.579028,229.828649,-0.000000,9474.636058
2733.579357,459.657299,-962.267725,9400.615463
2733.579686,0.000000,-0.000000,9104.533087
2733.580016,0.000000,-666.185348,10140.821405
2733.580345,229.828649,-74.020594,8586.388927
2733.580674,0.000000,-0.000000,9400.615463
2733.581003,0.000000,-148.041188,10362.883188
2733.581332,229.828649,-444.123565,8734.430116
2733.581661,76.609550,-0.000000,8882.471304
2733.581990,0.000000,-0.000000,10066.800811
2733.582319,612.876398,-222.061783,9178.553681
2733.582648,0.000000,-814.226536,9770.718434
2733.582977,612.876398,-962.267725,10066.800811
2733.583306,459.657299,592.164754,8734.430116
2733.583635,459.657299,-222.061783,8882.471304
2733.583964,153.219100,666.185348,9696.697840
2733.584293,612.876398,148.041188,8068.244768
2733.584622,76.609550,-518.144159,8290.306550
2733.584951,1072.533697,-0.000000,8808.450710
2733.585280,612.876398,-296.082377,9622.677246
2733.585609,689.485948,-0.000000,7920.203579
2733.585938,0.000000,-592.164754,8734.430116
2733.586267,383.047749,-0.000000,9622.677246
2733.586596,536.266849,-148.041188,8512.368333
2733.586925,612.876398,-888.247130,8734.430116
2733.587254,766.095498,-296.082377,9400.615463
2733.587583,536.266849,-296.082377,9178.553681
2733.587912,229.828649,-74.020594,8734.430116
2733.588241,459.657299,296.082377,8660.409521
2733.588571,995.924147,444.123565,7698.141797
2733.588900,76.609550,740.205942,9474.636058
2733.589229,1302.362347,-814.226536,9474.636058
2733.589558,1149.143247,-1406.391290,8438.347739
2733.589887,1072.533697,-74.020594,8512.368333
2733.590216,-153.219100,370.102971,9030.512492
2733.590545,-383.047749,222.061783,9474.636058
2733.590874,-536.266849,-222.061783,9474.636058
2733.591203,0.000000,-0.000000,9030.512492
2733.591532,306.438199,-1258.350101,9622.677246
2733.591861,-919.314598,-518.144159,9400.615463
2733.592190,612.876398,-0.000000,9178.553681
2733.592519,766.095498,-148.041188,8734.430116
2733.592848,229.828649,-0.000000,8586.388927
2733.593177,536.266849,-0.000000,10140.821405
2733.593506,995.924147,-370.102971,9030.512492
2733.593835,689.485948,444.123565,8290.306550
2733.594164,-689.485948,222.061783,9918.759623
2733.594493,766.095498,-370.102971,8956.491898
2733.594822,76.609550,-0.000000,8808.450710
2733.595151,-383.047749,-518.144159,10288.862594
2733.595480,-153.219100,-0.000000,8882.471304
2733.595809,-383.047749,-888.247130,9400.615463
2733.596138,0.000000,-0.000000,8956.491898
2733.596467,842.705048,-0.000000,8660.409521
2733.596796,383.047749,222.061783,8882.471304
2733.597125,0.000000,-0.000000,9104.533087
2733.597455,536.266849,-0.000000,9326.594869
2733.597784,919.314598,-148.041188,8216.285956
2733.598113,153.219100,444.123565,8142.265362
2733.598442,536.266849,-296.082377,9548.656652
2733.598771,1532.190996,-740.205942,9474.636058
2733.599100,383.047749,-740.205942,8734.430116
2733.599429,383.047749,-444.123565,9918.759623
2733.599758,76.609550,-0.000000,8660.409521
2733.600087,0.000000,222.061783,8660.409521
2733.600416,0.000000,296.082377,9548.656652
2733.600745,-153.219100,-666.185348,8956.491898
2733.601074,306.438199,-888.247130,9104.533087
2733.601403,459.657299,74.020594,8956.491898
2733.601732,842.705048,-1332.370696,9326.594869
2733.602061,766.095498,-1480.411884,9548.656652
2733.602390,689.485948,-1036.288319,9326.594869
2733.602719,306.438199,-0.000000,8808.450710
2733.603048,306.438199,-666.185348,9400.615463
2733.603377,536.266849,-518.144159,9770.718434
2733.603706,383.047749,-1776.494261,9918.759623
2733.604035,1072.533697,-1702.473667,9474.636058
2733.604364,1302.362347,-2072.576638,9622.677246
2733.604693,536.266849,-1628.453072,9326.594869
2733.605022,536.266849,-1850.514855,9178.553681
2733.605351,1225.752797,-1850.514855,9548.656652
2733.605680,1532.190996,-296.082377,8956.491898
2733.606010,1378.971896,-1332.370696,8364.327145
2733.606339,612.876398,-1332.370696,8216.285956
2733.606668,383.047749,-1776.494261,9104.533087
2733.606997,0.000000,-2220.617826,8586.388927
2733.607326,0.000000,-3849.070898,9474.636058
2733.607655,-536.266849,-3182.885551,9770.718434
2733.607984,-689.485948,-3775.050304,9918.759623
2733.608313,383.047749,-3552.988522,9992.780217
2733.608642,0.000000,-2886.803174,9474.636058
2733.608971,842.705048,-1850.514855,8512.368333
2733.609300,842.705048,-1628.453072,7698.141797
2733.609629,1072.533697,-1110.308913,8660.409521
2733.609958,1149.143247,-1258.350101,7772.162391
2733.610287,919.314598,-2294.638420,7402.059420
2733.610616,612.876398,-2442.679609,8216.285956
2733.610945,0.000000,-3034.844362,8364.327145
2733.611274,-995.924147,-3182.885551,8438.347739
2733.611603,-766.095498,-4367.215058,9474.636058
2733.611932,-689.485948,-5255.462188,9696.697840
2733.612261,-1608.800546,-4219.173869,9474.636058
2733.612590,-995.924147,-5403.503377,10140.821405
2733.612919,76.609550,-4441.235652,9918.759623
2733.613248,0.000000,-2886.803174,8734.430116
2733.613577,766.095498,-2590.720797,8438.347739
2733.613906,1991.848295,-2812.782580,9326.594869
2733.614235,2604.724693,-2368.659014,7994.224174
2733.614564,2911.162892,-1702.473667,7698.141797
2733.614894,1838.629195,-2294.638420,8734.430116
2733.615223,1915.238745,-2738.761985,8734.430116
2733.615552,995.924147,-2294.638420,7772.162391
2733.615881,-766.095498,-3256.906145,9326.594869
2733.616210,-1302.362347,-4293.194464,9918.759623
2733.616539,-766.095498,-5181.441594,9548.656652
2733.616868,-1149.143247,-5181.441594,9622.677246
2733.617197,-1149.143247,-5255.462188,10510.924376
2733.617526,-842.705048,-5847.626942,10288.862594
2733.617855,0.000000,-4145.153275,8734.430116
2733.618184,919.314598,-2072.576638,8216.285956
2733.618513,1455.581446,-2368.659014,8734.430116
2733.618842,2987.772442,-1776.494261,7994.224174
2733.619171,3370.820191,-518.144159,7772.162391
2733.619500,1532.190996,-444.123565,7624.121203
2733.619829,1149.143247,-1554.432478,8216.285956
2733.620158,1455.581446,-3034.844362,9252.574275
2733.620487,0.000000,-2368.659014,8586.388927
2733.620816,-2145.067394,-3627.009116,8734.430116
2733.621145,-2451.505594,-5329.482782,10584.944971
2733.621474,-2604.724693,-5255.462188,10955.047942
2733.621803,-1762.019645,-5477.523971,11103.089130
2733.622132,-2298.286494,-4293.194464,9844.739029
2733.622461,-2221.676944,-5329.482782,10584.944971
2733.622790,0.000000,-3552.988522,10658.965565
2733.623119,2068.457845,-2220.617826,8660.409521
2733.623448,2528.115143,-1332.370696,7772.162391
2733.623778,3370.820191,-814.226536,7772.162391
2733.624107,4213.525239,-666.185348,8068.244768
2733.624436,3983.696590,-1406.391290,7994.224174
2733.624765,3064.381992,-1184.329507,7846.182985
2733.625094,1072.533697,-1332.370696,8290.306550
2733.625423,0.000000,-2664.741391,9400.615463
2733.625752,-842.705048,-4071.132681,9992.780217
2733.626081,-1225.752797,-5033.400406,9548.656652
2733.626410,-2528.115143,-4441.235652,10658.965565
2733.626739,-2681.334243,-4737.318029,11325.150913
2733.627068,-2298.286494,-5255.462188,10436.903782
2733.627397,-612.876398,-4071.132681,9548.656652
2733.627726,0.000000,-2960.823768,9104.533087
2733.628055,766.095498,-3701.029710,9548.656652
2733.628384,2145.067394,-2516.700203,8956.491898
2733.628713,3907.087040,-1332.370696,7328.038826
2733.629042,4519.963438,-296.082377,7179.997637
2733.629371,2987.772442,-0.000000,7402.059420
2733.629700,2068.457845,-222.061783,7772.162391
2733.630029,2834.553343,222.061783,7105.977043
2733.630358,3524.039291,-1110.308913,7105.977043
2733.630687,1455.581446,-3404.947333,7698.141797
2733.631016,-306.438199,-5921.647536,10066.800811
2733.631345,-2374.896044,-5477.523971,10288.862594
2733.631674,-2145.067394,-6661.853478,11473.192101
2733.632003,-2757.943793,-4959.379811,9548.656652
2733.632333,-2298.286494,-4219.173869,11177.109724
2733.632662,-2145.067394,-3330.926739,10214.842000
2733.632991,-1302.362347,-2664.741391,9696.697840
2733.633320,-306.438199,-3034.844362,9178.553681
2733.633649,2451.505594,-1776.494261,7994.224174
2733.633978,2221.676944,-1776.494261,8882.471304
2733.634307,2068.457845,-2812.782580,9178.553681
2733.634636,1608.800546,-3182.885551,8660.409521
2733.634965,1915.238745,-2812.782580,8290.306550
2733.635294,2374.896044,-2220.617826,7550.100608
2733.635623,1532.190996,-1998.556043,9030.512492
2733.635952,76.609550,-2442.679609,9548.656652
2733.636281,0.000000,-2812.782580,9474.636058
2733.636610,-1302.362347,-3182.885551,8364.327145
2733.636939,-1532.190996,-3997.112087,8882.471304
2733.637268,-842.705048,-4441.235652,9770.718434
2733.637597,-536.266849,-4959.379811,9918.759623
2733.637926,-689.485948,-5181.441594,9400.615463
2733.638255,-766.095498,-4959.379811,8956.491898
2733.638584,-842.705048,-4145.153275,9178.553681
2733.638913,-229.828649,-1998.556043,7920.203579
2733.639242,0.000000,-592.164754,7920.203579
2733.639571,153.219100,-1258.350101,8364.327145
2733.639900,1302.362347,-2072.576638,8586.388927
2733.640229,1991.848295,-2738.761985,9252.574275
2733.640558,1762.019645,-3923.091493,9030.512492
2733.640887,842.705048,-4071.132681,8290.306550
2733.641217,1149.143247,-3923.091493,8956.491898
2733.641546,1455.581446,-3775.050304,9400.615463
2733.641875,1302.362347,-3552.988522,8808.450710
2733.642204,842.705048,-2812.782580,8808.450710
2733.642533,612.876398,-2516.700203,8882.471304
2733.642862,-306.438199,-1924.535449,8734.430116
2733.643191,-459.657299,-2220.617826,9474.636058
2733.643520,-1225.752797,-2886.803174,8956.491898
2733.643849,-1302.362347,-3552.988522,10510.924376
2733.644178,-536.266849,-4367.215058,10584.944971
2733.644507,76.609550,-5033.400406,10066.800811
2733.644836,689.485948,-4441.235652,10436.903782
2733.645165,1225.752797,-3330.926739,8512.368333
2733.645494,2987.772442,-1998.556043,7550.100608
2733.645823,2987.772442,-666.185348,7254.018232
2733.646152,3753.867940,-370.102971,6809.894666
2733.646481,3524.039291,-888.247130,7254.018232
2733.646810,2221.676944,-2294.638420,7846.182985
2733.647139,689.485948,-3849.070898,9474.636058
2733.647468,-383.047749,-5181.441594,10288.862594
2733.647797,-2221.676944,-5699.585753,11029.068536
2733.648126,-3447.429741,-5847.626942,11029.068536
2733.648455,-3983.696590,-4515.256246,11251.130318
2733.648784,-3217.601092,-3923.091493,10510.924376
2733.649113,-2451.505594,-2886.803174,9844.739029
2733.649442,-995.924147,-2886.803174,9474.636058
2733.649771,459.657299,-2812.782580,9104.533087
2733.650101,2987.772442,-2886.803174,8142.265362
2733.650430,4060.306139,-2220.617826,7402.059420
2733.650759,4596.572988,-2442.679609,6735.874072
2733.651088,4443.353888,-1850.514855,6957.935855
2733.651417,4596.572988,-666.185348,6365.771101
2733.651746,4443.353888,-370.102971,6587.832884
2733.652075,3217.601092,-222.061783,7105.977043
2733.652404,2604.724693,-666.185348,7254.018232
2733.652733,-919.314598,-2590.720797,9548.656652
2733.653062,-2834.553343,-5699.585753,11695.253884
2733.653391,-4519.963438,-5329.482782,11547.212695
2733.653720,-4213.525239,-8882.471304,13471.748144
2733.654049,-4749.792088,-5625.565159,9474.636058
2733.654378,-3217.601092,-5625.565159,12213.398043
2733.654707,-2757.943793,-4589.276840,9918.759623
2733.655036,-1991.848295,-2146.597232,9104.533087
2733.655365,-612.876398,-1776.494261,8586.388927
2733.655694,3140.991542,-1702.473667,10881.027347
2733.656023,3447.429741,518.144159,4811.338623
2733.656352,5669.106685,-1480.411884,7994.224174
2733.656681,3753.867940,-962.267725,5403.503377
2733.657010,5439.278036,962.267725,6365.771101
2733.657339,4290.134789,-592.164754,7772.162391
2733.657668,3064.381992,1332.370696,5773.606348
2733.657997,3294.210641,-74.020594,8290.306550
2733.658326,612.876398,-1628.453072,8956.491898
2733.658655,-3753.867940,-6513.812290,11917.315666
2733.658985,-3753.867940,-6661.853478,13027.624579
2733.659314,-2298.286494,-5847.626942,13323.706956
2733.659643,-3370.820191,-8808.450710,13027.624579
2733.659972,-3370.820191,-5995.668130,11473.192101
2733.660301,-1991.848295,-5921.647536,10955.047942
2733.660630,-459.657299,-5921.647536,10436.903782
2733.660959,2834.553343,-1332.370696,6809.894666
2733.661288,5209.449386,1258.350101,5847.626942
2733.661617,3524.039291,2146.597232,4885.359217
2733.661946,2451.505594,1628.453072,7328.038826
2733.662275,2221.676944,-222.061783,5551.544565
2733.662604,995.924147,-2738.761985,7179.997637
2733.662933,-1072.533697,-7105.977043,10066.800811
2733.663262,-2604.724693,-6217.729913,10584.944971
2733.663591,-4749.792088,-7179.997637,13397.727550
2733.663920,-4213.525239,-7476.080014,12139.377449
2733.664249,-3983.696590,-3923.091493,10140.821405
2733.664578,-1762.019645,-3849.070898,9992.780217
2733.664907,-2068.457845,-1036.288319,8438.347739
2733.665236,-306.438199,-2294.638420,9030.512492
2733.665565,2451.505594,-3997.112087,9030.512492
2733.665894,4060.306139,-962.267725,4737.318029
2733.666223,4826.401637,-1406.391290,5773.606348
2733.666552,1838.629195,-1258.350101,4811.338623
2733.666881,4060.306139,-148.041188,7476.080014
2733.667210,1608.800546,1332.370696,5329.482782
2733.667540,1991.848295,2072.576638,5181.441594
2733.667869,0.000000,-1036.288319,7105.977043
2733.668198,-3907.087040,-4367.215058,10510.924376
2733.668527,-4596.572988,-4589.276840,11695.253884
2733.668856,-5439.278036,-4589.276840,11843.295072
2733.669185,-5439.278036,-5403.503377,11621.233289
2733.669514,-5975.544884,-2812.782580,11547.212695
2733.669843,-4519.963438,-3552.988522,10955.047942
2733.670172,-4136.915689,-666.185348,9104.533087
2733.670501,-2834.553343,-1628.453072,8660.409521
2733.670830,-2298.286494,962.267725,7328.038826
2733.671159,-3370.820191,814.226536,9178.553681
2733.671488,-3677.258390,518.144159,10214.842000
2733.671817,-2451.505594,-1628.453072,7402.059420
2733.672146,-1225.752797,-518.144159,7476.080014
2733.672475,-383.047749,-1110.308913,6587.832884
2733.672804,0.000000,-1406.391290,8956.491898
2733.673133,-1532.190996,-0.000000,9400.615463
2733.673462,-1378.971896,-0.000000,9400.615463
2733.673791,-1838.629195,1702.473667,9696.697840
2733.674120,-3140.991542,962.267725,9548.656652
2733.674449,-3983.696590,1554.432478,10584.944971
2733.674778,-2987.772442,148.041188,10066.800811
2733.675107,-2451.505594,-518.144159,9178.553681
2733.675436,-1072.533697,-1998.556043,9474.636058
2733.675765,-1225.752797,-1480.411884,9770.718434
2733.676094,-2451.505594,-1036.288319,9326.594869
2733.676424,-2604.724693,-222.061783,9030.512492
2733.676753,-2374.896044,-0.000000,7846.182985
2733.677082,-2298.286494,666.185348,8068.244768
2733.677411,-1762.019645,-370.102971,9844.739029
2733.677740,-2757.943793,-1628.453072,9326.594869
2733.678069,-2911.162892,-1998.556043,9844.739029
2733.678398,-3447.429741,-2072.576638,10288.862594
2733.678727,-4060.306139,-1776.494261,10362.883188
2733.679056,-4136.915689,-518.144159,11251.130318
2733.679385,-3064.381992,888.247130,10140.821405
2733.679714,-1991.848295,962.267725,8586.388927
2733.680043,-1149.143247,1480.411884,8216.285956
2733.680372,-919.314598,1628.453072,7254.018232
2733.680702,-2298.286494,1628.453072,7105.977043
2733.681031,-2145.067394,1184.329507,7105.977043
2733.681360,-2068.457845,-74.020594,7328.038826
2733.681689,-2757.943793,-1406.391290,8142.265362
2733.682018,-3753.867940,-2146.597232,8882.471304
2733.682347,-3600.648841,-2812.782580,9474.636058
2733.682676,-3294.210641,-2368.659014,10140.821405
2733.683006,-3370.820191,-1480.411884,8956.491898
2733.683335,-3983.696590,-1332.370696,10510.924376
2733.683664,-4519.963438,-814.226536,10658.965565
2733.683993,-4749.792088,-666.185348,10881.027347
2733.684322,-3830.477490,-814.226536,10362.883188
2733.684651,-3907.087040,-74.020594,8734.430116
2733.684980,-3064.381992,296.082377,9400.615463
2733.685310,-1991.848295,-0.000000,8142.265362
2733.685639,-3294.210641,814.226536,7402.059420
2733.685968,-2451.505594,-0.000000,8142.265362
2733.686297,-2221.676944,-1110.308913,7698.141797
2733.686626,-2068.457845,-1998.556043,7920.203579
2733.686955,-1149.143247,-1850.514855,7476.080014
2733.687284,76.609550,-1406.391290,7105.977043
2733.687613,-995.924147,-2146.597232,8586.388927
2733.687943,-459.657299,148.041188,8808.450710
2733.688272,-459.657299,1480.411884,9104.533087
2733.688601,-995.924147,1702.473667,8734.430116
2733.688930,-995.924147,1924.535449,8956.491898
2733.689259,-1608.800546,1924.535449,9474.636058
2733.689588,-2604.724693,888.247130,9104.533087
2733.689917,-2757.943793,296.082377,9104.533087
2733.690247,-4443.353888,370.102971,9400.615463
2733.690576,-3907.087040,-0.000000,8956.491898
2733.690905,-4060.306139,-666.185348,8512.368333
2733.691234,-3983.696590,-888.247130,8512.368333
2733.691563,-3524.039291,-1480.411884,9104.533087
2733.691892,-3983.696590,-1998.556043,10066.800811
2733.692221,-3600.648841,-1628.453072,9992.780217
2733.692551,-3524.039291,-2220.617826,11029.068536
2733.692880,-3447.429741,-1776.494261,11695.253884
2733.693209,-2911.162892,-1406.391290,11769.274478
2733.693538,-3217.601092,-222.061783,11399.171507
2733.693867,-3064.381992,740.205942,11991.336260
2733.694196,-1915.238745,1850.514855,10881.027347
2733.694525,153.219100,2960.823768,9622.677246
2733.694854,153.219100,3997.112087,6809.894666
2733.695184,383.047749,4515.256246,5477.523971
2733.695513,0.000000,4145.153275,5033.400406
2733.695842,-612.876398,2886.803174,5403.503377
2733.696171,-842.705048,962.267725,6365.771101
2733.696500,-2604.724693,-1776.494261,7624.121203
2733.696829,-4136.915689,-3997.112087,9696.697840
2733.697158,-5209.449386,-3256.906145,8956.491898
2733.697488,-4596.572988,-4145.153275,11251.130318
2733.697817,-6281.983084,-3997.112087,10881.027347
2733.698146,-5286.058936,-4293.194464,16358.551318
2733.698475,-5592.497135,-2516.700203,12805.562797
2733.698804,-4136.915689,-814.226536,11251.130318
2733.699133,-2604.724693,814.226536,10584.944971
2733.699462,-1838.629195,3330.926739,7254.018232
2733.699792,-1762.019645,3552.988522,9030.512492
2733.700121,-459.657299,2442.679609,8734.430116
2733.700450,1149.143247,3775.050304,3478.967927
2733.700779,2911.162892,2886.803174,5477.523971
2733.701108,1225.752797,2220.617826,2368.659014
2733.701437,-536.266849,-222.061783,6365.771101
2733.701766,-2834.553343,-3627.009116,7698.141797
2733.702095,-2604.724693,-4811.338623,9622.677246
2733.702425,-2757.943793,-4959.379811,12361.439231
2733.702754,-4060.306139,-1554.432478,9252.574275
2733.703083,-4443.353888,-2960.823768,12805.562797
2733.703412,-5132.839837,-888.247130,12879.583391
2733.703741,-3294.210641,-0.000000,12065.356855
2733.704070,-3447.429741,296.082377,11769.274478
2733.704399,-3217.601092,2960.823768,9844.739029
2733.704729,-3140.991542,2960.823768,9622.677246
2733.705058,-3370.820191,1480.411884,7624.121203
2733.705387,-3983.696590,962.267725,7328.038826
2733.705716,-3447.429741,-1184.329507,7994.224174
2733.706045,-2834.553343,-1702.473667,7031.956449
2733.706374,-2528.115143,-1406.391290,7550.100608
2733.706703,-2757.943793,-1480.411884,7031.956449
2733.707033,-3370.820191,-888.247130,7179.997637
2733.707362,-3140.991542,-2368.659014,9622.677246
2733.707691,-2451.505594,-666.185348,10214.842000
2733.708020,-2451.505594,1184.329507,10436.903782
2733.708349,-2834.553343,370.102971,10658.965565
2733.708678,-2987.772442,518.144159,11177.109724
2733.709007,-2681.334243,-0.000000,11399.171507
2733.709337,-2911.162892,-222.061783,10584.944971
2733.709666,-2068.457845,222.061783,10214.842000
2733.709995,-1225.752797,814.226536,8290.306550
2733.710324,-919.314598,2146.597232,6365.771101
2733.710653,-689.485948,1702.473667,5847.626942
2733.710982,0.000000,-222.061783,5847.626942
2733.711311,-306.438199,-444.123565,5773.606348
2733.711640,-1608.800546,-888.247130,6365.771101
2733.711970,-2681.334243,-1776.494261,7994.224174
2733.712299,-3524.039291,-3404.947333,9992.780217
2733.712628,-3830.477490,-2812.782580,11029.068536
2733.712957,-3830.477490,-1628.453072,10362.883188
2733.713286,-3677.258390,-518.144159,11473.192101
2733.713615,-4290.134789,-444.123565,12435.459826
2733.713944,-3753.867940,740.205942,10881.027347
2733.714274,-2528.115143,1628.453072,10288.862594
2733.714603,-2757.943793,1110.308913,9548.656652
2733.714932,-2298.286494,-370.102971,9918.759623
2733.715261,-2757.943793,-740.205942,9918.759623
2733.715590,-2145.067394,-1036.288319,8586.388927
2733.715919,-1302.362347,-0.000000,6439.791695
2733.716248,-612.876398,518.144159,6513.812290
2733.716578,-689.485948,370.102971,6735.874072
2733.716907,612.876398,-148.041188,7698.141797
2733.717236,-153.219100,148.041188,7402.059420
2733.717565,-1762.019645,-1332.370696,9104.533087
2733.717894,-2068.457845,-2072.576638,11103.089130
2733.718223,-2298.286494,-296.082377,10066.800811
2733.718552,-2528.115143,370.102971,10732.986159
2733.718881,-2145.067394,1554.432478,10584.944971
2733.719211,-459.657299,1702.473667,9622.677246
2733.719540,-306.438199,2146.597232,8808.450710
2733.719869,-459.657299,1554.432478,8660.409521
2733.720198,-1378.971896,1110.308913,7772.162391
2733.720527,-2221.676944,-1258.350101,7994.224174
2733.720856,-2221.676944,-518.144159,8290.306550
