#time,accel_x,accel_y,accel_z
2700.113218,229.828649,148.041188,9622.677246
2700.113547,153.219100,-74.020594,9178.553681
2700.113876,153.219100,-222.061783,9030.512492
2700.114204,229.828649,-0.000000,9178.553681
2700.114533,459.657299,-0.000000,8956.491898
2700.114862,383.047749,-74.020594,8660.409521
2700.115191,1378.971896,-222.061783,8808.450710
2700.115520,536.266849,-148.041188,9178.553681
2700.115849,229.828649,-0.000000,9030.512492
2700.116178,229.828649,-148.041188,8808.450710
2700.116507,306.438199,-0.000000,8808.450710
2700.116835,229.828649,-74.020594,8808.450710
2700.117164,536.266849,-148.041188,8882.471304
2700.117493,306.438199,-370.102971,9104.533087
2700.117822,153.219100,-0.000000,8882.471304
2700.118151,229.828649,-370.102971,8734.430116
2700.118480,229.828649,-296.082377,9030.512492
2700.118809,153.219100,-0.000000,9030.512492
2700.119138,0.000000,-74.020594,9104.533087
2700.119466,229.828649,-222.061783,9104.533087
2700.119795,0.000000,-296.082377,8660.409521
2700.120124,229.828649,-74.020594,9252.574275
2700.120453,229.828649,-148.041188,9252.574275
2700.120782,383.047749,-148.041188,9178.553681
2700.121111,306.438199,-222.061783,9178.553681
2700.121440,153.219100,-296.082377,9104.533087
2700.121768,76.609550,-148.041188,8808.450710
2700.122097,459.657299,-370.102971,9178.553681
2700.122426,689.485948,-592.164754,9474.636058
2700.122755,306.438199,-222.061783,9178.553681
2700.123084,153.219100,-148.041188,9326.594869
2700.123413,383.047749,-0.000000,9178.553681
2700.123742,306.438199,-0.000000,9104.533087
2700.124071,-306.438199,-0.000000,9400.615463
2700.124399,536.266849,-0.000000,9474.636058
2700.124728,153.219100,222.061783,8956.491898
2700.125057,76.609550,-0.000000,9104.533087
2700.125386,383.047749,-0.000000,9030.512492
2700.125715,306.438199,-0.000000,9030.512492
2700.126044,383.047749,-0.000000,9030.512492
2700.126373,383.047749,-296.082377,8956.491898
2700.126702,76.609550,-148.041188,9252.574275
2700.127030,-229.828649,-74.020594,9400.615463
2700.127359,306.438199,-74.020594,9178.553681
2700.127688,229.828649,-0.000000,9030.512492
2700.128017,306.438199,-222.061783,8882.471304
2700.128346,229.828649,-0.000000,8734.430116
2700.128675,459.657299,-148.041188,9104.533087
2700.129004,459.657299,370.102971,9030.512492
2700.129332,229.828649,-222.061783,8882.471304
2700.129661,536.266849,-0.000000,9104.533087
2700.129990,306.438199,-148.041188,8808.450710
2700.130319,536.266849,-74.020594,8882.471304
2700.130648,383.047749,-74.020594,9178.553681
2700.130977,229.828649,-0.000000,9104.533087
2700.131306,383.047749,-370.102971,9326.594869
2700.131635,612.876398,-370.102971,9178.553681
2700.131963,229.828649,-296.082377,9178.553681
2700.132292,229.828649,-74.020594,9326.594869
2700.132621,459.657299,-296.082377,9104.533087
2700.132950,306.438199,-222.061783,9104.533087
2700.133279,-306.438199,-74.020594,9622.677246
2700.133608,612.876398,-222.061783,9400.615463
2700.133937,536.266849,-444.123565,9178.553681
2700.134266,229.828649,-222.061783,9178.553681
2700.134594,306.438199,-148.041188,9252.574275
2700.134923,306.438199,-0.000000,9400.615463
2700.135252,459.657299,-222.061783,9178.553681
2700.135581,0.000000,-296.082377,9400.615463
2700.135910,459.657299,-148.041188,9104.533087
2700.136239,229.828649,-296.082377,9030.512492
2700.136568,229.828649,296.082377,9030.512492
2700.136896,0.000000,-0.000000,9178.553681
2700.137225,383.047749,-0.000000,8808.450710
2700.137554,0.000000,-0.000000,8956.491898
2700.137883,153.219100,-0.000000,9030.512492
2700.138212,0.000000,-0.000000,8956.491898
2700.138541,536.266849,-370.102971,9030.512492
2700.138870,153.219100,-592.164754,8808.450710
2700.139199,689.485948,-0.000000,9178.553681
2700.139527,459.657299,-296.082377,9104.533087
2700.139856,1149.143247,-1110.308913,9474.636058
2700.140185,1378.971896,-814.226536,9400.615463
2700.140514,1685.410096,-444.123565,9400.615463
2700.140843,2221.676944,-148.041188,9178.553681
2700.141172,2451.505594,-148.041188,9252.574275
2700.141501,3447.429741,370.102971,9178.553681
2700.141830,3907.087040,-296.082377,8882.471304
2700.142158,3907.087040,296.082377,8364.327145
2700.142487,3140.991542,592.164754,8512.368333
2700.142816,3140.991542,296.082377,8512.368333
2700.143145,3217.601092,-370.102971,9326.594869
2700.143474,3294.210641,-740.205942,9252.574275
2700.143803,1532.190996,-962.267725,9474.636058
2700.144132,1685.410096,-1480.411884,10288.862594
2700.144461,2221.676944,-1850.514855,9474.636058
2700.144789,2528.115143,-222.061783,9400.615463
2700.145118,2374.896044,-1480.411884,10140.821405
2700.145447,3983.696590,-1332.370696,9400.615463
2700.145776,3907.087040,444.123565,9622.677246
2700.146105,5362.668486,1184.329507,8068.244768
2700.146434,4903.011187,1258.350101,7772.162391
2700.146763,4749.792088,1480.411884,9400.615463
2700.147091,5209.449386,1258.350101,7476.080014
2700.147420,4749.792088,666.185348,8216.285956
2700.147749,3753.867940,222.061783,8882.471304
2700.148078,2221.676944,-0.000000,8734.430116
2700.148407,1378.971896,-0.000000,10066.800811
2700.148736,919.314598,-1184.329507,9474.636058
2700.149065,1455.581446,-1036.288319,9844.739029
2700.149394,383.047749,-1406.391290,9696.697840
2700.149722,1532.190996,-592.164754,9696.697840
2700.150051,1608.800546,-370.102971,10140.821405
2700.150380,2068.457845,592.164754,9030.512492
2700.150709,2987.772442,-370.102971,8660.409521
2700.151038,4213.525239,1628.453072,9400.615463
2700.151367,4519.963438,888.247130,7846.182985
2700.151696,4826.401637,1332.370696,7846.182985
2700.152025,5132.839837,740.205942,9178.553681
2700.152353,4826.401637,-222.061783,9030.512492
2700.152682,3600.648841,-592.164754,8956.491898
2700.153011,2987.772442,-1110.308913,9770.718434
2700.153340,2374.896044,-1406.391290,10510.924376
2700.153669,1685.410096,-2146.597232,9918.759623
2700.153998,1991.848295,-1776.494261,10214.842000
2700.154327,2528.115143,-1480.411884,9918.759623
2700.154655,3064.381992,-444.123565,9622.677246
2700.154984,2911.162892,592.164754,9104.533087
2700.155313,3907.087040,1258.350101,9104.533087
2700.155642,4596.572988,2072.576638,8290.306550
2700.155971,4596.572988,2368.659014,7624.121203
2700.156300,4060.306139,2368.659014,7624.121203
2700.156629,4213.525239,1998.556043,8142.265362
2700.156958,3370.820191,814.226536,8216.285956
2700.157286,2604.724693,-148.041188,9252.574275
2700.157615,2298.286494,-1628.453072,9770.718434
2700.157944,2374.896044,-2590.720797,10288.862594
2700.158273,1915.238745,-3108.864956,10732.986159
2700.158602,2451.505594,-2738.761985,10732.986159
2700.158931,3753.867940,-1850.514855,10436.903782
2700.159260,4443.353888,-444.123565,9770.718434
2700.159589,5439.278036,740.205942,9548.656652
2700.159917,5822.325785,1924.535449,9030.512492
2700.160246,5286.058936,2664.741391,8216.285956
2700.160575,4826.401637,3404.947333,7550.100608
2700.160904,4213.525239,4071.132681,7105.977043
2700.161233,3830.477490,2368.659014,7254.018232
2700.161562,3217.601092,2442.679609,6513.812290
2700.161891,2911.162892,-444.123565,8290.306550
2700.162219,459.657299,-3997.112087,9992.780217
2700.162548,-842.705048,-3849.070898,10658.965565
2700.162877,-689.485948,-4811.338623,12139.377449
2700.163206,-689.485948,-4515.256246,10584.944971
2700.163535,-459.657299,-1480.411884,11251.130318
2700.163864,1608.800546,-1184.329507,10955.047942
2700.164193,2681.334243,888.247130,10584.944971
2700.164522,4903.011187,1110.308913,9696.697840
2700.164850,7890.783629,1776.494261,7994.224174
2700.165179,6588.421283,1628.453072,7624.121203
2700.165508,5515.887586,1554.432478,8290.306550
2700.165837,6052.154434,2294.638420,7031.956449
2700.166166,5132.839837,1998.556043,6809.894666
2700.166495,5209.449386,2368.659014,5921.647536
2700.166824,4596.572988,3034.844362,7179.997637
2700.167153,4749.792088,1184.329507,6587.832884
2700.167481,4519.963438,-74.020594,7179.997637
2700.167810,1762.019645,-4885.359217,9622.677246
2700.168139,76.609550,-7105.977043,12509.480420
2700.168468,-1378.971896,-3108.864956,11251.130318
2700.168797,-1072.533697,-7105.977043,14285.974681
2700.169126,-1991.848295,-2738.761985,10881.027347
2700.169455,1762.019645,1110.308913,12509.480420
2700.169783,3524.039291,592.164754,11399.171507
2700.170112,4903.011187,2368.659014,8734.430116
2700.170441,7124.688131,740.205942,9474.636058
2700.170770,7660.954980,2516.700203,8068.244768
2700.171099,7890.783629,5995.668130,5847.626942
2700.171428,7584.345430,2368.659014,6365.771101
2700.171757,7277.907231,1850.514855,4589.276840
2700.172086,7201.297681,2442.679609,6587.832884
2700.172414,5822.325785,-0.000000,6513.812290
2700.172743,3677.258390,1924.535449,5255.462188
2700.173072,4443.353888,-518.144159,8216.285956
2700.173401,0.000000,-3997.112087,11843.295072
2700.173730,-2068.457845,-6069.688724,12953.603985
2700.174059,-2221.676944,-444.123565,12139.377449
2700.174388,-919.314598,-7328.038826,12361.439231
2700.174717,-1378.971896,-0.000000,10658.965565
2700.175045,1455.581446,740.205942,13027.624579
2700.175374,612.876398,1332.370696,10362.883188
2700.175703,1225.752797,-0.000000,14434.015869
2700.176032,7201.297681,-1036.288319,7994.224174
2700.176361,9882.631924,1702.473667,7846.182985
2700.176690,5592.497135,1332.370696,6661.853478
2700.177019,6588.421283,1258.350101,5625.565159
2700.177347,5975.544884,740.205942,7920.203579
2700.177676,6052.154434,-0.000000,7254.018232
2700.178005,4749.792088,2220.617826,5403.503377
2700.178334,3600.648841,2442.679609,8734.430116
2700.178663,2604.724693,444.123565,7105.977043
2700.178992,3600.648841,962.267725,9622.677246
2700.179321,1915.238745,-1110.308913,10066.800811
2700.179650,919.314598,-2220.617826,11547.212695
2700.179978,536.266849,-1850.514855,11843.295072
2700.180307,689.485948,-3997.112087,12065.356855
2700.180636,-612.876398,-444.123565,9400.615463
2700.180965,1915.238745,592.164754,11473.192101
2700.181294,1532.190996,1184.329507,9252.574275
2700.181623,2374.896044,814.226536,8438.347739
2700.181952,3140.991542,-0.000000,8216.285956
2700.182281,3983.696590,1036.288319,7772.162391
2700.182610,3064.381992,1406.391290,7105.977043
2700.182939,3447.429741,-1776.494261,7698.141797
2700.183268,3830.477490,-1850.514855,8290.306550
2700.183598,2834.553343,-2146.597232,10066.800811
2700.183927,2757.943793,-1110.308913,10362.883188
2700.184256,2451.505594,-666.185348,9400.615463
2700.184585,3753.867940,740.205942,10066.800811
2700.184915,4519.963438,1480.411884,9326.594869
2700.185244,4060.306139,1702.473667,9326.594869
2700.185573,3983.696590,1110.308913,9474.636058
2700.185902,5362.668486,2368.659014,8512.368333
2700.186232,5132.839837,1332.370696,8734.430116
2700.186561,4519.963438,592.164754,8734.430116
2700.186890,3753.867940,-666.185348,9030.512492
2700.187219,3064.381992,-1184.329507,8882.471304
2700.187549,3217.601092,-1332.370696,8512.368333
2700.187878,1455.581446,-444.123565,9474.636058
2700.188207,229.828649,-2146.597232,10807.006753
2700.188536,689.485948,-1850.514855,9918.759623
2700.188866,2068.457845,-1480.411884,9992.780217
2700.189195,2451.505594,-1628.453072,9844.739029
2700.189524,1302.362347,-592.164754,9992.780217
2700.189853,3064.381992,-518.144159,11399.171507
2700.190183,4213.525239,1480.411884,9400.615463
2700.190512,6052.154434,1924.535449,8290.306550
2700.190841,6358.592633,1850.514855,8512.368333
2700.191170,4596.572988,1702.473667,9178.553681
2700.191500,4979.620737,1258.350101,8142.265362
2700.191829,6052.154434,1406.391290,6365.771101
2700.192158,6511.811733,222.061783,8364.327145
2700.192487,4903.011187,444.123565,7846.182985
2700.192817,3600.648841,-74.020594,8882.471304
2700.193146,3524.039291,-1480.411884,8956.491898
2700.193475,2451.505594,-2960.823768,7772.162391
2700.193804,612.876398,-666.185348,11473.192101
2700.194134,2451.505594,-2738.761985,11695.253884
2700.194463,995.924147,-74.020594,8216.285956
2700.194792,2221.676944,-0.000000,9030.512492
2700.195121,3140.991542,370.102971,9474.636058
2700.195451,4136.915689,518.144159,9622.677246
2700.195780,4519.963438,1332.370696,7846.182985
2700.196109,4826.401637,2590.720797,7031.956449
2700.196438,4136.915689,1480.411884,7698.141797
2700.196768,3217.601092,1406.391290,7031.956449
2700.197097,2451.505594,-0.000000,8142.265362
2700.197426,842.705048,-1110.308913,8808.450710
2700.197755,-766.095498,-1998.556043,8512.368333
2700.198085,-766.095498,-2072.576638,9918.759623
2700.198414,-1225.752797,-2442.679609,10066.800811
2700.198743,-2068.457845,-1850.514855,9474.636058
2700.199072,-1915.238745,-1554.432478,10066.800811
2700.199402,-2068.457845,-888.247130,9326.594869
2700.199731,-689.485948,148.041188,9104.533087
2700.200060,-766.095498,-0.000000,9622.677246
2700.200389,-383.047749,-1036.288319,9992.780217
2700.200719,229.828649,-518.144159,8882.471304
2700.201048,1149.143247,-592.164754,8142.265362
2700.201377,1991.848295,444.123565,8216.285956
2700.201706,2068.457845,1184.329507,7550.100608
2700.202036,1991.848295,1258.350101,7105.977043
2700.202365,1915.238745,-0.000000,9474.636058
2700.202694,766.095498,-814.226536,8216.285956
2700.203023,306.438199,-1184.329507,8734.430116
2700.203353,-1072.533697,-962.267725,9252.574275
2700.203682,-1302.362347,-370.102971,10584.944971
2700.204011,-1225.752797,-814.226536,9992.780217
2700.204340,-383.047749,-0.000000,9696.697840
2700.204670,-612.876398,-1406.391290,9696.697840
2700.204999,306.438199,740.205942,9104.533087
2700.205328,1149.143247,-74.020594,10288.862594
2700.205657,1302.362347,-370.102971,8364.327145
2700.205987,1532.190996,814.226536,9178.553681
2700.206316,1838.629195,1998.556043,8586.388927
2700.206645,2834.553343,888.247130,7846.182985
2700.206974,2451.505594,1258.350101,8142.265362
2700.207304,1838.629195,592.164754,8956.491898
2700.207633,2068.457845,-222.061783,7624.121203
2700.207962,306.438199,-0.000000,9104.533087
2700.208292,-766.095498,222.061783,9548.656652
2700.208621,-1455.581446,-1184.329507,9548.656652
2700.208950,-1532.190996,-592.164754,9548.656652
2700.209279,-1072.533697,-1036.288319,9400.615463
2700.209609,-612.876398,-962.267725,9844.739029
2700.209938,-1608.800546,-1554.432478,9992.780217
2700.210267,-1762.019645,-1850.514855,9844.739029
2700.210596,-1072.533697,-592.164754,9992.780217
2700.210926,-689.485948,-518.144159,9992.780217
2700.211255,153.219100,-814.226536,8586.388927
2700.211584,842.705048,-888.247130,10214.842000
2700.211913,995.924147,-814.226536,9918.759623
2700.212243,2221.676944,-222.061783,8956.491898
2700.212572,2681.334243,296.082377,8216.285956
2700.212901,2681.334243,1332.370696,7994.224174
2700.213230,2681.334243,1628.453072,7994.224174
2700.213560,2221.676944,1480.411884,7254.018232
2700.213889,2451.505594,1258.350101,7772.162391
2700.214218,1685.410096,-0.000000,8734.430116
2700.214547,689.485948,-592.164754,8882.471304
2700.214877,0.000000,-2442.679609,9400.615463
2700.215206,-919.314598,-2220.617826,9844.739029
2700.215535,-1378.971896,-1184.329507,10066.800811
2700.215864,-383.047749,-1480.411884,9326.594869
2700.216194,-919.314598,-444.123565,8734.430116
2700.216523,-229.828649,-740.205942,10066.800811
2700.216852,-306.438199,-518.144159,9844.739029
2700.217181,153.219100,-148.041188,8660.409521
2700.217511,612.876398,814.226536,8512.368333
2700.217840,689.485948,740.205942,7624.121203
2700.218169,1378.971896,1110.308913,8216.285956
2700.218498,1532.190996,666.185348,7550.100608
2700.218828,842.705048,-0.000000,8438.347739
2700.219157,229.828649,-666.185348,9474.636058
2700.219486,-306.438199,-1110.308913,8734.430116
2700.219815,-1608.800546,-592.164754,9030.512492
2700.220145,-2221.676944,-814.226536,9918.759623
2700.220474,-1149.143247,-962.267725,9992.780217
2700.220803,-842.705048,-888.247130,9474.636058
2700.221132,-612.876398,-740.205942,9326.594869
2700.221462,-919.314598,-1628.453072,9548.656652
2700.221791,-306.438199,-1184.329507,9696.697840
2700.222120,-306.438199,-444.123565,9622.677246
2700.222449,-612.876398,962.267725,9474.636058
2700.222779,-689.485948,1406.391290,8882.471304
2700.223108,536.266849,962.267725,8216.285956
2700.223437,459.657299,1554.432478,8512.368333
2700.223766,766.095498,296.082377,9178.553681
2700.224096,842.705048,-814.226536,8956.491898
2700.224425,-76.609550,-666.185348,9252.574275
2700.224754,-153.219100,-0.000000,9918.759623
2700.225083,0.000000,-518.144159,9104.533087
2700.225413,459.657299,-1036.288319,9326.594869
2700.225742,1225.752797,296.082377,9178.553681
2700.226071,2145.067394,740.205942,9770.718434
2700.226400,766.095498,-0.000000,8882.471304
2700.226730,1838.629195,-0.000000,8660.409521
2700.227059,1455.581446,1184.329507,8956.491898
2700.227388,689.485948,962.267725,8734.430116
2700.227717,995.924147,-0.000000,8512.368333
2700.228047,536.266849,-0.000000,8808.450710
2700.228376,766.095498,-0.000000,8512.368333
2700.228705,153.219100,-1702.473667,9178.553681
2700.229034,153.219100,-1480.411884,8956.491898
2700.229364,-383.047749,-888.247130,9844.739029
2700.229693,0.000000,-0.000000,9622.677246
2700.230022,0.000000,-370.102971,8956.491898
2700.230351,153.219100,-0.000000,9400.615463
2700.230681,766.095498,1036.288319,9030.512492
2700.231010,1608.800546,-0.000000,9326.594869
2700.231339,995.924147,-222.061783,8290.306550
2700.231668,-1072.533697,1184.329507,9030.512492
2700.231998,76.609550,-518.144159,9474.636058
2700.232327,-306.438199,-74.020594,7624.121203
2700.232656,-459.657299,-1110.308913,8512.368333
2700.232985,-612.876398,-1406.391290,9326.594869
2700.233315,-306.438199,-1036.288319,9400.615463
2700.233644,-612.876398,-2220.617826,9474.636058
2700.233973,0.000000,-222.061783,8956.491898
2700.234302,-459.657299,-888.247130,9992.780217
2700.234632,0.000000,-222.061783,8586.388927
2700.234961,536.266849,-222.061783,9696.697840
2700.235290,1608.800546,-592.164754,9918.759623
2700.235620,2987.772442,592.164754,8216.285956
2700.235949,2911.162892,814.226536,8290.306550
2700.236278,1762.019645,518.144159,8512.368333
2700.236607,612.876398,1110.308913,8882.471304
2700.236937,766.095498,444.123565,9030.512492
2700.237266,1072.533697,296.082377,7920.203579
2700.237595,0.000000,-444.123565,8882.471304
2700.237924,-995.924147,-1554.432478,9474.636058
2700.238254,-383.047749,-2072.576638,10288.862594
2700.238583,-383.047749,-1702.473667,9400.615463
2700.238912,-536.266849,-592.164754,9030.512492
2700.239241,-383.047749,-222.061783,9770.718434
2700.239571,612.876398,-444.123565,9104.533087
2700.239900,1225.752797,518.144159,8808.450710
2700.240229,2068.457845,-444.123565,10288.862594
2700.240558,1608.800546,-0.000000,9326.594869
2700.240888,1302.362347,-148.041188,9474.636058
2700.241217,459.657299,592.164754,8586.388927
2700.241546,383.047749,444.123565,8512.368333
2700.241875,153.219100,222.061783,8216.285956
2700.242205,-459.657299,-0.000000,8882.471304
2700.242534,-229.828649,-592.164754,10066.800811
2700.242863,-536.266849,-814.226536,9252.574275
2700.243192,-383.047749,-666.185348,8882.471304
2700.243522,-689.485948,-592.164754,9474.636058
2700.243851,-995.924147,-0.000000,9400.615463
2700.244180,-766.095498,-0.000000,9252.574275
2700.244509,76.609550,-222.061783,8956.491898
2700.244839,459.657299,-0.000000,9918.759623
2700.245168,1302.362347,-0.000000,8808.450710
2700.245497,1608.800546,222.061783,8512.368333
2700.245826,229.828649,1184.329507,8438.347739
2700.246156,229.828649,740.205942,9178.553681
2700.246485,0.000000,-296.082377,8808.450710
2700.246814,76.609550,-0.000000,9252.574275
2700.247143,0.000000,-814.226536,9030.512492
2700.247473,-536.266849,-1406.391290,9326.594869
2700.247802,-153.219100,-814.226536,9326.594869
2700.248131,-459.657299,-1036.288319,9326.594869
2700.248460,0.000000,-148.041188,9252.574275
2700.248790,612.876398,-74.020594,8512.368333
2700.249119,1838.629195,-0.000000,8438.347739
2700.249448,1991.848295,518.144159,7772.162391
2700.249777,2604.724693,-0.000000,8734.430116
2700.250107,2757.943793,740.205942,7328.038826
2700.250436,1685.410096,1554.432478,8216.285956
2700.250765,536.266849,1036.288319,8660.409521
2700.251094,536.266849,888.247130,8734.430116
2700.251424,766.095498,-518.144159,9326.594869
2700.251753,-306.438199,-1258.350101,9992.780217
2700.252082,0.000000,-1850.514855,10288.862594
2700.252411,-1378.971896,-2220.617826,9400.615463
2700.252741,-995.924147,-888.247130,10066.800811
2700.253070,-306.438199,296.082377,9474.636058
2700.253399,0.000000,-592.164754,8882.471304
2700.253728,306.438199,-296.082377,9622.677246
2700.254058,1455.581446,222.061783,9548.656652
2700.254387,1455.581446,444.123565,8734.430116
2700.254716,1838.629195,518.144159,8290.306550
2700.255045,1302.362347,1406.391290,8438.347739
2700.255375,76.609550,1332.370696,9178.553681
2700.255704,-536.266849,888.247130,9178.553681
2700.256033,-689.485948,-814.226536,8364.327145
2700.256362,-1378.971896,-1332.370696,9622.677246
2700.256692,-1072.533697,-1850.514855,10510.924376
2700.257021,-1378.971896,-3256.906145,9474.636058
2700.257350,-1455.581446,-2220.617826,9696.697840
2700.257679,-1532.190996,-1184.329507,9844.739029
2700.258009,-536.266849,-148.041188,9844.739029
2700.258338,-306.438199,-0.000000,8956.491898
2700.258667,229.828649,-0.000000,9548.656652
2700.258996,1532.190996,-222.061783,9548.656652
2700.259326,2298.286494,-0.000000,7920.203579
2700.259655,2451.505594,666.185348,8660.409521
2700.259984,459.657299,2220.617826,5847.626942
2700.260313,995.924147,592.164754,10214.842000
2700.260643,1455.581446,-888.247130,7105.977043
2700.260972,306.438199,666.185348,6735.874072
2700.261301,919.314598,-2960.823768,10140.821405
2700.261630,-1072.533697,-1702.473667,6957.935855
2700.261960,0.000000,-1480.411884,10955.047942
2700.262289,-1149.143247,-1628.453072,9696.697840
2700.262618,76.609550,-0.000000,8956.491898
2700.262948,-229.828649,-1702.473667,9770.718434
2700.263277,919.314598,666.185348,8438.347739
2700.263606,1838.629195,-296.082377,9844.739029
2700.263935,2987.772442,-0.000000,7698.141797
2700.264265,3370.820191,1480.411884,7698.141797
2700.264594,2451.505594,1110.308913,8142.265362
2700.264923,1378.971896,1184.329507,7846.182985
2700.265252,919.314598,962.267725,8068.244768
2700.265582,229.828649,-888.247130,8586.388927
2700.265911,-1072.533697,-518.144159,9326.594869
2700.266240,-1302.362347,-2368.659014,10658.965565
2700.266569,-1915.238745,-3404.947333,10436.903782
2700.266899,-1915.238745,-962.267725,11473.192101
2700.267228,-1532.190996,-1406.391290,9622.677246
2700.267557,-1378.971896,-222.061783,9104.533087
2700.267886,-612.876398,518.144159,10510.924376
2700.268216,-689.485948,222.061783,9992.780217
2700.268545,536.266849,-518.144159,10066.800811
2700.268874,1149.143247,-222.061783,9844.739029
2700.269203,1532.190996,1850.514855,6809.894666
2700.269533,1378.971896,2072.576638,8956.491898
2700.269862,1149.143247,1850.514855,7254.018232
2700.270191,1838.629195,1924.535449,7402.059420
2700.270520,383.047749,-0.000000,8808.450710
2700.270850,-459.657299,-666.185348,8956.491898
2700.271179,-383.047749,-1406.391290,9918.759623
2700.271508,-1302.362347,-2220.617826,9992.780217
2700.271837,-1532.190996,-814.226536,9918.759623
2700.272167,-842.705048,-740.205942,10362.883188
2700.272496,-306.438199,-814.226536,8660.409521
2700.272825,229.828649,370.102971,9844.739029
2700.273154,1838.629195,-222.061783,11029.068536
2700.273484,2604.724693,740.205942,6587.832884
2700.273813,3907.087040,888.247130,8882.471304
2700.274142,2911.162892,2738.761985,7624.121203
2700.274471,2528.115143,2442.679609,7105.977043
2700.274801,2451.505594,814.226536,7772.162391
2700.275130,1072.533697,518.144159,7476.080014
2700.275459,383.047749,-1776.494261,9770.718434
2700.275788,-689.485948,-2886.803174,8586.388927
2700.276118,-1455.581446,-2886.803174,9770.718434
2700.276447,-1915.238745,-2442.679609,10732.986159
2700.276776,-1302.362347,-222.061783,9474.636058
2700.277105,-919.314598,-1110.308913,9104.533087
2700.277435,0.000000,-0.000000,9622.677246
2700.277764,995.924147,370.102971,10214.842000
2700.278093,1685.410096,-0.000000,9548.656652
2700.278422,2681.334243,1110.308913,7402.059420
2700.278752,2757.943793,2072.576638,7476.080014
2700.279081,1915.238745,2368.659014,7254.018232
2700.279410,1608.800546,2220.617826,7772.162391
2700.279739,919.314598,370.102971,8290.306550
2700.280069,-689.485948,-740.205942,9400.615463
2700.280398,-1302.362347,-2368.659014,10066.800811
2700.280727,-1608.800546,-3552.988522,10140.821405
2700.281056,-1991.848295,-1850.514855,9178.553681
2700.281386,-1455.581446,-1258.350101,9992.780217
2700.281715,-995.924147,-666.185348,9548.656652
2700.282044,-459.657299,222.061783,8882.471304
2700.282373,-153.219100,-0.000000,10955.047942
2700.282703,0.000000,-592.164754,10066.800811
2700.283032,1072.533697,-370.102971,9548.656652
2700.283361,1762.019645,1554.432478,8068.244768
2700.283690,1455.581446,1924.535449,7994.224174
2700.284020,1991.848295,1850.514855,7624.121203
2700.284349,2374.896044,962.267725,7031.956449
2700.284678,1838.629195,148.041188,8142.265362
2700.285007,1302.362347,-370.102971,9474.636058
2700.285336,536.266849,-3330.926739,8586.388927
2700.285665,-766.095498,-2368.659014,10214.842000
2700.285995,-1302.362347,-1110.308913,10732.986159
2700.286324,-1225.752797,-888.247130,10584.944971
2700.286653,-612.876398,-148.041188,9992.780217
2700.286982,689.485948,370.102971,11325.150913
2700.287311,1149.143247,814.226536,9770.718434
2700.287640,2374.896044,1258.350101,9548.656652
2700.287969,2068.457845,1184.329507,8216.285956
2700.288298,1225.752797,2294.638420,8808.450710
2700.288628,1455.581446,2146.597232,8586.388927
2700.288957,1302.362347,370.102971,7328.038826
2700.289286,995.924147,-888.247130,8438.347739
2700.289615,0.000000,-1998.556043,9030.512492
2700.289944,-919.314598,-2812.782580,9178.553681
2700.290273,-1455.581446,-3404.947333,9918.759623
2700.290602,-1149.143247,-1850.514855,10214.842000
2700.290932,-1378.971896,-444.123565,9252.574275
2700.291261,-995.924147,-0.000000,9548.656652
2700.291590,-306.438199,222.061783,10362.883188
2700.291919,-306.438199,296.082377,10288.862594
2700.292248,919.314598,296.082377,10140.821405
2700.292577,1455.581446,222.061783,7624.121203
2700.292906,612.876398,2664.741391,8216.285956
2700.293235,306.438199,962.267725,7846.182985
2700.293565,536.266849,1110.308913,7402.059420
2700.293894,229.828649,444.123565,7846.182985
2700.294223,-612.876398,-1776.494261,8882.471304
2700.294552,-306.438199,-2072.576638,9252.574275
2700.294881,-1225.752797,-3552.988522,9104.533087
2700.295210,-1378.971896,-1850.514855,9400.615463
2700.295539,-1149.143247,-1776.494261,9770.718434
2700.295868,-689.485948,-888.247130,9104.533087
2700.296198,-306.438199,-296.082377,9326.594869
2700.296527,842.705048,222.061783,11177.109724
2700.296856,995.924147,148.041188,9474.636058
2700.297185,2604.724693,1110.308913,8512.368333
2700.297514,2681.334243,1480.411884,9326.594869
2700.297843,2374.896044,3034.844362,6735.874072
2700.298172,2221.676944,2442.679609,7624.121203
2700.298502,1838.629195,1258.350101,7920.203579
2700.298831,1455.581446,592.164754,8068.244768
2700.299160,-612.876398,-1850.514855,9030.512492
2700.299489,-153.219100,-3775.050304,9696.697840
2700.299818,-2145.067394,-2590.720797,10140.821405
2700.300147,-2451.505594,-2664.741391,9918.759623
2700.300476,-1072.533697,-1110.308913,10066.800811
2700.300805,-1149.143247,-1776.494261,10584.944971
2700.301135,-153.219100,666.185348,10881.027347
2700.301464,1378.971896,-0.000000,10584.944971
2700.301793,1838.629195,962.267725,8660.409521
2700.302122,2145.067394,2220.617826,8586.388927
2700.302451,2068.457845,2442.679609,7624.121203
2700.302780,2145.067394,2664.741391,8216.285956
2700.303109,1762.019645,1110.308913,6883.915261
2700.303438,1072.533697,740.205942,7328.038826
2700.303768,-229.828649,-1480.411884,9770.718434
2700.304097,-995.924147,-2664.741391,9030.512492
2700.304426,-2068.457845,-3404.947333,9770.718434
2700.304755,-2451.505594,-2590.720797,10807.006753
2700.305084,-1762.019645,-1628.453072,9326.594869
2700.305413,-842.705048,-296.082377,9252.574275
2700.305742,-612.876398,-222.061783,9326.594869
2700.306071,229.828649,-444.123565,10140.821405
2700.306401,1149.143247,-0.000000,9548.656652
2700.306730,2451.505594,1776.494261,7698.141797
2700.307059,2451.505594,1554.432478,7994.224174
2700.307388,1838.629195,2886.803174,7105.977043
2700.307717,2451.505594,1998.556043,7772.162391
2700.308046,1915.238745,1332.370696,7772.162391
2700.308375,995.924147,-0.000000,8808.450710
2700.308705,383.047749,-1924.535449,9178.553681
2700.309034,-612.876398,-2960.823768,9400.615463
2700.309363,-1762.019645,-2812.782580,9918.759623
2700.309692,-1532.190996,-1554.432478,9844.739029
2700.310021,-919.314598,-2072.576638,9474.636058
2700.310350,-919.314598,-1184.329507,10066.800811
2700.310679,153.219100,-0.000000,10658.965565
2700.311008,1608.800546,-666.185348,9622.677246
2700.311338,2145.067394,592.164754,8290.306550
2700.311667,2451.505594,1628.453072,8216.285956
2700.311996,1608.800546,2590.720797,8290.306550
2700.312325,2221.676944,2294.638420,8512.368333
2700.312654,1608.800546,2146.597232,7328.038826
2700.312983,612.876398,-0.000000,8882.471304
2700.313312,-306.438199,-1184.329507,9622.677246
2700.313641,-1149.143247,-2886.803174,9474.636058
2700.313971,-2451.505594,-2368.659014,10658.965565
2700.314300,-1991.848295,-1776.494261,10214.842000
2700.314629,-1608.800546,-592.164754,9400.615463
2700.314958,-1455.581446,-592.164754,9918.759623
2700.315287,-766.095498,-0.000000,10288.862594
2700.315616,0.000000,-518.144159,10066.800811
2700.315945,0.000000,-962.267725,9400.615463
2700.316274,0.000000,-370.102971,9178.553681
2700.316604,76.609550,740.205942,8882.471304
2700.316933,1455.581446,1850.514855,7994.224174
2700.317262,1302.362347,1110.308913,7328.038826
2700.317591,1608.800546,1554.432478,8586.388927
2700.317920,1378.971896,-0.000000,8512.368333
2700.318249,1685.410096,-888.247130,8438.347739
2700.318578,153.219100,-222.061783,8438.347739
2700.318908,-383.047749,-296.082377,9548.656652
2700.319237,-766.095498,-1332.370696,10510.924376
2700.319566,-306.438199,-740.205942,9696.697840
2700.319895,0.000000,-666.185348,9844.739029
2700.320224,689.485948,-444.123565,9918.759623
2700.320553,689.485948,-444.123565,9178.553681
2700.320882,1532.190996,-148.041188,9548.656652
2700.321211,1455.581446,370.102971,9178.553681
2700.321541,1149.143247,592.164754,8586.388927
2700.321870,1378.971896,1110.308913,8142.265362
2700.322199,1149.143247,740.205942,8068.244768
2700.322528,536.266849,-222.061783,9104.533087
2700.322857,1225.752797,-1554.432478,9400.615463
2700.323186,383.047749,-1924.535449,8882.471304
2700.323515,0.000000,-1258.350101,9770.718434
2700.323844,-612.876398,-814.226536,9178.553681
2700.324174,306.438199,-444.123565,8956.491898
2700.324503,-153.219100,-444.123565,9326.594869
2700.324832,459.657299,-296.082377,10288.862594
2700.325161,995.924147,-444.123565,8808.450710
2700.325490,1378.971896,-0.000000,8512.368333
2700.325819,766.095498,1776.494261,8142.265362
2700.326148,383.047749,666.185348,8956.491898
2700.326477,459.657299,962.267725,7772.162391
2700.326807,995.924147,1554.432478,7254.018232
2700.327136,76.609550,296.082377,9178.553681
2700.327465,0.000000,-1036.288319,8438.347739
2700.327794,-383.047749,-1850.514855,8882.471304
2700.328123,-766.095498,-1554.432478,9030.512492
2700.328452,-1608.800546,-888.247130,9178.553681
2700.328781,-1072.533697,-1258.350101,9548.656652
2700.329111,-612.876398,-666.185348,9178.553681
2700.329440,-383.047749,370.102971,9770.718434
2700.329769,1762.019645,-370.102971,9104.533087
2700.330098,1149.143247,370.102971,7550.100608
2700.330427,995.924147,962.267725,8734.430116
2700.330756,2451.505594,2072.576638,8512.368333
2700.331085,1149.143247,-370.102971,7179.997637
2700.331414,766.095498,2368.659014,9474.636058
2700.331744,1991.848295,-1850.514855,9992.780217
2700.332073,-1302.362347,-1554.432478,8364.327145
2700.332402,766.095498,-1036.288319,9474.636058
2700.332731,-459.657299,-2072.576638,9844.739029
2700.333060,-1072.533697,-1480.411884,9622.677246
2700.333389,-306.438199,-814.226536,9548.656652
2700.333718,153.219100,-1184.329507,8660.409521
2700.334047,153.219100,444.123565,8882.471304
2700.334377,1915.238745,-592.164754,9918.759623
2700.334706,1225.752797,666.185348,8882.471304
2700.335035,1302.362347,518.144159,8882.471304
2700.335364,1532.190996,1628.453072,8808.450710
2700.335693,0.000000,2368.659014,7328.038826
2700.336022,1302.362347,148.041188,9400.615463
2700.336351,459.657299,-0.000000,8142.265362
2700.336681,-842.705048,-814.226536,9844.739029
2700.337010,-459.657299,-2590.720797,9474.636058
2700.337339,-842.705048,-1258.350101,8290.306550
2700.337668,-2068.457845,-1258.350101,9770.718434
2700.337997,-1072.533697,-148.041188,9474.636058
2700.338326,-153.219100,-1332.370696,8734.430116
2700.338655,0.000000,-0.000000,8808.450710
2700.338984,229.828649,222.061783,9326.594869
2700.339314,1149.143247,370.102971,8438.347739
2700.339643,1762.019645,1332.370696,7550.100608
2700.339972,1149.143247,2072.576638,8660.409521
2700.340301,383.047749,888.247130,8586.388927
2700.340630,689.485948,1184.329507,8068.244768
2700.340959,306.438199,-74.020594,8512.368333
2700.341288,-1532.190996,-666.185348,9770.718434
2700.341617,-842.705048,-2072.576638,9696.697840
2700.341947,-919.314598,-1776.494261,9696.697840
2700.342276,-1838.629195,-1480.411884,9918.759623
2700.342605,-1302.362347,-740.205942,9548.656652
2700.342934,-689.485948,-370.102971,8882.471304
2700.343263,-306.438199,-1110.308913,9548.656652
2700.343592,995.924147,-666.185348,10066.800811
2700.343921,1762.019645,740.205942,8808.450710
2700.344250,1532.190996,592.164754,7846.182985
2700.344580,1149.143247,1480.411884,7994.224174
2700.344909,995.924147,1184.329507,9548.656652
2700.345238,306.438199,1332.370696,8512.368333
2700.345567,1991.848295,888.247130,8290.306550
2700.345896,612.876398,-518.144159,8808.450710
2700.346225,0.000000,-1258.350101,9918.759623
2700.346554,-383.047749,-2146.597232,10362.883188
2700.346884,-995.924147,-962.267725,9622.677246
2700.347213,-689.485948,-814.226536,9696.697840
2700.347542,-536.266849,-814.226536,9770.718434
2700.347871,-306.438199,-444.123565,9326.594869
2700.348200,536.266849,444.123565,10510.924376
2700.348529,1455.581446,-592.164754,9104.533087
2700.348858,1608.800546,444.123565,8512.368333
2700.349187,1225.752797,1036.288319,9030.512492
2700.349517,536.266849,1628.453072,8956.491898
2700.349846,0.000000,1258.350101,8586.388927
2700.350175,459.657299,666.185348,8586.388927
2700.350504,612.876398,-0.000000,9178.553681
2700.350833,-383.047749,-666.185348,10140.821405
2700.351162,-1072.533697,-1998.556043,9992.780217
2700.351491,-1225.752797,-1702.473667,9474.636058
2700.351820,-459.657299,-666.185348,9622.677246
2700.352150,0.000000,-1184.329507,9326.594869
2700.352479,-153.219100,-1036.288319,8734.430116
2700.352808,919.314598,-74.020594,9770.718434
2700.353137,1608.800546,-370.102971,9178.553681
2700.353466,2528.115143,-74.020594,8216.285956
2700.353795,2221.676944,1110.308913,7772.162391
2700.354124,1378.971896,814.226536,8586.388927
2700.354453,459.657299,518.144159,9104.533087
2700.354783,1149.143247,296.082377,7772.162391
2700.355112,995.924147,222.061783,8660.409521
2700.355441,153.219100,-1554.432478,10066.800811
2700.355770,-153.219100,-1258.350101,9622.677246
2700.356099,229.828649,-2146.597232,9474.636058
2700.356428,0.000000,-444.123565,9400.615463
2700.356757,383.047749,-0.000000,9474.636058
2700.357087,919.314598,-74.020594,9178.553681
2700.357416,1532.190996,-0.000000,9326.594869
2700.357745,1762.019645,1184.329507,8882.471304
2700.358074,2374.896044,666.185348,7031.956449
2700.358403,2374.896044,666.185348,8068.244768
2700.358732,995.924147,962.267725,9326.594869
2700.359061,-383.047749,444.123565,9326.594869
2700.359390,536.266849,-444.123565,10214.842000
2700.359720,0.000000,-1258.350101,7994.224174
2700.360049,-1302.362347,-1480.411884,10214.842000
2700.360378,-995.924147,-962.267725,10881.027347
2700.360707,-1608.800546,-2664.741391,9030.512492
2700.361036,-842.705048,-444.123565,9030.512492
2700.361365,-766.095498,-296.082377,9622.677246
2700.361694,0.000000,-0.000000,8364.327145
2700.362023,2451.505594,296.082377,8290.306550
2700.362353,2221.676944,1554.432478,7105.977043
2700.362682,2451.505594,1184.329507,7920.203579
2700.363011,2528.115143,740.205942,7846.182985
2700.363340,995.924147,1184.329507,7846.182985
2700.363669,0.000000,962.267725,9178.553681
2700.363998,-1532.190996,-592.164754,9326.594869
2700.364327,-2374.896044,-1924.535449,9400.615463
2700.364656,-1991.848295,-1776.494261,11325.150913
2700.364986,-2298.286494,-2146.597232,10584.944971
2700.365315,-2068.457845,-2368.659014,10140.821405
2700.365644,-1838.629195,-666.185348,9104.533087
2700.365973,-1225.752797,296.082377,9844.739029
2700.366302,-306.438199,-888.247130,9622.677246
2700.366631,229.828649,-74.020594,9918.759623
2700.366960,2221.676944,-296.082377,8660.409521
2700.367290,3140.991542,888.247130,7328.038826
2700.367619,3447.429741,1480.411884,6661.853478
2700.367948,3064.381992,2072.576638,7772.162391
2700.368277,1838.629195,1332.370696,8956.491898
2700.368606,1225.752797,666.185348,8734.430116
2700.368935,536.266849,-296.082377,9104.533087
2700.369264,-459.657299,-1036.288319,9548.656652
2700.369593,-1532.190996,-2072.576638,11103.089130
2700.369923,-1915.238745,-2220.617826,11251.130318
2700.370252,-1838.629195,-2368.659014,10807.006753
2700.370581,-1302.362347,-888.247130,9770.718434
2700.370910,-459.657299,-0.000000,9326.594869
2700.371239,383.047749,-74.020594,9178.553681
2700.371568,1378.971896,222.061783,7994.224174
2700.371897,1915.238745,1110.308913,8290.306550
2700.372226,2834.553343,1258.350101,7550.100608
2700.372556,2451.505594,1850.514855,6735.874072
2700.372885,689.485948,1554.432478,7698.141797
2700.373214,1072.533697,-0.000000,9474.636058
2700.373543,-153.219100,-444.123565,7624.121203
2700.373872,-612.876398,-1776.494261,9030.512492
2700.374201,-1532.190996,-2146.597232,10362.883188
2700.374530,-1378.971896,-2294.638420,10436.903782
2700.374860,-1532.190996,-1406.391290,9770.718434
2700.375189,-1762.019645,-1258.350101,9622.677246
2700.375518,-1532.190996,-370.102971,10807.006753
2700.375847,153.219100,-296.082377,9178.553681
2700.376176,1302.362347,-0.000000,7772.162391
2700.376505,2145.067394,666.185348,9178.553681
2700.376834,2987.772442,1110.308913,7698.141797
2700.377163,3294.210641,1332.370696,7179.997637
2700.377493,1991.848295,1184.329507,7846.182985
2700.377822,1149.143247,1258.350101,7254.018232
2700.378151,1149.143247,-0.000000,8808.450710
2700.378480,153.219100,-666.185348,9030.512492
2700.378809,-536.266849,-1850.514855,10584.944971
2700.379138,-1302.362347,-2590.720797,11325.150913
2700.379467,-1455.581446,-2590.720797,10362.883188
2700.379796,-995.924147,-1554.432478,11177.109724
2700.380126,-153.219100,-592.164754,10362.883188
2700.380455,0.000000,-0.000000,9178.553681
2700.380784,1532.190996,740.205942,9548.656652
2700.381113,3294.210641,1850.514855,8956.491898
2700.381442,3600.648841,2072.576638,7550.100608
2700.381771,4060.306139,1702.473667,7328.038826
2700.382100,2987.772442,2146.597232,6809.894666
2700.382429,1302.362347,1332.370696,7772.162391
2700.382759,76.609550,518.144159,8586.388927
2700.383088,-919.314598,-444.123565,8586.388927
2700.383417,-1072.533697,-2294.638420,9992.780217
2700.383746,-2604.724693,-2516.700203,10066.800811
2700.384075,-2298.286494,-2516.700203,10881.027347
2700.384404,-2145.067394,-2368.659014,9474.636058
2700.384733,-2298.286494,-592.164754,10066.800811
2700.385063,-2145.067394,-222.061783,9326.594869
2700.385392,-766.095498,-296.082377,9474.636058
2700.385721,536.266849,666.185348,9918.759623
2700.386050,2451.505594,740.205942,8660.409521
2700.386379,3217.601092,1554.432478,7476.080014
2700.386708,1991.848295,2146.597232,5995.668130
2700.387037,1915.238745,2072.576638,8142.265362
2700.387367,76.609550,1184.329507,8808.450710
2700.387696,-383.047749,-222.061783,8660.409521
2700.388025,-1149.143247,-1480.411884,9178.553681
2700.388354,-2834.553343,-3256.906145,10658.965565
2700.388683,-3447.429741,-2960.823768,11251.130318
2700.389012,-2145.067394,-2960.823768,10436.903782
2700.389342,-2068.457845,-1628.453072,10288.862594
2700.389671,-1838.629195,-592.164754,10584.944971
2700.390000,0.000000,444.123565,9918.759623
2700.390329,1838.629195,-0.000000,9992.780217
2700.390658,3524.039291,1110.308913,7550.100608
2700.390987,4903.011187,1110.308913,7328.038826
2700.391317,3600.648841,2442.679609,6291.750507
2700.391646,4136.915689,2738.761985,7328.038826
2700.391975,2528.115143,2590.720797,7476.080014
2700.392304,1915.238745,1554.432478,6883.915261
2700.392633,919.314598,-370.102971,8438.347739
2700.392962,-995.924147,-1850.514855,9992.780217
2700.393292,-1838.629195,-3330.926739,11325.150913
2700.393621,-2298.286494,-4441.235652,11251.130318
2700.393950,-1532.190996,-1776.494261,9252.574275
2700.394279,-2068.457845,-888.247130,10732.986159
2700.394608,-536.266849,-962.267725,10510.924376
2700.394937,-229.828649,-0.000000,9474.636058
2700.395267,2298.286494,-0.000000,10140.821405
2700.395596,3753.867940,1480.411884,7328.038826
2700.395925,4979.620737,2664.741391,7105.977043
2700.396254,2834.553343,3256.906145,6661.853478
2700.396583,3064.381992,3330.926739,8068.244768
2700.396912,1532.190996,1702.473667,8068.244768
2700.397242,1149.143247,962.267725,6365.771101
2700.397571,76.609550,-1776.494261,9918.759623
2700.397900,-2987.772442,-1776.494261,10955.047942
2700.398229,-2681.334243,-4367.215058,12139.377449
2700.398558,-2987.772442,-3552.988522,11325.150913
2700.398887,-2068.457845,-2368.659014,10436.903782
2700.399217,-1991.848295,-444.123565,9918.759623
2700.399546,-1762.019645,-222.061783,9770.718434
2700.399875,-536.266849,-444.123565,10732.986159
2700.400204,2068.457845,-0.000000,10584.944971
2700.400533,2987.772442,814.226536,7031.956449
2700.400862,2911.162892,1998.556043,7476.080014
2700.401192,1838.629195,2886.803174,7031.956449
2700.401521,2451.505594,3256.906145,8290.306550
2700.401850,2145.067394,888.247130,7254.018232
2700.402179,1072.533697,888.247130,6809.894666
2700.402508,-383.047749,-1924.535449,9844.739029
2700.402837,-1608.800546,-2442.679609,9622.677246
2700.403167,-1378.971896,-3478.967927,10510.924376
2700.403496,-2221.676944,-2516.700203,10362.883188
2700.403825,-1991.848295,-1406.391290,10881.027347
2700.404154,-1149.143247,-1554.432478,9992.780217
2700.404483,-383.047749,-0.000000,8660.409521
2700.404812,1532.190996,-0.000000,11251.130318
2700.405142,2145.067394,296.082377,7698.141797
2700.405471,3907.087040,2294.638420,7105.977043
2700.405800,2374.896044,3108.864956,7254.018232
2700.406129,1685.410096,3034.844362,6661.853478
2700.406458,1685.410096,962.267725,7624.121203
2700.406788,766.095498,1036.288319,7105.977043
2700.407117,-536.266849,-1332.370696,9030.512492
2700.407446,-1532.190996,-3701.029710,9992.780217
2700.407775,-1991.848295,-3849.070898,10436.903782
2700.408104,-2451.505594,-2368.659014,10066.800811
2700.408433,-2298.286494,-1702.473667,10140.821405
2700.408763,-2145.067394,-1110.308913,9326.594869
2700.409092,-995.924147,-814.226536,9992.780217
2700.409421,-766.095498,814.226536,10362.883188
2700.409750,612.876398,-1110.308913,11103.089130
2700.410079,1838.629195,-148.041188,8586.388927
2700.410408,2221.676944,1998.556043,7772.162391
2700.410738,2068.457845,2368.659014,7402.059420
2700.411067,2221.676944,2442.679609,6735.874072
2700.411396,2451.505594,1998.556043,7550.100608
2700.411725,1608.800546,-0.000000,7550.100608
2700.412054,995.924147,-888.247130,8660.409521
2700.412383,-153.219100,-3034.844362,9474.636058
2700.412713,-2145.067394,-2886.803174,9326.594869
2700.413042,-2298.286494,-2738.761985,11399.171507
2700.413371,-1915.238745,-1480.411884,9918.759623
2700.413700,-1225.752797,-1850.514855,10288.862594
2700.414029,76.609550,-814.226536,10881.027347
2700.414358,1149.143247,740.205942,9992.780217
2700.414688,3294.210641,518.144159,9104.533087
2700.415017,3830.477490,2072.576638,7476.080014
2700.415346,3677.258390,3627.009116,7698.141797
2700.415675,3294.210641,3256.906145,8216.285956
2700.416004,2604.724693,3034.844362,7550.100608
2700.416333,1532.190996,1628.453072,7994.224174
2700.416663,1532.190996,444.123565,7994.224174
2700.416992,383.047749,-1776.494261,7105.977043
2700.417321,-1915.238745,-4737.318029,10658.965565
2700.417650,-2451.505594,-2812.782580,11843.295072
2700.417979,-2987.772442,-3330.926739,10066.800811
2700.418308,-2604.724693,-2072.576638,10140.821405
2700.418638,-919.314598,-1036.288319,10140.821405
2700.418967,-229.828649,370.102971,10807.006753
2700.419296,1838.629195,444.123565,7994.224174
2700.419625,4443.353888,2442.679609,7328.038826
2700.419954,3677.258390,2146.597232,6513.812290
2700.420283,3140.991542,3701.029710,6957.935855
2700.420613,3064.381992,1924.535449,6957.935855
2700.420942,612.876398,1850.514855,7031.956449
2700.421271,536.266849,-1036.288319,9104.533087
2700.421600,-1149.143247,-2516.700203,10214.842000
2700.421929,-2451.505594,-3997.112087,9622.677246
2700.422258,-3447.429741,-3478.967927,11547.212695
2700.422588,-4060.306139,-3552.988522,10362.883188
2700.422917,-3294.210641,-3330.926739,10510.924376
2700.423246,-2221.676944,-1110.308913,9844.739029
2700.423575,-1302.362347,-296.082377,10288.862594
2700.423904,229.828649,-518.144159,10881.027347
2700.424233,1915.238745,1480.411884,6957.935855
2700.424563,3600.648841,2368.659014,7254.018232
2700.424892,3064.381992,1924.535449,7105.977043
2700.425221,2604.724693,3108.864956,6735.874072
2700.425550,2451.505594,814.226536,8808.450710
2700.425879,536.266849,1332.370696,8512.368333
2700.426208,306.438199,-1480.411884,9474.636058
2700.426538,-842.705048,-2294.638420,9548.656652
2700.426867,-1685.410096,-4219.173869,10214.842000
2700.427196,-2757.943793,-2812.782580,10955.047942
2700.427525,-1532.190996,-2590.720797,10288.862594
2700.427854,-919.314598,-2812.782580,9992.780217
2700.428183,383.047749,-0.000000,9844.739029
2700.428513,1991.848295,1332.370696,9400.615463
2700.428842,2681.334243,814.226536,8068.244768
2700.429171,3524.039291,2368.659014,7328.038826
2700.429500,3140.991542,2590.720797,7179.997637
2700.429829,2451.505594,2516.700203,7254.018232
2700.430158,1149.143247,2886.803174,7624.121203
2700.430488,76.609550,222.061783,9104.533087
2700.430817,-766.095498,-1628.453072,11325.150913
2700.431146,-1762.019645,-3108.864956,9770.718434
2700.431475,-2145.067394,-3182.885551,10362.883188
2700.431804,-2681.334243,-2220.617826,10732.986159
2700.432134,-1915.238745,-1776.494261,10362.883188
2700.432463,-2145.067394,-1110.308913,10140.821405
2700.432792,-1302.362347,-370.102971,9992.780217
2700.433121,0.000000,-888.247130,10881.027347
2700.433450,995.924147,814.226536,8734.430116
2700.433779,2681.334243,740.205942,8142.265362
2700.434109,2681.334243,2442.679609,7772.162391
2700.434438,2221.676944,2368.659014,7624.121203
2700.434767,1915.238745,2220.617826,7105.977043
2700.435096,1838.629195,1332.370696,7698.141797
2700.435425,995.924147,222.061783,9104.533087
2700.435754,153.219100,-1702.473667,9770.718434
2700.436084,-459.657299,-2590.720797,9474.636058
2700.436413,-2221.676944,-2072.576638,9992.780217
2700.436742,-2145.067394,-2072.576638,10436.903782
2700.437071,-1225.752797,-1924.535449,10066.800811
2700.437400,-612.876398,-370.102971,9844.739029
2700.437729,919.314598,-444.123565,10658.965565
2700.438059,2145.067394,222.061783,8734.430116
2700.438388,3524.039291,1480.411884,8438.347739
2700.438717,2987.772442,2294.638420,7624.121203
2700.439046,2834.553343,2146.597232,7772.162391
2700.439375,2528.115143,2516.700203,7476.080014
2700.439704,2757.943793,1924.535449,7476.080014
2700.440034,2604.724693,518.144159,7550.100608
2700.440363,1685.410096,-296.082377,8882.471304
2700.440692,1072.533697,-2516.700203,8956.491898
2700.441021,-536.266849,-1998.556043,9474.636058
2700.441350,-1532.190996,-1776.494261,10140.821405
2700.441679,-1685.410096,-2294.638420,10066.800811
2700.442009,-1685.410096,-592.164754,9474.636058
2700.442338,-306.438199,-888.247130,9844.739029
2700.442667,0.000000,-1184.329507,10214.842000
2700.442996,536.266849,-0.000000,8882.471304
2700.443325,1072.533697,740.205942,8734.430116
2700.443654,459.657299,1406.391290,8364.327145
2700.443984,229.828649,1776.494261,9030.512492
2700.444313,995.924147,1332.370696,8068.244768
2700.444642,995.924147,296.082377,8512.368333
2700.444971,-153.219100,-370.102971,9104.533087
2700.445300,-842.705048,-1110.308913,9474.636058
2700.445629,-1608.800546,-1628.453072,9326.594869
2700.445959,-2451.505594,-1406.391290,9252.574275
2700.446288,-2298.286494,-1924.535449,10807.006753
2700.446617,-2068.457845,-1258.350101,10288.862594
2700.446946,-1302.362347,-148.041188,10214.842000
2700.447275,0.000000,-0.000000,9104.533087
2700.447604,842.705048,370.102971,8808.450710
2700.447934,766.095498,666.185348,8882.471304
2700.448263,1149.143247,1332.370696,8290.306550
2700.448592,1072.533697,1184.329507,8290.306550
2700.448921,919.314598,814.226536,7920.203579
2700.449250,1378.971896,888.247130,8290.306550
2700.449579,153.219100,-666.185348,8734.430116
2700.449909,689.485948,-1184.329507,9030.512492
2700.450238,0.000000,-1998.556043,9030.512492
2700.450567,-459.657299,-1332.370696,8882.471304
2700.450896,-766.095498,-1332.370696,9326.594869
2700.451225,229.828649,-592.164754,8438.347739
2700.451554,919.314598,-814.226536,9548.656652
2700.451884,919.314598,-74.020594,9696.697840
2700.452213,1915.238745,-148.041188,8956.491898
2700.452542,1762.019645,814.226536,7698.141797
2700.452871,766.095498,1554.432478,7550.100608
2700.453200,1302.362347,888.247130,9622.677246
2700.453529,689.485948,518.144159,7772.162391
2700.453859,0.000000,-74.020594,9326.594869
2700.454188,229.828649,-1628.453072,10362.883188
2700.454517,-612.876398,-1184.329507,9326.594869
2700.454846,-995.924147,-1924.535449,9918.759623
2700.455175,-919.314598,-1332.370696,9548.656652
2700.455504,-766.095498,-222.061783,9252.574275
2700.455834,459.657299,-222.061783,9178.553681
2700.456163,1685.410096,-74.020594,8290.306550
2700.456492,1072.533697,370.102971,8956.491898
2700.456821,1991.848295,-0.000000,9030.512492
2700.457150,2145.067394,1036.288319,7772.162391
2700.457480,1072.533697,1036.288319,8512.368333
2700.457809,919.314598,1480.411884,8882.471304
2700.458138,-153.219100,740.205942,9474.636058
2700.458467,-536.266849,-74.020594,9622.677246
2700.458796,-842.705048,-518.144159,9400.615463
2700.459125,-1072.533697,-1702.473667,10732.986159
2700.459455,-1455.581446,-1776.494261,10510.924376
2700.459784,-1149.143247,-592.164754,9548.656652
2700.460113,-1302.362347,-666.185348,9918.759623
2700.460442,0.000000,-296.082377,9548.656652
2700.460771,1455.581446,740.205942,7698.141797
2700.461100,2681.334243,814.226536,8586.388927
2700.461430,3064.381992,962.267725,7624.121203
2700.461759,3753.867940,1110.308913,7476.080014
2700.462088,3524.039291,1258.350101,7920.203579
2700.462417,1762.019645,1332.370696,8512.368333
2700.462746,842.705048,592.164754,8882.471304
2700.463075,-459.657299,-370.102971,9326.594869
2700.463405,-612.876398,-444.123565,10140.821405
2700.463734,-536.266849,-2516.700203,11695.253884
2700.464063,-1225.752797,-2072.576638,9992.780217
2700.464392,-1455.581446,-1702.473667,9696.697840
2700.464721,-1149.143247,-740.205942,9770.718434
2700.465050,-842.705048,-370.102971,9030.512492
2700.465380,0.000000,222.061783,8216.285956
2700.465709,919.314598,-370.102971,7920.203579
2700.466038,1072.533697,296.082377,8068.244768
2700.466367,2145.067394,-0.000000,8216.285956
2700.466696,1838.629195,148.041188,7846.182985
2700.467025,0.000000,-0.000000,8512.368333
2700.467355,-383.047749,296.082377,8808.450710
2700.467684,-689.485948,-592.164754,9252.574275
2700.468013,-1225.752797,-444.123565,9918.759623
2700.468342,-689.485948,-1406.391290,10066.800811
2700.468671,-1378.971896,-2220.617826,10066.800811
2700.469000,-1915.238745,-1036.288319,9918.759623
2700.469330,-1685.410096,-1184.329507,9252.574275
2700.469659,-1762.019645,-74.020594,9252.574275
2700.469988,-842.705048,-222.061783,8882.471304
2700.470317,306.438199,-0.000000,8364.327145
2700.470646,1072.533697,-666.185348,8512.368333
2700.470975,1302.362347,-74.020594,7994.224174
2700.471305,1532.190996,-74.020594,7402.059420
2700.471634,383.047749,666.185348,7550.100608
2700.471963,229.828649,-222.061783,8512.368333
2700.472292,-153.219100,222.061783,8956.491898
2700.472621,612.876398,-666.185348,9030.512492
2700.472950,459.657299,-592.164754,9622.677246
2700.473280,0.000000,-592.164754,10510.924376
2700.473609,153.219100,-1850.514855,10584.944971
2700.473938,-153.219100,-740.205942,10436.903782
2700.474267,459.657299,444.123565,10140.821405
2700.474596,1455.581446,370.102971,9104.533087
2700.474925,1225.752797,1332.370696,7846.182985
2700.475255,2911.162892,1184.329507,8216.285956
2700.475584,3524.039291,1184.329507,7402.059420
2700.475913,2834.553343,1184.329507,6291.750507
2700.476242,1608.800546,222.061783,7254.018232
2700.476571,306.438199,962.267725,11103.089130
2700.476900,-842.705048,-1258.350101,9474.636058
2700.477230,-1302.362347,-1258.350101,9400.615463
2700.477559,-1532.190996,-1480.411884,11103.089130
2700.477888,-1455.581446,-2516.700203,11547.212695
2700.478217,-1532.190996,-1110.308913,11547.212695
2700.478546,-919.314598,-962.267725,10066.800811
2700.478875,229.828649,740.205942,9844.739029
2700.479205,1225.752797,1036.288319,9622.677246
2700.479534,2298.286494,1332.370696,7994.224174
2700.479863,3983.696590,1554.432478,7254.018232
2700.480192,3907.087040,2442.679609,7179.997637
2700.480521,3677.258390,1628.453072,9400.615463
2700.480850,2528.115143,1554.432478,7031.956449
2700.481180,306.438199,888.247130,6513.812290
2700.481509,-842.705048,-0.000000,9622.677246
2700.481838,-2145.067394,-1702.473667,9400.615463
2700.482167,-2221.676944,-2812.782580,11325.150913
2700.482496,-2451.505594,-3034.844362,10288.862594
2700.482826,-2298.286494,-2738.761985,9992.780217
2700.483155,-1991.848295,-2146.597232,11029.068536
2700.483484,-1685.410096,222.061783,9400.615463
2700.483813,-995.924147,-0.000000,9474.636058
2700.484142,919.314598,370.102971,10658.965565
2700.484471,2221.676944,962.267725,7624.121203
2700.484801,3447.429741,1480.411884,8438.347739
2700.485130,4366.744339,1554.432478,6661.853478
2700.485457,3677.258390,2146.597232,5847.626942
2700.485787,2604.724693,2220.617826,7402.059420
2700.486116,1532.190996,1628.453072,6661.853478
2700.486445,842.705048,814.226536,7994.224174
2700.486774,-1225.752797,-740.205942,9474.636058
2700.487104,-1532.190996,-3775.050304,9992.780217
2700.487433,-3140.991542,-4367.215058,11843.295072
2700.487762,-3140.991542,-2812.782580,10584.944971
2700.488091,-1915.238745,-1332.370696,10066.800811
2700.488420,-2604.724693,-1036.288319,11103.089130
2700.488750,-1455.581446,888.247130,10214.842000
2700.489079,766.095498,-74.020594,9474.636058
2700.489408,2221.676944,518.144159,7920.203579
2700.489737,4136.915689,1332.370696,7698.141797
2700.490067,4136.915689,1628.453072,7624.121203
2700.490396,1608.800546,1998.556043,7105.977043
2700.490725,1149.143247,1924.535449,9178.553681
2700.491054,459.657299,962.267725,8068.244768
2700.491383,-383.047749,-1258.350101,8364.327145
2700.491713,-153.219100,-1258.350101,9474.636058
2700.492042,-1838.629195,-2886.803174,10807.006753
2700.492371,-3294.210641,-3256.906145,11695.253884
2700.492700,-2834.553343,-1776.494261,9622.677246
2700.493030,-2987.772442,-1036.288319,10214.842000
2700.493359,-2834.553343,-0.000000,9844.739029
2700.493688,-1838.629195,444.123565,7624.121203
2700.494017,-1915.238745,666.185348,8882.471304
2700.494346,-153.219100,-1036.288319,9696.697840
2700.494676,0.000000,666.185348,6513.812290
2700.495005,229.828649,888.247130,7846.182985
2700.495334,-1378.971896,1332.370696,7105.977043
2700.495663,-1608.800546,1332.370696,7846.182985
2700.495993,-1915.238745,296.082377,8290.306550
2700.496322,-1991.848295,222.061783,9770.718434
2700.496651,-2068.457845,-2368.659014,10510.924376
2700.496980,-2757.943793,-1776.494261,8956.491898
2700.497309,-2681.334243,-1702.473667,9548.656652
2700.497639,-3600.648841,-1406.391290,10658.965565
2700.497968,-3600.648841,-370.102971,9474.636058
2700.498297,-2987.772442,-148.041188,9770.718434
2700.498626,-1915.238745,-370.102971,9104.533087
2700.498956,-842.705048,-222.061783,7994.224174
2700.499285,-1685.410096,-1406.391290,9104.533087
2700.499614,-1302.362347,-518.144159,9474.636058
2700.499943,-1225.752797,1554.432478,7698.141797
2700.500272,-842.705048,592.164754,7698.141797
2700.500602,-1838.629195,518.144159,8142.265362
2700.500931,-1608.800546,296.082377,8808.450710
2700.501260,-1762.019645,-0.000000,9178.553681
2700.501589,-1991.848295,-1184.329507,8956.491898
2700.501919,-2528.115143,-1776.494261,9992.780217
2700.502248,-2911.162892,-1332.370696,11029.068536
2700.502577,-2987.772442,-1110.308913,10510.924376
2700.502906,-3217.601092,-222.061783,9770.718434
2700.503235,-3294.210641,814.226536,9770.718434
2700.503565,-1762.019645,1110.308913,9178.553681
2700.503894,-1608.800546,2220.617826,7920.203579
2700.504223,-1915.238745,1184.329507,7624.121203
2700.504552,-2987.772442,-0.000000,8438.347739
2700.504882,-3677.258390,962.267725,8808.450710
2700.505211,-3677.258390,222.061783,7772.162391
2700.505540,-2987.772442,-518.144159,7550.100608
2700.505869,-3983.696590,-518.144159,8512.368333
2700.506198,-4060.306139,-592.164754,9548.656652
2700.506528,-4443.353888,-444.123565,8660.409521
2700.506857,-4903.011187,-814.226536,9474.636058
2700.507186,-5209.449386,-1628.453072,10881.027347
2700.507515,-6205.373534,-2516.700203,11843.295072
2700.507845,-4979.620737,-2590.720797,12657.521608
2700.508174,-4060.306139,-1480.411884,10510.924376
2700.508503,-2451.505594,-148.041188,9622.677246
2700.508832,-1762.019645,370.102971,9104.533087
2700.509161,-1455.581446,1924.535449,7772.162391
2700.509491,-229.828649,962.267725,9326.594869
2700.509820,612.876398,1036.288319,6735.874072
2700.510149,1838.629195,1258.350101,6069.688724
2700.510478,1532.190996,-296.082377,7550.100608
2700.510808,0.000000,-0.000000,6217.729913
2700.511137,0.000000,-370.102971,8660.409521
2700.511466,-1838.629195,-444.123565,8068.244768
2700.511795,-2068.457845,-1702.473667,9622.677246
2700.512124,-2451.505594,-1776.494261,10807.006753
2700.512454,-3064.381992,-1110.308913,9326.594869
2700.512783,-3217.601092,-1184.329507,10140.821405
2700.513112,-2911.162892,-74.020594,9696.697840
2700.513441,-2298.286494,-740.205942,9918.759623
2700.513771,-2681.334243,-1036.288319,9844.739029
2700.514100,-2298.286494,-0.000000,8364.327145
2700.514429,-2451.505594,-518.144159,8882.471304
2700.514758,-2298.286494,-148.041188,8142.265362
2700.515087,-1991.848295,1554.432478,8438.347739
2700.515417,-2068.457845,-148.041188,8364.327145
2700.515746,-1991.848295,-592.164754,8290.306550
2700.516075,-1838.629195,-222.061783,8586.388927
2700.516404,-2068.457845,1184.329507,7698.141797
2700.516734,-2298.286494,222.061783,6735.874072
2700.517063,-1532.190996,-740.205942,8956.491898
2700.517392,-2221.676944,-814.226536,9252.574275
2700.517721,-3677.258390,-888.247130,10288.862594
2700.518050,-3064.381992,-222.061783,10214.842000
2700.518380,-3217.601092,1184.329507,8734.430116
2700.518709,-3447.429741,1480.411884,8512.368333
2700.519038,-3140.991542,740.205942,9770.718434
2700.519367,-3447.429741,-444.123565,9696.697840
2700.519697,-3217.601092,-444.123565,10288.862594
2700.520026,-3370.820191,148.041188,9178.553681
2700.520355,-3983.696590,148.041188,9326.594869
2700.520684,-3524.039291,-1850.514855,9400.615463
2700.521013,-3140.991542,-888.247130,9326.594869
2700.521343,-2911.162892,-1332.370696,9400.615463
2700.521672,-3064.381992,-888.247130,9104.533087
2700.522001,-2604.724693,-222.061783,9326.594869
2700.522330,-2681.334243,-0.000000,9326.594869
2700.522659,-3140.991542,-0.000000,9104.533087
2700.522989,-3524.039291,666.185348,9326.594869
2700.523318,-3983.696590,-0.000000,9548.656652
2700.523647,-3524.039291,296.082377,10066.800811
2700.523976,-3600.648841,-370.102971,9918.759623
2700.524306,-3064.381992,-814.226536,9030.512492
2700.524635,-3447.429741,-1110.308913,9030.512492
2700.524964,-3064.381992,-1036.288319,9400.615463
2700.525293,-2374.896044,-148.041188,8660.409521
2700.525622,-1455.581446,-0.000000,7550.100608
2700.525952,-995.924147,222.061783,7772.162391
2700.526281,-1225.752797,-222.061783,8512.368333
2700.526610,-1991.848295,-1036.288319,9030.512492
2700.526939,-2911.162892,-1184.329507,8808.450710
2700.527269,-2604.724693,-296.082377,9104.533087
2700.527598,-2604.724693,592.164754,9030.512492
2700.527927,-2757.943793,1332.370696,8808.450710
2700.528256,-2681.334243,1554.432478,8882.471304
2700.528585,-2834.553343,1406.391290,8364.327145
2700.528915,-2681.334243,-0.000000,8142.265362
2700.529244,-2528.115143,-666.185348,8882.471304
2700.529573,-3447.429741,-1702.473667,9400.615463
2700.529902,-2757.943793,-1702.473667,9770.718434
2700.530232,-2145.067394,-1406.391290,8956.491898
2700.530561,-1838.629195,-666.185348,8586.388927
2700.530890,-1608.800546,296.082377,8364.327145
2700.531219,-1225.752797,296.082377,8882.471304
2700.531548,-1762.019645,222.061783,9178.553681
2700.531878,-1838.629195,-0.000000,9400.615463
2700.532207,-2221.676944,444.123565,9326.594869
2700.532536,-2604.724693,-0.000000,9326.594869
2700.532865,-2757.943793,-296.082377,9918.759623
2700.533195,-2834.553343,-666.185348,9696.697840
2700.533524,-2528.115143,-592.164754,9696.697840
2700.533853,-1838.629195,-222.061783,9326.594869
2700.534182,-2221.676944,-0.000000,8956.491898
2700.534511,-2374.896044,148.041188,9104.533087
2700.534841,-2221.676944,814.226536,8882.471304
2700.535170,-1991.848295,370.102971,8808.450710
2700.535499,-1991.848295,-0.000000,8660.409521
2700.535828,-1225.752797,-148.041188,8586.388927
2700.536158,-1532.190996,-888.247130,8808.450710
2700.536487,-1302.362347,-1628.453072,9326.594869
2700.536816,-2374.896044,-1554.432478,9400.615463
2700.537145,-1915.238745,-1036.288319,9548.656652
2700.537474,-2068.457845,-592.164754,9622.677246
2700.537804,-1991.848295,-0.000000,9400.615463
2700.538133,-2068.457845,296.082377,9030.512492
2700.538462,-1762.019645,592.164754,8956.491898
2700.538791,-2757.943793,740.205942,8808.450710
2700.539121,-2145.067394,518.144159,8438.347739
2700.539450,-2604.724693,888.247130,8142.265362
2700.539779,-2834.553343,814.226536,7994.224174
2700.540108,-2987.772442,518.144159,7624.121203
2700.540437,-2681.334243,-444.123565,7846.182985
2700.540767,-3140.991542,-740.205942,8290.306550
2700.541096,-3753.867940,-1702.473667,8660.409521
2700.541425,-3983.696590,-2738.761985,9696.697840
2700.541754,-4826.401637,-2812.782580,10214.842000
2700.542084,-5286.058936,-2590.720797,10732.986159
2700.542413,-5056.230287,-1924.535449,11029.068536
2700.542742,-4979.620737,-1184.329507,11103.089130
2700.543071,-4366.744339,-148.041188,10362.883188
2700.543400,-2451.505594,740.205942,10288.862594
2700.543730,-2068.457845,1850.514855,8882.471304
2700.544059,-1302.362347,2220.617826,8438.347739
2700.544388,-1225.752797,2590.720797,7105.977043
2700.544717,-1685.410096,2072.576638,7254.018232
2700.545047,-1762.019645,1776.494261,8290.306550
2700.545376,-1532.190996,296.082377,7328.038826
2700.545705,-1762.019645,444.123565,8068.244768
2700.546034,-1991.848295,-592.164754,7772.162391
2700.546363,-2451.505594,-0.000000,7920.203579
2700.546693,-2834.553343,-0.000000,8660.409521
2700.547022,-2987.772442,1036.288319,8882.471304
2700.547351,-3064.381992,1850.514855,9178.553681
2700.547680,-2987.772442,1702.473667,10436.903782
2700.548010,-2987.772442,2368.659014,9918.759623
2700.548339,-3600.648841,2072.576638,9622.677246
2700.548668,-3677.258390,518.144159,11473.192101
2700.548997,-3217.601092,-74.020594,11103.089130
2700.549326,-2451.505594,444.123565,10436.903782
2700.549656,-1685.410096,-0.000000,9918.759623
2700.549985,0.000000,888.247130,8734.430116
2700.550314,-995.924147,1110.308913,9104.533087
2700.550643,-306.438199,1258.350101,10140.821405
2700.550973,2298.286494,1332.370696,8956.491898
2700.551302,2757.943793,3775.050304,5699.585753
2700.551631,3830.477490,4071.132681,7105.977043
2700.551960,3140.991542,4811.338623,6587.832884
2700.552289,3600.648841,4219.173869,8216.285956
2700.552619,2681.334243,5329.482782,8216.285956
2700.552948,2298.286494,2960.823768,8586.388927
2700.553277,842.705048,3256.906145,10658.965565
2700.553606,-919.314598,2738.761985,9918.759623
2700.553936,-1378.971896,1258.350101,10955.047942
2700.554265,-1991.848295,1554.432478,11399.171507
2700.554594,-306.438199,814.226536,10584.944971
2700.554923,76.609550,1036.288319,9696.697840
2700.555252,536.266849,2960.823768,9178.553681
2700.555582,842.705048,2886.803174,8068.244768
2700.555911,2221.676944,2812.782580,7402.059420
2700.556240,1762.019645,4663.297435,6809.894666
2700.556569,1762.019645,4959.379811,7846.182985
2700.556899,766.095498,3997.112087,8216.285956
2700.557228,-689.485948,3552.988522,8734.430116
2700.557557,-1149.143247,2960.823768,9548.656652
2700.557886,-2987.772442,1998.556043,10214.842000
2700.558215,-3370.820191,962.267725,11399.171507
2700.558545,-3294.210641,1480.411884,10732.986159
2700.558874,-2911.162892,2146.597232,10362.883188
2700.559203,-2374.896044,2516.700203,9178.553681
2700.559532,-2221.676944,2368.659014,10214.842000
2700.559862,-1762.019645,2146.597232,10584.944971
2700.560191,-1225.752797,2960.823768,8438.347739
2700.560520,-536.266849,2664.741391,8216.285956
2700.560849,-1302.362347,2368.659014,9326.594869
2700.561178,229.828649,1406.391290,11769.274478
2700.561508,1225.752797,3923.091493,7328.038826
2700.561837,4443.353888,4441.235652,8068.244768
2700.562166,3447.429741,5181.441594,5551.544565
2700.562495,3753.867940,6439.791695,6883.915261
2700.562825,1762.019645,6661.853478,7994.224174
2700.563154,1685.410096,6069.688724,7550.100608
2700.563483,1455.581446,5625.565159,8438.347739
2700.563812,-306.438199,5477.523971,7994.224174
2700.564141,-689.485948,3552.988522,9548.656652
2700.564471,-2528.115143,-0.000000,12657.521608
2700.564800,-2911.162892,888.247130,10732.986159
2700.565129,-1762.019645,666.185348,11547.212695
2700.565458,-1149.143247,-222.061783,11251.130318
2700.565787,-1302.362347,3256.906145,10214.842000
2700.566117,919.314598,2072.576638,9770.718434
2700.566446,1378.971896,4811.338623,7920.203579
2700.566775,2528.115143,5255.462188,8216.285956
2700.567104,3677.258390,4293.194464,7846.182985
2700.567434,2911.162892,5625.565159,7254.018232
2700.567763,2221.676944,5625.565159,7624.121203
2700.568092,1072.533697,3478.967927,7105.977043
2700.568421,919.314598,2738.761985,9622.677246
2700.568750,-1532.190996,518.144159,11547.212695
2700.569080,-2145.067394,-592.164754,11547.212695
2700.569409,-2911.162892,1480.411884,11325.150913
2700.569738,-1608.800546,-1258.350101,11325.150913
2700.570067,-2528.115143,2294.638420,9400.615463
2700.570397,-1455.581446,1036.288319,9992.780217
2700.570726,-1302.362347,2368.659014,8512.368333
2700.571055,1072.533697,444.123565,13027.624579
2700.571384,2604.724693,1850.514855,7550.100608
2700.571713,5669.106685,2368.659014,8512.368333
2700.572043,3677.258390,3627.009116,6365.771101
2700.572372,3294.210641,4219.173869,5255.462188
2700.572701,3600.648841,3849.070898,8438.347739
2700.573030,2681.334243,5181.441594,6365.771101
2700.573360,2911.162892,4589.276840,7772.162391
2700.573689,766.095498,3478.967927,7254.018232
2700.574018,-2681.334243,1258.350101,9252.574275
2700.574347,-4060.306139,-4441.235652,14434.015869
2700.574676,-4060.306139,-0.000000,10658.965565
2700.575006,-3217.601092,-2812.782580,11547.212695
2700.575335,-3447.429741,-0.000000,9252.574275
2700.575664,-2145.067394,2960.823768,10881.027347
2700.575993,536.266849,2590.720797,9030.512492
2700.576323,-153.219100,4737.318029,7920.203579
2700.576652,2911.162892,2072.576638,12139.377449
2700.576981,2451.505594,3034.844362,6143.709319
2700.577310,4596.572988,4737.318029,8290.306550
2700.577639,3907.087040,6883.915261,3034.844362
2700.577969,4903.011187,3997.112087,5847.626942
2700.578298,2834.553343,3701.029710,7698.141797
2700.578627,2911.162892,4811.338623,7105.977043
2700.578956,2145.067394,4811.338623,7994.224174
2700.579286,-919.314598,5107.421000,7846.182985
2700.579615,-4213.525239,-0.000000,11473.192101
2700.579944,-5132.839837,-2368.659014,14434.015869
2700.580273,-3907.087040,3775.050304,9326.594869
2700.580602,-2298.286494,-3923.091493,11769.274478
2700.580932,-3524.039291,-592.164754,10955.047942
2700.581261,-1685.410096,2960.823768,13249.686362
2700.581590,-1302.362347,2146.597232,9474.636058
2700.581919,-2604.724693,4293.194464,7994.224174
2700.582249,2374.896044,592.164754,14063.912898
2700.582578,3447.429741,4293.194464,7328.038826
2700.582907,4443.353888,5699.585753,8438.347739
2700.583236,1838.629195,3256.906145,4737.318029
2700.583565,4060.306139,7105.977043,5847.626942
2700.583895,1685.410096,5033.400406,8290.306550
2700.584224,-459.657299,5921.647536,6661.853478
2700.584553,536.266849,5847.626942,11843.295072
2700.584882,-995.924147,4145.153275,7550.100608
2700.585212,-612.876398,2812.782580,8734.430116
2700.585541,-4060.306139,-74.020594,13175.665768
2700.585870,-2528.115143,-1184.329507,11917.315666
2700.586199,-2068.457845,592.164754,11769.274478
2700.586528,-995.924147,-2960.823768,10436.903782
2700.586858,-2604.724693,3997.112087,7920.203579
2700.587187,76.609550,1554.432478,12361.439231
2700.587516,1378.971896,5181.441594,7254.018232
2700.587845,3064.381992,7179.997637,8734.430116
2700.588174,3677.258390,5255.462188,7624.121203
2700.588504,2374.896044,5403.503377,9178.553681
2700.588833,-689.485948,6365.771101,10510.924376
2700.589162,459.657299,5477.523971,6439.791695
2700.589491,766.095498,4293.194464,8734.430116
2700.589820,1608.800546,1924.535449,9992.780217
2700.590149,229.828649,1776.494261,10584.944971
2700.590479,-383.047749,962.267725,10510.924376
2700.590808,-1225.752797,592.164754,8512.368333
2700.591137,153.219100,1480.411884,10510.924376
2700.591466,153.219100,3775.050304,8512.368333
2700.591795,-383.047749,4885.359217,8660.409521
2700.592125,459.657299,3404.947333,8882.471304
2700.592454,1991.848295,2886.803174,7920.203579
2700.592783,3140.991542,4441.235652,7698.141797
2700.593112,2604.724693,4293.194464,8142.265362
2700.593441,995.924147,2442.679609,8586.388927
2700.593770,919.314598,3108.864956,8364.327145
2700.594100,1072.533697,3330.926739,7476.080014
2700.594429,612.876398,3034.844362,10140.821405
2700.594758,-919.314598,3256.906145,9992.780217
2700.595087,-1378.971896,2664.741391,10066.800811
2700.595416,-1149.143247,-222.061783,10436.903782
2700.595746,-1225.752797,-1184.329507,9992.780217
2700.596075,-995.924147,-296.082377,11325.150913
2700.596404,-1532.190996,1110.308913,10066.800811
2700.596733,459.657299,1332.370696,9252.574275
2700.597062,2757.943793,2220.617826,7920.203579
2700.597391,2911.162892,3330.926739,7328.038826
2700.597721,995.924147,4145.153275,8364.327145
2700.598050,689.485948,3108.864956,8068.244768
2700.598379,1455.581446,2812.782580,7994.224174
2700.598708,2451.505594,3923.091493,7254.018232
2700.599037,842.705048,3404.947333,8216.285956
2700.599366,-1302.362347,962.267725,11103.089130
2700.599696,-1072.533697,-814.226536,11103.089130
2700.600025,-2145.067394,592.164754,10288.862594
2700.600354,-3140.991542,740.205942,10436.903782
2700.600683,-3294.210641,1332.370696,10584.944971
2700.601012,-2451.505594,-0.000000,10955.047942
2700.601342,-1378.971896,1406.391290,8808.450710
2700.601671,-995.924147,1554.432478,7846.182985
2700.602000,0.000000,1406.391290,9030.512492
2700.602329,1762.019645,2146.597232,8438.347739
2700.602658,1991.848295,2368.659014,7402.059420
2700.602987,1225.752797,1850.514855,6957.935855
2700.603317,1532.190996,518.144159,9326.594869
2700.603646,1378.971896,444.123565,10658.965565
2700.603975,1149.143247,1258.350101,8956.491898
2700.604304,153.219100,1628.453072,9548.656652
2700.604633,-383.047749,962.267725,9696.697840
2700.604963,-459.657299,1924.535449,9548.656652
2700.605292,-1302.362347,1924.535449,9178.553681
2700.605621,-1532.190996,592.164754,9622.677246
2700.605950,153.219100,-74.020594,10288.862594
2700.606279,995.924147,-296.082377,8586.388927
2700.606608,689.485948,-222.061783,8438.347739
2700.606938,995.924147,-1110.308913,8956.491898
2700.607267,1302.362347,-888.247130,7994.224174
2700.607596,1225.752797,1480.411884,8290.306550
2700.607925,1608.800546,1924.535449,6957.935855
2700.608254,2451.505594,666.185348,7920.203579
2700.608583,2911.162892,2146.597232,9104.533087
2700.608913,1915.238745,1480.411884,8364.327145
2700.609242,919.314598,-370.102971,9696.697840
2700.609571,612.876398,-0.000000,10066.800811
2700.609900,306.438199,-444.123565,10066.800811
2700.610229,-1225.752797,1332.370696,9770.718434
2700.610559,-995.924147,-148.041188,9104.533087
2700.610888,-229.828649,-1332.370696,10214.842000
2700.611217,-229.828649,666.185348,9252.574275
2700.611546,-1149.143247,-1258.350101,9326.594869
2700.611875,-612.876398,-1036.288319,8438.347739
2700.612204,0.000000,-370.102971,8734.430116
2700.612534,0.000000,370.102971,8586.388927
2700.612863,459.657299,-962.267725,8512.368333
2700.613192,1072.533697,-1702.473667,9104.533087
2700.613521,1302.362347,-74.020594,9474.636058
2700.613850,766.095498,1776.494261,9104.533087
2700.614180,842.705048,-74.020594,9918.759623
2700.614509,1072.533697,962.267725,9178.553681
2700.614838,612.876398,2960.823768,8586.388927
2700.615167,-536.266849,2590.720797,9696.697840
2700.615496,153.219100,-0.000000,9622.677246
2700.615825,919.314598,296.082377,9622.677246
2700.616155,0.000000,1110.308913,9400.615463
2700.616484,-536.266849,-1332.370696,9696.697840
2700.616813,-536.266849,-2146.597232,9474.636058
2700.617142,-306.438199,-1258.350101,8808.450710
2700.617471,153.219100,592.164754,8290.306550
2700.617800,383.047749,-1110.308913,9104.533087
2700.618130,1225.752797,-444.123565,9104.533087
2700.618459,1378.971896,592.164754,8734.430116
2700.618788,1455.581446,370.102971,9030.512492
2700.619117,1455.581446,-148.041188,9030.512492
2700.619446,689.485948,296.082377,9178.553681
2700.619776,306.438199,1554.432478,9326.594869
2700.620105,995.924147,370.102971,8956.491898
2700.620434,1149.143247,-222.061783,8956.491898
2700.620763,842.705048,-0.000000,8586.388927
2700.621092,-306.438199,-148.041188,8956.491898
2700.621421,0.000000,-1406.391290,9400.615463
2700.621751,0.000000,-74.020594,7698.141797
2700.622080,-306.438199,-370.102971,8586.388927
2700.622409,-306.438199,-1110.308913,9104.533087
2700.622738,-383.047749,-2590.720797,9474.636058
2700.623067,229.828649,-2146.597232,9326.594869
2700.623397,-153.219100,-1184.329507,8734.430116
2700.623726,0.000000,-1850.514855,9844.739029
2700.624055,0.000000,-814.226536,9992.780217
2700.624384,-229.828649,740.205942,9326.594869
2700.624713,153.219100,370.102971,9474.636058
2700.625042,1378.971896,814.226536,9252.574275
2700.625372,919.314598,666.185348,8586.388927
2700.625701,153.219100,444.123565,9030.512492
2700.626030,383.047749,-1406.391290,9696.697840
2700.626359,306.438199,-962.267725,8290.306550
2700.626688,-383.047749,-0.000000,7994.224174
2700.627017,-689.485948,-592.164754,8586.388927
2700.627347,-306.438199,-740.205942,8290.306550
2700.627676,0.000000,-814.226536,8956.491898
2700.628005,-153.219100,-518.144159,9030.512492
2700.628334,0.000000,-1332.370696,9400.615463
2700.628663,0.000000,-1332.370696,9548.656652
2700.628993,-612.876398,-666.185348,9474.636058
2700.629322,0.000000,-444.123565,9992.780217
2700.629651,1532.190996,-1406.391290,10214.842000
2700.629980,2145.067394,-148.041188,9030.512492
2700.630309,1685.410096,1184.329507,8586.388927
2700.630638,1532.190996,222.061783,9178.553681
2700.630968,2145.067394,-0.000000,8216.285956
2700.631297,2068.457845,1628.453072,7105.977043
2700.631626,1608.800546,1480.411884,8290.306550
2700.631955,1149.143247,-296.082377,8364.327145
2700.632284,1455.581446,-1554.432478,8660.409521
2700.632614,229.828649,-740.205942,8364.327145
2700.632943,0.000000,-2072.576638,9696.697840
2700.633272,-919.314598,-3034.844362,10436.903782
2700.633601,-1378.971896,-1258.350101,9178.553681
2700.633930,-1225.752797,518.144159,10584.944971
2700.634259,-536.266849,-1110.308913,10658.965565
2700.634589,612.876398,-0.000000,9400.615463
2700.634918,459.657299,1554.432478,9696.697840
2700.635247,1225.752797,148.041188,9844.739029
2700.635576,1455.581446,666.185348,8956.491898
2700.635905,1838.629195,888.247130,8364.327145
2700.636234,919.314598,1332.370696,8068.244768
2700.636564,689.485948,666.185348,8734.430116
2700.636893,919.314598,-740.205942,8512.368333
2700.637222,0.000000,-370.102971,7772.162391
2700.637551,-995.924147,-592.164754,9326.594869
2700.637880,-766.095498,-1258.350101,8882.471304
2700.638210,-1991.848295,-1924.535449,8882.471304
2700.638539,-2451.505594,-370.102971,10066.800811
2700.638868,-919.314598,-2812.782580,10288.862594
2700.639197,-842.705048,-2072.576638,9474.636058
2700.639526,-383.047749,-74.020594,9400.615463
2700.639855,0.000000,222.061783,9326.594869
2700.640185,919.314598,-592.164754,9474.636058
2700.640514,2604.724693,1258.350101,7920.203579
2700.640843,2681.334243,1702.473667,6883.915261
2700.641172,2145.067394,1776.494261,7698.141797
2700.641501,2681.334243,148.041188,7328.038826
2700.641831,2145.067394,666.185348,7179.997637
2700.642160,1532.190996,-148.041188,8512.368333
2700.642489,766.095498,-1480.411884,8512.368333
2700.642818,-766.095498,-1924.535449,9252.574275
2700.643147,-1532.190996,-0.000000,9178.553681
2700.643476,-1532.190996,-296.082377,10510.924376
2700.643806,-1455.581446,-1110.308913,10436.903782
2700.644135,-383.047749,-592.164754,9696.697840
2700.644464,-536.266849,-0.000000,9770.718434
2700.644793,383.047749,-518.144159,10881.027347
2700.645122,1838.629195,518.144159,8586.388927
2700.645451,2221.676944,1702.473667,7920.203579
2700.645781,2451.505594,2368.659014,8586.388927
2700.646110,2374.896044,962.267725,8956.491898
2700.646439,2757.943793,888.247130,8290.306550
2700.646768,1915.238745,1702.473667,7550.100608
2700.647097,842.705048,-296.082377,9400.615463
2700.647427,-842.705048,-1258.350101,10066.800811
2700.647756,-1455.581446,-1110.308913,9474.636058
2700.648085,-2298.286494,-1480.411884,9918.759623
2700.648414,-1838.629195,-1480.411884,10436.903782
2700.648743,-995.924147,-1110.308913,10066.800811
2700.649072,-1685.410096,-444.123565,9696.697840
2700.649402,-995.924147,-888.247130,10362.883188
2700.649731,153.219100,-1184.329507,9178.553681
2700.650060,766.095498,888.247130,8216.285956
2700.650389,1072.533697,888.247130,8364.327145
2700.650718,1608.800546,592.164754,8364.327145
2700.651048,2374.896044,962.267725,7254.018232
2700.651377,2374.896044,962.267725,7179.997637
2700.651706,1378.971896,666.185348,8142.265362
2700.652035,689.485948,-740.205942,8734.430116
2700.652364,0.000000,-1184.329507,9030.512492
2700.652693,-689.485948,-592.164754,8882.471304
2700.653023,-1225.752797,-1998.556043,9918.759623
2700.653352,-689.485948,-1924.535449,10214.842000
2700.653681,-689.485948,-888.247130,9400.615463
2700.654010,-995.924147,-1036.288319,10288.862594
2700.654339,689.485948,-1184.329507,9770.718434
2700.654668,1455.581446,370.102971,8734.430116
2700.654998,1762.019645,2220.617826,7772.162391
2700.655327,1991.848295,1702.473667,8438.347739
2700.655656,2834.553343,592.164754,8142.265362
2700.655985,2757.943793,1406.391290,7624.121203
2700.656314,1762.019645,666.185348,8438.347739
2700.656644,1225.752797,-0.000000,8290.306550
2700.656973,153.219100,-444.123565,8808.450710
2700.657302,-1149.143247,-1036.288319,9918.759623
2700.657631,-1838.629195,-1184.329507,10881.027347
2700.657960,-1302.362347,-2960.823768,10510.924376
2700.658289,-1685.410096,-888.247130,9622.677246
2700.658619,-1762.019645,-74.020594,10214.842000
2700.658948,-689.485948,-1184.329507,10214.842000
2700.659277,459.657299,-518.144159,9178.553681
2700.659606,1532.190996,1628.453072,7698.141797
2700.659935,995.924147,1924.535449,7698.141797
2700.660265,1915.238745,1776.494261,7920.203579
2700.660594,2604.724693,1480.411884,7328.038826
2700.660923,1838.629195,1924.535449,7328.038826
2700.661252,842.705048,-148.041188,8586.388927
2700.661581,0.000000,-740.205942,8808.450710
2700.661910,-1225.752797,-888.247130,9696.697840
2700.662240,-2145.067394,-518.144159,9844.739029
2700.662569,-2451.505594,-3182.885551,10807.006753
2700.662898,-2298.286494,-1776.494261,10066.800811
2700.663227,-2374.896044,-1036.288319,9992.780217
2700.663556,-1378.971896,-1924.535449,11103.089130
2700.663885,-153.219100,-814.226536,9474.636058
2700.664215,1455.581446,-0.000000,9178.553681
2700.664544,2068.457845,1406.391290,8216.285956
2700.664873,2757.943793,1628.453072,7772.162391
2700.665202,3524.039291,1184.329507,7476.080014
2700.665531,3294.210641,2368.659014,7328.038826
2700.665861,2834.553343,1850.514855,8142.265362
2700.666190,2068.457845,-1184.329507,8808.450710
2700.666519,76.609550,296.082377,8586.388927
2700.666848,-1072.533697,-592.164754,9844.739029
2700.667177,-1762.019645,-2220.617826,10584.944971
2700.667506,-2221.676944,-3478.967927,10807.006753
2700.667836,-2374.896044,-2516.700203,11769.274478
2700.668165,-1915.238745,-2146.597232,11103.089130
2700.668494,-612.876398,-1998.556043,10510.924376
2700.668823,919.314598,-0.000000,9178.553681
2700.669152,919.314598,1554.432478,8068.244768
2700.669482,1915.238745,1702.473667,8734.430116
2700.669811,3370.820191,2072.576638,7179.997637
2700.670140,3140.991542,3034.844362,6143.709319
2700.670469,2451.505594,1998.556043,7550.100608
2700.670798,2528.115143,666.185348,7624.121203
2700.671127,1378.971896,-1036.288319,7846.182985
2700.671457,-153.219100,-518.144159,8882.471304
2700.671786,-1608.800546,-2220.617826,9400.615463
2700.672115,-1838.629195,-2516.700203,10584.944971
2700.672444,-2374.896044,-2072.576638,10214.842000
2700.672773,-2451.505594,-1554.432478,10510.924376
2700.673102,-1838.629195,-2072.576638,10584.944971
2700.673432,-1149.143247,-370.102971,9400.615463
2700.673761,306.438199,1332.370696,8290.306550
2700.674090,1149.143247,1258.350101,9178.553681
2700.674419,2374.896044,518.144159,7846.182985
2700.674748,3217.601092,1480.411884,7105.977043
2700.675078,2298.286494,1850.514855,6957.935855
2700.675407,2451.505594,296.082377,8290.306550
2700.675736,1915.238745,-0.000000,7698.141797
2700.676065,229.828649,666.185348,8438.347739
2700.676394,-612.876398,-444.123565,9474.636058
2700.676723,-689.485948,-1924.535449,9844.739029
2700.677053,-1378.971896,-1924.535449,10510.924376
2700.677382,-1838.629195,-1924.535449,10881.027347
2700.677711,-842.705048,-2294.638420,11325.150913
2700.678040,76.609550,-1702.473667,10955.047942
2700.678369,842.705048,222.061783,9474.636058
2700.678699,919.314598,2294.638420,8438.347739
2700.679028,1838.629195,814.226536,8586.388927
2700.679357,3217.601092,1184.329507,7550.100608
2700.679686,3217.601092,2072.576638,7105.977043
2700.680015,2528.115143,888.247130,7846.182985
2700.680344,2145.067394,666.185348,8216.285956
2700.680674,536.266849,666.185348,8216.285956
2700.681003,-766.095498,-444.123565,8956.491898
2700.681332,-995.924147,-2368.659014,10807.006753
2700.681661,-1532.190996,-2220.617826,10288.862594
2700.681990,-2221.676944,-1628.453072,9918.759623
2700.682319,-2757.943793,-1110.308913,11029.068536
2700.682649,-1455.581446,-2368.659014,11103.089130
2700.682978,-612.876398,-444.123565,9548.656652
2700.683307,-229.828649,1480.411884,9326.594869
2700.683636,1149.143247,888.247130,8734.430116
2700.683965,2528.115143,1332.370696,7402.059420
2700.684295,3294.210641,2072.576638,7254.018232
2700.684624,2528.115143,1406.391290,7254.018232
2700.684953,1915.238745,-888.247130,8290.306550
2700.685282,1149.143247,666.185348,7105.977043
2700.685611,-383.047749,518.144159,8660.409521
2700.685940,-1072.533697,-370.102971,9474.636058
2700.686270,-1378.971896,-2738.761985,9770.718434
2700.686599,-2221.676944,-2590.720797,10510.924376
2700.686928,-2757.943793,-2220.617826,10955.047942
2700.687257,-1915.238745,-3034.844362,11251.130318
2700.687586,-1072.533697,-1628.453072,9548.656652
2700.687916,0.000000,1184.329507,9622.677246
2700.688245,1225.752797,222.061783,9844.739029
2700.688574,2374.896044,592.164754,7402.059420
2700.688903,3830.477490,1776.494261,7920.203579
2700.689232,3983.696590,2146.597232,7476.080014
2700.689561,2298.286494,1628.453072,7846.182985
2700.689891,3064.381992,1258.350101,8290.306550
2700.690220,1378.971896,2072.576638,7402.059420
2700.690549,459.657299,370.102971,8586.388927
2700.690878,-153.219100,-2072.576638,9548.656652
2700.691207,-919.314598,-2368.659014,9474.636058
2700.691536,-2374.896044,-2072.576638,11547.212695
2700.691866,-2374.896044,-3552.988522,11621.233289
2700.692195,-2221.676944,-2442.679609,11029.068536
2700.692524,-1685.410096,-74.020594,9696.697840
2700.692853,-995.924147,888.247130,9104.533087
2700.693182,766.095498,296.082377,9104.533087
2700.693511,2911.162892,1036.288319,8586.388927
2700.693841,3907.087040,2072.576638,7328.038826
2700.694170,3064.381992,1184.329507,7772.162391
2700.694499,1685.410096,1406.391290,6957.935855
2700.694828,842.705048,2072.576638,7772.162391
2700.695157,306.438199,2294.638420,8216.285956
2700.695486,-383.047749,-740.205942,8808.450710
2700.695816,-995.924147,-1776.494261,9030.512492
2700.696145,-1838.629195,-2146.597232,10658.965565
2700.696474,-2604.724693,-3108.864956,11251.130318
2700.696803,-2604.724693,-3330.926739,10584.944971
2700.697132,-2681.334243,-1406.391290,10584.944971
2700.697461,-1455.581446,-148.041188,9548.656652
2700.697791,-229.828649,296.082377,9474.636058
2700.698120,2068.457845,-0.000000,8808.450710
2700.698449,2987.772442,1628.453072,7254.018232
2700.698778,3064.381992,1924.535449,7624.121203
2700.699107,2834.553343,1184.329507,7624.121203
2700.699436,2145.067394,1924.535449,7031.956449
2700.699766,1532.190996,2886.803174,7328.038826
2700.700095,459.657299,148.041188,9178.553681
2700.700424,0.000000,-2146.597232,9918.759623
2700.700753,-995.924147,-2072.576638,8660.409521
2700.701082,-1762.019645,-2294.638420,11103.089130
2700.701411,-1991.848295,-3182.885551,10955.047942
2700.701741,-2374.896044,-1924.535449,10584.944971
2700.702070,-2145.067394,222.061783,10732.986159
2700.702399,-536.266849,-740.205942,9770.718434
2700.702728,1608.800546,888.247130,9326.594869
2700.703057,3064.381992,1332.370696,7328.038826
2700.703386,3447.429741,2664.741391,7698.141797
2700.703716,3370.820191,2072.576638,8882.471304
2700.704045,2834.553343,2220.617826,7402.059420
2700.704374,919.314598,3256.906145,7105.977043
2700.704703,689.485948,2146.597232,8290.306550
2700.705032,612.876398,-74.020594,7994.224174
2700.705361,-459.657299,-2294.638420,10436.903782
2700.705691,-1838.629195,-1628.453072,10214.842000
2700.706020,-2451.505594,-4959.379811,11177.109724
2700.706349,-2757.943793,-2664.741391,10955.047942
2700.706678,-2374.896044,-740.205942,10658.965565
2700.707007,-2068.457845,-1776.494261,10732.986159
2700.707336,0.000000,-222.061783,9104.533087
2700.707666,2374.896044,370.102971,7698.141797
2700.707995,2681.334243,1924.535449,8364.327145
2700.708324,2757.943793,1628.453072,8364.327145
2700.708653,3064.381992,-0.000000,6809.894666
2700.708982,1378.971896,1850.514855,6439.791695
2700.709311,689.485948,1702.473667,8438.347739
2700.709641,153.219100,-444.123565,8882.471304
2700.709970,-229.828649,-2368.659014,9696.697840
2700.710299,-1608.800546,-1258.350101,9252.574275
2700.710628,-1762.019645,-3627.009116,11325.150913
2700.710957,-2298.286494,-3627.009116,10955.047942
2700.711286,-2221.676944,-1702.473667,10584.944971
2700.711616,-1378.971896,-962.267725,10066.800811
2700.711945,76.609550,-740.205942,9474.636058
2700.712274,2451.505594,370.102971,9030.512492
2700.712603,3140.991542,2368.659014,7402.059420
2700.712932,3294.210641,1406.391290,8290.306550
2700.713261,3294.210641,1702.473667,7772.162391
2700.713591,1915.238745,1924.535449,6957.935855
2700.713920,842.705048,3182.885551,8068.244768
2700.714249,1685.410096,1036.288319,8142.265362
2700.714578,1762.019645,-0.000000,7920.203579
2700.714907,-306.438199,-1850.514855,9992.780217
2700.715236,-689.485948,-1924.535449,9696.697840
2700.715566,-1532.190996,-3330.926739,10881.027347
2700.715895,-1532.190996,-3182.885551,11695.253884
2700.716224,-2451.505594,222.061783,10066.800811
2700.716553,-1072.533697,-740.205942,9992.780217
2700.716882,76.609550,370.102971,9178.553681
2700.717211,2298.286494,1036.288319,8290.306550
2700.717541,2374.896044,1184.329507,8438.347739
2700.717870,2528.115143,962.267725,8512.368333
2700.718199,2374.896044,2294.638420,7105.977043
2700.718528,612.876398,1628.453072,6809.894666
2700.718857,383.047749,1110.308913,9252.574275
2700.719186,612.876398,-1110.308913,8956.491898
2700.719516,0.000000,-1258.350101,9252.574275
2700.719845,-842.705048,-1036.288319,9104.533087
2700.720174,-1455.581446,-3923.091493,10807.006753
2700.720503,-1915.238745,-2146.597232,10214.842000
2700.720832,-1685.410096,-2368.659014,9918.759623
2700.721161,-1838.629195,-1480.411884,9992.780217
2700.721491,0.000000,-1036.288319,9622.677246
2700.721820,1455.581446,-740.205942,8364.327145
2700.722149,2068.457845,1554.432478,7920.203579
2700.722478,2604.724693,740.205942,8364.327145
2700.722807,2374.896044,-296.082377,8216.285956
2700.723136,842.705048,2368.659014,7550.100608
2700.723466,536.266849,1628.453072,8142.265362
2700.723795,919.314598,-0.000000,8438.347739
2700.724124,766.095498,-0.000000,8290.306550
2700.724453,0.000000,-1480.411884,9474.636058
2700.724782,-766.095498,-2516.700203,10881.027347
2700.725111,-1762.019645,-2368.659014,10066.800811
2700.725441,-1149.143247,-888.247130,9474.636058
2700.725770,-1225.752797,1258.350101,9326.594869
2700.726099,-153.219100,-74.020594,9474.636058
2700.726428,1072.533697,888.247130,8808.450710
2700.726757,1838.629195,1258.350101,8808.450710
2700.727086,2068.457845,1036.288319,8512.368333
2700.727416,1838.629195,962.267725,7179.997637
2700.727745,1378.971896,1702.473667,8142.265362
2700.728074,0.000000,2516.700203,9326.594869
2700.728403,0.000000,814.226536,8734.430116
2700.728732,0.000000,-518.144159,8956.491898
2700.729061,-689.485948,-444.123565,9252.574275
2700.729391,-1072.533697,-666.185348,9992.780217
2700.729720,-766.095498,-1480.411884,9696.697840
2700.730049,-1072.533697,-74.020594,8882.471304
2700.730378,-1378.971896,-0.000000,10362.883188
2700.730707,-536.266849,-1110.308913,10362.883188
2700.731036,766.095498,-1036.288319,9252.574275
2700.731366,1762.019645,296.082377,8586.388927
2700.731695,1532.190996,518.144159,8956.491898
2700.732024,1378.971896,666.185348,8808.450710
2700.732353,1455.581446,1406.391290,7920.203579
2700.732682,0.000000,1924.535449,8290.306550
2700.733011,-383.047749,740.205942,9178.553681
2700.733341,459.657299,-148.041188,9474.636058
2700.733670,0.000000,-1406.391290,9178.553681
2700.733999,-766.095498,-1776.494261,10288.862594
2700.734328,-536.266849,-3775.050304,10881.027347
2700.734657,-459.657299,-2886.803174,9548.656652
2700.734986,-306.438199,-666.185348,8734.430116
2700.735316,0.000000,518.144159,9400.615463
2700.735645,1302.362347,-148.041188,8882.471304
2700.735974,2528.115143,1924.535449,7402.059420
2700.736303,2451.505594,962.267725,8068.244768
2700.736632,1149.143247,370.102971,9400.615463
2700.736961,1915.238745,296.082377,8438.347739
2700.737291,306.438199,962.267725,7624.121203
2700.737620,-383.047749,444.123565,9474.636058
2700.737949,306.438199,-666.185348,9696.697840
2700.738278,0.000000,-1110.308913,9326.594869
2700.738607,-459.657299,-1110.308913,9474.636058
2700.738936,-306.438199,-1702.473667,9696.697840
2700.739266,0.000000,-1184.329507,9400.615463
2700.739595,-536.266849,592.164754,7772.162391
2700.739924,0.000000,1036.288319,8734.430116
2700.740253,612.876398,-0.000000,8734.430116
2700.740582,1225.752797,-0.000000,7846.182985
2700.740911,1378.971896,962.267725,8364.327145
2700.741241,1149.143247,-0.000000,8216.285956
2700.741570,1302.362347,-666.185348,8512.368333
2700.741899,459.657299,814.226536,8882.471304
2700.742228,-766.095498,592.164754,9400.615463
2700.742557,-995.924147,-888.247130,10214.842000
2700.742886,-306.438199,-370.102971,9178.553681
2700.743216,-612.876398,-444.123565,9548.656652
2700.743545,-536.266849,-1406.391290,9918.759623
2700.743874,229.828649,-2368.659014,9474.636058
2700.744203,0.000000,-888.247130,8882.471304
2700.744532,0.000000,888.247130,8216.285956
2700.744861,0.000000,-148.041188,8956.491898
2700.745191,1225.752797,-222.061783,8586.388927
2700.745520,1225.752797,666.185348,8808.450710
2700.745849,1149.143247,-444.123565,9252.574275
2700.746178,383.047749,-592.164754,8290.306550
2700.746507,76.609550,-74.020594,9622.677246
2700.746836,-995.924147,-222.061783,9622.677246
2700.747166,-689.485948,-1110.308913,10510.924376
2700.747495,536.266849,-2072.576638,9622.677246
2700.747824,383.047749,-592.164754,8734.430116
2700.748153,153.219100,-0.000000,9844.739029
2700.748482,1149.143247,-962.267725,9474.636058
2700.748811,1532.190996,666.185348,8364.327145
2700.749141,689.485948,2590.720797,7624.121203
2700.749470,1378.971896,1110.308913,8364.327145
2700.749799,1532.190996,592.164754,8586.388927
2700.750128,1455.581446,518.144159,8512.368333
2700.750457,842.705048,-0.000000,8956.491898
2700.750786,-153.219100,-2072.576638,10510.924376
2700.751116,-612.876398,-1406.391290,9548.656652
2700.751445,-1302.362347,444.123565,9548.656652
2700.751774,-1378.971896,-592.164754,10140.821405
2700.752103,-842.705048,-592.164754,9400.615463
2700.752432,153.219100,-296.082377,9696.697840
2700.752761,0.000000,888.247130,9030.512492
2700.753091,689.485948,-296.082377,8734.430116
2700.753420,1685.410096,888.247130,8364.327145
2700.753749,1378.971896,2220.617826,7328.038826
2700.754078,1302.362347,1776.494261,8364.327145
2700.754407,1838.629195,296.082377,8216.285956
2700.754736,1455.581446,740.205942,7624.121203
2700.755066,612.876398,1258.350101,8586.388927
2700.755395,0.000000,-1184.329507,9548.656652
2700.755724,-1072.533697,-1554.432478,10214.842000
2700.756053,-1685.410096,-1110.308913,9696.697840
2700.756382,-2221.676944,-666.185348,10288.862594
2700.756711,-1072.533697,-1998.556043,10510.924376
2700.757041,-229.828649,-1406.391290,9918.759623
2700.757370,0.000000,148.041188,9252.574275
2700.757699,612.876398,-444.123565,9770.718434
2700.758028,1915.238745,-0.000000,9104.533087
2700.758357,2068.457845,1332.370696,7772.162391
2700.758686,1608.800546,1850.514855,7920.203579
2700.759016,2298.286494,888.247130,7920.203579
2700.759345,2757.943793,-0.000000,8290.306550
2700.759674,2221.676944,444.123565,7994.224174
2700.760003,1302.362347,-1332.370696,8216.285956
2700.760332,0.000000,-2738.761985,9548.656652
2700.760661,-1225.752797,-1258.350101,9474.636058
2700.760991,-2451.505594,-1406.391290,9992.780217
2700.761320,-2221.676944,-1702.473667,10362.883188
2700.761649,-1302.362347,-1998.556043,10214.842000
2700.761978,-1532.190996,-888.247130,9696.697840
2700.762307,-536.266849,-962.267725,10140.821405
2700.762636,1072.533697,-1702.473667,9326.594869
2700.762966,1378.971896,-0.000000,8438.347739
2700.763295,1608.800546,1702.473667,8290.306550
2700.763624,1762.019645,296.082377,8216.285956
2700.763953,1991.848295,1184.329507,7328.038826
2700.764282,2374.896044,1850.514855,7698.141797
2700.764611,1378.971896,1184.329507,7994.224174
2700.764941,153.219100,-222.061783,9252.574275
2700.765270,-536.266849,-1406.391290,9696.697840
2700.765599,-1915.238745,-518.144159,9400.615463
2700.765928,-2604.724693,-1776.494261,10658.965565
2700.766257,-2298.286494,-2442.679609,10658.965565
2700.766586,-2221.676944,-2368.659014,10584.944971
2700.766916,-1685.410096,-296.082377,10214.842000
2700.767245,0.000000,-2220.617826,9770.718434
2700.767574,842.705048,592.164754,8512.368333
2700.767903,612.876398,1702.473667,8364.327145
2700.768232,1302.362347,1850.514855,7846.182985
2700.768561,2451.505594,814.226536,8216.285956
2700.768891,3064.381992,1036.288319,7328.038826
2700.769220,2604.724693,1258.350101,7846.182985
2700.769549,1685.410096,-0.000000,8660.409521
2700.769878,995.924147,-1332.370696,8808.450710
2700.770207,-153.219100,-518.144159,8956.491898
2700.770536,-1225.752797,-222.061783,9400.615463
2700.770866,-689.485948,-1998.556043,10214.842000
2700.771195,-995.924147,-888.247130,10140.821405
2700.771524,-995.924147,-814.226536,9992.780217
2700.771853,0.000000,-1258.350101,9178.553681
2700.772182,995.924147,-1258.350101,8956.491898
2700.772511,1455.581446,444.123565,8882.471304
2700.772841,1608.800546,814.226536,8290.306550
2700.773170,2145.067394,666.185348,8586.388927
2700.773499,2757.943793,1480.411884,7179.997637
2700.773828,2298.286494,2368.659014,7624.121203
2700.774157,842.705048,1184.329507,8660.409521
2700.774486,1685.410096,-666.185348,9326.594869
2700.774816,383.047749,-0.000000,8882.471304
2700.775145,-842.705048,-296.082377,8882.471304
2700.775474,-1532.190996,-1702.473667,10436.903782
2700.775803,-1378.971896,-3034.844362,11251.130318
2700.776132,-1838.629195,-1332.370696,9918.759623
2700.776461,-1532.190996,-1776.494261,10362.883188
2700.776791,-383.047749,-222.061783,10288.862594
2700.777120,0.000000,1036.288319,8882.471304
2700.777449,536.266849,2294.638420,7846.182985
2700.777778,919.314598,1776.494261,7994.224174
2700.778107,2451.505594,1036.288319,7994.224174
2700.778436,2298.286494,1480.411884,8216.285956
2700.778766,995.924147,814.226536,8364.327145
2700.779095,995.924147,-296.082377,9030.512492
2700.779424,459.657299,-148.041188,8364.327145
2700.779753,-689.485948,-0.000000,9770.718434
2700.780082,-1532.190996,-1036.288319,10732.986159
2700.780411,-1302.362347,-2146.597232,9696.697840
2700.780741,-1378.971896,-296.082377,9252.574275
2700.781070,-766.095498,-666.185348,10584.944971
2700.781399,-306.438199,-1998.556043,10584.944971
2700.781728,459.657299,-1258.350101,9252.574275
2700.782057,1072.533697,592.164754,8216.285956
2700.782386,1455.581446,666.185348,7698.141797
2700.782716,2834.553343,296.082377,8142.265362
2700.783045,2987.772442,1110.308913,7402.059420
2700.783374,2374.896044,1998.556043,6809.894666
2700.783703,1532.190996,-74.020594,8438.347739
2700.784032,1302.362347,-888.247130,8364.327145
2700.784361,-766.095498,222.061783,8364.327145
2700.784691,-1685.410096,-962.267725,9400.615463
2700.785020,-1838.629195,-2960.823768,9918.759623
2700.785349,-1685.410096,-3034.844362,10807.006753
2700.785678,-1991.848295,-2368.659014,10066.800811
2700.786007,-1455.581446,-2738.761985,11547.212695
2700.786336,0.000000,-1850.514855,9992.780217
2700.786666,536.266849,962.267725,6809.894666
2700.786995,1608.800546,1628.453072,9178.553681
2700.787324,2451.505594,1406.391290,7920.203579
2700.787653,3064.381992,2072.576638,7105.977043
2700.787982,2681.334243,2738.761985,8142.265362
2700.788311,2374.896044,1332.370696,7920.203579
2700.788640,1532.190996,-666.185348,8586.388927
2700.788969,-306.438199,-814.226536,8956.491898
2700.789298,-1685.410096,-740.205942,10214.842000
2700.789627,-2298.286494,-2590.720797,10881.027347
2700.789957,-2451.505594,-2738.761985,10066.800811
2700.790286,-2987.772442,-2072.576638,10881.027347
2700.790615,-2068.457845,-1776.494261,10881.027347
2700.790944,-842.705048,-2442.679609,9844.739029
2700.791273,-229.828649,-370.102971,8882.471304
2700.791602,766.095498,1924.535449,8808.450710
2700.791931,2528.115143,962.267725,8142.265362
2700.792260,3370.820191,814.226536,7550.100608
2700.792589,3294.210641,2146.597232,7328.038826
2700.792918,2757.943793,1406.391290,7698.141797
2700.793247,2068.457845,666.185348,8216.285956
2700.793576,1915.238745,1110.308913,7328.038826
2700.793905,0.000000,1036.288319,7772.162391
2700.794234,-1302.362347,-1036.288319,9770.718434
2700.794563,-1378.971896,-2072.576638,10066.800811
2700.794893,-2451.505594,-2368.659014,10881.027347
2700.795222,-2528.115143,-2960.823768,10955.047942
2700.795551,-1991.848295,-2886.803174,11177.109724
2700.795880,-1072.533697,-1924.535449,10362.883188
2700.796209,-306.438199,888.247130,8586.388927
2700.796538,1532.190996,296.082377,8882.471304
2700.796867,3064.381992,1036.288319,8068.244768
2700.797196,3600.648841,1702.473667,7031.956449
2700.797525,2604.724693,2516.700203,7846.182985
2700.797854,1991.848295,1554.432478,7994.224174
2700.798183,1915.238745,1924.535449,7328.038826
2700.798512,995.924147,1924.535449,7624.121203
2700.798841,-459.657299,444.123565,8586.388927
2700.799170,-1225.752797,-3478.967927,11029.068536
2700.799499,-1838.629195,-2516.700203,9992.780217
2700.799828,-2221.676944,-1998.556043,11177.109724
2700.800158,-2604.724693,-3701.029710,12213.398043
2700.800487,-2604.724693,-2146.597232,10881.027347
2700.800816,-1072.533697,370.102971,9252.574275
2700.801145,-153.219100,1258.350101,8882.471304
2700.801474,1762.019645,740.205942,8734.430116
2700.801803,3524.039291,1924.535449,8660.409521
2700.802132,3370.820191,1554.432478,7550.100608
2700.802461,2374.896044,814.226536,7328.038826
2700.802790,2221.676944,666.185348,7476.080014
2700.803119,1225.752797,1998.556043,7698.141797
2700.803448,-612.876398,1406.391290,8808.450710
2700.803777,-612.876398,-1036.288319,9696.697840
2700.804106,-689.485948,-2072.576638,9992.780217
2700.804435,-3294.210641,-2220.617826,11177.109724
2700.804764,-2681.334243,-3034.844362,11473.192101
2700.805094,-2221.676944,-3182.885551,11325.150913
2700.805423,-1991.848295,-1554.432478,9474.636058
2700.805752,-383.047749,-0.000000,9548.656652
2700.806081,1608.800546,-0.000000,8882.471304
2700.806410,2911.162892,666.185348,7846.182985
2700.806739,3217.601092,2368.659014,7328.038826
2700.807068,2604.724693,1776.494261,7328.038826
2700.807397,2145.067394,1184.329507,7624.121203
2700.807726,1685.410096,3256.906145,7254.018232
2700.808055,842.705048,2368.659014,7772.162391
2700.808384,689.485948,1332.370696,7328.038826
2700.808713,1378.971896,-888.247130,8216.285956
2700.809042,-536.266849,-3627.009116,10955.047942
2700.809371,-1991.848295,-2072.576638,10362.883188
2700.809700,-1915.238745,-3552.988522,11843.295072
2700.810029,-2451.505594,-2368.659014,10214.842000
2700.810359,-2681.334243,814.226536,10584.944971
2700.810688,0.000000,148.041188,9844.739029
2700.811017,919.314598,296.082377,7698.141797
2700.811346,2451.505594,2146.597232,7920.203579
2700.811675,3140.991542,2368.659014,8216.285956
2700.812004,2451.505594,1332.370696,7624.121203
2700.812333,1532.190996,1628.453072,8068.244768
2700.812662,612.876398,2294.638420,6735.874072
2700.812991,153.219100,666.185348,8882.471304
2700.813320,0.000000,-888.247130,9918.759623
2700.813649,0.000000,-1924.535449,10140.821405
2700.813978,-1991.848295,-1702.473667,9844.739029
2700.814307,-2068.457845,-3182.885551,10881.027347
2700.814636,-2221.676944,-1628.453072,10436.903782
2700.814965,-1991.848295,-296.082377,10584.944971
2700.815295,-1455.581446,444.123565,9770.718434
2700.815624,1302.362347,-518.144159,9474.636058
2700.815953,2757.943793,1332.370696,7994.224174
2700.816282,2757.943793,2442.679609,7920.203579
2700.816611,3217.601092,740.205942,8586.388927
2700.816940,2145.067394,444.123565,7994.224174
2700.817269,1532.190996,2146.597232,7328.038826
2700.817598,842.705048,2442.679609,7920.203579
2700.817927,1225.752797,518.144159,8586.388927
2700.818256,995.924147,-74.020594,8734.430116
2700.818585,0.000000,-2368.659014,9400.615463
2700.818914,-1455.581446,-2442.679609,10955.047942
2700.819243,-995.924147,-4145.153275,11251.130318
2700.819572,-1915.238745,-1998.556043,10066.800811
2700.819901,-842.705048,-222.061783,10510.924376
2700.820230,1072.533697,-518.144159,9326.594869
2700.820560,2451.505594,296.082377,8734.430116
2700.820889,2604.724693,1554.432478,7624.121203
2700.821218,3370.820191,1924.535449,8734.430116
2700.821547,2298.286494,1924.535449,7105.977043
2700.821876,1302.362347,2220.617826,6809.894666
2700.822205,536.266849,2368.659014,7994.224174
2700.822534,1149.143247,-740.205942,9548.656652
2700.822863,-229.828649,-2294.638420,9474.636058
2700.823192,-1225.752797,-1850.514855,9474.636058
2700.823521,-2451.505594,-2590.720797,11177.109724
2700.823850,-1762.019645,-4367.215058,12065.356855
2700.824179,-2068.457845,-1258.350101,10362.883188
2700.824508,-1378.971896,-518.144159,9548.656652
2700.824837,0.000000,-222.061783,9622.677246
2700.825166,1072.533697,-0.000000,8882.471304
2700.825496,2604.724693,740.205942,8364.327145
2700.825825,3064.381992,2146.597232,7550.100608
2700.826154,2681.334243,518.144159,7772.162391
2700.826483,995.924147,1480.411884,7476.080014
2700.826812,306.438199,1776.494261,7328.038826
2700.827141,0.000000,-592.164754,9548.656652
2700.827470,229.828649,-1924.535449,9548.656652
2700.827799,-1149.143247,-1332.370696,8290.306550
2700.828128,-2068.457845,-2812.782580,10584.944971
2700.828457,-2451.505594,-3478.967927,10881.027347
2700.828786,-1991.848295,-2812.782580,11177.109724
2700.829115,-2374.896044,-1850.514855,9918.759623
2700.829444,-229.828649,-148.041188,9992.780217
2700.829773,1378.971896,-1110.308913,9474.636058
2700.830102,2757.943793,1480.411884,7105.977043
2700.830431,3447.429741,1332.370696,8808.450710
2700.830761,2987.772442,1110.308913,7846.182985
2700.831090,1838.629195,1184.329507,7402.059420
2700.831419,1149.143247,3478.967927,7550.100608
2700.831748,536.266849,1702.473667,7476.080014
2700.832077,1149.143247,1480.411884,7550.100608
2700.832406,1915.238745,-0.000000,8808.450710
2700.832735,-919.314598,-2442.679609,10658.965565
2700.833064,-1915.238745,-2886.803174,10584.944971
2700.833393,-2068.457845,-1184.329507,10066.800811
2700.833722,-2298.286494,-3034.844362,11473.192101
2700.834051,-3370.820191,814.226536,9696.697840
2700.834380,-919.314598,-1628.453072,11177.109724
2700.834709,0.000000,-0.000000,8438.347739
2700.835038,612.876398,1702.473667,8808.450710
2700.835367,2451.505594,1258.350101,8586.388927
2700.835696,2834.553343,1258.350101,7846.182985
2700.836026,1302.362347,2738.761985,7698.141797
2700.836355,689.485948,2738.761985,7105.977043
2700.836684,842.705048,1406.391290,8512.368333
2700.837013,612.876398,592.164754,9104.533087
2700.837342,383.047749,-222.061783,8956.491898
2700.837671,-995.924147,-814.226536,9326.594869
2700.838000,-1225.752797,-2072.576638,10362.883188
2700.838329,-1991.848295,-1776.494261,10214.842000
2700.838658,-2681.334243,-1110.308913,10140.821405
2700.838987,-1762.019645,-1184.329507,11177.109724
2700.839316,306.438199,-370.102971,9622.677246
2700.839645,919.314598,518.144159,9474.636058
2700.839974,1608.800546,814.226536,9252.574275
2700.840303,2374.896044,148.041188,8882.471304
2700.840632,2068.457845,1332.370696,7994.224174
2700.840962,1838.629195,2220.617826,8216.285956
2700.841291,1762.019645,1406.391290,8142.265362
2700.841620,2221.676944,962.267725,8808.450710
2700.841949,1532.190996,444.123565,8290.306550
2700.842278,229.828649,-1184.329507,9252.574275
2700.842607,-536.266849,-2886.803174,9696.697840
2700.842936,-536.266849,-2220.617826,10214.842000
2700.843265,-1378.971896,-888.247130,10214.842000
2700.843594,-1225.752797,-1258.350101,10362.883188
2700.843923,306.438199,-1628.453072,10362.883188
2700.844252,1149.143247,-0.000000,9326.594869
2700.844581,1608.800546,814.226536,8290.306550
2700.844910,2374.896044,-0.000000,8734.430116
2700.845239,2068.457845,962.267725,8364.327145
2700.845568,1608.800546,1776.494261,8290.306550
2700.845897,919.314598,444.123565,7920.203579
2700.846227,1455.581446,-888.247130,8882.471304
2700.846556,766.095498,-518.144159,8142.265362
2700.846885,0.000000,-666.185348,9030.512492
2700.847214,-536.266849,-1702.473667,9400.615463
2700.847543,-995.924147,-1702.473667,8808.450710
2700.847872,-1149.143247,-666.185348,9696.697840
2700.848201,-1225.752797,-888.247130,9326.594869
2700.848530,-459.657299,-1998.556043,8734.430116
2700.848859,383.047749,-1258.350101,8956.491898
2700.849188,689.485948,-0.000000,8586.388927
2700.849517,1225.752797,-222.061783,8956.491898
2700.849846,995.924147,-1184.329507,8216.285956
2700.850175,459.657299,740.205942,7772.162391
2700.850504,153.219100,518.144159,8882.471304
2700.850833,919.314598,-222.061783,8364.327145
2700.851163,919.314598,-0.000000,8216.285956
2700.851492,153.219100,-296.082377,9178.553681
2700.851821,-306.438199,-1406.391290,9474.636058
2700.852150,-383.047749,-1850.514855,9030.512492
2700.852479,-1149.143247,-1480.411884,8882.471304
2700.852808,-612.876398,222.061783,8364.327145
2700.853137,229.828649,-1258.350101,9696.697840
2700.853466,0.000000,-296.082377,8956.491898
2700.853795,766.095498,592.164754,8808.450710
2700.854124,1149.143247,740.205942,9104.533087
2700.854453,842.705048,-296.082377,8734.430116
2700.854782,1685.410096,1184.329507,8808.450710
2700.855111,306.438199,962.267725,8660.409521
2700.855440,1072.533697,-0.000000,10066.800811
2700.855769,919.314598,-518.144159,9844.739029
2700.856098,689.485948,-888.247130,9326.594869
2700.856428,0.000000,222.061783,9770.718434
2700.856757,383.047749,-888.247130,9770.718434
2700.857086,383.047749,518.144159,8808.450710
2700.857415,0.000000,1554.432478,8808.450710
2700.857744,76.609550,370.102971,9622.677246
2700.858073,536.266849,-74.020594,9474.636058
2700.858402,689.485948,518.144159,8438.347739
2700.858731,612.876398,-296.082377,8882.471304
2700.859060,383.047749,-592.164754,9844.739029
2700.859389,153.219100,-518.144159,9178.553681
2700.859718,-229.828649,592.164754,9178.553681
2700.860047,-459.657299,-0.000000,10066.800811
2700.860376,689.485948,-1110.308913,9326.594869
2700.860705,383.047749,592.164754,9104.533087
2700.861034,306.438199,148.041188,9548.656652
2700.861364,306.438199,-592.164754,9030.512492
2700.861693,842.705048,-0.000000,8586.388927
2700.862022,229.828649,370.102971,8586.388927
2700.862351,536.266849,222.061783,8734.430116
2700.862680,536.266849,-592.164754,8586.388927
2700.863009,842.705048,-740.205942,8512.368333
2700.863338,306.438199,1110.308913,8068.244768
2700.863667,0.000000,-1924.535449,8808.450710
2700.863996,0.000000,-1332.370696,9400.615463
2700.864325,-383.047749,-518.144159,9326.594869
2700.864654,-842.705048,-740.205942,9104.533087
2700.864983,459.657299,-2294.638420,9474.636058
2700.865312,766.095498,-666.185348,8882.471304
2700.865641,766.095498,740.205942,8956.491898
2700.865970,1149.143247,-0.000000,9474.636058
2700.866299,1608.800546,-444.123565,8290.306550
2700.866629,1685.410096,1850.514855,7920.203579
2700.866958,1378.971896,1554.432478,8216.285956
2700.867287,1455.581446,-74.020594,8364.327145
2700.867616,1378.971896,222.061783,8216.285956
2700.867945,1455.581446,-0.000000,8512.368333
2700.868274,153.219100,-296.082377,9400.615463
2700.868603,-306.438199,-1998.556043,9474.636058
2700.868932,-536.266849,-1332.370696,9252.574275
2700.869261,-919.314598,-888.247130,9992.780217
2700.869590,-306.438199,-1776.494261,9992.780217
2700.869919,0.000000,-1332.370696,9622.677246
2700.870248,0.000000,-0.000000,9770.718434
2700.870577,536.266849,-0.000000,9252.574275
2700.870906,1225.752797,-74.020594,9178.553681
2700.871235,1455.581446,962.267725,7550.100608
2700.871565,1225.752797,1184.329507,7846.182985
2700.871894,1455.581446,518.144159,8956.491898
2700.872223,1072.533697,-1036.288319,8586.388927
2700.872552,536.266849,-444.123565,8290.306550
2700.872881,-153.219100,-962.267725,9030.512492
2700.873210,-1149.143247,-2220.617826,9178.553681
2700.873539,-1762.019645,-1998.556043,9992.780217
2700.873868,-1838.629195,-444.123565,9400.615463
2700.874197,-1608.800546,-1850.514855,9918.759623
2700.874526,-612.876398,-1776.494261,9918.759623
2700.874855,-306.438199,-666.185348,9400.615463
2700.875184,-536.266849,-518.144159,10140.821405
2700.875513,1072.533697,-1258.350101,9474.636058
2700.875842,1072.533697,-74.020594,8290.306550
2700.876171,1532.190996,1332.370696,8364.327145
2700.876500,1455.581446,1110.308913,8586.388927
2700.876830,2298.286494,-0.000000,8734.430116
2700.877159,2068.457845,1258.350101,7624.121203
2700.877488,1532.190996,1110.308913,8438.347739
2700.877817,459.657299,-814.226536,8956.491898
2700.878146,-383.047749,-1480.411884,9252.574275
2700.878475,-306.438199,-740.205942,9622.677246
2700.878804,-1378.971896,-1850.514855,10732.986159
2700.879133,-459.657299,-1406.391290,9400.615463
2700.879462,-612.876398,-518.144159,9474.636058
2700.879791,-842.705048,592.164754,10066.800811
2700.880120,0.000000,592.164754,9548.656652
2700.880449,1225.752797,370.102971,8142.265362
2700.880778,689.485948,1480.411884,8512.368333
2700.881107,1762.019645,2146.597232,8438.347739
2700.881436,1915.238745,-370.102971,8364.327145
2700.881766,2068.457845,444.123565,7772.162391
2700.882095,1762.019645,962.267725,8216.285956
2700.882424,689.485948,-148.041188,8586.388927
2700.882753,0.000000,-1110.308913,9400.615463
2700.883082,-306.438199,-370.102971,9400.615463
2700.883411,-995.924147,-74.020594,9474.636058
2700.883740,-995.924147,-1628.453072,9400.615463
2700.884069,-1149.143247,-1702.473667,10140.821405
2700.884398,-1455.581446,-592.164754,9770.718434
2700.884727,-842.705048,-1036.288319,10140.821405
2700.885056,536.266849,-1110.308913,9104.533087
2700.885385,689.485948,444.123565,8734.430116
2700.885714,1532.190996,1776.494261,8660.409521
2700.886043,1455.581446,296.082377,8512.368333
2700.886372,2757.943793,518.144159,8290.306550
2700.886701,2528.115143,2368.659014,7328.038826
2700.887030,1455.581446,1554.432478,7698.141797
2700.887359,689.485948,-0.000000,9178.553681
2700.887688,689.485948,-74.020594,9400.615463
2700.888017,-306.438199,-296.082377,8956.491898
2700.888347,-995.924147,-814.226536,10362.883188
2700.888676,-1072.533697,-1924.535449,10658.965565
2700.889005,-995.924147,-814.226536,10362.883188
2700.889334,-995.924147,-296.082377,10436.903782
2700.889663,0.000000,-888.247130,9992.780217
2700.889992,1378.971896,-222.061783,8956.491898
2700.890321,1685.410096,2072.576638,8512.368333
2700.890650,2068.457845,1554.432478,8734.430116
2700.890979,2528.115143,1258.350101,8068.244768
2700.891308,3064.381992,2072.576638,8142.265362
2700.891637,2374.896044,2294.638420,8142.265362
2700.891966,1838.629195,740.205942,8216.285956
2700.892295,2298.286494,814.226536,7772.162391
2700.892624,612.876398,740.205942,8068.244768
2700.892953,-1072.533697,-666.185348,10288.862594
2700.893282,-1225.752797,-2220.617826,10140.821405
2700.893611,-1455.581446,-2664.741391,10362.883188
2700.893940,-2528.115143,-1258.350101,11251.130318
2700.894269,-2681.334243,-1924.535449,10584.944971
2700.894598,-919.314598,-1480.411884,9548.656652
2700.894927,-153.219100,518.144159,9252.574275
2700.895256,766.095498,740.205942,8882.471304
2700.895585,1838.629195,-148.041188,8216.285956
2700.895914,2374.896044,962.267725,7328.038826
2700.896243,2604.724693,1998.556043,6587.832884
2700.896572,1991.848295,444.123565,7698.141797
2700.896901,1072.533697,-1628.453072,9030.512492
2700.897230,612.876398,-1332.370696,8882.471304
2700.897559,-1072.533697,-1924.535449,9326.594869
2700.897888,-1455.581446,-4219.173869,10362.883188
2700.898217,-1915.238745,-4219.173869,10584.944971
2700.898546,-2528.115143,-3404.947333,10881.027347
2700.898875,-2451.505594,-3775.050304,11473.192101
2700.899204,-842.705048,-3034.844362,9918.759623
2700.899533,0.000000,-1850.514855,9178.553681
2700.899862,766.095498,-222.061783,8512.368333
2700.900191,2145.067394,-1258.350101,8808.450710
2700.900520,3370.820191,-814.226536,7402.059420
2700.900849,3830.477490,-0.000000,6587.832884
2700.901178,2757.943793,592.164754,7179.997637
2700.901507,1991.848295,-1776.494261,7624.121203
2700.901836,842.705048,-2368.659014,8956.491898
2700.902165,306.438199,-2146.597232,9030.512492
2700.902494,-766.095498,-3923.091493,9104.533087
2700.902823,-1762.019645,-5107.421000,10510.924376
2700.903152,-1838.629195,-4885.359217,11103.089130
2700.903481,-2451.505594,-4071.132681,10214.842000
2700.903810,-1915.238745,-4293.194464,10510.924376
2700.904139,-459.657299,-3256.906145,10140.821405
2700.904468,1378.971896,-2072.576638,8808.450710
2700.904797,1378.971896,-518.144159,7328.038826
2700.905126,2451.505594,-1702.473667,7994.224174
2700.905455,3447.429741,-592.164754,7105.977043
2700.905784,3753.867940,592.164754,6809.894666
2700.906113,2221.676944,592.164754,6661.853478
2700.906442,689.485948,-2368.659014,8068.244768
2700.906771,-229.828649,-3552.988522,9178.553681
2700.907100,-383.047749,-4515.256246,9400.615463
2700.907429,-1838.629195,-5403.503377,10140.821405
2700.907758,-2987.772442,-5995.668130,10436.903782
2700.908087,-2757.943793,-5921.647536,11917.315666
2700.908416,-2221.676944,-4589.276840,11399.171507
2700.908745,-1838.629195,-4663.297435,9770.718434
2700.909074,-919.314598,-3478.967927,10510.924376
2700.909403,919.314598,-2072.576638,9104.533087
2700.909732,2911.162892,-370.102971,7994.224174
2700.910061,3217.601092,-1036.288319,7105.977043
2700.910390,2604.724693,-740.205942,7550.100608
2700.910719,2834.553343,-1110.308913,8216.285956
2700.911048,2681.334243,-1406.391290,7105.977043
2700.911377,2298.286494,-2664.741391,7476.080014
2700.911706,459.657299,-3552.988522,9474.636058
2700.912035,-995.924147,-4737.318029,10214.842000
2700.912364,-842.705048,-6291.750507,10510.924376
2700.912693,-1685.410096,-4885.359217,9992.780217
2700.913022,-2451.505594,-3701.029710,10510.924376
2700.913351,-2911.162892,-2738.761985,10732.986159
2700.913680,-1378.971896,-3775.050304,10362.883188
2700.914009,995.924147,-2812.782580,9474.636058
2700.914338,1915.238745,-2442.679609,8956.491898
2700.914667,2374.896044,-2146.597232,8364.327145
2700.914996,2374.896044,-2072.576638,8364.327145
2700.915325,3140.991542,-1036.288319,7994.224174
2700.915654,3370.820191,-74.020594,7105.977043
2700.915983,2451.505594,-222.061783,7328.038826
2700.916312,919.314598,-1628.453072,7476.080014
2700.916641,2374.896044,-2886.803174,8586.388927
2700.916970,2068.457845,-3404.947333,8512.368333
2700.917299,536.266849,-5033.400406,9326.594869
2700.917628,-1838.629195,-5773.606348,10288.862594
2700.917957,-2834.553343,-5255.462188,11399.171507
2700.918286,-3217.601092,-4885.359217,11103.089130
2700.918615,-1991.848295,-4737.318029,9918.759623
2700.918944,-689.485948,-3849.070898,10066.800811
2700.919273,-459.657299,-3404.947333,10066.800811
2700.919602,0.000000,-2146.597232,9178.553681
2700.919931,919.314598,-1776.494261,7994.224174
2700.920260,1685.410096,-2368.659014,7550.100608
2700.920589,2451.505594,-1998.556043,7846.182985
2700.920918,2681.334243,-3404.947333,8068.244768
2700.921247,2451.505594,-4145.153275,8216.285956
2700.921576,2374.896044,-3552.988522,7846.182985
2700.921905,1455.581446,-3478.967927,7254.018232
2700.922234,306.438199,-2442.679609,8882.471304
2700.922563,-383.047749,-2812.782580,9548.656652
2700.922892,-1072.533697,-2812.782580,9622.677246
2700.923221,-1225.752797,-1924.535449,9400.615463
2700.923550,-612.876398,-2886.803174,8808.450710
2700.923879,229.828649,-4219.173869,9770.718434
2700.924208,-383.047749,-4737.318029,10362.883188
2700.924537,0.000000,-5847.626942,10214.842000
2700.924866,76.609550,-4663.297435,9400.615463
2700.925195,76.609550,-3034.844362,8438.347739
2700.925524,383.047749,-1036.288319,8142.265362
2700.925853,-229.828649,-592.164754,8364.327145
2700.926182,995.924147,-1776.494261,8734.430116
2700.926511,1532.190996,-2590.720797,8808.450710
2700.926840,1455.581446,-2812.782580,9104.533087
2700.927169,919.314598,-3182.885551,8882.471304
2700.927498,229.828649,-3849.070898,9252.574275
2700.927827,459.657299,-3997.112087,9326.594869
2700.928156,689.485948,-3997.112087,10066.800811
2700.928485,1302.362347,-3034.844362,9622.677246
2700.928814,842.705048,-2516.700203,9326.594869
2700.929143,306.438199,-2146.597232,8882.471304
2700.929472,229.828649,-2368.659014,8808.450710
2700.929801,-459.657299,-2368.659014,9400.615463
2700.930130,-995.924147,-3108.864956,9770.718434
2700.930459,-689.485948,-3404.947333,9474.636058
2700.930788,153.219100,-4145.153275,9474.636058
2700.931117,919.314598,-4737.318029,9326.594869
2700.931446,1302.362347,-4589.276840,9474.636058
2700.931775,1378.971896,-3108.864956,8512.368333
2700.932104,2298.286494,-2220.617826,7550.100608
2700.932434,2528.115143,-592.164754,7328.038826
2700.932763,4213.525239,-888.247130,6957.935855
2700.933092,3983.696590,-1554.432478,7328.038826
2700.933421,2298.286494,-2960.823768,8142.265362
2700.933750,842.705048,-4441.235652,9178.553681
2700.934079,-919.314598,-4811.338623,10214.842000
2700.934408,-2298.286494,-5181.441594,10955.047942
