#time,accel_x,accel_y,accel_z
2473.835050,306.438199,-148.041188,8956.491898
2473.835379,536.266849,-370.102971,8586.388927
2473.835708,383.047749,-148.041188,9178.553681
2473.836036,76.609550,-222.061783,8808.450710
2473.836365,229.828649,-0.000000,9030.512492
2473.836694,229.828649,-222.061783,8882.471304
2473.837023,306.438199,-74.020594,8808.450710
2473.837352,459.657299,-74.020594,9104.533087
2473.837680,229.828649,-222.061783,9252.574275
2473.838009,459.657299,-222.061783,9252.574275
2473.838338,306.438199,-222.061783,9030.512492
2473.838667,459.657299,-222.061783,9104.533087
2473.838996,536.266849,-148.041188,9104.533087
2473.839324,229.828649,-222.061783,9030.512492
2473.839653,306.438199,-222.061783,9104.533087
2473.839982,383.047749,-518.144159,9178.553681
2473.840311,536.266849,-222.061783,9400.615463
2473.840640,0.000000,-148.041188,9548.656652
2473.840968,459.657299,-148.041188,9104.533087
2473.841297,229.828649,-0.000000,9104.533087
2473.841626,306.438199,-148.041188,9252.574275
2473.841955,383.047749,-296.082377,9178.553681
2473.842284,766.095498,-148.041188,9178.553681
2473.842612,383.047749,-370.102971,9326.594869
2473.842941,229.828649,-518.144159,9326.594869
2473.843270,306.438199,-370.102971,9178.553681
2473.843599,383.047749,-148.041188,9178.553681
2473.843928,536.266849,-148.041188,8956.491898
2473.844256,459.657299,-518.144159,9030.512492
2473.844585,0.000000,-370.102971,9178.553681
2473.844914,459.657299,-148.041188,9252.574275
2473.845243,459.657299,-0.000000,9474.636058
2473.845572,153.219100,-74.020594,9104.533087
2473.845900,383.047749,-0.000000,8956.491898
2473.846229,76.609550,-0.000000,8882.471304
2473.846558,536.266849,-148.041188,8734.430116
2473.846887,306.438199,-148.041188,8660.409521
2473.847216,536.266849,222.061783,9252.574275
2473.847544,306.438199,-148.041188,9252.574275
2473.847873,76.609550,-0.000000,8956.491898
2473.848202,76.609550,-0.000000,9030.512492
2473.848531,306.438199,-74.020594,8808.450710
2473.848859,536.266849,-222.061783,8734.430116
2473.849188,459.657299,-444.123565,9178.553681
2473.849517,842.705048,-222.061783,9178.553681
2473.849846,153.219100,-518.144159,9030.512492
2473.850175,383.047749,-222.061783,9178.553681
2473.850503,306.438199,-0.000000,9104.533087
2473.850832,383.047749,-148.041188,9252.574275
2473.851161,76.609550,-222.061783,9178.553681
2473.851490,612.876398,-148.041188,9252.574275
2473.851819,383.047749,-0.000000,9474.636058
2473.852147,536.266849,-222.061783,9178.553681
2473.852476,383.047749,-222.061783,9326.594869
2473.852805,459.657299,-0.000000,9030.512492
2473.853134,383.047749,-222.061783,9178.553681
2473.853463,306.438199,-74.020594,9400.615463
2473.853791,459.657299,-296.082377,9326.594869
2473.854120,229.828649,-296.082377,9474.636058
2473.854449,229.828649,-222.061783,9326.594869
2473.854778,383.047749,-74.020594,9104.533087
2473.855107,306.438199,-0.000000,9178.553681
2473.855435,229.828649,-0.000000,9178.553681
2473.855764,689.485948,-0.000000,8956.491898
2473.856093,459.657299,-0.000000,9178.553681
2473.856422,153.219100,-296.082377,9104.533087
2473.856751,306.438199,-0.000000,9030.512492
2473.857079,229.828649,-148.041188,8808.450710
2473.857408,229.828649,222.061783,9030.512492
2473.857737,306.438199,-74.020594,8956.491898
2473.858066,306.438199,-0.000000,8956.491898
2473.858395,229.828649,-222.061783,8882.471304
2473.858723,612.876398,-0.000000,8956.491898
2473.859052,536.266849,-148.041188,8734.430116
2473.859381,229.828649,-0.000000,8808.450710
2473.859710,383.047749,-0.000000,8956.491898
2473.860039,153.219100,-0.000000,9178.553681
2473.860367,306.438199,-148.041188,8882.471304
2473.860696,689.485948,-444.123565,9104.533087
2473.861025,383.047749,-222.061783,9178.553681
2473.861354,459.657299,-370.102971,9104.533087
2473.861683,153.219100,-222.061783,9030.512492
2473.862011,306.438199,-222.061783,9178.553681
2473.862340,459.657299,-222.061783,9104.533087
2473.862669,306.438199,-148.041188,9178.553681
2473.862998,459.657299,-370.102971,9030.512492
2473.863327,229.828649,-222.061783,9474.636058
2473.863655,306.438199,-296.082377,9622.677246
2473.863984,0.000000,-370.102971,9178.553681
2473.864313,459.657299,-0.000000,9178.553681
2473.864642,306.438199,-222.061783,9252.574275
2473.864971,383.047749,-0.000000,9326.594869
2473.865299,612.876398,-0.000000,9326.594869
2473.865628,459.657299,-148.041188,9104.533087
2473.865957,919.314598,-370.102971,9178.553681
2473.866286,383.047749,-296.082377,8660.409521
2473.866615,229.828649,-0.000000,8956.491898
2473.866943,229.828649,-148.041188,9178.553681
2473.867272,306.438199,-148.041188,8956.491898
2473.867601,383.047749,-444.123565,9622.677246
2473.867930,1455.581446,-1036.288319,9548.656652
2473.868259,1302.362347,-888.247130,9696.697840
2473.868587,1455.581446,-444.123565,9326.594869
2473.868916,2221.676944,-444.123565,8882.471304
2473.869245,2528.115143,-0.000000,8586.388927
2473.869574,3600.648841,444.123565,8882.471304
2473.869903,4596.572988,-74.020594,8512.368333
2473.870231,3217.601092,296.082377,8290.306550
2473.870560,3370.820191,666.185348,8734.430116
2473.870889,2681.334243,222.061783,8216.285956
2473.871218,2681.334243,-296.082377,9474.636058
2473.871547,2298.286494,-518.144159,9252.574275
2473.871875,1225.752797,-1332.370696,9548.656652
2473.872204,1762.019645,-2146.597232,10140.821405
2473.872533,1991.848295,-1184.329507,9622.677246
2473.872862,2757.943793,-148.041188,9474.636058
2473.873191,2681.334243,-1184.329507,10288.862594
2473.873519,3294.210641,-222.061783,8956.491898
2473.873848,4749.792088,740.205942,9696.697840
2473.874177,5975.544884,888.247130,7105.977043
2473.874506,5056.230287,1480.411884,8216.285956
2473.874834,4903.011187,1110.308913,9326.594869
2473.875163,5515.887586,1184.329507,7031.956449
2473.875492,4136.915689,888.247130,8956.491898
2473.875821,3217.601092,-0.000000,8882.471304
2473.876150,2221.676944,444.123565,9030.512492
2473.876478,1225.752797,-888.247130,10066.800811
2473.876807,1608.800546,-1258.350101,10140.821405
2473.877136,1685.410096,-1628.453072,10288.862594
2473.877465,536.266849,-1480.411884,9992.780217
2473.877794,1608.800546,-740.205942,9918.759623
2473.878122,1685.410096,-518.144159,10362.883188
2473.878451,3217.601092,666.185348,7920.203579
2473.878780,3983.696590,222.061783,9326.594869
2473.879109,4749.792088,1702.473667,8290.306550
2473.879438,5056.230287,592.164754,7920.203579
2473.879766,4979.620737,1406.391290,7920.203579
2473.880095,4519.963438,962.267725,8808.450710
2473.880424,4060.306139,-0.000000,8734.430116
2473.880753,3064.381992,-1184.329507,9178.553681
2473.881082,2145.067394,-1332.370696,9844.739029
2473.881410,1991.848295,-2368.659014,10288.862594
2473.881739,1455.581446,-2368.659014,9918.759623
2473.882068,1378.971896,-1924.535449,9992.780217
2473.882397,1915.238745,-740.205942,9474.636058
2473.882726,2528.115143,-0.000000,8956.491898
2473.883054,2987.772442,1036.288319,7920.203579
2473.883383,3600.648841,1776.494261,8290.306550
2473.883712,3600.648841,2738.761985,7920.203579
2473.884041,3524.039291,2664.741391,7031.956449
2473.884370,2298.286494,2368.659014,7402.059420
2473.884698,1838.629195,1332.370696,8216.285956
2473.885027,229.828649,222.061783,8364.327145
2473.885356,-459.657299,-1258.350101,9474.636058
2473.885685,-1149.143247,-2072.576638,10066.800811
2473.886014,-1378.971896,-2664.741391,10658.965565
2473.886342,-1455.581446,-2886.803174,9992.780217
2473.886671,0.000000,-2664.741391,10584.944971
2473.887000,-153.219100,-1998.556043,10510.924376
2473.887329,459.657299,-1332.370696,10140.821405
2473.887658,766.095498,-962.267725,10807.006753
2473.887986,1762.019645,148.041188,9918.759623
2473.888315,3140.991542,1628.453072,7846.182985
2473.888644,4366.744339,2886.803174,7624.121203
2473.888973,3677.258390,3997.112087,6291.750507
2473.889302,3217.601092,4293.194464,7105.977043
2473.889630,2451.505594,3182.885551,6809.894666
2473.889959,689.485948,1554.432478,7031.956449
2473.890288,-1685.410096,-1110.308913,9622.677246
2473.890617,-1915.238745,-3849.070898,10436.903782
2473.890946,-2221.676944,-3849.070898,9696.697840
2473.891274,-2451.505594,-3701.029710,9178.553681
2473.891603,-1991.848295,-3034.844362,10436.903782
2473.891932,-2451.505594,-3108.864956,11473.192101
2473.892261,-1762.019645,-1184.329507,11843.295072
2473.892590,-766.095498,-740.205942,10732.986159
2473.892918,-536.266849,-74.020594,9918.759623
2473.893247,1149.143247,1776.494261,8660.409521
2473.893576,0.000000,2368.659014,9770.718434
2473.893905,-536.266849,1850.514855,9548.656652
2473.894234,1838.629195,1776.494261,9474.636058
2473.894562,3447.429741,1924.535449,5995.668130
2473.894891,4213.525239,2220.617826,5033.400406
2473.895220,3677.258390,888.247130,5699.585753
2473.895549,1915.238745,-0.000000,6809.894666
2473.895878,2374.896044,-1628.453072,8956.491898
2473.896206,842.705048,-2146.597232,8660.409521
2473.896535,0.000000,-3256.906145,9992.780217
2473.896864,-1532.190996,-3849.070898,11547.212695
2473.897193,-1838.629195,-2368.659014,11251.130318
2473.897522,-1455.581446,-1776.494261,11029.068536
2473.897850,229.828649,-148.041188,10584.944971
2473.898179,383.047749,2590.720797,11103.089130
2473.898508,612.876398,3552.988522,9474.636058
2473.898837,1149.143247,2960.823768,8142.265362
2473.899165,995.924147,1924.535449,7846.182985
2473.899494,1072.533697,1110.308913,7624.121203
2473.899823,306.438199,-370.102971,8290.306550
2473.900152,0.000000,-2294.638420,9104.533087
2473.900481,-919.314598,-3034.844362,9400.615463
2473.900809,-842.705048,-3182.885551,9622.677246
2473.901138,-919.314598,-2812.782580,8364.327145
2473.901467,-229.828649,-2072.576638,9622.677246
2473.901796,-459.657299,-666.185348,9474.636058
2473.902125,459.657299,740.205942,9622.677246
2473.902453,76.609550,1628.453072,9548.656652
2473.902782,0.000000,1850.514855,9474.636058
2473.903111,536.266849,1702.473667,9696.697840
2473.903440,1838.629195,2368.659014,7846.182985
2473.903769,2834.553343,2368.659014,7179.997637
2473.904097,3140.991542,1184.329507,7550.100608
2473.904426,3524.039291,814.226536,7772.162391
2473.904755,2681.334243,-592.164754,8586.388927
2473.905084,1991.848295,-1184.329507,8142.265362
2473.905413,1455.581446,-2072.576638,8216.285956
2473.905741,383.047749,-2590.720797,9770.718434
2473.906070,-459.657299,-1628.453072,9992.780217
2473.906399,-306.438199,-1406.391290,10214.842000
2473.906728,-153.219100,-222.061783,9770.718434
2473.907057,689.485948,740.205942,10066.800811
2473.907385,76.609550,1480.411884,9104.533087
2473.907714,0.000000,1998.556043,9178.553681
2473.908043,0.000000,666.185348,9474.636058
2473.908372,-1455.581446,444.123565,9326.594869
2473.908701,-1532.190996,-74.020594,9548.656652
2473.909029,-1378.971896,-2072.576638,9992.780217
2473.909358,-1072.533697,-2664.741391,9400.615463
2473.909687,-1072.533697,-2812.782580,9474.636058
2473.910016,-766.095498,-2368.659014,9104.533087
2473.910345,-1378.971896,-1480.411884,9178.553681
2473.910673,0.000000,-740.205942,9326.594869
2473.911002,383.047749,888.247130,8586.388927
2473.911331,153.219100,1110.308913,8364.327145
2473.911660,383.047749,1110.308913,9030.512492
2473.911989,1378.971896,1850.514855,8216.285956
2473.912317,1378.971896,1850.514855,8290.306550
2473.912646,1608.800546,1406.391290,8216.285956
2473.912975,1072.533697,1184.329507,8586.388927
2473.913304,919.314598,-74.020594,9178.553681
2473.913633,459.657299,-370.102971,8882.471304
2473.913961,153.219100,-2220.617826,9104.533087
2473.914290,-153.219100,-2220.617826,9696.697840
2473.914619,0.000000,-1924.535449,9474.636058
2473.914948,-1532.190996,-1332.370696,9696.697840
2473.915277,0.000000,-148.041188,9030.512492
2473.915605,0.000000,518.144159,9252.574275
2473.915934,919.314598,814.226536,8216.285956
2473.916263,689.485948,1998.556043,7846.182985
2473.916592,689.485948,1332.370696,8142.265362
2473.916921,689.485948,962.267725,8512.368333
2473.917250,0.000000,592.164754,9178.553681
2473.917579,-766.095498,-888.247130,9252.574275
2473.917908,-536.266849,-1628.453072,9844.739029
2473.918237,-995.924147,-2368.659014,9844.739029
2473.918566,-766.095498,-1480.411884,9696.697840
2473.918894,-536.266849,-1702.473667,9918.759623
2473.919223,-689.485948,-518.144159,9474.636058
2473.919552,153.219100,666.185348,9548.656652
2473.919881,229.828649,740.205942,8808.450710
2473.920210,459.657299,888.247130,8882.471304
2473.920539,229.828649,814.226536,8734.430116
2473.920868,459.657299,296.082377,9770.718434
2473.921197,1149.143247,296.082377,8586.388927
2473.921526,2681.334243,222.061783,8216.285956
2473.921855,2451.505594,296.082377,8068.244768
2473.922184,2298.286494,518.144159,8956.491898
2473.922513,2145.067394,-0.000000,8882.471304
2473.922841,1915.238745,-518.144159,8512.368333
2473.923170,1838.629195,-296.082377,9252.574275
2473.923499,1072.533697,-0.000000,9326.594869
2473.923828,842.705048,-222.061783,8660.409521
2473.924157,536.266849,740.205942,9548.656652
2473.924486,689.485948,592.164754,9030.512492
2473.924815,-229.828649,666.185348,9030.512492
2473.925144,-383.047749,518.144159,8734.430116
2473.925473,-306.438199,-0.000000,8956.491898
2473.925802,-766.095498,-888.247130,9030.512492
2473.926131,-842.705048,-1776.494261,9696.697840
2473.926460,-689.485948,-1924.535449,9400.615463
2473.926789,-459.657299,-1702.473667,9252.574275
2473.927117,-612.876398,-1258.350101,9622.677246
2473.927446,-383.047749,-962.267725,9474.636058
2473.927775,-383.047749,-444.123565,9104.533087
2473.928104,0.000000,222.061783,9400.615463
2473.928433,229.828649,666.185348,8808.450710
2473.928762,-612.876398,1036.288319,8512.368333
2473.929091,76.609550,1258.350101,8660.409521
2473.929420,459.657299,1184.329507,8438.347739
2473.929749,766.095498,518.144159,8068.244768
2473.930078,995.924147,-0.000000,7994.224174
2473.930407,919.314598,-666.185348,8290.306550
2473.930736,1455.581446,-1554.432478,8956.491898
2473.931064,0.000000,-1628.453072,9178.553681
2473.931393,229.828649,-1924.535449,9992.780217
2473.931722,536.266849,-1554.432478,9844.739029
2473.932051,229.828649,-1332.370696,9548.656652
2473.932380,153.219100,-296.082377,9696.697840
2473.932709,689.485948,148.041188,9252.574275
2473.933038,612.876398,962.267725,8882.471304
2473.933367,536.266849,1480.411884,8808.450710
2473.933696,229.828649,1776.494261,8290.306550
2473.934025,-306.438199,1480.411884,8438.347739
2473.934354,-306.438199,222.061783,8512.368333
2473.934683,-612.876398,-814.226536,9104.533087
2473.935012,-995.924147,-1850.514855,9400.615463
2473.935340,-995.924147,-2220.617826,9178.553681
2473.935669,-842.705048,-2590.720797,9770.718434
2473.935998,-766.095498,-1998.556043,9770.718434
2473.936327,-536.266849,-1332.370696,9548.656652
2473.936656,-153.219100,-296.082377,9474.636058
2473.936985,229.828649,370.102971,9326.594869
2473.937314,536.266849,1480.411884,9030.512492
2473.937643,459.657299,1702.473667,8956.491898
2473.937972,383.047749,962.267725,9178.553681
2473.938301,2068.457845,962.267725,8438.347739
2473.938630,2451.505594,1184.329507,7105.977043
2473.938959,2681.334243,888.247130,7476.080014
2473.939287,2451.505594,370.102971,7994.224174
2473.939616,2298.286494,-370.102971,8660.409521
2473.939945,1685.410096,-1258.350101,9178.553681
2473.940274,1455.581446,-1480.411884,9474.636058
2473.940603,536.266849,-1850.514855,9696.697840
2473.940932,536.266849,-1110.308913,9622.677246
2473.941261,153.219100,-0.000000,10140.821405
2473.941590,612.876398,444.123565,9622.677246
2473.941919,536.266849,888.247130,9696.697840
2473.942248,536.266849,1332.370696,9844.739029
2473.942577,919.314598,1258.350101,9030.512492
2473.942906,0.000000,666.185348,9326.594869
2473.943235,-306.438199,-222.061783,9326.594869
2473.943563,-536.266849,-962.267725,9474.636058
2473.943892,-1072.533697,-1628.453072,9548.656652
2473.944221,-919.314598,-1998.556043,9474.636058
2473.944550,-995.924147,-1924.535449,9400.615463
2473.944879,-153.219100,-1480.411884,9178.553681
2473.945208,0.000000,-1036.288319,9326.594869
2473.945537,0.000000,-148.041188,9104.533087
2473.945866,459.657299,888.247130,8734.430116
2473.946195,383.047749,1332.370696,8512.368333
2473.946524,689.485948,1406.391290,8660.409521
2473.946853,1149.143247,1258.350101,8142.265362
2473.947182,1838.629195,1332.370696,7994.224174
2473.947510,1991.848295,370.102971,7550.100608
2473.947839,1762.019645,-0.000000,8290.306550
2473.948168,995.924147,-814.226536,8882.471304
2473.948497,459.657299,-1258.350101,8882.471304
2473.948826,76.609550,-2146.597232,9474.636058
2473.949155,-536.266849,-2072.576638,9622.677246
2473.949484,-689.485948,-1776.494261,9622.677246
2473.949813,0.000000,-1036.288319,9474.636058
2473.950142,76.609550,-222.061783,8956.491898
2473.950471,0.000000,296.082377,9474.636058
2473.950800,0.000000,1036.288319,8586.388927
2473.951129,306.438199,1406.391290,8438.347739
2473.951458,536.266849,1036.288319,8290.306550
2473.951786,229.828649,148.041188,8438.347739
2473.952115,383.047749,-592.164754,9030.512492
2473.952444,0.000000,-1850.514855,9178.553681
2473.952773,-766.095498,-2146.597232,9844.739029
2473.953102,-766.095498,-2072.576638,9918.759623
2473.953431,-766.095498,-2072.576638,9548.656652
2473.953760,-306.438199,-1110.308913,9474.636058
2473.954089,-229.828649,-518.144159,9474.636058
2473.954418,306.438199,296.082377,9474.636058
2473.954747,383.047749,1184.329507,8882.471304
2473.955076,229.828649,1110.308913,9030.512492
2473.955405,689.485948,814.226536,9178.553681
2473.955733,842.705048,1184.329507,8956.491898
2473.956062,1455.581446,666.185348,8364.327145
2473.956391,2145.067394,370.102971,8734.430116
2473.956720,2221.676944,-0.000000,8290.306550
2473.957049,2374.896044,-518.144159,8882.471304
2473.957378,2221.676944,-666.185348,9178.553681
2473.957707,1762.019645,-1036.288319,9326.594869
2473.958036,1685.410096,-518.144159,8956.491898
2473.958365,1149.143247,-148.041188,9178.553681
2473.958694,1072.533697,296.082377,9252.574275
2473.959023,459.657299,444.123565,8956.491898
2473.959352,306.438199,592.164754,8882.471304
2473.959681,-306.438199,666.185348,8734.430116
2473.960009,-689.485948,518.144159,8808.450710
2473.960338,-919.314598,-222.061783,9030.512492
2473.960667,-995.924147,-814.226536,9474.636058
2473.960996,-995.924147,-1406.391290,9844.739029
2473.961325,-1072.533697,-1776.494261,9474.636058
2473.961654,-689.485948,-1850.514855,9548.656652
2473.961983,-383.047749,-1406.391290,9104.533087
2473.962312,0.000000,-1110.308913,9696.697840
2473.962641,0.000000,-74.020594,9400.615463
2473.962970,383.047749,370.102971,9104.533087
2473.963299,766.095498,740.205942,9104.533087
2473.963628,1685.410096,1184.329507,7920.203579
2473.963956,1915.238745,1554.432478,7698.141797
2473.964285,1838.629195,1258.350101,6883.915261
2473.964614,1991.848295,1332.370696,7698.141797
2473.964943,1225.752797,222.061783,8216.285956
2473.965272,459.657299,-518.144159,8882.471304
2473.965601,-229.828649,-1332.370696,9326.594869
2473.965930,-995.924147,-2368.659014,9992.780217
2473.966259,-842.705048,-2294.638420,10510.924376
2473.966588,-842.705048,-2368.659014,9918.759623
2473.966917,-306.438199,-1258.350101,10066.800811
2473.967246,0.000000,-74.020594,9918.759623
2473.967575,229.828649,888.247130,9326.594869
2473.967904,612.876398,1554.432478,8956.491898
2473.968232,1302.362347,1924.535449,7994.224174
2473.968561,1072.533697,1628.453072,7994.224174
2473.968890,1149.143247,1332.370696,7994.224174
2473.969219,383.047749,-0.000000,8660.409521
2473.969548,-536.266849,-592.164754,9104.533087
2473.969877,-766.095498,-1924.535449,9474.636058
2473.970206,-1302.362347,-2442.679609,9696.697840
2473.970535,-1455.581446,-2516.700203,9400.615463
2473.970864,-919.314598,-888.247130,9400.615463
2473.971193,-995.924147,-666.185348,9474.636058
2473.971522,-766.095498,-0.000000,9696.697840
2473.971851,0.000000,740.205942,9696.697840
2473.972180,0.000000,1332.370696,8660.409521
2473.972508,0.000000,1184.329507,9030.512492
2473.972837,229.828649,740.205942,9178.553681
2473.973166,1225.752797,740.205942,9400.615463
2473.973495,1838.629195,740.205942,8364.327145
2473.973824,2374.896044,-222.061783,8512.368333
2473.974153,2221.676944,-222.061783,8216.285956
2473.974482,2374.896044,-444.123565,9178.553681
2473.974811,2145.067394,-962.267725,9030.512492
2473.975140,1685.410096,-1406.391290,9178.553681
2473.975469,1302.362347,-1184.329507,9548.656652
2473.975798,842.705048,222.061783,9696.697840
2473.976127,689.485948,-74.020594,9844.739029
2473.976455,76.609550,666.185348,9548.656652
2473.976784,0.000000,1036.288319,9104.533087
2473.977113,-229.828649,1258.350101,8882.471304
2473.977442,-459.657299,888.247130,8882.471304
2473.977771,-383.047749,-0.000000,9548.656652
2473.978100,-842.705048,-1110.308913,9548.656652
2473.978429,-1072.533697,-1332.370696,10066.800811
2473.978758,-995.924147,-1628.453072,9474.636058
2473.979087,-766.095498,-1702.473667,9474.636058
2473.979416,-689.485948,-1628.453072,9474.636058
2473.979745,-383.047749,-888.247130,9178.553681
2473.980074,459.657299,-222.061783,8956.491898
2473.980403,842.705048,518.144159,9178.553681
2473.980731,1532.190996,1258.350101,7920.203579
2473.981060,1915.238745,2072.576638,7920.203579
2473.981389,1915.238745,2368.659014,7402.059420
2473.981718,1762.019645,2220.617826,7402.059420
2473.982047,1915.238745,1332.370696,7846.182985
2473.982376,1149.143247,444.123565,8364.327145
2473.982705,383.047749,-1480.411884,9104.533087
2473.983034,-383.047749,-2072.576638,9474.636058
2473.983363,-383.047749,-2368.659014,9844.739029
2473.983692,-612.876398,-2516.700203,10510.924376
2473.984021,-536.266849,-1998.556043,10214.842000
2473.984350,-76.609550,-962.267725,10066.800811
2473.984678,536.266849,-444.123565,9696.697840
2473.985007,995.924147,666.185348,9030.512492
2473.985336,1762.019645,1332.370696,9030.512492
2473.985665,1685.410096,1924.535449,8068.244768
2473.985994,1225.752797,2146.597232,7994.224174
2473.986323,842.705048,1110.308913,8290.306550
2473.986652,229.828649,222.061783,8512.368333
2473.986981,-1149.143247,-1110.308913,9548.656652
2473.987310,-1608.800546,-2368.659014,9918.759623
2473.987639,-1378.971896,-2960.823768,10066.800811
2473.987968,-1532.190996,-2368.659014,9696.697840
2473.988297,-1302.362347,-1628.453072,9696.697840
2473.988626,-1302.362347,-962.267725,9548.656652
2473.988954,-689.485948,-0.000000,9844.739029
2473.989283,-306.438199,666.185348,9252.574275
2473.989612,612.876398,1628.453072,8512.368333
2473.989941,306.438199,888.247130,9252.574275
2473.990270,612.876398,888.247130,9104.533087
2473.990599,1455.581446,888.247130,8364.327145
2473.990928,2145.067394,740.205942,7698.141797
2473.991257,2604.724693,370.102971,7772.162391
2473.991586,2528.115143,-222.061783,8512.368333
2473.991915,2298.286494,-148.041188,8660.409521
2473.992244,2145.067394,-814.226536,8882.471304
2473.992573,995.924147,-666.185348,9178.553681
2473.992901,612.876398,-666.185348,9400.615463
2473.993230,153.219100,-296.082377,9474.636058
2473.993559,0.000000,-74.020594,9696.697840
2473.993888,0.000000,592.164754,9030.512492
2473.994217,-612.876398,518.144159,9326.594869
2473.994546,-306.438199,740.205942,9326.594869
2473.994875,-766.095498,592.164754,8660.409521
2473.995204,-689.485948,-444.123565,9400.615463
2473.995533,-995.924147,-1036.288319,9474.636058
2473.995862,-919.314598,-1332.370696,9844.739029
2473.996191,-1225.752797,-2368.659014,9696.697840
2473.996520,-612.876398,-1850.514855,9918.759623
2473.996849,-612.876398,-1924.535449,9770.718434
2473.997177,-229.828649,-592.164754,8956.491898
2473.997506,842.705048,-222.061783,9178.553681
2473.997835,1455.581446,1332.370696,8586.388927
2473.998164,1762.019645,2294.638420,8216.285956
2473.998493,2145.067394,2368.659014,7772.162391
2473.998822,1762.019645,2294.638420,8142.265362
2473.999151,1685.410096,1702.473667,8142.265362
2473.999480,919.314598,296.082377,8216.285956
2473.999809,306.438199,-666.185348,9030.512492
2474.000138,0.000000,-1480.411884,9474.636058
2474.000467,-536.266849,-1998.556043,9696.697840
2474.000796,-536.266849,-2516.700203,10362.883188
2474.001124,0.000000,-2220.617826,10140.821405
2474.001453,0.000000,-2072.576638,9992.780217
2474.001782,459.657299,-592.164754,9918.759623
2474.002111,1225.752797,592.164754,9474.636058
2474.002440,2068.457845,1480.411884,8438.347739
2474.002769,2068.457845,2220.617826,7920.203579
2474.003098,1991.848295,2368.659014,7476.080014
2474.003427,1762.019645,1776.494261,7772.162391
2474.003756,1302.362347,962.267725,7698.141797
2474.004085,0.000000,-222.061783,8734.430116
2474.004414,-1149.143247,-1702.473667,9474.636058
2474.004743,-1991.848295,-2886.803174,10066.800811
2474.005072,-1608.800546,-3034.844362,9918.759623
2474.005400,-1762.019645,-2442.679609,10066.800811
2474.005729,-1302.362347,-2146.597232,10510.924376
2474.006058,-1225.752797,-666.185348,9474.636058
2474.006387,-229.828649,-0.000000,10140.821405
2474.006716,76.609550,814.226536,9030.512492
2474.007045,383.047749,1554.432478,8290.306550
2474.007374,229.828649,1184.329507,9696.697840
2474.007703,1072.533697,962.267725,8956.491898
2474.008032,2145.067394,1110.308913,7846.182985
2474.008361,2681.334243,740.205942,8068.244768
2474.008690,2298.286494,444.123565,7920.203579
2474.009019,2374.896044,-0.000000,8734.430116
2474.009347,1915.238745,-592.164754,8142.265362
2474.009676,1608.800546,-1036.288319,8586.388927
2474.010005,766.095498,-1554.432478,9918.759623
2474.010334,-306.438199,-1184.329507,9400.615463
2474.010663,0.000000,-962.267725,10510.924376
2474.010992,-689.485948,-74.020594,9918.759623
2474.011321,-536.266849,592.164754,9400.615463
2474.011650,-459.657299,518.144159,9400.615463
2474.011979,-612.876398,1406.391290,8956.491898
2474.012308,-689.485948,666.185348,9252.574275
2474.012637,-842.705048,-666.185348,9548.656652
2474.012966,-1072.533697,-814.226536,9326.594869
2474.013295,-1149.143247,-1480.411884,9696.697840
2474.013623,-1072.533697,-1998.556043,9178.553681
2474.013952,-689.485948,-1776.494261,9548.656652
2474.014281,-383.047749,-1332.370696,9474.636058
2474.014610,0.000000,-666.185348,9104.533087
2474.014938,459.657299,-370.102971,9548.656652
2474.015267,1072.533697,1184.329507,8882.471304
2474.015595,1225.752797,1924.535449,8290.306550
2474.015924,1225.752797,2072.576638,8068.244768
2474.016253,1455.581446,2294.638420,7772.162391
2474.016582,1378.971896,1554.432478,8068.244768
2474.016911,1762.019645,518.144159,8216.285956
2474.017240,766.095498,-592.164754,8364.327145
2474.017569,995.924147,-1776.494261,9474.636058
2474.017898,229.828649,-2368.659014,9252.574275
2474.018227,-383.047749,-2368.659014,10140.821405
2474.018556,0.000000,-2516.700203,10288.862594
2474.018885,76.609550,-1850.514855,9992.780217
2474.019214,229.828649,-814.226536,9992.780217
2474.019543,1225.752797,-0.000000,9474.636058
2474.019872,1608.800546,962.267725,8216.285956
2474.020201,1915.238745,2294.638420,8216.285956
2474.020530,1072.533697,2146.597232,7920.203579
2474.020859,1225.752797,1702.473667,8290.306550
2474.021188,306.438199,666.185348,7994.224174
2474.021517,-766.095498,-592.164754,9326.594869
2474.021846,-1149.143247,-2220.617826,9918.759623
2474.022175,-1608.800546,-2294.638420,10066.800811
2474.022504,-1532.190996,-2442.679609,9992.780217
2474.022833,-766.095498,-1628.453072,9622.677246
2474.023162,-766.095498,-1480.411884,9622.677246
2474.023490,-612.876398,-74.020594,9474.636058
2474.023819,76.609550,-148.041188,9992.780217
2474.024148,383.047749,1110.308913,8734.430116
2474.024477,689.485948,1184.329507,9030.512492
2474.024806,153.219100,888.247130,9474.636058
2474.025135,766.095498,740.205942,9104.533087
2474.025464,1915.238745,814.226536,8290.306550
2474.025793,2528.115143,814.226536,7179.997637
2474.026122,2911.162892,-74.020594,7476.080014
2474.026451,2834.553343,222.061783,7698.141797
2474.026780,1302.362347,-296.082377,7994.224174
2474.027109,2068.457845,-1554.432478,8438.347739
2474.027438,1378.971896,-1332.370696,9178.553681
2474.027767,459.657299,-740.205942,9400.615463
2474.028096,0.000000,-814.226536,9696.697840
2474.028425,-459.657299,-0.000000,9770.718434
2474.028754,-229.828649,-74.020594,9252.574275
2474.029083,-229.828649,592.164754,9400.615463
2474.029412,-536.266849,518.144159,9252.574275
2474.029741,-306.438199,444.123565,9326.594869
2474.030070,-689.485948,-0.000000,9178.553681
2474.030399,-1302.362347,-1258.350101,9474.636058
2474.030728,-919.314598,-1702.473667,9622.677246
2474.031057,-766.095498,-2368.659014,9622.677246
2474.031386,-689.485948,-1998.556043,9770.718434
2474.031714,-229.828649,-1258.350101,9474.636058
2474.032043,-306.438199,-666.185348,9030.512492
2474.032372,153.219100,-0.000000,9326.594869
2474.032701,689.485948,888.247130,9178.553681
2474.033030,1302.362347,1628.453072,8512.368333
2474.033359,1838.629195,1850.514855,8216.285956
2474.033688,1608.800546,1850.514855,7920.203579
2474.034017,1378.971896,1628.453072,8142.265362
2474.034346,1455.581446,518.144159,7920.203579
2474.034675,919.314598,-0.000000,8216.285956
2474.035004,766.095498,-1110.308913,9252.574275
2474.035333,0.000000,-1776.494261,10066.800811
2474.035662,-153.219100,-2072.576638,10066.800811
2474.035991,0.000000,-1850.514855,10214.842000
2474.036320,76.609550,-1702.473667,9770.718434
2474.036649,0.000000,-518.144159,9548.656652
2474.036978,612.876398,370.102971,9178.553681
2474.037307,689.485948,1110.308913,8808.450710
2474.037636,1378.971896,1480.411884,8290.306550
2474.037965,1072.533697,1702.473667,7846.182985
2474.038294,766.095498,1554.432478,8142.265362
2474.038623,383.047749,888.247130,8364.327145
2474.038952,-153.219100,-814.226536,8882.471304
2474.039281,-536.266849,-1850.514855,9030.512492
2474.039610,-1149.143247,-2442.679609,9474.636058
2474.039938,-1378.971896,-2664.741391,9622.677246
2474.040267,-1302.362347,-2072.576638,9696.697840
2474.040596,-919.314598,-1702.473667,9696.697840
2474.040925,-766.095498,-666.185348,9474.636058
2474.041254,76.609550,296.082377,9918.759623
2474.041583,459.657299,1036.288319,8956.491898
2474.041912,612.876398,1480.411884,8882.471304
2474.042241,1149.143247,1110.308913,8364.327145
2474.042570,1532.190996,1850.514855,7920.203579
2474.042899,1838.629195,1184.329507,8438.347739
2474.043228,1915.238745,666.185348,7920.203579
2474.043557,1685.410096,-148.041188,8734.430116
2474.043886,1225.752797,-888.247130,8808.450710
2474.044215,1225.752797,-1184.329507,9400.615463
2474.044544,612.876398,-1628.453072,9622.677246
2474.044873,306.438199,-1406.391290,9622.677246
2474.045202,76.609550,-666.185348,9992.780217
2474.045531,766.095498,370.102971,9918.759623
2474.045860,689.485948,222.061783,9400.615463
2474.046189,383.047749,962.267725,8882.471304
2474.046518,229.828649,1628.453072,8734.430116
2474.046847,0.000000,1332.370696,8586.388927
2474.047176,0.000000,148.041188,8808.450710
2474.047505,-612.876398,-148.041188,8956.491898
2474.047833,-842.705048,-1036.288319,9474.636058
2474.048162,-612.876398,-2220.617826,9474.636058
2474.048491,-995.924147,-2516.700203,9326.594869
2474.048820,-995.924147,-1850.514855,9400.615463
2474.049149,-383.047749,-1554.432478,9178.553681
2474.049478,0.000000,-666.185348,9178.553681
2474.049807,0.000000,370.102971,9400.615463
2474.050136,689.485948,1110.308913,9030.512492
2474.050465,919.314598,962.267725,8660.409521
2474.050794,995.924147,1258.350101,8290.306550
2474.051123,1302.362347,1702.473667,8068.244768
2474.051452,1532.190996,1258.350101,7920.203579
2474.051781,1532.190996,666.185348,7994.224174
2474.052110,1225.752797,-444.123565,8734.430116
2474.052439,1072.533697,-1036.288319,9178.553681
2474.052768,536.266849,-1702.473667,9400.615463
2474.053097,-153.219100,-1850.514855,9696.697840
2474.053426,0.000000,-2368.659014,9770.718434
2474.053755,-306.438199,-1406.391290,9696.697840
2474.054084,0.000000,-370.102971,9696.697840
2474.054413,766.095498,296.082377,9178.553681
2474.054742,995.924147,1110.308913,9030.512492
2474.055071,612.876398,1702.473667,8512.368333
2474.055400,919.314598,1184.329507,8142.265362
2474.055729,459.657299,1554.432478,8882.471304
2474.056057,0.000000,592.164754,8808.450710
2474.056386,-612.876398,-444.123565,8882.471304
2474.056715,-919.314598,-1702.473667,9474.636058
2474.057044,-919.314598,-2738.761985,9326.594869
2474.057373,-919.314598,-2442.679609,9400.615463
2474.057702,-689.485948,-2072.576638,9622.677246
2474.058031,-919.314598,-1406.391290,9474.636058
2474.058360,-536.266849,-74.020594,9400.615463
2474.058689,-229.828649,296.082377,9474.636058
2474.059018,0.000000,1184.329507,8586.388927
2474.059347,0.000000,1258.350101,8660.409521
2474.059676,536.266849,1332.370696,8660.409521
2474.060005,1149.143247,1184.329507,7772.162391
2474.060334,1838.629195,814.226536,8290.306550
2474.060663,2068.457845,-0.000000,8142.265362
2474.060992,2145.067394,-222.061783,8142.265362
2474.061321,1608.800546,-740.205942,8660.409521
2474.061650,1378.971896,-1332.370696,8882.471304
2474.061979,1225.752797,-1036.288319,9918.759623
2474.062308,766.095498,-1406.391290,9696.697840
2474.062637,459.657299,-814.226536,9400.615463
2474.062966,306.438199,-0.000000,9548.656652
2474.063295,229.828649,518.144159,9252.574275
2474.063624,76.609550,888.247130,9178.553681
2474.063953,0.000000,962.267725,9252.574275
2474.064281,-229.828649,740.205942,8882.471304
2474.064610,-536.266849,-0.000000,8956.491898
2474.064939,-995.924147,-518.144159,9474.636058
2474.065268,-1225.752797,-1406.391290,9622.677246
2474.065597,-1302.362347,-1998.556043,9844.739029
2474.065926,-995.924147,-2072.576638,9622.677246
2474.066255,-383.047749,-1702.473667,9918.759623
2474.066584,-229.828649,-1554.432478,9844.739029
2474.066913,229.828649,-814.226536,9104.533087
2474.067242,1455.581446,740.205942,8808.450710
2474.067571,1991.848295,1702.473667,8068.244768
2474.067900,2145.067394,2516.700203,7402.059420
2474.068229,2298.286494,2442.679609,7254.018232
2474.068558,2298.286494,1998.556043,7402.059420
2474.068887,1608.800546,1554.432478,7846.182985
2474.069216,1455.581446,-222.061783,8586.388927
2474.069545,612.876398,-962.267725,8808.450710
2474.069874,76.609550,-1850.514855,9622.677246
2474.070203,-842.705048,-2368.659014,9918.759623
2474.070532,-612.876398,-2442.679609,10362.883188
2474.070861,-459.657299,-1406.391290,10066.800811
2474.071190,459.657299,-1554.432478,9548.656652
2474.071519,1532.190996,-148.041188,9474.636058
2474.071848,1915.238745,740.205942,8438.347739
2474.072177,1991.848295,1850.514855,8438.347739
2474.072505,2298.286494,2220.617826,7994.224174
2474.072834,1762.019645,2368.659014,7772.162391
2474.073163,1149.143247,1184.329507,8438.347739
2474.073492,842.705048,-0.000000,8882.471304
2474.073821,-536.266849,-1332.370696,9474.636058
2474.074150,-1838.629195,-2368.659014,10140.821405
2474.074479,-1685.410096,-2886.803174,10510.924376
2474.074808,-1915.238745,-2812.782580,10214.842000
2474.075137,-1532.190996,-1850.514855,10066.800811
2474.075466,-1149.143247,-1258.350101,9918.759623
2474.075795,-689.485948,-74.020594,9992.780217
2474.076124,0.000000,814.226536,9696.697840
2474.076453,459.657299,1258.350101,9400.615463
2474.076782,1072.533697,1258.350101,8734.430116
2474.077111,2068.457845,1924.535449,7846.182985
2474.077440,2604.724693,1554.432478,7920.203579
2474.077769,2068.457845,1036.288319,7328.038826
2474.078098,2451.505594,148.041188,7920.203579
2474.078427,2221.676944,-222.061783,8660.409521
2474.078756,1685.410096,-962.267725,8586.388927
2474.079085,689.485948,-1480.411884,9474.636058
2474.079414,-229.828649,-1850.514855,9696.697840
2474.079743,-459.657299,-1332.370696,9918.759623
2474.080072,-612.876398,-296.082377,9918.759623
2474.080400,-612.876398,-74.020594,9400.615463
2474.080729,-153.219100,296.082377,8808.450710
2474.081058,0.000000,962.267725,8438.347739
2474.081387,-306.438199,1332.370696,8364.327145
2474.081716,-306.438199,518.144159,8364.327145
2474.082045,-306.438199,-0.000000,8586.388927
2474.082374,-612.876398,-814.226536,9400.615463
2474.082703,-995.924147,-1776.494261,9844.739029
2474.083032,-1225.752797,-2368.659014,9548.656652
2474.083361,-306.438199,-2368.659014,9474.636058
2474.083690,-612.876398,-1850.514855,9474.636058
2474.084019,-229.828649,-1184.329507,9400.615463
2474.084348,306.438199,-222.061783,9326.594869
2474.084677,1072.533697,518.144159,8364.327145
2474.085006,1532.190996,1554.432478,8290.306550
2474.085335,1149.143247,1628.453072,7846.182985
2474.085664,1225.752797,2516.700203,8068.244768
2474.085993,1302.362347,1850.514855,7772.162391
2474.086322,842.705048,740.205942,8216.285956
2474.086651,306.438199,-444.123565,9178.553681
2474.086980,383.047749,-1850.514855,9548.656652
2474.087309,0.000000,-2146.597232,10140.821405
2474.087638,-536.266849,-2294.638420,10214.842000
2474.087967,-612.876398,-2664.741391,10807.006753
2474.088296,153.219100,-1480.411884,10362.883188
2474.088624,919.314598,-444.123565,9918.759623
2474.088953,1762.019645,592.164754,9548.656652
2474.089282,2451.505594,1776.494261,8364.327145
2474.089611,2528.115143,2220.617826,8216.285956
2474.089940,2451.505594,2590.720797,7624.121203
2474.090269,1762.019645,2442.679609,7624.121203
2474.090598,459.657299,1480.411884,8068.244768
2474.090927,-229.828649,-74.020594,8734.430116
2474.091256,-1378.971896,-2220.617826,9696.697840
2474.091585,-1915.238745,-3034.844362,10066.800811
2474.091914,-1838.629195,-2960.823768,9696.697840
2474.092243,-1685.410096,-2664.741391,10362.883188
2474.092572,-995.924147,-2072.576638,9622.677246
2474.092901,-689.485948,-740.205942,9696.697840
2474.093230,-306.438199,296.082377,9548.656652
2474.093559,0.000000,814.226536,8956.491898
2474.093888,383.047749,1332.370696,9622.677246
2474.094217,0.000000,814.226536,9474.636058
2474.094546,2145.067394,1480.411884,8068.244768
2474.094875,2987.772442,1850.514855,7698.141797
2474.095204,2987.772442,1110.308913,7105.977043
2474.095533,2681.334243,814.226536,7179.997637
2474.095862,2068.457845,-0.000000,8438.347739
2474.096191,1225.752797,-592.164754,8142.265362
2474.096520,459.657299,-2072.576638,9326.594869
2474.096848,-842.705048,-2294.638420,9844.739029
2474.097177,-1762.019645,-2146.597232,10214.842000
2474.097506,-1532.190996,-1702.473667,10362.883188
2474.097835,-995.924147,-370.102971,9992.780217
2474.098164,-536.266849,740.205942,9696.697840
2474.098493,-536.266849,962.267725,9178.553681
2474.098822,0.000000,1184.329507,9326.594869
2474.099151,-536.266849,370.102971,9104.533087
2474.099480,76.609550,444.123565,9474.636058
2474.099809,-612.876398,-0.000000,9178.553681
2474.100138,-766.095498,-1554.432478,9326.594869
2474.100467,-689.485948,-1554.432478,9474.636058
2474.100796,-689.485948,-2294.638420,9696.697840
2474.101125,0.000000,-1776.494261,9252.574275
2474.101454,-383.047749,-1406.391290,9178.553681
2474.101783,153.219100,-0.000000,9326.594869
2474.102112,306.438199,1110.308913,8808.450710
2474.102441,153.219100,1776.494261,8512.368333
2474.102770,536.266849,1702.473667,8290.306550
2474.103099,1225.752797,2072.576638,8290.306550
2474.103428,1072.533697,1554.432478,7624.121203
2474.103757,1149.143247,592.164754,8290.306550
2474.104086,1378.971896,-148.041188,8808.450710
2474.104415,919.314598,-1036.288319,9326.594869
2474.104743,612.876398,-1554.432478,9548.656652
2474.105072,76.609550,-2146.597232,9622.677246
2474.105401,306.438199,-2072.576638,10288.862594
2474.105730,1302.362347,-1702.473667,10362.883188
2474.106059,766.095498,-740.205942,9992.780217
2474.106388,1838.629195,-0.000000,9030.512492
2474.106717,2145.067394,1850.514855,8808.450710
2474.107046,1915.238745,2590.720797,8586.388927
2474.107375,1838.629195,2368.659014,7920.203579
2474.107704,1532.190996,2072.576638,8142.265362
2474.108033,306.438199,740.205942,8734.430116
2474.108362,-459.657299,-370.102971,9474.636058
2474.108691,-1532.190996,-1776.494261,10288.862594
2474.109020,-1762.019645,-2812.782580,10436.903782
2474.109349,-1685.410096,-2738.761985,10066.800811
2474.109678,-1302.362347,-2516.700203,10362.883188
2474.110007,-919.314598,-2072.576638,9844.739029
2474.110336,-689.485948,-888.247130,9918.759623
2474.110665,76.609550,-0.000000,10140.821405
2474.110994,612.876398,1036.288319,9104.533087
2474.111323,1225.752797,888.247130,10214.842000
2474.111652,2068.457845,1850.514855,8068.244768
2474.111981,2987.772442,2812.782580,7328.038826
2474.112310,3753.867940,2590.720797,7550.100608
2474.112639,3447.429741,1850.514855,6809.894666
2474.112967,3524.039291,814.226536,8216.285956
2474.113296,1762.019645,-74.020594,7624.121203
2474.113625,1072.533697,-1258.350101,8290.306550
2474.113954,0.000000,-2442.679609,9696.697840
2474.114283,-842.705048,-2368.659014,9770.718434
2474.114612,-1838.629195,-2738.761985,10807.006753
2474.114941,-612.876398,-1406.391290,10288.862594
2474.115270,-383.047749,-444.123565,9178.553681
2474.115599,0.000000,814.226536,9474.636058
2474.115928,0.000000,1036.288319,9104.533087
2474.116257,0.000000,814.226536,8734.430116
2474.116586,612.876398,518.144159,8290.306550
2474.116915,766.095498,444.123565,8142.265362
2474.117244,0.000000,-444.123565,8290.306550
2474.117573,-459.657299,-1406.391290,9252.574275
2474.117902,-229.828649,-2072.576638,9326.594869
2474.118231,-536.266849,-1776.494261,9474.636058
2474.118560,-766.095498,-1998.556043,9252.574275
2474.118889,-1149.143247,-1184.329507,9474.636058
2474.119218,-842.705048,-444.123565,9548.656652
2474.119547,-766.095498,740.205942,9326.594869
2474.119876,0.000000,814.226536,9030.512492
2474.120205,-306.438199,1258.350101,9400.615463
2474.120534,153.219100,1480.411884,8586.388927
2474.120863,383.047749,1184.329507,8364.327145
2474.121192,1072.533697,370.102971,8512.368333
2474.121521,1149.143247,-74.020594,8512.368333
2474.121850,1225.752797,-740.205942,9326.594869
2474.122179,306.438199,-1110.308913,9474.636058
2474.122508,1455.581446,-1776.494261,9400.615463
2474.122836,919.314598,-1258.350101,9622.677246
2474.123165,766.095498,-666.185348,9474.636058
2474.123494,1072.533697,-296.082377,9992.780217
2474.123823,1225.752797,222.061783,9400.615463
2474.124152,1149.143247,2072.576638,9326.594869
2474.124481,459.657299,1554.432478,8882.471304
2474.124810,536.266849,2220.617826,7402.059420
2474.125139,689.485948,1776.494261,8734.430116
2474.125468,-229.828649,370.102971,9030.512492
2474.125797,-459.657299,-1036.288319,9030.512492
2474.126126,-1532.190996,-2220.617826,9918.759623
2474.126455,-1378.971896,-2886.803174,9918.759623
2474.126784,-1455.581446,-2960.823768,9918.759623
2474.127113,-842.705048,-2294.638420,10066.800811
2474.127442,-612.876398,-1554.432478,9548.656652
2474.127771,76.609550,-666.185348,9770.718434
2474.128100,383.047749,296.082377,9326.594869
2474.128429,1532.190996,1110.308913,9400.615463
2474.128758,2068.457845,1776.494261,7698.141797
2474.129087,2834.553343,2442.679609,7550.100608
2474.129416,3217.601092,2368.659014,7179.997637
2474.129745,3524.039291,1998.556043,7105.977043
2474.130074,2681.334243,1332.370696,8216.285956
2474.130403,1685.410096,222.061783,8142.265362
2474.130732,1149.143247,-1554.432478,8956.491898
2474.131061,0.000000,-2294.638420,9696.697840
2474.131390,-842.705048,-2442.679609,10066.800811
2474.131719,-1149.143247,-3182.885551,10584.944971
2474.132048,-1149.143247,-1776.494261,10362.883188
2474.132377,-153.219100,-814.226536,10732.986159
2474.132706,-153.219100,-0.000000,9696.697840
2474.133035,306.438199,1332.370696,9030.512492
2474.133364,689.485948,1184.329507,8808.450710
2474.133693,1149.143247,1924.535449,8142.265362
2474.134022,842.705048,2072.576638,8512.368333
2474.134350,0.000000,814.226536,8660.409521
2474.134679,-229.828649,-370.102971,9030.512492
2474.135008,-612.876398,-1702.473667,9178.553681
2474.135337,-919.314598,-2072.576638,9326.594869
2474.135666,-1149.143247,-2220.617826,9696.697840
2474.135995,-1608.800546,-1924.535449,9400.615463
2474.136324,-1455.581446,-1110.308913,9844.739029
2474.136653,-919.314598,-74.020594,9178.553681
2474.136982,-536.266849,1110.308913,8956.491898
2474.137311,-459.657299,1332.370696,8586.388927
2474.137640,229.828649,1480.411884,8216.285956
2474.137969,1072.533697,1480.411884,8660.409521
2474.138298,842.705048,888.247130,7254.018232
2474.138627,2145.067394,296.082377,8142.265362
2474.138956,1072.533697,-222.061783,8216.285956
2474.139285,995.924147,-222.061783,9178.553681
2474.139614,536.266849,-1776.494261,9400.615463
2474.139943,536.266849,-1776.494261,9104.533087
2474.140272,536.266849,-1998.556043,9844.739029
2474.140601,383.047749,-1184.329507,9844.739029
2474.140930,612.876398,-666.185348,9770.718434
2474.141259,689.485948,962.267725,9474.636058
2474.141588,1302.362347,1036.288319,9252.574275
2474.141917,1072.533697,1850.514855,9030.512492
2474.142246,689.485948,1776.494261,8364.327145
2474.142575,76.609550,1480.411884,8512.368333
2474.142904,0.000000,296.082377,9104.533087
2474.143233,-459.657299,-1110.308913,9326.594869
2474.143562,-919.314598,-2368.659014,10362.883188
2474.143891,-1302.362347,-2664.741391,9992.780217
2474.144220,-995.924147,-2886.803174,10066.800811
2474.144549,-1149.143247,-1998.556043,10066.800811
2474.144878,-459.657299,-1554.432478,9548.656652
2474.145207,0.000000,-518.144159,9400.615463
2474.145535,612.876398,222.061783,9104.533087
2474.145864,1685.410096,962.267725,8956.491898
2474.146193,1608.800546,1850.514855,7846.182985
2474.146522,2451.505594,2220.617826,7920.203579
2474.146851,2604.724693,1850.514855,7328.038826
2474.147180,2451.505594,1850.514855,7328.038826
2474.147509,2221.676944,370.102971,7920.203579
2474.147838,1532.190996,-666.185348,8290.306550
2474.148167,1685.410096,-962.267725,9548.656652
2474.148496,76.609550,-2146.597232,9178.553681
2474.148825,-229.828649,-2072.576638,9992.780217
2474.149154,-766.095498,-2294.638420,10584.944971
2474.149483,-536.266849,-1184.329507,9918.759623
2474.149812,-306.438199,-592.164754,10140.821405
2474.150141,-229.828649,296.082377,9178.553681
2474.150470,76.609550,1110.308913,9104.533087
2474.150799,842.705048,1332.370696,8808.450710
2474.151128,919.314598,1258.350101,8660.409521
2474.151457,842.705048,1036.288319,8142.265362
2474.151786,76.609550,-74.020594,8512.368333
2474.152115,-383.047749,-1036.288319,8956.491898
2474.152444,-766.095498,-2220.617826,9030.512492
2474.152773,-1302.362347,-2664.741391,9548.656652
2474.153102,-1072.533697,-2886.803174,9622.677246
2474.153431,-1302.362347,-1702.473667,9622.677246
2474.153760,-842.705048,-1036.288319,9548.656652
2474.154089,-306.438199,-0.000000,9326.594869
2474.154418,0.000000,1110.308913,9104.533087
2474.154747,76.609550,1332.370696,9178.553681
2474.155076,153.219100,1406.391290,8660.409521
2474.155405,842.705048,1480.411884,8438.347739
2474.155734,1149.143247,1924.535449,8068.244768
2474.156063,919.314598,888.247130,8068.244768
2474.156392,1302.362347,-74.020594,8586.388927
2474.156721,919.314598,-888.247130,8660.409521
2474.157049,1149.143247,-1628.453072,9104.533087
2474.157378,689.485948,-1702.473667,9474.636058
2474.157707,459.657299,-1702.473667,9252.574275
2474.158036,459.657299,-1258.350101,9622.677246
2474.158365,766.095498,-222.061783,9326.594869
2474.158694,842.705048,518.144159,9104.533087
2474.159023,1149.143247,1184.329507,8956.491898
2474.159352,766.095498,1850.514855,8068.244768
2474.159681,689.485948,1998.556043,8438.347739
2474.160010,1225.752797,1480.411884,8512.368333
2474.160339,306.438199,666.185348,7846.182985
2474.160668,0.000000,-518.144159,9104.533087
2474.160997,-919.314598,-1628.453072,9474.636058
2474.161326,-1532.190996,-2368.659014,9548.656652
2474.161655,-1685.410096,-2886.803174,10140.821405
2474.161984,-1072.533697,-2960.823768,9992.780217
2474.162313,-612.876398,-1924.535449,10362.883188
2474.162642,-689.485948,-1110.308913,9548.656652
2474.162971,76.609550,222.061783,9474.636058
2474.163300,612.876398,962.267725,9548.656652
2474.163629,1532.190996,1554.432478,8956.491898
2474.163958,2298.286494,2146.597232,8290.306550
2474.164287,3064.381992,1998.556043,8068.244768
2474.164616,2451.505594,1258.350101,7698.141797
2474.164945,2757.943793,592.164754,8142.265362
2474.165274,2068.457845,-74.020594,8512.368333
2474.165603,1455.581446,-888.247130,8882.471304
2474.165932,306.438199,-1554.432478,9400.615463
2474.166261,0.000000,-2220.617826,10140.821405
2474.166590,-919.314598,-2368.659014,10436.903782
2474.166919,-766.095498,-1184.329507,10214.842000
2474.167248,-612.876398,-518.144159,9548.656652
2474.167577,0.000000,296.082377,9474.636058
2474.167906,229.828649,1406.391290,8660.409521
2474.168234,383.047749,1554.432478,8364.327145
2474.168563,689.485948,1332.370696,8290.306550
2474.168892,536.266849,888.247130,8438.347739
2474.169221,76.609550,-0.000000,8512.368333
2474.169550,-919.314598,-962.267725,9104.533087
2474.169879,-612.876398,-1776.494261,8956.491898
2474.170208,-1149.143247,-2368.659014,9326.594869
2474.170537,-1149.143247,-2368.659014,9474.636058
2474.170866,-842.705048,-1702.473667,9474.636058
2474.171195,-612.876398,-740.205942,9252.574275
2474.171524,-383.047749,370.102971,8734.430116
2474.171853,0.000000,1406.391290,8512.368333
2474.172182,689.485948,1702.473667,8142.265362
2474.172511,1072.533697,1776.494261,7994.224174
2474.172840,1225.752797,1480.411884,7550.100608
2474.173169,1149.143247,888.247130,7846.182985
2474.173498,995.924147,-74.020594,8512.368333
2474.173827,306.438199,-888.247130,8882.471304
2474.174156,0.000000,-1554.432478,9474.636058
2474.174485,153.219100,-2368.659014,9696.697840
2474.174814,153.219100,-2664.741391,9844.739029
2474.175143,153.219100,-1702.473667,10288.862594
2474.175472,536.266849,-1036.288319,9992.780217
2474.175801,995.924147,-0.000000,9474.636058
2474.176130,1685.410096,1258.350101,8956.491898
2474.176459,2451.505594,1776.494261,8734.430116
2474.176788,1991.848295,2368.659014,8142.265362
2474.177117,1762.019645,1998.556043,8142.265362
2474.177446,689.485948,1406.391290,8512.368333
2474.177775,0.000000,-0.000000,8660.409521
2474.178104,-1225.752797,-1184.329507,9474.636058
2474.178433,-1838.629195,-2294.638420,9918.759623
2474.178762,-2068.457845,-2516.700203,10658.965565
2474.179091,-2068.457845,-2812.782580,10214.842000
2474.179420,-1302.362347,-1998.556043,9918.759623
2474.179748,-766.095498,-888.247130,9770.718434
2474.180077,0.000000,222.061783,9622.677246
2474.180406,459.657299,1184.329507,9252.574275
2474.180735,1532.190996,1332.370696,9326.594869
2474.181064,1838.629195,1850.514855,7476.080014
2474.181393,3830.477490,2368.659014,7476.080014
2474.181722,2987.772442,2294.638420,6957.935855
2474.182051,3447.429741,1998.556043,7476.080014
2474.182380,2451.505594,814.226536,7846.182985
2474.182709,1685.410096,-222.061783,7920.203579
2474.183038,689.485948,-1480.411884,8956.491898
2474.183367,-229.828649,-2368.659014,9548.656652
2474.183696,-919.314598,-2812.782580,9696.697840
2474.184025,-1608.800546,-2368.659014,10658.965565
2474.184354,-1072.533697,-1702.473667,10214.842000
2474.184683,-842.705048,-296.082377,10140.821405
2474.185012,-306.438199,296.082377,9622.677246
2474.185341,76.609550,1110.308913,9104.533087
2474.185670,689.485948,814.226536,8734.430116
2474.185999,995.924147,814.226536,8068.244768
2474.186328,766.095498,740.205942,8290.306550
2474.186657,459.657299,-370.102971,8290.306550
2474.186986,0.000000,-1184.329507,8808.450710
2474.187315,-459.657299,-1702.473667,9104.533087
2474.187644,-766.095498,-1924.535449,8956.491898
2474.187973,-1838.629195,-2146.597232,9548.656652
2474.188302,-1072.533697,-1850.514855,9770.718434
2474.188631,-1072.533697,-814.226536,9696.697840
2474.188960,-1072.533697,-0.000000,9178.553681
2474.189289,-612.876398,888.247130,8956.491898
2474.189618,-306.438199,1258.350101,8438.347739
2474.189947,0.000000,1258.350101,8660.409521
2474.190276,536.266849,1480.411884,8364.327145
2474.190605,1149.143247,740.205942,8142.265362
2474.190933,919.314598,-296.082377,8142.265362
2474.191262,1225.752797,-296.082377,8438.347739
2474.191591,919.314598,-1184.329507,8808.450710
2474.191920,1072.533697,-1702.473667,9104.533087
2474.192249,1072.533697,-1628.453072,9474.636058
2474.192578,1072.533697,-1332.370696,9326.594869
2474.192907,689.485948,222.061783,9696.697840
2474.193236,842.705048,-0.000000,9474.636058
2474.193565,1455.581446,1184.329507,9178.553681
2474.193894,1225.752797,2146.597232,8512.368333
2474.194223,842.705048,1998.556043,8290.306550
2474.194552,306.438199,1998.556043,8290.306550
2474.194881,-459.657299,518.144159,9030.512492
2474.195210,-383.047749,-666.185348,8956.491898
2474.195539,-1532.190996,-1776.494261,9992.780217
2474.195868,-1608.800546,-2590.720797,10510.924376
2474.196197,-1762.019645,-2664.741391,10066.800811
2474.196526,-1302.362347,-2516.700203,10140.821405
2474.196855,-689.485948,-1850.514855,10140.821405
2474.197184,-383.047749,-1332.370696,9992.780217
2474.197513,-459.657299,-222.061783,9992.780217
2474.197842,1532.190996,592.164754,10214.842000
2474.198171,2298.286494,1776.494261,8882.471304
2474.198500,3370.820191,2886.803174,7698.141797
2474.198829,3370.820191,3330.926739,7105.977043
2474.199158,3524.039291,2738.761985,7179.997637
2474.199487,3140.991542,1924.535449,7550.100608
2474.199816,1838.629195,592.164754,7698.141797
2474.200145,1378.971896,-888.247130,8512.368333
2474.200474,0.000000,-1776.494261,9474.636058
2474.200803,-1302.362347,-2812.782580,9992.780217
2474.201132,-1378.971896,-2960.823768,11029.068536
2474.201461,-919.314598,-1924.535449,10066.800811
2474.201790,-536.266849,-1702.473667,9696.697840
2474.202119,76.609550,-0.000000,9770.718434
2474.202447,0.000000,1184.329507,9400.615463
2474.202776,1149.143247,962.267725,9030.512492
2474.203105,1762.019645,1850.514855,7624.121203
2474.203434,1991.848295,2072.576638,7624.121203
2474.203763,1149.143247,1332.370696,7624.121203
2474.204092,689.485948,666.185348,8364.327145
2474.204421,612.876398,-1184.329507,9326.594869
2474.204750,-153.219100,-1924.535449,8734.430116
2474.205079,-1378.971896,-3034.844362,9696.697840
2474.205408,-1685.410096,-2738.761985,9696.697840
2474.205737,-1762.019645,-1628.453072,9178.553681
2474.206066,-1149.143247,-962.267725,9400.615463
2474.206395,-1302.362347,-0.000000,8882.471304
2474.206724,153.219100,888.247130,8734.430116
2474.207053,-306.438199,1036.288319,9104.533087
2474.207382,-1072.533697,888.247130,8808.450710
2474.207711,-306.438199,-0.000000,9030.512492
2474.208040,0.000000,-222.061783,9326.594869
2474.208369,229.828649,-814.226536,9326.594869
2474.208698,689.485948,-962.267725,8882.471304
2474.209027,1685.410096,-1036.288319,8956.491898
2474.209356,1302.362347,-814.226536,8660.409521
2474.209685,2221.676944,-592.164754,8438.347739
2474.210014,2145.067394,-74.020594,8956.491898
2474.210343,1838.629195,-0.000000,8586.388927
2474.210672,1532.190996,740.205942,8808.450710
2474.211001,1072.533697,1036.288319,8734.430116
2474.211330,229.828649,1554.432478,8882.471304
2474.211659,-153.219100,962.267725,9474.636058
2474.211988,-536.266849,592.164754,9252.574275
2474.212317,-919.314598,-370.102971,9326.594869
2474.212646,-1455.581446,-1406.391290,9770.718434
2474.212975,-1149.143247,-1258.350101,9696.697840
2474.213304,-1225.752797,-1406.391290,9622.677246
2474.213633,-995.924147,-2146.597232,9548.656652
2474.213961,-919.314598,-1332.370696,10214.842000
2474.214290,-306.438199,-1110.308913,9992.780217
2474.214619,-153.219100,-666.185348,9548.656652
2474.214948,1225.752797,-444.123565,10214.842000
2474.215277,1915.238745,888.247130,8956.491898
2474.215606,2681.334243,2368.659014,7476.080014
2474.215935,3140.991542,2516.700203,7328.038826
2474.216264,3370.820191,2442.679609,7328.038826
2474.216593,3524.039291,2516.700203,7476.080014
2474.216922,2298.286494,1406.391290,7772.162391
2474.217251,536.266849,-0.000000,8290.306550
2474.217580,229.828649,-1554.432478,9548.656652
2474.217909,-229.828649,-2368.659014,9844.739029
2474.218238,-1072.533697,-2886.803174,10881.027347
2474.218567,-1302.362347,-2368.659014,10955.047942
2474.218896,-689.485948,-1702.473667,10584.944971
2474.219225,-383.047749,-518.144159,10362.883188
2474.219554,612.876398,296.082377,9696.697840
2474.219883,1302.362347,1110.308913,8734.430116
2474.220212,1685.410096,1480.411884,8438.347739
2474.220541,1762.019645,2368.659014,7920.203579
2474.220870,1455.581446,1628.453072,7994.224174
2474.221199,766.095498,814.226536,8660.409521
2474.221529,-919.314598,-814.226536,9252.574275
2474.221858,-995.924147,-2146.597232,9474.636058
2474.222187,-1685.410096,-2960.823768,9548.656652
2474.222516,-1608.800546,-2960.823768,10362.883188
2474.222845,-1532.190996,-1850.514855,9622.677246
2474.223174,-1455.581446,-1036.288319,9918.759623
2474.223503,-1838.629195,-296.082377,8956.491898
2474.223832,-459.657299,1036.288319,9030.512492
2474.224161,-689.485948,1332.370696,8586.388927
2474.224490,-383.047749,1110.308913,8142.265362
2474.224819,0.000000,740.205942,8660.409521
2474.225148,612.876398,592.164754,8882.471304
2474.225477,1225.752797,-0.000000,7698.141797
2474.225806,1608.800546,222.061783,8586.388927
2474.226135,1302.362347,-444.123565,8364.327145
2474.226464,919.314598,-740.205942,8586.388927
2474.226793,919.314598,-962.267725,8882.471304
2474.227122,306.438199,-1110.308913,8882.471304
2474.227451,689.485948,-1184.329507,9474.636058
2474.227780,459.657299,-222.061783,9474.636058
2474.228110,0.000000,222.061783,9548.656652
2474.228439,229.828649,1184.329507,9696.697840
2474.228768,-229.828649,1406.391290,9030.512492
2474.229097,0.000000,1406.391290,8956.491898
2474.229426,-153.219100,1036.288319,8734.430116
2474.229755,-612.876398,296.082377,9178.553681
2474.230084,-1455.581446,-962.267725,9548.656652
2474.230413,-1225.752797,-1332.370696,10066.800811
2474.230742,-1532.190996,-2072.576638,10362.883188
2474.231071,-1149.143247,-2812.782580,9474.636058
2474.231400,-995.924147,-1924.535449,10510.924376
2474.231729,-459.657299,-1184.329507,9992.780217
2474.232058,-229.828649,-592.164754,9696.697840
2474.232387,383.047749,-74.020594,10288.862594
2474.232716,1762.019645,1184.329507,9400.615463
2474.233045,1762.019645,2516.700203,9178.553681
2474.233374,2068.457845,2294.638420,8068.244768
2474.233703,2451.505594,2368.659014,7846.182985
2474.234032,2451.505594,2146.597232,8142.265362
2474.234361,2451.505594,1184.329507,7698.141797
2474.234690,2068.457845,518.144159,8290.306550
2474.235020,1608.800546,-962.267725,8956.491898
2474.235349,689.485948,-1480.411884,9400.615463
2474.235678,0.000000,-2220.617826,10362.883188
2474.236007,-229.828649,-2072.576638,10214.842000
2474.236336,0.000000,-1406.391290,10214.842000
2474.236665,383.047749,-296.082377,9918.759623
2474.236994,995.924147,-0.000000,9474.636058
2474.237323,1455.581446,1480.411884,8808.450710
2474.237652,1225.752797,1776.494261,8882.471304
2474.237981,1762.019645,1776.494261,8142.265362
2474.238310,1378.971896,1480.411884,8216.285956
2474.238639,689.485948,370.102971,8364.327145
2474.238968,0.000000,-592.164754,8734.430116
2474.239297,-919.314598,-1850.514855,9400.615463
2474.239626,-1532.190996,-3330.926739,9400.615463
2474.239955,-1838.629195,-2886.803174,9770.718434
2474.240284,-1302.362347,-1998.556043,9178.553681
2474.240613,-1072.533697,-1184.329507,9474.636058
2474.240942,-612.876398,-0.000000,9252.574275
2474.241271,-689.485948,962.267725,9104.533087
2474.241601,-306.438199,1406.391290,8734.430116
2474.241930,0.000000,814.226536,9030.512492
2474.242259,842.705048,814.226536,8660.409521
2474.242588,766.095498,1258.350101,7994.224174
2474.242917,1302.362347,370.102971,8290.306550
2474.243246,919.314598,-0.000000,8216.285956
2474.243575,1225.752797,-666.185348,8660.409521
2474.243904,842.705048,-1332.370696,8734.430116
2474.244233,1302.362347,-1628.453072,9252.574275
2474.244562,842.705048,-1924.535449,9548.656652
2474.244891,0.000000,-1258.350101,9770.718434
2474.245220,229.828649,-592.164754,9622.677246
2474.245549,153.219100,296.082377,9474.636058
2474.245878,459.657299,1258.350101,9326.594869
2474.246207,1302.362347,1776.494261,9104.533087
2474.246536,919.314598,1776.494261,8438.347739
2474.246865,536.266849,1110.308913,8512.368333
2474.247194,0.000000,222.061783,8734.430116
2474.247523,-536.266849,-0.000000,8956.491898
2474.247852,-842.705048,-1258.350101,9622.677246
2474.248182,-1225.752797,-2146.597232,9844.739029
2474.248511,-1149.143247,-2368.659014,9622.677246
2474.248840,-995.924147,-1850.514855,9992.780217
2474.249169,0.000000,-2146.597232,9844.739029
2474.249498,-306.438199,-814.226536,9400.615463
2474.249827,459.657299,-0.000000,9474.636058
2474.250156,1225.752797,1628.453072,9326.594869
2474.250485,1685.410096,2368.659014,8364.327145
2474.250814,2528.115143,2368.659014,8438.347739
2474.251143,2834.553343,2146.597232,7698.141797
2474.251472,2681.334243,1850.514855,8216.285956
2474.251801,2911.162892,-148.041188,8290.306550
2474.252130,1762.019645,-0.000000,7550.100608
2474.252459,1608.800546,-666.185348,9326.594869
2474.252788,0.000000,-1776.494261,9770.718434
2474.253117,-229.828649,-2442.679609,9918.759623
2474.253446,-536.266849,-2368.659014,10881.027347
2474.253775,76.609550,-1554.432478,10288.862594
2474.254104,0.000000,-888.247130,10140.821405
2474.254433,612.876398,592.164754,9474.636058
2474.254763,689.485948,1258.350101,8956.491898
2474.255092,1225.752797,1258.350101,8882.471304
2474.255421,1149.143247,1554.432478,8068.244768
2474.255750,1072.533697,1110.308913,8142.265362
2474.256079,689.485948,296.082377,8660.409521
2474.256408,-306.438199,-666.185348,8808.450710
2474.256737,-536.266849,-1776.494261,9548.656652
2474.257066,-1149.143247,-2516.700203,9474.636058
2474.257395,-1149.143247,-2368.659014,9992.780217
2474.257724,-1378.971896,-1702.473667,9178.553681
2474.258053,-842.705048,-962.267725,9474.636058
2474.258382,-383.047749,-222.061783,8956.491898
2474.258711,306.438199,888.247130,8364.327145
2474.259040,76.609550,1184.329507,8364.327145
2474.259369,229.828649,1258.350101,8734.430116
2474.259698,842.705048,1258.350101,7846.182985
2474.260027,1225.752797,814.226536,7698.141797
2474.260356,1532.190996,-0.000000,7920.203579
2474.260685,2068.457845,-222.061783,8216.285956
2474.261014,1072.533697,-888.247130,8956.491898
2474.261343,1378.971896,-1628.453072,8882.471304
2474.261673,919.314598,-1554.432478,9326.594869
2474.262002,612.876398,-1628.453072,9696.697840
2474.262331,0.000000,-1406.391290,9622.677246
2474.262660,0.000000,-962.267725,9474.636058
2474.262989,-153.219100,370.102971,9696.697840
2474.263318,689.485948,666.185348,9326.594869
2474.263647,612.876398,1110.308913,9104.533087
2474.263976,0.000000,1702.473667,8660.409521
2474.264305,0.000000,1184.329507,8586.388927
2474.264634,-153.219100,-0.000000,8808.450710
2474.264963,-919.314598,-518.144159,9474.636058
2474.265292,-995.924147,-1924.535449,9770.718434
2474.265621,-1378.971896,-2220.617826,9622.677246
2474.265950,-766.095498,-2368.659014,10140.821405
2474.266279,-995.924147,-2220.617826,10362.883188
2474.266608,-383.047749,-962.267725,9696.697840
2474.266937,-153.219100,-592.164754,9696.697840
2474.267266,536.266849,666.185348,9474.636058
2474.267595,919.314598,1776.494261,8734.430116
2474.267924,3140.991542,2590.720797,8068.244768
2474.268254,2911.162892,2590.720797,7698.141797
2474.268583,2911.162892,2442.679609,7476.080014
2474.268912,2528.115143,1924.535449,7550.100608
2474.269241,1915.238745,740.205942,7920.203579
2474.269570,1532.190996,-444.123565,8734.430116
2474.269899,153.219100,-1480.411884,9104.533087
2474.270228,-459.657299,-1998.556043,10436.903782
2474.270557,-689.485948,-2516.700203,10362.883188
2474.270886,-842.705048,-1998.556043,10362.883188
2474.271215,-459.657299,-1258.350101,9918.759623
2474.271544,229.828649,-296.082377,9770.718434
2474.271873,919.314598,666.185348,8882.471304
2474.272202,1991.848295,1258.350101,8068.244768
2474.272531,2145.067394,1480.411884,8512.368333
2474.272860,1991.848295,1258.350101,7476.080014
2474.273189,919.314598,1110.308913,8142.265362
2474.273518,536.266849,-444.123565,8512.368333
2474.273847,-766.095498,-1110.308913,8734.430116
2474.274176,-1149.143247,-2368.659014,9474.636058
2474.274505,-1685.410096,-2960.823768,9918.759623
2474.274835,-1685.410096,-2960.823768,10214.842000
2474.275164,-1455.581446,-2368.659014,9474.636058
2474.275493,-1302.362347,-666.185348,9400.615463
2474.275822,-995.924147,222.061783,9400.615463
2474.276151,-383.047749,1332.370696,9030.512492
2474.276480,-306.438199,1554.432478,8734.430116
2474.276809,536.266849,1258.350101,8808.450710
2474.277138,1225.752797,740.205942,7624.121203
2474.277467,1685.410096,962.267725,7698.141797
2474.277796,1532.190996,296.082377,7920.203579
2474.278125,1532.190996,-74.020594,8364.327145
2474.278454,1225.752797,-962.267725,8882.471304
2474.278783,995.924147,-1258.350101,8882.471304
2474.279112,766.095498,-1480.411884,9548.656652
2474.279441,459.657299,-2294.638420,9622.677246
2474.279770,0.000000,-1554.432478,9622.677246
2474.280099,0.000000,-74.020594,9548.656652
2474.280428,306.438199,666.185348,9252.574275
2474.280757,459.657299,1332.370696,8882.471304
2474.281086,612.876398,1850.514855,8438.347739
2474.281416,689.485948,1480.411884,8142.265362
2474.281745,306.438199,814.226536,8512.368333
2474.282074,-459.657299,296.082377,8882.471304
2474.282403,-1072.533697,-1036.288319,9104.533087
2474.282732,-1225.752797,-2072.576638,10066.800811
2474.283061,-1532.190996,-2368.659014,9770.718434
2474.283390,-1532.190996,-2738.761985,9992.780217
2474.283719,-995.924147,-2220.617826,10436.903782
2474.284048,0.000000,-1480.411884,10066.800811
2474.284377,306.438199,-592.164754,9770.718434
2474.284706,1378.971896,592.164754,9474.636058
2474.285035,2451.505594,1406.391290,8586.388927
2474.285364,2681.334243,2664.741391,7476.080014
2474.285693,3064.381992,2294.638420,7254.018232
2474.286022,3140.991542,2368.659014,7476.080014
2474.286351,2681.334243,1554.432478,7698.141797
2474.286680,2528.115143,518.144159,7994.224174
2474.287009,919.314598,-1110.308913,9030.512492
2474.287338,306.438199,-1776.494261,9474.636058
2474.287667,-536.266849,-2516.700203,10140.821405
2474.287997,-766.095498,-2368.659014,10658.965565
2474.288326,-689.485948,-2146.597232,10436.903782
2474.288655,-1378.971896,-814.226536,10362.883188
2474.288984,689.485948,-0.000000,9844.739029
2474.289313,1225.752797,1036.288319,8882.471304
2474.289642,1915.238745,1776.494261,8364.327145
2474.289971,2068.457845,2146.597232,7698.141797
2474.290300,1838.629195,2072.576638,7698.141797
2474.290629,1838.629195,814.226536,7772.162391
2474.290958,842.705048,-0.000000,7698.141797
2474.291287,-306.438199,-888.247130,9178.553681
2474.291616,-1378.971896,-2146.597232,9400.615463
2474.291945,-2068.457845,-2812.782580,9622.677246
2474.292274,-1991.848295,-2442.679609,9992.780217
2474.292603,-1991.848295,-1776.494261,9622.677246
2474.292932,-1225.752797,-962.267725,9178.553681
2474.293261,-689.485948,-296.082377,9030.512492
2474.293590,612.876398,1110.308913,8882.471304
2474.293919,-229.828649,1480.411884,8882.471304
2474.294248,766.095498,1184.329507,8512.368333
2474.294577,1225.752797,1258.350101,7476.080014
2474.294907,1991.848295,888.247130,7772.162391
2474.295236,1608.800546,370.102971,7920.203579
2474.295565,1838.629195,-888.247130,9030.512492
2474.295894,1378.971896,-1184.329507,9326.594869
2474.296223,766.095498,-1480.411884,8808.450710
2474.296552,229.828649,-1924.535449,9696.697840
2474.296881,0.000000,-1776.494261,9770.718434
2474.297210,-306.438199,-1332.370696,9992.780217
2474.297539,-689.485948,-296.082377,9918.759623
2474.297868,0.000000,148.041188,9622.677246
2474.298197,-459.657299,814.226536,8882.471304
2474.298526,-229.828649,1406.391290,8882.471304
2474.298855,76.609550,1184.329507,8512.368333
2474.299184,-76.609550,740.205942,9178.553681
2474.299513,-383.047749,-0.000000,8882.471304
2474.299842,-766.095498,-740.205942,9474.636058
2474.300171,-1149.143247,-1924.535449,9696.697840
2474.300500,-995.924147,-2294.638420,9548.656652
2474.300829,-612.876398,-2368.659014,9844.739029
2474.301158,-536.266849,-2072.576638,9622.677246
2474.301488,-229.828649,-1036.288319,9474.636058
2474.301817,689.485948,-0.000000,9252.574275
2474.302146,1608.800546,1480.411884,9030.512492
2474.302475,2221.676944,2368.659014,8068.244768
2474.302804,2757.943793,2442.679609,7179.997637
2474.303133,2451.505594,2664.741391,7476.080014
2474.303462,2068.457845,1998.556043,7624.121203
2474.303791,1685.410096,962.267725,7994.224174
2474.304120,1149.143247,-518.144159,8586.388927
2474.304449,153.219100,-1480.411884,9326.594869
2474.304778,-153.219100,-2442.679609,9770.718434
2474.305107,0.000000,-2664.741391,10658.965565
2474.305436,536.266849,-2812.782580,10658.965565
2474.305765,383.047749,-1924.535449,10362.883188
2474.306094,842.705048,-296.082377,9696.697840
2474.306423,2068.457845,814.226536,9178.553681
2474.306752,2681.334243,1924.535449,8512.368333
2474.307081,2834.553343,2368.659014,7772.162391
2474.307410,2604.724693,2812.782580,7920.203579
2474.307739,2068.457845,1776.494261,7920.203579
2474.308069,919.314598,518.144159,8586.388927
2474.308398,0.000000,-1184.329507,9178.553681
2474.308727,-1532.190996,-2294.638420,9918.759623
2474.309056,-1991.848295,-3182.885551,10288.862594
2474.309385,-2145.067394,-3330.926739,10436.903782
2474.309714,-2068.457845,-2442.679609,9548.656652
2474.310043,-1072.533697,-1258.350101,10140.821405
2474.310372,-995.924147,-518.144159,9326.594869
2474.310701,-306.438199,740.205942,9548.656652
2474.311030,0.000000,1036.288319,9030.512492
2474.311359,0.000000,1332.370696,8808.450710
2474.311688,536.266849,740.205942,9474.636058
2474.312017,1608.800546,592.164754,8216.285956
2474.312346,2834.553343,962.267725,7402.059420
2474.312675,2528.115143,814.226536,7105.977043
2474.313004,2145.067394,592.164754,7179.997637
2474.313333,1762.019645,-222.061783,8290.306550
2474.313662,842.705048,-814.226536,8068.244768
2474.313991,306.438199,-1480.411884,9178.553681
2474.314320,-383.047749,-2368.659014,9696.697840
2474.314650,-995.924147,-1184.329507,9474.636058
2474.314979,-1149.143247,-740.205942,9696.697840
2474.315308,-1149.143247,-0.000000,9696.697840
2474.315637,-842.705048,518.144159,9400.615463
2474.315966,-919.314598,1110.308913,8956.491898
2474.316295,-689.485948,1184.329507,8660.409521
2474.316624,-536.266849,296.082377,9252.574275
2474.316953,-1225.752797,-222.061783,8882.471304
2474.317282,-1225.752797,-370.102971,9326.594869
2474.317611,-536.266849,-1332.370696,9178.553681
2474.317940,-766.095498,-1924.535449,9400.615463
2474.318269,-536.266849,-1998.556043,9474.636058
2474.318599,-459.657299,-1554.432478,9400.615463
2474.318928,0.000000,-1258.350101,9474.636058
2474.319257,1072.533697,-296.082377,9104.533087
2474.319586,536.266849,-0.000000,9326.594869
2474.319915,766.095498,1480.411884,9178.553681
2474.320244,1072.533697,1554.432478,8438.347739
2474.320573,1302.362347,1480.411884,8586.388927
2474.320903,1302.362347,1258.350101,8512.368333
2474.321232,1455.581446,518.144159,8586.388927
2474.321561,1455.581446,-148.041188,9252.574275
2474.321890,1149.143247,-740.205942,9400.615463
2474.322219,995.924147,-814.226536,9474.636058
2474.322548,612.876398,-1110.308913,9918.759623
2474.322877,919.314598,-1184.329507,9918.759623
2474.323207,842.705048,-592.164754,9548.656652
2474.323536,1762.019645,-148.041188,9474.636058
2474.323865,1532.190996,444.123565,9178.553681
2474.324194,1608.800546,1110.308913,8660.409521
2474.324523,1225.752797,1850.514855,8216.285956
2474.324852,842.705048,1628.453072,8438.347739
2474.325182,459.657299,888.247130,8512.368333
2474.325511,0.000000,-74.020594,8882.471304
2474.325840,-383.047749,-1036.288319,9548.656652
2474.326169,-1302.362347,-2368.659014,9696.697840
2474.326498,-1302.362347,-2368.659014,10214.842000
2474.326827,-842.705048,-1998.556043,10214.842000
2474.327156,-995.924147,-1332.370696,9992.780217
2474.327486,-612.876398,-740.205942,9622.677246
2474.327815,-306.438199,-0.000000,9474.636058
2474.328144,766.095498,370.102971,9474.636058
2474.328473,1838.629195,1406.391290,8364.327145
2474.328802,1762.019645,2072.576638,7328.038826
2474.329131,2451.505594,1924.535449,7476.080014
2474.329460,2221.676944,1850.514855,7179.997637
2474.329790,1838.629195,962.267725,7846.182985
2474.330119,1225.752797,-370.102971,8290.306550
2474.330448,459.657299,-1406.391290,9104.533087
2474.330777,-536.266849,-1924.535449,9622.677246
2474.331106,-766.095498,-2664.741391,10288.862594
2474.331435,-1455.581446,-2516.700203,11103.089130
2474.331765,-919.314598,-1702.473667,10362.883188
2474.332094,-383.047749,-740.205942,9992.780217
2474.332423,0.000000,370.102971,9770.718434
2474.332752,383.047749,740.205942,9252.574275
2474.333081,536.266849,1332.370696,8438.347739
2474.333410,1072.533697,1850.514855,7476.080014
2474.333739,995.924147,1850.514855,7624.121203
2474.334069,612.876398,962.267725,7920.203579
2474.334398,76.609550,-74.020594,8216.285956
2474.334727,-842.705048,-1258.350101,9030.512492
2474.335056,-1302.362347,-2442.679609,9474.636058
2474.335385,-1455.581446,-3108.864956,9770.718434
2474.335714,-1072.533697,-2590.720797,9696.697840
2474.336043,-612.876398,-1776.494261,9844.739029
2474.336373,-842.705048,-814.226536,9696.697840
2474.336702,-306.438199,222.061783,9622.677246
2474.337031,-383.047749,1184.329507,9474.636058
2474.337360,0.000000,1406.391290,9252.574275
2474.337689,689.485948,1184.329507,8956.491898
2474.338018,1608.800546,2220.617826,7550.100608
2474.338348,2451.505594,2146.597232,7994.224174
2474.338677,2528.115143,1258.350101,7698.141797
2474.339006,2681.334243,592.164754,8068.244768
2474.339335,2068.457845,-444.123565,8586.388927
2474.339664,1378.971896,-740.205942,8512.368333
2474.339993,0.000000,-1776.494261,9992.780217
2474.340322,153.219100,-1924.535449,10140.821405
2474.340652,0.000000,-1702.473667,10288.862594
2474.340981,-153.219100,-592.164754,9992.780217
2474.341310,383.047749,-0.000000,9918.759623
2474.341639,536.266849,814.226536,9622.677246
2474.341968,306.438199,1628.453072,9326.594869
2474.342297,383.047749,1554.432478,9104.533087
2474.342626,612.876398,592.164754,9178.553681
2474.342956,306.438199,370.102971,9178.553681
2474.343285,-383.047749,-296.082377,9474.636058
2474.343614,-383.047749,-1406.391290,9622.677246
2474.343943,-766.095498,-2072.576638,9474.636058
2474.344272,-766.095498,-2294.638420,9622.677246
2474.344601,0.000000,-1924.535449,9400.615463
2474.344931,0.000000,-1480.411884,9474.636058
2474.345260,0.000000,-148.041188,9400.615463
2474.345589,766.095498,1110.308913,8734.430116
2474.345918,1378.971896,1850.514855,8438.347739
2474.346247,1302.362347,2072.576638,7772.162391
2474.346576,1685.410096,2146.597232,7698.141797
2474.346905,2145.067394,1258.350101,7550.100608
2474.347235,1838.629195,814.226536,7772.162391
2474.347564,919.314598,-666.185348,8512.368333
2474.347893,919.314598,-1702.473667,9030.512492
2474.348222,0.000000,-2146.597232,8734.430116
2474.348551,-229.828649,-2368.659014,9770.718434
2474.348880,-536.266849,-2442.679609,9918.759623
2474.349209,-383.047749,-1776.494261,10362.883188
2474.349539,-153.219100,-1184.329507,9770.718434
2474.349868,612.876398,-0.000000,9326.594869
2474.350197,536.266849,1036.288319,8882.471304
2474.350526,842.705048,1776.494261,8216.285956
2474.350855,995.924147,2072.576638,7920.203579
2474.351184,536.266849,1628.453072,7772.162391
2474.351514,383.047749,592.164754,7994.224174
2474.351843,0.000000,-222.061783,8586.388927
2474.352172,-306.438199,-1702.473667,9400.615463
2474.352501,-1302.362347,-2516.700203,9918.759623
2474.352830,-1838.629195,-2738.761985,9918.759623
2474.353159,-1685.410096,-2368.659014,9770.718434
2474.353488,-995.924147,-1480.411884,10066.800811
2474.353818,-1149.143247,-74.020594,9844.739029
2474.354147,-842.705048,-0.000000,9918.759623
2474.354476,76.609550,888.247130,9400.615463
2474.354805,0.000000,1332.370696,9178.553681
2474.355134,612.876398,1184.329507,9474.636058
2474.355463,1149.143247,1924.535449,8216.285956
2474.355792,2298.286494,1702.473667,8438.347739
2474.356122,2451.505594,1258.350101,7698.141797
2474.356451,2528.115143,-74.020594,8142.265362
2474.356780,1838.629195,-370.102971,8734.430116
2474.357109,1685.410096,-518.144159,8364.327145
2474.357438,1149.143247,-1258.350101,9104.533087
2474.357767,689.485948,-1258.350101,9474.636058
2474.358097,229.828649,-592.164754,9622.677246
2474.358426,0.000000,-370.102971,10066.800811
2474.358755,0.000000,148.041188,9252.574275
2474.359084,306.438199,1036.288319,9474.636058
2474.359413,0.000000,1184.329507,8882.471304
2474.359742,0.000000,1332.370696,8808.450710
2474.360071,-459.657299,222.061783,9326.594869
2474.360401,-536.266849,-0.000000,9252.574275
2474.360730,-383.047749,-740.205942,9696.697840
2474.361059,-842.705048,-1702.473667,9474.636058
2474.361388,-1225.752797,-2072.576638,9622.677246
2474.361717,-1149.143247,-1850.514855,9844.739029
2474.362046,-459.657299,-1480.411884,9548.656652
2474.362375,-306.438199,-814.226536,9474.636058
2474.362705,0.000000,-0.000000,9400.615463
2474.363034,153.219100,740.205942,9104.533087
2474.363363,229.828649,1480.411884,8068.244768
2474.363692,1302.362347,1554.432478,8438.347739
2474.364021,1608.800546,1332.370696,7624.121203
2474.364350,1378.971896,1184.329507,7920.203579
2474.364680,1532.190996,-0.000000,8438.347739
2474.365009,689.485948,-1036.288319,8512.368333
2474.365338,919.314598,-1628.453072,9474.636058
2474.365667,536.266849,-1850.514855,8808.450710
2474.365996,0.000000,-2220.617826,9992.780217
2474.366325,-229.828649,-1924.535449,9918.759623
2474.366654,0.000000,-962.267725,9844.739029
2474.366984,383.047749,-444.123565,9474.636058
2474.367313,612.876398,296.082377,9252.574275
2474.367642,1072.533697,1184.329507,8290.306550
2474.367971,1072.533697,1258.350101,7550.100608
2474.368300,842.705048,1998.556043,7994.224174
2474.368629,612.876398,1258.350101,7994.224174
2474.368958,0.000000,-0.000000,8216.285956
2474.369288,-842.705048,-962.267725,8808.450710
2474.369617,-1225.752797,-2072.576638,9326.594869
2474.369946,-995.924147,-2960.823768,9918.759623
2474.370275,-1762.019645,-3034.844362,9844.739029
2474.370604,-1302.362347,-2368.659014,10362.883188
2474.370933,-1149.143247,-1258.350101,9992.780217
2474.371263,-689.485948,-370.102971,9696.697840
2474.371592,0.000000,592.164754,9844.739029
2474.371921,995.924147,1184.329507,9622.677246
2474.372250,1302.362347,2072.576638,7920.203579
2474.372579,3064.381992,2590.720797,8068.244768
2474.372908,3064.381992,2516.700203,6661.853478
2474.373237,3140.991542,2072.576638,7179.997637
2474.373567,2298.286494,1036.288319,7920.203579
2474.373896,1991.848295,-0.000000,8438.347739
2474.374225,919.314598,-1702.473667,9252.574275
2474.374554,0.000000,-2442.679609,9992.780217
2474.374883,-919.314598,-2960.823768,10510.924376
2474.375212,-1302.362347,-2516.700203,11399.171507
2474.375541,-612.876398,-1184.329507,10584.944971
2474.375871,229.828649,-74.020594,10584.944971
2474.376200,919.314598,888.247130,9548.656652
2474.376529,1302.362347,1998.556043,8956.491898
2474.376858,1608.800546,1850.514855,8512.368333
2474.377187,1915.238745,3182.885551,8956.491898
2474.377516,1532.190996,1480.411884,8586.388927
2474.377846,766.095498,592.164754,8660.409521
2474.378175,-306.438199,-888.247130,9104.533087
2474.378504,-919.314598,-1998.556043,9548.656652
2474.378833,-1225.752797,-2442.679609,9474.636058
2474.379162,-1608.800546,-2368.659014,9548.656652
2474.379491,-1149.143247,-2294.638420,9548.656652
2474.379820,-1149.143247,-592.164754,9548.656652
2474.380150,-689.485948,-0.000000,9104.533087
2474.380479,76.609550,1036.288319,8956.491898
2474.380808,842.705048,1480.411884,8882.471304
2474.381137,1455.581446,2368.659014,7772.162391
2474.381466,2068.457845,1850.514855,7254.018232
2474.381795,2451.505594,1554.432478,7105.977043
2474.382124,2374.896044,740.205942,7698.141797
2474.382454,1532.190996,-370.102971,8068.244768
2474.382783,689.485948,-1258.350101,8660.409521
2474.383112,306.438199,-2220.617826,9104.533087
2474.383441,-459.657299,-2442.679609,9696.697840
2474.383770,-995.924147,-2442.679609,9844.739029
2474.384099,-1302.362347,-1702.473667,9918.759623
2474.384429,-766.095498,-666.185348,9992.780217
2474.384758,153.219100,740.205942,9400.615463
2474.385087,76.609550,1702.473667,8956.491898
2474.385416,1225.752797,1702.473667,8438.347739
2474.385745,612.876398,2146.597232,7772.162391
2474.386074,229.828649,1406.391290,8586.388927
2474.386403,536.266849,-0.000000,8956.491898
2474.386733,-536.266849,-666.185348,9474.636058
2474.387062,-1378.971896,-2368.659014,9548.656652
2474.387391,-995.924147,-2590.720797,10214.842000
2474.387720,-1838.629195,-4071.132681,10510.924376
2474.388049,-1302.362347,-2072.576638,10214.842000
2474.388378,-842.705048,-1776.494261,10140.821405
2474.388707,-766.095498,-148.041188,9622.677246
2474.389037,766.095498,444.123565,9178.553681
2474.389366,1608.800546,1850.514855,8586.388927
2474.389695,1991.848295,2516.700203,8068.244768
2474.390024,2068.457845,2960.823768,7846.182985
2474.390353,2298.286494,2220.617826,7328.038826
2474.390682,2068.457845,1332.370696,7846.182985
2474.391012,1762.019645,296.082377,8290.306550
2474.391341,766.095498,-1036.288319,9400.615463
2474.391670,0.000000,-2072.576638,9474.636058
2474.391999,0.000000,-2738.761985,9844.739029
2474.392328,-153.219100,-2442.679609,10436.903782
2474.392657,0.000000,-2072.576638,10436.903782
2474.392986,383.047749,-888.247130,10140.821405
2474.393316,1302.362347,296.082377,9474.636058
2474.393645,1685.410096,1332.370696,8586.388927
2474.393974,2298.286494,2294.638420,7994.224174
2474.394303,2298.286494,2590.720797,7772.162391
2474.394632,1302.362347,2664.741391,8290.306550
2474.394961,1225.752797,1628.453072,7920.203579
2474.395290,76.609550,296.082377,8808.450710
2474.395620,-995.924147,-1554.432478,9474.636058
2474.395949,-1608.800546,-2442.679609,9696.697840
2474.396278,-2068.457845,-3256.906145,10807.006753
2474.396607,-3140.991542,-2886.803174,10510.924376
2474.396936,-1915.238745,-2220.617826,9918.759623
2474.397265,-1455.581446,-1036.288319,9474.636058
2474.397595,-306.438199,148.041188,9548.656652
2474.397924,0.000000,962.267725,9178.553681
2474.398253,1532.190996,1776.494261,9474.636058
2474.398582,2221.676944,1998.556043,7550.100608
2474.398911,2451.505594,2220.617826,7550.100608
2474.399240,2451.505594,1850.514855,7328.038826
2474.399569,2681.334243,1332.370696,7920.203579
2474.399899,1762.019645,222.061783,8216.285956
2474.400228,919.314598,-814.226536,8586.388927
2474.400557,-383.047749,-2368.659014,9474.636058
2474.400886,-1072.533697,-2368.659014,9474.636058
2474.401215,-919.314598,-2812.782580,10066.800811
2474.401544,-1149.143247,-1776.494261,10436.903782
2474.401873,-153.219100,-814.226536,9770.718434
2474.402203,0.000000,-0.000000,9252.574275
2474.402532,689.485948,1184.329507,8808.450710
2474.402861,1149.143247,1332.370696,8216.285956
2474.403190,1685.410096,1924.535449,7920.203579
2474.403519,1149.143247,1776.494261,8068.244768
2474.403848,229.828649,518.144159,8586.388927
2474.404178,-153.219100,-518.144159,8956.491898
2474.404507,-842.705048,-1850.514855,9326.594869
2474.404836,-1608.800546,-2220.617826,9992.780217
2474.405165,-2068.457845,-2960.823768,9992.780217
2474.405494,-1378.971896,-2812.782580,10140.821405
2474.405823,-1378.971896,-1702.473667,10140.821405
2474.406152,-612.876398,-814.226536,9622.677246
2474.406482,-306.438199,444.123565,9474.636058
2474.406811,0.000000,1332.370696,9104.533087
2474.407140,995.924147,1332.370696,8364.327145
2474.407469,2145.067394,1702.473667,7402.059420
2474.407798,1762.019645,1776.494261,7920.203579
2474.408127,2451.505594,370.102971,8290.306550
2474.408456,1991.848295,-444.123565,8216.285956
2474.408786,1302.362347,-666.185348,8808.450710
2474.409115,766.095498,-1406.391290,9474.636058
2474.409444,0.000000,-2368.659014,9696.697840
2474.409773,-383.047749,-2072.576638,10066.800811
2474.410102,0.000000,-1924.535449,10362.883188
2474.410431,306.438199,-962.267725,10066.800811
2474.410761,842.705048,-0.000000,9622.677246
2474.411090,1072.533697,1554.432478,9104.533087
2474.411419,1455.581446,1924.535449,8438.347739
2474.411748,1302.362347,2220.617826,7846.182985
2474.412077,689.485948,1628.453072,7624.121203
2474.412406,842.705048,666.185348,8290.306550
2474.412735,-76.609550,-370.102971,8660.409521
2474.413065,-842.705048,-1628.453072,9178.553681
2474.413394,-1378.971896,-2368.659014,9770.718434
2474.413723,-1455.581446,-2442.679609,10066.800811
2474.414052,-1532.190996,-2072.576638,9696.697840
2474.414381,-689.485948,-1480.411884,9918.759623
2474.414710,-459.657299,-444.123565,9992.780217
2474.415039,0.000000,148.041188,9474.636058
2474.415369,612.876398,1110.308913,9400.615463
2474.415698,1838.629195,2294.638420,8068.244768
2474.416027,2834.553343,2590.720797,7402.059420
2474.416356,2757.943793,2368.659014,6735.874072
2474.416685,2604.724693,2072.576638,7105.977043
2474.417014,2528.115143,518.144159,8068.244768
2474.417344,995.924147,-148.041188,9104.533087
2474.417673,306.438199,-1702.473667,9326.594869
2474.418002,-306.438199,-2294.638420,9474.636058
2474.418331,-995.924147,-2812.782580,10362.883188
2474.418660,-1149.143247,-2368.659014,10732.986159
2474.418989,-153.219100,-1628.453072,10881.027347
2474.419318,0.000000,-740.205942,10436.903782
2474.419647,383.047749,444.123565,10288.862594
2474.419977,1225.752797,888.247130,8808.450710
2474.420306,995.924147,1776.494261,8290.306550
2474.420635,1608.800546,1850.514855,7846.182985
2474.420964,1302.362347,1776.494261,7920.203579
2474.421293,919.314598,592.164754,8142.265362
2474.421622,0.000000,-740.205942,9030.512492
2474.421951,-383.047749,-1924.535449,9030.512492
2474.422280,-1455.581446,-2590.720797,9400.615463
2474.422609,-1838.629195,-2664.741391,10066.800811
2474.422938,-1608.800546,-2442.679609,10658.965565
2474.423267,-1225.752797,-1554.432478,9548.656652
2474.423596,-1149.143247,-370.102971,9696.697840
2474.423925,-536.266849,518.144159,9400.615463
2474.424254,76.609550,1184.329507,9030.512492
2474.424583,919.314598,1184.329507,8660.409521
2474.424912,1608.800546,1702.473667,7994.224174
2474.425242,2451.505594,1702.473667,7550.100608
2474.425571,2298.286494,518.144159,7698.141797
2474.425900,2145.067394,370.102971,7920.203579
2474.426229,1762.019645,-518.144159,8290.306550
2474.426558,1302.362347,-1110.308913,8438.347739
2474.426887,842.705048,-1924.535449,9104.533087
2474.427216,306.438199,-1850.514855,9622.677246
2474.427545,76.609550,-1258.350101,10140.821405
2474.427874,153.219100,-1036.288319,9992.780217
2474.428203,306.438199,-0.000000,9474.636058
2474.428532,229.828649,962.267725,9178.553681
2474.428861,0.000000,1184.329507,8882.471304
2474.429190,536.266849,1406.391290,9104.533087
2474.429519,842.705048,1184.329507,8586.388927
2474.429848,-459.657299,370.102971,8660.409521
2474.430177,-766.095498,-148.041188,8882.471304
2474.430507,-919.314598,-1776.494261,9992.780217
2474.430836,-1149.143247,-2072.576638,9770.718434
2474.431165,-1302.362347,-2516.700203,9548.656652
2474.431494,-1149.143247,-2220.617826,10288.862594
2474.431823,-919.314598,-1628.453072,9918.759623
2474.432152,-459.657299,-592.164754,9696.697840
2474.432481,459.657299,370.102971,9326.594869
2474.432810,1455.581446,1628.453072,8512.368333
2474.433139,1685.410096,2294.638420,7994.224174
2474.433468,1838.629195,2664.741391,7624.121203
2474.433797,1838.629195,2072.576638,7624.121203
2474.434126,1378.971896,1110.308913,7772.162391
2474.434455,766.095498,222.061783,8586.388927
2474.434784,-459.657299,-888.247130,8956.491898
2474.435113,0.000000,-2146.597232,9400.615463
2474.435442,-383.047749,-2590.720797,9770.718434
2474.435772,-383.047749,-2738.761985,10288.862594
2474.436101,0.000000,-1776.494261,10214.842000
2474.436430,0.000000,-592.164754,9918.759623
2474.436759,536.266849,-0.000000,9474.636058
2474.437088,1532.190996,1332.370696,8956.491898
2474.437417,1991.848295,2368.659014,8068.244768
2474.437746,1991.848295,2516.700203,7624.121203
2474.438075,1915.238745,2442.679609,7846.182985
2474.438404,1838.629195,1998.556043,8290.306550
2474.438733,536.266849,-0.000000,8364.327145
2474.439062,-689.485948,-1554.432478,9252.574275
2474.439391,-1838.629195,-2664.741391,9918.759623
2474.439720,-2068.457845,-3330.926739,10214.842000
2474.440049,-2068.457845,-3404.947333,10214.842000
2474.440378,-1685.410096,-2368.659014,9770.718434
2474.440707,-919.314598,-1332.370696,9992.780217
2474.441037,-842.705048,-740.205942,9770.718434
2474.441366,-229.828649,1110.308913,9104.533087
2474.441695,919.314598,740.205942,9770.718434
2474.442024,919.314598,1998.556043,8068.244768
2474.442353,2451.505594,2368.659014,8068.244768
2474.442682,2604.724693,1924.535449,7179.997637
2474.443011,2298.286494,1554.432478,7698.141797
2474.443340,2451.505594,-0.000000,8808.450710
2474.443669,1991.848295,-666.185348,8142.265362
2474.443998,842.705048,-1406.391290,8734.430116
2474.444327,0.000000,-1924.535449,9474.636058
2474.444656,-536.266849,-2368.659014,9844.739029
2474.444985,-995.924147,-2294.638420,10436.903782
2474.445314,-689.485948,-1036.288319,10288.862594
2474.445643,-459.657299,-0.000000,9844.739029
2474.445972,229.828649,222.061783,9178.553681
2474.446301,306.438199,2072.576638,8586.388927
2474.446631,536.266849,1850.514855,8290.306550
2474.446960,842.705048,1406.391290,7994.224174
2474.447289,229.828649,1110.308913,8216.285956
2474.447618,383.047749,-74.020594,8882.471304
2474.447947,0.000000,-1406.391290,9178.553681
2474.448276,-1149.143247,-2294.638420,9104.533087
2474.448605,-766.095498,-2516.700203,9770.718434
2474.448934,-842.705048,-2294.638420,9622.677246
2474.449263,-1072.533697,-1480.411884,9696.697840
2474.449592,-689.485948,-444.123565,9548.656652
2474.449921,-383.047749,-0.000000,9104.533087
2474.450250,153.219100,1184.329507,9104.533087
2474.450579,1302.362347,1480.411884,8660.409521
2474.450908,1378.971896,1554.432478,8364.327145
2474.451237,1455.581446,1702.473667,7920.203579
2474.451566,1838.629195,1036.288319,7994.224174
2474.451896,1455.581446,-0.000000,8512.368333
2474.452225,1225.752797,-740.205942,9030.512492
2474.452554,689.485948,-1406.391290,9400.615463
2474.452883,76.609550,-2220.617826,10140.821405
2474.453212,0.000000,-2294.638420,10214.842000
2474.453541,0.000000,-1776.494261,10140.821405
2474.453870,383.047749,-888.247130,9992.780217
2474.454199,536.266849,-222.061783,9622.677246
2474.454528,1225.752797,1184.329507,9104.533087
2474.454857,1225.752797,1850.514855,8586.388927
2474.455186,1072.533697,1628.453072,8364.327145
2474.455515,536.266849,1776.494261,8216.285956
2474.455844,536.266849,888.247130,8142.265362
2474.456173,0.000000,-74.020594,8512.368333
2474.456502,-842.705048,-1184.329507,9400.615463
2474.456831,-1225.752797,-2442.679609,9622.677246
2474.457161,-1915.238745,-3108.864956,9770.718434
2474.457490,-1149.143247,-2590.720797,9918.759623
2474.457819,-1532.190996,-1998.556043,9622.677246
2474.458148,-842.705048,-888.247130,9548.656652
2474.458477,-153.219100,222.061783,9474.636058
2474.458806,766.095498,1036.288319,9474.636058
2474.459135,1838.629195,1628.453072,8142.265362
2474.459464,2451.505594,2146.597232,7550.100608
2474.459793,2145.067394,2368.659014,7402.059420
2474.460122,3294.210641,2146.597232,7550.100608
2474.460451,2374.896044,1258.350101,7550.100608
2474.460780,1608.800546,-222.061783,8438.347739
2474.461109,995.924147,-888.247130,9030.512492
2474.461438,229.828649,-1702.473667,9622.677246
2474.461767,-383.047749,-2812.782580,9844.739029
2474.462096,-536.266849,-2516.700203,10807.006753
2474.462426,0.000000,-1702.473667,10510.924376
2474.462755,0.000000,-592.164754,10214.842000
2474.463084,536.266849,518.144159,9622.677246
2474.463413,995.924147,1480.411884,8734.430116
2474.463742,1225.752797,1850.514855,8364.327145
2474.464071,766.095498,2368.659014,7994.224174
2474.464400,1072.533697,1554.432478,8364.327145
2474.464729,536.266849,592.164754,8142.265362
2474.465058,0.000000,-444.123565,9400.615463
2474.465387,-842.705048,-1702.473667,9622.677246
2474.465716,-1532.190996,-2442.679609,9992.780217
2474.466045,-1378.971896,-2886.803174,10658.965565
2474.466374,-1685.410096,-2220.617826,10140.821405
2474.466703,-842.705048,-962.267725,9992.780217
2474.467032,-689.485948,-222.061783,9622.677246
2474.467361,-536.266849,888.247130,9178.553681
2474.467690,306.438199,1406.391290,9474.636058
2474.468020,919.314598,1628.453072,8216.285956
2474.468349,1685.410096,2072.576638,7846.182985
2474.468678,2374.896044,1998.556043,7402.059420
2474.469007,2834.553343,1036.288319,7328.038826
2474.469336,2145.067394,296.082377,7994.224174
2474.469665,1838.629195,-444.123565,8364.327145
2474.469994,1378.971896,-1332.370696,8882.471304
2474.470323,536.266849,-1924.535449,9548.656652
2474.470652,0.000000,-2294.638420,9622.677246
2474.470981,-536.266849,-1924.535449,10214.842000
2474.471310,0.000000,-1184.329507,9844.739029
2474.471639,459.657299,-370.102971,9400.615463
2474.471968,689.485948,1110.308913,9104.533087
2474.472297,689.485948,1924.535449,8438.347739
2474.472626,842.705048,1924.535449,8216.285956
2474.472955,536.266849,1480.411884,8216.285956
2474.473285,306.438199,666.185348,8216.285956
2474.473614,0.000000,-666.185348,8512.368333
2474.473943,-766.095498,-1702.473667,9622.677246
2474.474272,-1532.190996,-3034.844362,9992.780217
2474.474601,-1915.238745,-2960.823768,9918.759623
2474.474930,-1838.629195,-3182.885551,10066.800811
2474.475259,-995.924147,-1998.556043,10214.842000
2474.475588,-766.095498,-888.247130,9844.739029
2474.475917,-306.438199,-0.000000,9548.656652
2474.476246,1149.143247,1924.535449,9252.574275
2474.476575,2145.067394,2368.659014,8142.265362
2474.476904,2681.334243,2812.782580,7254.018232
2474.477233,2911.162892,2812.782580,7105.977043
2474.477562,2681.334243,1998.556043,7476.080014
2474.477891,1685.410096,888.247130,7328.038826
2474.478220,1072.533697,-518.144159,8586.388927
2474.478550,153.219100,-2072.576638,9474.636058
2474.478879,-536.266849,-2590.720797,9696.697840
2474.479208,-995.924147,-3182.885551,10288.862594
2474.479537,-995.924147,-2590.720797,10584.944971
2474.479866,-919.314598,-1480.411884,10584.944971
2474.480195,-229.828649,-518.144159,9770.718434
2474.480524,1302.362347,814.226536,9400.615463
2474.480853,1608.800546,2220.617826,8216.285956
2474.481182,2221.676944,2664.741391,7624.121203
2474.481511,2374.896044,3034.844362,7402.059420
2474.481840,1838.629195,2368.659014,7402.059420
2474.482169,995.924147,1332.370696,8142.265362
2474.482498,-229.828649,-592.164754,9030.512492
2474.482827,-459.657299,-2294.638420,9918.759623
2474.483156,-1608.800546,-3404.947333,9474.636058
2474.483485,-1915.238745,-3627.009116,10362.883188
2474.483815,-2068.457845,-2442.679609,9918.759623
2474.484144,-1608.800546,-1480.411884,9622.677246
2474.484473,-1072.533697,-74.020594,9622.677246
2474.484802,-153.219100,444.123565,9030.512492
2474.485131,383.047749,1258.350101,9474.636058
2474.485460,1685.410096,1332.370696,8586.388927
2474.485789,2145.067394,1850.514855,7476.080014
2474.486118,2528.115143,1776.494261,7550.100608
2474.486447,2681.334243,1480.411884,7179.997637
2474.486776,2145.067394,592.164754,8512.368333
2474.487105,1685.410096,-74.020594,8660.409521
2474.487434,1532.190996,-814.226536,7846.182985
2474.487763,306.438199,-1776.494261,9696.697840
2474.488092,-306.438199,-1850.514855,9696.697840
2474.488421,-1149.143247,-1702.473667,10362.883188
2474.488750,-1072.533697,-1110.308913,10140.821405
2474.489080,0.000000,-0.000000,9474.636058
2474.489409,76.609550,740.205942,9548.656652
2474.489738,306.438199,2146.597232,8882.471304
2474.490067,459.657299,1850.514855,8438.347739
2474.490396,459.657299,1258.350101,8512.368333
2474.490725,0.000000,740.205942,8364.327145
2474.491054,-383.047749,-148.041188,9178.553681
2474.491383,-842.705048,-1258.350101,9474.636058
2474.491712,-1302.362347,-2368.659014,9918.759623
2474.492041,-1072.533697,-2368.659014,9992.780217
2474.492370,-612.876398,-2368.659014,9918.759623
2474.492699,-612.876398,-962.267725,9696.697840
2474.493028,0.000000,-0.000000,9696.697840
2474.493357,536.266849,1110.308913,9178.553681
2474.493686,1149.143247,2072.576638,8512.368333
2474.494015,1991.848295,2072.576638,7698.141797
2474.494344,1762.019645,2146.597232,7550.100608
2474.494674,1915.238745,1480.411884,7402.059420
2474.495003,1685.410096,592.164754,7772.162391
2474.495332,919.314598,-296.082377,8512.368333
2474.495661,306.438199,-1554.432478,9474.636058
2474.495990,0.000000,-2146.597232,9622.677246
2474.496319,-229.828649,-2516.700203,10288.862594
2474.496648,-536.266849,-3182.885551,10362.883188
2474.496977,-229.828649,-1924.535449,10362.883188
2474.497306,76.609550,-1184.329507,10288.862594
2474.497635,919.314598,-0.000000,9474.636058
2474.497964,1685.410096,1184.329507,8586.388927
2474.498293,2068.457845,1850.514855,8068.244768
2474.498622,2451.505594,2220.617826,7328.038826
2474.498951,1838.629195,1776.494261,7920.203579
2474.499280,995.924147,1480.411884,7994.224174
2474.499609,0.000000,-0.000000,8734.430116
2474.499939,-1302.362347,-1480.411884,9400.615463
2474.500268,-1762.019645,-2516.700203,9918.759623
2474.500597,-2374.896044,-3108.864956,10214.842000
2474.500926,-1991.848295,-2738.761985,10140.821405
2474.501255,-2068.457845,-1406.391290,10658.965565
2474.501584,-1072.533697,-1184.329507,9918.759623
2474.501913,-459.657299,-0.000000,9474.636058
2474.502242,536.266849,1110.308913,9252.574275
2474.502571,1685.410096,1776.494261,8660.409521
2474.502900,2528.115143,2516.700203,7402.059420
2474.503229,3294.210641,3256.906145,6883.915261
2474.503558,2681.334243,2368.659014,7179.997637
2474.503887,3524.039291,814.226536,7772.162391
2474.504216,1762.019645,518.144159,7772.162391
2474.504545,1225.752797,-1258.350101,8660.409521
2474.504874,0.000000,-1998.556043,9252.574275
2474.505204,-459.657299,-2220.617826,9992.780217
2474.505533,-689.485948,-3256.906145,10510.924376
2474.505862,-995.924147,-2368.659014,10288.862594
2474.506191,-612.876398,-1776.494261,10510.924376
2474.506520,0.000000,296.082377,9548.656652
2474.506849,842.705048,740.205942,9326.594869
2474.507178,842.705048,2146.597232,8364.327145
2474.507507,1149.143247,1924.535449,8290.306550
2474.507836,1302.362347,1924.535449,7994.224174
2474.508165,612.876398,-0.000000,8438.347739
2474.508494,229.828649,-666.185348,8808.450710
2474.508823,-919.314598,-1702.473667,9622.677246
2474.509152,-1225.752797,-2220.617826,9918.759623
2474.509481,-1838.629195,-2738.761985,10288.862594
2474.509810,-1685.410096,-2368.659014,10584.944971
2474.510139,-919.314598,-1480.411884,10436.903782
2474.510469,-766.095498,-592.164754,9918.759623
2474.510798,-536.266849,148.041188,9400.615463
2474.511127,766.095498,1702.473667,9400.615463
2474.511456,1455.581446,2368.659014,8068.244768
2474.511785,1991.848295,2294.638420,7328.038826
2474.512114,2451.505594,2220.617826,7328.038826
2474.512443,2681.334243,1480.411884,7476.080014
2474.512772,2298.286494,592.164754,8364.327145
2474.513101,1608.800546,-962.267725,8586.388927
2474.513430,459.657299,-1776.494261,9104.533087
2474.513759,0.000000,-2368.659014,9770.718434
2474.514088,-689.485948,-2368.659014,9696.697840
2474.514417,-459.657299,-2072.576638,9918.759623
2474.514746,-229.828649,-296.082377,10288.862594
2474.515075,229.828649,-0.000000,9770.718434
2474.515404,842.705048,740.205942,9104.533087
2474.515733,919.314598,1702.473667,7846.182985
2474.516063,995.924147,1776.494261,8068.244768
2474.516392,1072.533697,1924.535449,8438.347739
2474.516721,229.828649,814.226536,8142.265362
2474.517050,-229.828649,-518.144159,8586.388927
2474.517379,-459.657299,-2072.576638,9474.636058
2474.517708,-842.705048,-2960.823768,9918.759623
2474.518037,-1608.800546,-3256.906145,10066.800811
2474.518366,-1762.019645,-2590.720797,10066.800811
2474.518695,-1378.971896,-2220.617826,9918.759623
2474.519024,-612.876398,-888.247130,9918.759623
2474.519353,383.047749,296.082377,9252.574275
2474.519682,1455.581446,1480.411884,8808.450710
2474.520011,2451.505594,2146.597232,7846.182985
2474.520340,2068.457845,2664.741391,7105.977043
2474.520669,2451.505594,2516.700203,7550.100608
2474.520998,2298.286494,1628.453072,7920.203579
2474.521328,1762.019645,592.164754,8142.265362
2474.521657,919.314598,-962.267725,8734.430116
2474.521986,229.828649,-1702.473667,9696.697840
2474.522315,-766.095498,-2516.700203,9178.553681
2474.522644,-689.485948,-2886.803174,10362.883188
2474.522973,-842.705048,-2368.659014,10362.883188
2474.523302,0.000000,-1628.453072,10584.944971
2474.523631,459.657299,-296.082377,9770.718434
2474.523960,1378.971896,1110.308913,9474.636058
2474.524289,2221.676944,2072.576638,8290.306550
2474.524618,1455.581446,2590.720797,7846.182985
2474.524947,2221.676944,2442.679609,7476.080014
2474.525276,1455.581446,2368.659014,7105.977043
2474.525605,229.828649,888.247130,8512.368333
2474.525934,-306.438199,-888.247130,9104.533087
2474.526263,-919.314598,-2146.597232,10066.800811
2474.526592,-2221.676944,-3182.885551,10288.862594
2474.526921,-2451.505594,-3034.844362,10510.924376
2474.527250,-2298.286494,-2886.803174,10510.924376
2474.527579,-1149.143247,-814.226536,9696.697840
2474.527908,-842.705048,-296.082377,9696.697840
2474.528238,-536.266849,740.205942,9474.636058
2474.528567,919.314598,962.267725,9770.718434
2474.528896,1762.019645,1998.556043,7846.182985
2474.529225,2834.553343,2146.597232,7846.182985
2474.529554,2757.943793,2294.638420,7105.977043
2474.529883,2681.334243,1332.370696,7179.997637
2474.530212,1915.238745,296.082377,8142.265362
2474.530541,1532.190996,-222.061783,8364.327145
2474.530870,842.705048,-1480.411884,9178.553681
2474.531199,-612.876398,-2368.659014,9696.697840
2474.531528,-842.705048,-2442.679609,10288.862594
2474.531857,-1302.362347,-2442.679609,11177.109724
2474.532186,-459.657299,-1776.494261,10288.862594
2474.532515,-612.876398,222.061783,10510.924376
2474.532844,0.000000,962.267725,9622.677246
2474.533173,383.047749,1924.535449,8586.388927
2474.533502,919.314598,1776.494261,8512.368333
2474.533831,919.314598,1776.494261,7772.162391
2474.534160,612.876398,962.267725,7994.224174
2474.534489,-229.828649,-222.061783,9030.512492
2474.534818,-995.924147,-1036.288319,9326.594869
2474.535148,-1149.143247,-2368.659014,9696.697840
2474.535477,-1838.629195,-2664.741391,9548.656652
2474.535806,-1532.190996,-2516.700203,10066.800811
2474.536135,-1302.362347,-1702.473667,9770.718434
2474.536464,-919.314598,-666.185348,9622.677246
2474.536793,-306.438199,-0.000000,9400.615463
2474.537122,689.485948,1332.370696,8586.388927
2474.537451,1149.143247,1776.494261,7920.203579
2474.537780,1685.410096,2664.741391,7402.059420
2474.538109,2068.457845,2220.617826,7179.997637
2474.538438,2298.286494,1332.370696,7328.038826
2474.538767,2145.067394,-0.000000,8142.265362
2474.539096,1225.752797,-666.185348,8734.430116
2474.539425,612.876398,-1480.411884,9474.636058
2474.539754,0.000000,-2516.700203,9770.718434
2474.540083,-383.047749,-2738.761985,10214.842000
2474.540412,-536.266849,-2368.659014,10732.986159
2474.540741,76.609550,-1702.473667,10362.883188
2474.541070,995.924147,-814.226536,9992.780217
2474.541399,1608.800546,888.247130,9252.574275
2474.541728,2145.067394,1850.514855,8882.471304
2474.542058,1838.629195,2886.803174,7994.224174
2474.542387,1608.800546,2368.659014,7772.162391
2474.542716,1225.752797,1702.473667,7772.162391
2474.543045,536.266849,-0.000000,8216.285956
2474.543374,-689.485948,-1258.350101,9030.512492
2474.543703,-1608.800546,-2294.638420,9992.780217
2474.544032,-1762.019645,-3256.906145,10140.821405
2474.544361,-1762.019645,-3108.864956,10658.965565
2474.544690,-1378.971896,-2590.720797,10214.842000
2474.545019,-1072.533697,-1332.370696,9918.759623
2474.545348,-383.047749,-222.061783,9918.759623
2474.545677,1302.362347,740.205942,10140.821405
2474.546006,1915.238745,1924.535449,8660.409521
2474.546335,2987.772442,3330.926739,7031.956449
2474.546664,3524.039291,3404.947333,6735.874072
2474.546993,3600.648841,3034.844362,6809.894666
2474.547322,3064.381992,2146.597232,7550.100608
2474.547651,2298.286494,666.185348,7550.100608
2474.547980,1455.581446,-814.226536,8512.368333
2474.548309,0.000000,-2294.638420,9104.533087
2474.548638,-766.095498,-3256.906145,10140.821405
2474.548967,-2068.457845,-3256.906145,11177.109724
2474.549297,-1838.629195,-2590.720797,10658.965565
2474.549626,-1302.362347,-1776.494261,10807.006753
2474.549955,-612.876398,-74.020594,9992.780217
2474.550284,459.657299,888.247130,9696.697840
2474.550613,689.485948,1332.370696,8734.430116
2474.550942,1225.752797,2220.617826,7920.203579
2474.551271,1762.019645,1924.535449,7772.162391
2474.551600,1608.800546,1258.350101,7698.141797
2474.551929,995.924147,592.164754,8216.285956
2474.552258,-459.657299,-1110.308913,9030.512492
2474.552587,-919.314598,-2146.597232,9178.553681
2474.552916,-1225.752797,-2960.823768,9992.780217
2474.553245,-2068.457845,-2960.823768,10140.821405
2474.553574,-1991.848295,-2220.617826,10362.883188
2474.553903,-1991.848295,-1332.370696,9696.697840
2474.554232,-1149.143247,-0.000000,9400.615463
2474.554561,-766.095498,888.247130,9252.574275
2474.554890,0.000000,1406.391290,9252.574275
2474.555219,842.705048,1406.391290,8734.430116
2474.555548,1762.019645,1924.535449,7846.182985
2474.555877,2528.115143,1406.391290,7698.141797
2474.556207,2298.286494,740.205942,7698.141797
2474.556536,2298.286494,-74.020594,8364.327145
2474.556865,1838.629195,-740.205942,8734.430116
2474.557194,1608.800546,-1258.350101,8512.368333
2474.557523,1149.143247,-1850.514855,9474.636058
2474.557852,153.219100,-888.247130,9918.759623
2474.558181,0.000000,-888.247130,9918.759623
2474.558510,76.609550,-518.144159,9696.697840
2474.558839,383.047749,814.226536,9400.615463
2474.559168,689.485948,1406.391290,9030.512492
2474.559497,689.485948,1702.473667,8882.471304
2474.559826,612.876398,1554.432478,8586.388927
2474.560155,383.047749,444.123565,8290.306550
2474.560484,0.000000,592.164754,8956.491898
2474.560813,-612.876398,-888.247130,9400.615463
2474.561142,-919.314598,-1924.535449,9770.718434
2474.561471,-1149.143247,-2368.659014,9770.718434
2474.561800,-1302.362347,-3256.906145,9992.780217
2474.562129,-612.876398,-2294.638420,9918.759623
2474.562458,-536.266849,-1406.391290,9770.718434
2474.562787,383.047749,-222.061783,9918.759623
2474.563117,1225.752797,1110.308913,9178.553681
2474.563446,2145.067394,2220.617826,8512.368333
2474.563775,2451.505594,2368.659014,7772.162391
2474.564104,2681.334243,2442.679609,7920.203579
2474.564433,2068.457845,1554.432478,8438.347739
2474.564762,1225.752797,148.041188,8364.327145
2474.565091,919.314598,-814.226536,8808.450710
2474.565420,153.219100,-1628.453072,9252.574275
2474.565749,-306.438199,-2294.638420,9696.697840
2474.566078,-459.657299,-2812.782580,10288.862594
2474.566407,-459.657299,-2368.659014,10140.821405
2474.566736,76.609550,-1776.494261,10066.800811
2474.567065,76.609550,-222.061783,10362.883188
2474.567394,995.924147,518.144159,9326.594869
2474.567723,1532.190996,1702.473667,8364.327145
2474.568052,1838.629195,2146.597232,7698.141797
2474.568381,1608.800546,2368.659014,7698.141797
2474.568710,1225.752797,1776.494261,7179.997637
2474.569039,612.876398,1110.308913,8364.327145
2474.569368,-689.485948,-962.267725,8586.388927
2474.569697,-1685.410096,-2072.576638,9548.656652
2474.570027,-2068.457845,-3182.885551,9696.697840
2474.570356,-2068.457845,-3182.885551,9844.739029
2474.570685,-1915.238745,-2368.659014,9400.615463
2474.571014,-1378.971896,-1850.514855,9696.697840
2474.571343,-1072.533697,-666.185348,9622.677246
2474.571672,-229.828649,148.041188,9548.656652
2474.572001,-383.047749,1184.329507,8882.471304
2474.572330,-153.219100,1258.350101,9326.594869
2474.572659,689.485948,1184.329507,9030.512492
2474.572988,1608.800546,2146.597232,7550.100608
2474.573317,2451.505594,1406.391290,7994.224174
2474.573646,2374.896044,814.226536,7402.059420
2474.573975,2145.067394,-148.041188,8660.409521
2474.574304,1608.800546,-518.144159,8734.430116
2474.574633,1378.971896,-962.267725,8586.388927
2474.574962,459.657299,-1998.556043,9474.636058
2474.575291,-153.219100,-1702.473667,9770.718434
2474.575620,-689.485948,-1702.473667,10658.965565
2474.575949,-229.828649,-888.247130,10510.924376
2474.576278,0.000000,-296.082377,10066.800811
2474.576607,-536.266849,444.123565,9622.677246
2474.576937,-383.047749,1406.391290,9030.512492
2474.577266,0.000000,1480.411884,8808.450710
2474.577595,229.828649,888.247130,9030.512492
2474.577924,842.705048,740.205942,8882.471304
2474.578253,0.000000,-444.123565,9474.636058
2474.578582,-383.047749,-1480.411884,9030.512492
2474.578911,-612.876398,-1554.432478,9844.739029
2474.579240,-229.828649,-1628.453072,9696.697840
2474.579569,0.000000,-1184.329507,9178.553681
2474.579898,306.438199,-518.144159,9326.594869
2474.580227,1072.533697,444.123565,9400.615463
2474.580556,1685.410096,1332.370696,8808.450710
2474.580885,1608.800546,2072.576638,8142.265362
2474.581214,1685.410096,1776.494261,7920.203579
2474.581543,1608.800546,1776.494261,8216.285956
2474.581872,1302.362347,740.205942,8216.285956
2474.582201,1225.752797,-0.000000,8364.327145
2474.582530,842.705048,-1258.350101,8660.409521
2474.582859,842.705048,-1480.411884,9474.636058
2474.583188,0.000000,-2146.597232,9400.615463
2474.583517,229.828649,-2368.659014,9696.697840
2474.583846,0.000000,-2146.597232,9696.697840
2474.584176,306.438199,-1036.288319,9548.656652
2474.584505,995.924147,-222.061783,9400.615463
2474.584834,1455.581446,666.185348,8808.450710
2474.585163,1532.190996,1406.391290,8142.265362
2474.585492,1838.629195,2072.576638,7920.203579
2474.585821,842.705048,1850.514855,8216.285956
2474.586150,229.828649,962.267725,8216.285956
2474.586479,-536.266849,-222.061783,8956.491898
2474.586808,-1455.581446,-1480.411884,9474.636058
2474.587137,-2221.676944,-2664.741391,9992.780217
2474.587466,-2145.067394,-3478.967927,9992.780217
2474.587795,-2221.676944,-3330.926739,10066.800811
2474.588124,-1838.629195,-2072.576638,10362.883188
2474.588453,-1378.971896,-1258.350101,9548.656652
2474.588782,-612.876398,-74.020594,9696.697840
2474.589111,536.266849,666.185348,9474.636058
2474.589440,1532.190996,1406.391290,7772.162391
2474.589769,2911.162892,2294.638420,7328.038826
2474.590098,2681.334243,2664.741391,7031.956449
2474.590427,2911.162892,2294.638420,7254.018232
2474.590756,2145.067394,1258.350101,7550.100608
2474.591086,1455.581446,370.102971,8290.306550
2474.591415,766.095498,-1184.329507,8956.491898
2474.591744,0.000000,-1998.556043,9696.697840
2474.592073,-995.924147,-2516.700203,10140.821405
2474.592402,-842.705048,-2738.761985,10658.965565
2474.592731,-536.266849,-2294.638420,10140.821405
2474.593060,0.000000,-740.205942,10066.800811
2474.593389,766.095498,444.123565,9696.697840
2474.593718,1302.362347,1702.473667,8882.471304
2474.594047,2145.067394,2368.659014,8290.306550
2474.594376,2528.115143,2664.741391,7920.203579
2474.594705,1762.019645,1998.556043,7846.182985
2474.595034,1149.143247,1332.370696,8438.347739
2474.595363,76.609550,-0.000000,9104.533087
2474.595692,-766.095498,-1406.391290,9696.697840
2474.596021,-1608.800546,-2590.720797,10288.862594
2474.596350,-1991.848295,-3108.864956,10584.944971
2474.596679,-1915.238745,-2590.720797,10732.986159
2474.597008,-1072.533697,-2072.576638,10658.965565
2474.597337,-766.095498,-1036.288319,10066.800811
2474.597666,0.000000,296.082377,10362.883188
2474.597996,1072.533697,1480.411884,9252.574275
2474.598325,2221.676944,2220.617826,8216.285956
2474.598654,2757.943793,2960.823768,7476.080014
2474.598983,3140.991542,2516.700203,7254.018232
2474.599312,3294.210641,1776.494261,7476.080014
2474.599641,2068.457845,666.185348,7772.162391
2474.599970,1532.190996,-296.082377,8660.409521
2474.600299,536.266849,-1480.411884,9400.615463
2474.600628,-229.828649,-2516.700203,9770.718434
2474.600957,-1072.533697,-3034.844362,10288.862594
2474.601286,-919.314598,-2886.803174,10214.842000
2474.601615,0.000000,-1702.473667,9992.780217
2474.601944,1149.143247,-296.082377,9400.615463
2474.602273,689.485948,1110.308913,9178.553681
2474.602602,1455.581446,1998.556043,8142.265362
2474.602931,1762.019645,2368.659014,7624.121203
2474.603260,1762.019645,2516.700203,7254.018232
2474.603589,612.876398,1480.411884,7402.059420
2474.603918,153.219100,-0.000000,8364.327145
2474.604247,-383.047749,-1406.391290,8808.450710
2474.604576,-1378.971896,-2442.679609,9030.512492
2474.604906,-2374.896044,-2960.823768,10140.821405
2474.605235,-2451.505594,-3256.906145,10584.944971
2474.605564,-1991.848295,-2664.741391,9918.759623
2474.605893,-1991.848295,-1258.350101,10214.842000
2474.606222,0.000000,-444.123565,9622.677246
2474.606551,0.000000,592.164754,9474.636058
2474.606880,612.876398,1850.514855,9252.574275
2474.607209,1608.800546,2294.638420,7772.162391
2474.607538,2374.896044,2664.741391,7328.038826
2474.607867,2374.896044,2146.597232,7402.059420
2474.608196,2604.724693,1110.308913,7698.141797
2474.608525,1915.238745,-0.000000,8438.347739
2474.608854,1608.800546,-1110.308913,8734.430116
2474.609183,536.266849,-2368.659014,9474.636058
2474.609512,0.000000,-2812.782580,10140.821405
2474.609841,-842.705048,-2590.720797,10658.965565
2474.610170,-842.705048,-1998.556043,10510.924376
2474.610499,0.000000,-1184.329507,10658.965565
2474.610828,383.047749,370.102971,9918.759623
2474.611157,1149.143247,1184.329507,9548.656652
2474.611486,1072.533697,2220.617826,8660.409521
2474.611815,1455.581446,2516.700203,7994.224174
2474.612145,1149.143247,2664.741391,8142.265362
2474.612474,842.705048,1184.329507,8290.306550
2474.612803,76.609550,-222.061783,9030.512492
2474.613132,-766.095498,-1480.411884,9548.656652
2474.613461,-1378.971896,-2368.659014,9844.739029
2474.613790,-1608.800546,-2738.761985,9918.759623
2474.614119,-1608.800546,-2812.782580,10288.862594
2474.614448,-1149.143247,-1776.494261,10140.821405
2474.614777,-536.266849,-666.185348,9696.697840
2474.615106,612.876398,592.164754,9400.615463
2474.615435,1762.019645,1776.494261,8660.409521
2474.615764,2068.457845,2368.659014,7476.080014
2474.616093,2374.896044,2812.782580,7179.997637
2474.616422,2681.334243,2516.700203,7254.018232
2474.616751,2374.896044,1702.473667,7550.100608
2474.617080,1685.410096,518.144159,8068.244768
2474.617409,842.705048,-666.185348,8956.491898
2474.617738,76.609550,-1776.494261,9548.656652
2474.618067,-689.485948,-2886.803174,9992.780217
2474.618396,-1302.362347,-2368.659014,10510.924376
2474.618725,-842.705048,-2664.741391,10881.027347
2474.619055,-612.876398,-1332.370696,9696.697840
2474.619384,229.828649,-148.041188,9548.656652
2474.619713,1072.533697,962.267725,9474.636058
2474.620042,995.924147,1332.370696,8512.368333
2474.620371,1838.629195,2072.576638,7994.224174
2474.620700,1685.410096,2146.597232,7698.141797
2474.621029,766.095498,1036.288319,7846.182985
2474.621358,229.828649,-148.041188,8586.388927
2474.621687,-536.266849,-1258.350101,9104.533087
2474.622016,-1378.971896,-2590.720797,9622.677246
2474.622345,-3294.210641,-2738.761985,10362.883188
2474.622674,-2068.457845,-2812.782580,10658.965565
2474.623003,-2145.067394,-1998.556043,10214.842000
2474.623332,-1532.190996,-1110.308913,9474.636058
2474.623661,-766.095498,-148.041188,9400.615463
2474.623991,-383.047749,1036.288319,9104.533087
2474.624320,306.438199,1406.391290,9178.553681
2474.624649,1302.362347,2146.597232,7772.162391
2474.624978,1991.848295,1998.556043,7328.038826
2474.625307,2068.457845,1628.453072,7105.977043
2474.625636,1685.410096,666.185348,7698.141797
2474.625965,1302.362347,-370.102971,8290.306550
2474.626294,919.314598,-1406.391290,8808.450710
2474.626623,153.219100,-2590.720797,9548.656652
2474.626952,-995.924147,-2812.782580,10066.800811
2474.627281,0.000000,-3034.844362,10436.903782
2474.627610,-229.828649,-1998.556043,10214.842000
2474.627939,536.266849,-592.164754,9844.739029
2474.628268,1149.143247,814.226536,9326.594869
2474.628598,1608.800546,1924.535449,8882.471304
2474.628927,1915.238745,2442.679609,7772.162391
2474.629256,1915.238745,2368.659014,7846.182985
2474.629585,1149.143247,1628.453072,8438.347739
2474.629914,306.438199,666.185348,8512.368333
2474.630243,0.000000,-814.226536,9252.574275
2474.630572,-1378.971896,-1924.535449,9474.636058
2474.630901,-1915.238745,-2664.741391,10140.821405
2474.631230,-1838.629195,-3256.906145,10510.924376
2474.631559,-1608.800546,-3108.864956,10807.006753
2474.631888,-995.924147,-2072.576638,9992.780217
2474.632217,-306.438199,-888.247130,9918.759623
2474.632546,689.485948,740.205942,9844.739029
2474.632875,1991.848295,1924.535449,8956.491898
2474.633205,2681.334243,2886.803174,7846.182985
2474.633534,3830.477490,3256.906145,7476.080014
2474.633863,3830.477490,2812.782580,7105.977043
2474.634192,3140.991542,2442.679609,6439.791695
2474.634521,2681.334243,1036.288319,7031.956449
2474.634850,1838.629195,-74.020594,8142.265362
2474.635179,766.095498,-1406.391290,8882.471304
2474.635508,-383.047749,-2664.741391,9548.656652
2474.635837,-1149.143247,-3256.906145,10584.944971
2474.636166,-2451.505594,-2886.803174,11103.089130
2474.636495,-1072.533697,-1776.494261,10807.006753
2474.636824,-459.657299,-370.102971,10066.800811
2474.637153,229.828649,740.205942,9474.636058
2474.637482,919.314598,1554.432478,9030.512492
2474.637812,1455.581446,2368.659014,8290.306550
2474.638141,1378.971896,2442.679609,7550.100608
2474.638470,1608.800546,1702.473667,7772.162391
2474.638799,1302.362347,296.082377,7550.100608
2474.639128,-306.438199,-518.144159,9178.553681
2474.639457,-1072.533697,-2072.576638,9400.615463
2474.639786,-1762.019645,-2960.823768,9474.636058
2474.640115,-2374.896044,-3108.864956,10140.821405
2474.640444,-1991.848295,-2886.803174,10214.842000
2474.640773,-1685.410096,-1924.535449,9622.677246
2474.641102,-766.095498,-518.144159,9548.656652
2474.641431,-689.485948,296.082377,9178.553681
2474.641760,0.000000,1258.350101,9474.636058
2474.642089,612.876398,1924.535449,8068.244768
2474.642419,1915.238745,1702.473667,7772.162391
2474.642748,1915.238745,1184.329507,7328.038826
2474.643077,2221.676944,370.102971,7994.224174
2474.643406,1915.238745,-370.102971,8956.491898
2474.643735,995.924147,-1110.308913,8882.471304
2474.644064,766.095498,-1702.473667,9104.533087
2474.644393,153.219100,-2368.659014,9696.697840
2474.644722,-229.828649,-1998.556043,10214.842000
2474.645051,-612.876398,-1702.473667,10288.862594
2474.645380,-229.828649,-740.205942,9474.636058
2474.645709,153.219100,444.123565,9252.574275
2474.646038,76.609550,1554.432478,9326.594869
2474.646367,306.438199,2146.597232,8364.327145
2474.646696,689.485948,2072.576638,7920.203579
2474.647026,536.266849,1332.370696,7920.203579
2474.647355,229.828649,518.144159,8142.265362
2474.647684,-229.828649,-518.144159,8882.471304
2474.648013,-689.485948,-2072.576638,9474.636058
2474.648342,-919.314598,-2590.720797,9696.697840
2474.648671,-1302.362347,-2886.803174,10140.821405
2474.649000,-1149.143247,-2590.720797,10214.842000
2474.649329,-612.876398,-1628.453072,10066.800811
2474.649658,612.876398,-222.061783,9548.656652
2474.649987,1149.143247,962.267725,9104.533087
2474.650316,2068.457845,1998.556043,8512.368333
2474.650645,2374.896044,2812.782580,7920.203579
2474.650974,2757.943793,2960.823768,7550.100608
2474.651303,2681.334243,2146.597232,7328.038826
2474.651633,2451.505594,1480.411884,7994.224174
2474.651962,1991.848295,518.144159,8364.327145
2474.652291,689.485948,-888.247130,9104.533087
2474.652620,-459.657299,-2442.679609,9770.718434
2474.652949,-459.657299,-3034.844362,10510.924376
2474.653278,-459.657299,-3034.844362,10658.965565
2474.653607,-766.095498,-2442.679609,10732.986159
2474.653936,0.000000,-1036.288319,10362.883188
2474.654265,919.314598,-0.000000,9474.636058
2474.654594,1149.143247,1406.391290,8956.491898
2474.654923,2374.896044,2220.617826,8734.430116
2474.655252,2528.115143,2368.659014,7846.182985
2474.655581,2068.457845,2442.679609,7550.100608
2474.655910,1072.533697,1332.370696,7772.162391
2474.656240,76.609550,-148.041188,8512.368333
2474.656569,-1378.971896,-1850.514855,9252.574275
2474.656898,-2298.286494,-2590.720797,9918.759623
2474.657227,-1915.238745,-3627.009116,10584.944971
2474.657556,-2068.457845,-3330.926739,9992.780217
2474.657885,-1762.019645,-1998.556043,9474.636058
2474.658214,-1455.581446,-888.247130,9474.636058
2474.658543,-995.924147,222.061783,9104.533087
2474.658872,0.000000,1406.391290,8586.388927
2474.659201,153.219100,666.185348,9326.594869
2474.659530,919.314598,1332.370696,8142.265362
2474.659859,1915.238745,1850.514855,7328.038826
2474.660188,2221.676944,1332.370696,6735.874072
2474.660517,2374.896044,666.185348,7402.059420
