#time,accel_x,accel_y,accel_z
2619.980724,383.047749,-296.082377,9104.533087
2619.981053,229.828649,-222.061783,8882.471304
2619.981382,306.438199,-148.041188,8586.388927
2619.981711,229.828649,-370.102971,9030.512492
2619.982040,76.609550,-222.061783,9030.512492
2619.982369,153.219100,-222.061783,9178.553681
2619.982698,0.000000,-222.061783,8956.491898
2619.983027,306.438199,-296.082377,8882.471304
2619.983356,0.000000,-296.082377,9474.636058
2619.983686,306.438199,-222.061783,9548.656652
2619.984015,536.266849,-74.020594,9178.553681
2619.984344,306.438199,-370.102971,9178.553681
2619.984673,306.438199,-222.061783,9178.553681
2619.985002,229.828649,-222.061783,9030.512492
2619.985331,153.219100,-296.082377,9030.512492
2619.985660,689.485948,-444.123565,9104.533087
2619.985989,229.828649,-0.000000,9104.533087
2619.986318,766.095498,-370.102971,8660.409521
2619.986647,459.657299,-0.000000,9104.533087
2619.986976,383.047749,-222.061783,9104.533087
2619.987305,306.438199,-148.041188,8956.491898
2619.987634,383.047749,-296.082377,8956.491898
2619.987963,383.047749,-148.041188,9030.512492
2619.988292,536.266849,-0.000000,8808.450710
2619.988621,153.219100,-148.041188,9030.512492
2619.988950,229.828649,-222.061783,8808.450710
2619.989279,459.657299,-148.041188,8956.491898
2619.989608,229.828649,-0.000000,8956.491898
2619.989937,229.828649,-148.041188,8956.491898
2619.990266,383.047749,-518.144159,8956.491898
2619.990595,459.657299,-444.123565,9030.512492
2619.990924,229.828649,-222.061783,9030.512492
2619.991253,76.609550,-148.041188,8882.471304
2619.991582,306.438199,-370.102971,9104.533087
2619.991911,229.828649,-0.000000,9030.512492
2619.992240,383.047749,-222.061783,9104.533087
2619.992570,-383.047749,-296.082377,9474.636058
2619.992899,229.828649,-518.144159,9104.533087
2619.993228,229.828649,-0.000000,9178.553681
2619.993557,153.219100,-222.061783,9104.533087
2619.993886,229.828649,-444.123565,9104.533087
2619.994215,306.438199,-74.020594,9178.553681
2619.994544,-153.219100,-444.123565,9104.533087
2619.994873,612.876398,-370.102971,9104.533087
2619.995202,306.438199,-0.000000,9474.636058
2619.995531,459.657299,-296.082377,9474.636058
2619.995860,153.219100,-148.041188,8956.491898
2619.996189,306.438199,-0.000000,9178.553681
2619.996518,383.047749,-0.000000,9104.533087
2619.996847,306.438199,-222.061783,9104.533087
2619.997176,229.828649,-148.041188,9326.594869
2619.997505,306.438199,-222.061783,9178.553681
2619.997834,229.828649,-222.061783,9178.553681
2619.998163,229.828649,-74.020594,8734.430116
2619.998492,459.657299,-296.082377,8882.471304
2619.998821,459.657299,-74.020594,8808.450710
2619.999150,229.828649,-296.082377,8882.471304
2619.999479,-229.828649,-222.061783,9326.594869
2619.999808,229.828649,-222.061783,9030.512492
2620.000137,612.876398,-0.000000,9030.512492
2620.000466,536.266849,-0.000000,8808.450710
2620.000795,0.000000,-0.000000,8882.471304
2620.001124,229.828649,-0.000000,8882.471304
2620.001454,306.438199,-148.041188,9030.512492
2620.001783,306.438199,-74.020594,8882.471304
2620.002112,229.828649,-0.000000,9400.615463
2620.002441,153.219100,-148.041188,9104.533087
2620.002770,383.047749,-222.061783,8808.450710
2620.003099,306.438199,-74.020594,9030.512492
2620.003428,612.876398,-0.000000,9030.512492
2620.003757,306.438199,-222.061783,8956.491898
2620.004086,306.438199,-74.020594,9474.636058
2620.004415,459.657299,-148.041188,9104.533087
2620.004744,612.876398,-296.082377,9474.636058
2620.005073,536.266849,-296.082377,9104.533087
2620.005402,383.047749,-222.061783,9326.594869
2620.005731,383.047749,-222.061783,9104.533087
2620.006060,459.657299,-592.164754,9030.512492
2620.006389,612.876398,-370.102971,9252.574275
2620.006718,536.266849,-296.082377,9252.574275
2620.007047,459.657299,-296.082377,9326.594869
2620.007376,612.876398,-0.000000,9178.553681
2620.007705,153.219100,-370.102971,8882.471304
2620.008034,306.438199,-74.020594,9104.533087
2620.008363,459.657299,-74.020594,9178.553681
2620.008692,306.438199,-296.082377,8882.471304
2620.009021,383.047749,-0.000000,8734.430116
2620.009350,383.047749,-148.041188,9252.574275
2620.009679,0.000000,-888.247130,9992.780217
2620.010008,1302.362347,-888.247130,9474.636058
2620.010337,1608.800546,-296.082377,9474.636058
2620.010667,1608.800546,-518.144159,9252.574275
2620.010996,1991.848295,-0.000000,8586.388927
2620.011325,3294.210641,370.102971,8882.471304
2620.011654,3370.820191,-370.102971,8882.471304
2620.011983,4443.353888,-0.000000,8660.409521
2620.012312,3294.210641,666.185348,8586.388927
2620.012641,3294.210641,962.267725,8216.285956
2620.012970,3064.381992,-74.020594,8882.471304
2620.013299,3370.820191,-148.041188,9030.512492
2620.013628,1608.800546,-444.123565,8808.450710
2620.013957,2221.676944,-1554.432478,9918.759623
2620.014286,2451.505594,-2072.576638,9918.759623
2620.014615,2757.943793,-518.144159,9474.636058
2620.014944,2528.115143,-1036.288319,9918.759623
2620.015273,3140.991542,-962.267725,9474.636058
2620.015602,3140.991542,-0.000000,9474.636058
2620.015931,4979.620737,740.205942,8216.285956
2620.016260,4443.353888,814.226536,7698.141797
2620.016589,5439.278036,1480.411884,9326.594869
2620.016918,5515.887586,740.205942,8290.306550
2620.017247,4366.744339,1036.288319,7772.162391
2620.017576,3983.696590,370.102971,9178.553681
2620.017905,2681.334243,-0.000000,8364.327145
2620.018234,2374.896044,148.041188,9696.697840
2620.018563,919.314598,-1480.411884,9696.697840
2620.018892,1072.533697,-740.205942,10140.821405
2620.019221,842.705048,-1184.329507,10066.800811
2620.019551,1225.752797,-518.144159,10066.800811
2620.019880,995.924147,-518.144159,9992.780217
2620.020209,3140.991542,592.164754,9474.636058
2620.020538,3064.381992,-0.000000,8142.265362
2620.020867,3447.429741,1258.350101,9844.739029
2620.021196,4673.182538,814.226536,8142.265362
2620.021525,4596.572988,1110.308913,8364.327145
2620.021854,4903.011187,666.185348,8660.409521
2620.022183,4136.915689,-0.000000,8290.306550
2620.022512,3524.039291,-148.041188,8808.450710
2620.022841,2911.162892,-1332.370696,9474.636058
2620.023170,2757.943793,-1480.411884,9770.718434
2620.023499,2221.676944,-2220.617826,9696.697840
2620.023828,2374.896044,-1850.514855,9844.739029
2620.024157,2221.676944,-1480.411884,9696.697840
2620.024486,2911.162892,-0.000000,9548.656652
2620.024815,3217.601092,148.041188,8512.368333
2620.025144,4136.915689,1036.288319,8586.388927
2620.025473,4290.134789,1850.514855,8364.327145
2620.025802,3677.258390,2442.679609,7920.203579
2620.026131,4136.915689,2442.679609,7402.059420
2620.026460,3983.696590,1850.514855,8216.285956
2620.026789,3830.477490,1036.288319,8068.244768
2620.027118,2681.334243,-518.144159,8808.450710
2620.027447,2374.896044,-1406.391290,9400.615463
2620.027776,2374.896044,-2886.803174,10140.821405
2620.028105,2145.067394,-2664.741391,10584.944971
2620.028435,2451.505594,-2738.761985,10807.006753
2620.028764,3217.601092,-2368.659014,10658.965565
2620.029093,3983.696590,-1110.308913,10066.800811
2620.029422,5132.839837,370.102971,9474.636058
2620.029751,5515.887586,1184.329507,8586.388927
2620.030080,5669.106685,2368.659014,8216.285956
2620.030409,5362.668486,2516.700203,7920.203579
2620.030738,4903.011187,3627.009116,6883.915261
2620.031067,4136.915689,3034.844362,7254.018232
2620.031396,3524.039291,1554.432478,7179.997637
2620.031725,1838.629195,-74.020594,8882.471304
2620.032054,306.438199,-3478.967927,10140.821405
2620.032383,-1225.752797,-3849.070898,10807.006753
2620.032712,-536.266849,-5773.606348,12435.459826
2620.033041,-536.266849,-3997.112087,9918.759623
2620.033370,0.000000,-1628.453072,11103.089130
2620.033699,536.266849,-888.247130,10140.821405
2620.034028,2298.286494,518.144159,10214.842000
2620.034357,4903.011187,1110.308913,9252.574275
2620.034686,7354.516781,2368.659014,7772.162391
2620.035015,7201.297681,1480.411884,7846.182985
2620.035344,5822.325785,1554.432478,7846.182985
2620.035673,5515.887586,2738.761985,6957.935855
2620.036002,5209.449386,2146.597232,7105.977043
2620.036331,5209.449386,2516.700203,5847.626942
2620.036660,4596.572988,3256.906145,6661.853478
2620.036989,4903.011187,1850.514855,6365.771101
2620.037319,4060.306139,-518.144159,7920.203579
2620.037648,1149.143247,-5329.482782,10732.986159
2620.037977,-383.047749,-7105.977043,12953.603985
2620.038306,-1915.238745,-3034.844362,11917.315666
2620.038635,-1149.143247,-7846.182985,14804.118840
2620.038964,-1915.238745,-1184.329507,10140.821405
2620.039293,1072.533697,-0.000000,12213.398043
2620.039622,4136.915689,-296.082377,10807.006753
2620.039951,5439.278036,3775.050304,8216.285956
2620.040280,7201.297681,1110.308913,9622.677246
2620.040609,7814.174080,2368.659014,8512.368333
2620.040938,8197.221829,5625.565159,5477.523971
2620.041267,7737.564530,2812.782580,5625.565159
2620.041596,7354.516781,1554.432478,5773.606348
2620.041925,7354.516781,2738.761985,6291.750507
2620.042254,6665.030833,148.041188,7105.977043
2620.042583,3753.867940,2368.659014,5255.462188
2620.042912,4060.306139,-1258.350101,8438.347739
2620.043241,229.828649,-4293.194464,12657.521608
2620.043570,-1915.238745,-5107.421000,12805.562797
2620.043899,-2757.943793,-1036.288319,12361.439231
2620.044228,-1225.752797,-7698.141797,13323.706956
2620.044557,-842.705048,444.123565,10510.924376
2620.044886,1762.019645,444.123565,12509.480420
2620.045215,689.485948,1258.350101,9474.636058
2620.045544,1455.581446,814.226536,13767.830521
2620.045873,6665.030833,-1184.329507,7920.203579
2620.046203,9729.412825,1924.535449,7698.141797
2620.046532,7431.126331,1184.329507,6069.688724
2620.046861,7048.078582,1258.350101,4071.132681
2620.047190,6128.763984,1480.411884,7846.182985
2620.047519,5898.935335,1480.411884,6735.874072
2620.047848,4903.011187,3627.009116,4663.297435
2620.048177,3064.381992,2664.741391,7698.141797
2620.048506,1532.190996,-74.020594,7772.162391
2620.048835,-766.095498,-1258.350101,12065.356855
2620.049164,-1225.752797,-4589.276840,11547.212695
2620.049493,-2451.505594,-148.041188,11325.150913
2620.049822,-2068.457845,-6217.729913,13027.624579
2620.050151,-3217.601092,-1702.473667,9548.656652
2620.050480,-1532.190996,-1258.350101,11325.150913
2620.050809,-1378.971896,370.102971,9622.677246
2620.051138,-1991.848295,962.267725,10807.006753
2620.051467,0.000000,-592.164754,8512.368333
2620.051796,306.438199,962.267725,8586.388927
2620.052125,536.266849,296.082377,9400.615463
2620.052454,-153.219100,-148.041188,6217.729913
2620.052783,1455.581446,-518.144159,8512.368333
2620.053113,1838.629195,-0.000000,6143.709319
2620.053442,1838.629195,-74.020594,8216.285956
2620.053771,383.047749,-222.061783,9474.636058
2620.054100,-1072.533697,-1036.288319,8808.450710
2620.054430,-536.266849,-0.000000,10510.924376
2620.054759,-1455.581446,1480.411884,8364.327145
2620.055088,-919.314598,222.061783,9400.615463
2620.055417,-689.485948,-962.267725,10288.862594
2620.055747,-153.219100,-1258.350101,10214.842000
2620.056076,-383.047749,-0.000000,10066.800811
2620.056405,153.219100,222.061783,9030.512492
2620.056734,1838.629195,296.082377,8586.388927
2620.057063,2528.115143,-814.226536,8216.285956
2620.057393,2298.286494,-0.000000,8290.306550
2620.057722,1455.581446,-0.000000,8882.471304
2620.058051,1838.629195,962.267725,8586.388927
2620.058380,1685.410096,592.164754,8438.347739
2620.058710,0.000000,-0.000000,8734.430116
2620.059039,-229.828649,-1110.308913,9474.636058
2620.059368,-766.095498,-888.247130,10362.883188
2620.059697,-842.705048,-370.102971,9696.697840
2620.060027,-689.485948,1332.370696,9400.615463
2620.060356,-229.828649,-0.000000,9400.615463
2620.060685,153.219100,-962.267725,10066.800811
2620.061014,383.047749,-1702.473667,10288.862594
2620.061343,842.705048,-666.185348,8956.491898
2620.061673,919.314598,222.061783,8660.409521
2620.062002,1991.848295,1258.350101,9178.553681
2620.062331,2604.724693,592.164754,9400.615463
2620.062660,2221.676944,-666.185348,9178.553681
2620.062990,1838.629195,148.041188,9030.512492
2620.063319,2068.457845,1036.288319,8364.327145
2620.063648,1072.533697,962.267725,8808.450710
2620.063977,919.314598,-444.123565,9252.574275
2620.064307,536.266849,-1554.432478,9770.718434
2620.064636,229.828649,-1332.370696,10362.883188
2620.064965,-383.047749,-74.020594,9104.533087
2620.065294,-306.438199,888.247130,8586.388927
2620.065623,-612.876398,962.267725,8882.471304
2620.065953,76.609550,-0.000000,8808.450710
2620.066282,0.000000,-518.144159,9400.615463
2620.066611,-306.438199,-0.000000,8882.471304
2620.066940,229.828649,-0.000000,8808.450710
2620.067270,766.095498,-222.061783,8512.368333
2620.067599,1225.752797,-962.267725,8956.491898
2620.067928,689.485948,-1480.411884,9030.512492
2620.068257,153.219100,-444.123565,9474.636058
2620.068587,842.705048,518.144159,8142.265362
2620.068916,689.485948,1036.288319,7772.162391
2620.069245,459.657299,518.144159,8512.368333
2620.069574,689.485948,-888.247130,9178.553681
2620.069903,306.438199,-740.205942,9178.553681
2620.070233,-766.095498,444.123565,8734.430116
2620.070562,-995.924147,740.205942,8956.491898
2620.070891,-766.095498,-148.041188,8142.265362
2620.071220,-459.657299,-1850.514855,8734.430116
2620.071550,-1532.190996,-1850.514855,9770.718434
2620.071879,-1302.362347,-1036.288319,10436.903782
2620.072208,-995.924147,-370.102971,9178.553681
2620.072537,-459.657299,-148.041188,8216.285956
2620.072867,-536.266849,-444.123565,9326.594869
2620.073196,-766.095498,-1554.432478,10066.800811
2620.073525,-536.266849,-592.164754,9474.636058
2620.073854,0.000000,1258.350101,9030.512492
2620.074183,1072.533697,1406.391290,8438.347739
2620.074513,766.095498,-296.082377,9104.533087
2620.074842,689.485948,-1110.308913,9622.677246
2620.075171,689.485948,-74.020594,8882.471304
2620.075500,995.924147,888.247130,8364.327145
2620.075830,919.314598,1406.391290,7920.203579
2620.076159,383.047749,296.082377,8808.450710
2620.076488,842.705048,-1110.308913,9548.656652
2620.076817,0.000000,-1406.391290,9548.656652
2620.077147,0.000000,-592.164754,9178.553681
2620.077476,-153.219100,370.102971,9104.533087
2620.077805,612.876398,-148.041188,9474.636058
2620.078134,766.095498,-1258.350101,9400.615463
2620.078463,842.705048,-1776.494261,9918.759623
2620.078793,1532.190996,-74.020594,9252.574275
2620.079122,842.705048,1406.391290,8438.347739
2620.079451,2451.505594,2220.617826,8290.306550
2620.079780,2528.115143,1480.411884,8290.306550
2620.080110,1838.629195,-0.000000,9178.553681
2620.080439,1378.971896,296.082377,8438.347739
2620.080768,1072.533697,666.185348,8364.327145
2620.081097,689.485948,1258.350101,8882.471304
2620.081427,689.485948,-1110.308913,9400.615463
2620.081756,0.000000,-2664.741391,9548.656652
2620.082085,76.609550,-2664.741391,10066.800811
2620.082414,0.000000,-814.226536,9474.636058
2620.082743,0.000000,-0.000000,9326.594869
2620.083073,689.485948,370.102971,9622.677246
2620.083402,1685.410096,-444.123565,9178.553681
2620.083731,536.266849,-666.185348,9400.615463
2620.084060,1225.752797,-0.000000,9252.574275
2620.084390,383.047749,1110.308913,8142.265362
2620.084719,1149.143247,1702.473667,8438.347739
2620.085048,1378.971896,-296.082377,9030.512492
2620.085377,76.609550,-1480.411884,9326.594869
2620.085707,-459.657299,-1036.288319,9992.780217
2620.086036,-919.314598,-222.061783,8808.450710
2620.086365,-689.485948,370.102971,8364.327145
2620.086694,-536.266849,444.123565,9252.574275
2620.087023,-612.876398,-814.226536,9178.553681
2620.087353,-995.924147,-1184.329507,9622.677246
2620.087682,-1302.362347,-296.082377,9104.533087
2620.088011,-459.657299,-74.020594,8438.347739
2620.088340,-1149.143247,222.061783,9104.533087
2620.088670,-306.438199,-1406.391290,9548.656652
2620.088999,-919.314598,-1998.556043,10066.800811
2620.089328,-1685.410096,-1110.308913,9622.677246
2620.089657,-689.485948,-0.000000,8734.430116
2620.089987,0.000000,666.185348,8660.409521
2620.090316,-383.047749,-222.061783,8882.471304
2620.090645,0.000000,-1110.308913,8956.491898
2620.090974,76.609550,-740.205942,9326.594869
2620.091303,153.219100,370.102971,8734.430116
2620.091633,689.485948,1258.350101,8216.285956
2620.091962,1225.752797,592.164754,7994.224174
2620.092291,1302.362347,-814.226536,8734.430116
2620.092620,1302.362347,-1258.350101,8882.471304
2620.092950,1225.752797,148.041188,8364.327145
2620.093279,1149.143247,1036.288319,8512.368333
2620.093608,612.876398,740.205942,8512.368333
2620.093937,229.828649,-666.185348,9400.615463
2620.094267,-153.219100,-1628.453072,9844.739029
2620.094596,-383.047749,-370.102971,9474.636058
2620.094925,0.000000,-0.000000,9400.615463
2620.095254,153.219100,-0.000000,9178.553681
2620.095583,1608.800546,-1036.288319,9474.636058
2620.095913,1532.190996,-1554.432478,9326.594869
2620.096242,1072.533697,-1258.350101,9178.553681
2620.096571,1455.581446,-296.082377,8364.327145
2620.096900,2145.067394,1924.535449,7920.203579
2620.097230,2298.286494,1184.329507,7772.162391
2620.097559,2374.896044,-370.102971,9030.512492
2620.097888,1378.971896,-370.102971,9104.533087
2620.098217,1302.362347,222.061783,8660.409521
2620.098547,766.095498,444.123565,8660.409521
2620.098876,536.266849,-0.000000,9252.574275
2620.099205,459.657299,-1702.473667,10362.883188
2620.099534,0.000000,-1850.514855,10510.924376
2620.099863,0.000000,-1110.308913,9770.718434
2620.100193,229.828649,370.102971,8956.491898
2620.100522,0.000000,1184.329507,8808.450710
2620.100851,995.924147,-0.000000,9178.553681
2620.101180,459.657299,-1036.288319,8882.471304
2620.101510,919.314598,-148.041188,9252.574275
2620.101839,612.876398,814.226536,8290.306550
2620.102168,995.924147,1258.350101,7550.100608
2620.102497,995.924147,-296.082377,8808.450710
2620.102827,76.609550,-1184.329507,8808.450710
2620.103156,306.438199,-1258.350101,9326.594869
2620.103485,-459.657299,-222.061783,8956.491898
2620.103814,-536.266849,592.164754,8734.430116
2620.104143,-612.876398,592.164754,9400.615463
2620.104473,-459.657299,-518.144159,9474.636058
2620.104802,-919.314598,-1776.494261,9992.780217
2620.105131,-1225.752797,-592.164754,9918.759623
2620.105460,-1072.533697,592.164754,9400.615463
2620.105790,-383.047749,444.123565,9104.533087
2620.106119,-229.828649,-592.164754,9326.594869
2620.106448,-536.266849,-1850.514855,9918.759623
2620.106777,-995.924147,-1480.411884,9918.759623
2620.107107,-306.438199,-0.000000,8734.430116
2620.107436,-383.047749,740.205942,8734.430116
2620.107765,-383.047749,518.144159,8586.388927
2620.108094,0.000000,-740.205942,9474.636058
2620.108423,-536.266849,-888.247130,9770.718434
2620.108753,-229.828649,222.061783,8734.430116
2620.109082,0.000000,740.205942,8734.430116
2620.109411,306.438199,-0.000000,8660.409521
2620.109740,842.705048,-1036.288319,9252.574275
2620.110070,306.438199,-1332.370696,9474.636058
2620.110399,153.219100,-296.082377,9918.759623
2620.110728,536.266849,814.226536,8660.409521
2620.111057,1149.143247,1332.370696,8216.285956
2620.111387,1455.581446,222.061783,9030.512492
2620.111716,1455.581446,-518.144159,9326.594869
2620.112045,1762.019645,222.061783,8734.430116
2620.112374,842.705048,666.185348,8734.430116
2620.112703,1072.533697,1258.350101,8660.409521
2620.113033,1149.143247,-0.000000,9252.574275
2620.113362,1149.143247,-1184.329507,9548.656652
2620.113691,536.266849,-962.267725,9548.656652
2620.114020,536.266849,-0.000000,9326.594869
2620.114350,153.219100,814.226536,9030.512492
2620.114679,612.876398,814.226536,9178.553681
2620.115008,1072.533697,-148.041188,9770.718434
2620.115337,1072.533697,-296.082377,9474.636058
2620.115667,766.095498,-0.000000,9104.533087
2620.115996,919.314598,1332.370696,8512.368333
2620.116325,995.924147,962.267725,9104.533087
2620.116654,1455.581446,-1332.370696,8512.368333
2620.116983,1532.190996,-1850.514855,10436.903782
2620.117313,1225.752797,-1554.432478,9844.739029
2620.117642,306.438199,-444.123565,9252.574275
2620.117971,459.657299,888.247130,9104.533087
2620.118300,383.047749,-148.041188,8660.409521
2620.118630,842.705048,-518.144159,9622.677246
2620.118959,229.828649,-74.020594,9548.656652
2620.119288,76.609550,518.144159,9474.636058
2620.119617,-383.047749,740.205942,8882.471304
2620.119947,153.219100,-74.020594,8956.491898
2620.120276,0.000000,-1554.432478,9474.636058
2620.120605,0.000000,-2220.617826,9400.615463
2620.120934,-153.219100,-222.061783,9252.574275
2620.121263,-919.314598,-0.000000,8216.285956
2620.121593,-612.876398,888.247130,8734.430116
2620.121922,-689.485948,-370.102971,8586.388927
2620.122251,-383.047749,-962.267725,8808.450710
2620.122580,-919.314598,-814.226536,8734.430116
2620.122910,-766.095498,-0.000000,8364.327145
2620.123239,-995.924147,222.061783,7920.203579
2620.123568,229.828649,-740.205942,9696.697840
2620.123897,-536.266849,-2442.679609,9326.594869
2620.124227,-536.266849,-2072.576638,9178.553681
2620.124556,0.000000,-740.205942,9104.533087
2620.124885,-306.438199,740.205942,7772.162391
2620.125214,459.657299,518.144159,8290.306550
2620.125543,76.609550,-148.041188,8660.409521
2620.125873,612.876398,-1110.308913,9474.636058
2620.126202,459.657299,-296.082377,8882.471304
2620.126531,842.705048,1036.288319,8438.347739
2620.126860,612.876398,962.267725,8660.409521
2620.127190,1072.533697,-666.185348,9474.636058
2620.127519,459.657299,-1184.329507,9622.677246
2620.127848,76.609550,-1258.350101,9400.615463
2620.128177,-153.219100,888.247130,8512.368333
2620.128507,0.000000,1036.288319,9178.553681
2620.128836,-153.219100,-370.102971,9696.697840
2620.129165,0.000000,-962.267725,10288.862594
2620.129494,0.000000,-1480.411884,9992.780217
2620.129823,-229.828649,-222.061783,9030.512492
2620.130153,383.047749,740.205942,9326.594869
2620.130482,1302.362347,-0.000000,9104.533087
2620.130811,2451.505594,-296.082377,9178.553681
2620.131140,1991.848295,-1110.308913,9622.677246
2620.131470,2145.067394,370.102971,9178.553681
2620.131799,2298.286494,1332.370696,8586.388927
2620.132128,1915.238745,1850.514855,8364.327145
2620.132457,2145.067394,370.102971,8956.491898
2620.132787,1991.848295,-518.144159,9474.636058
2620.133116,995.924147,-222.061783,9474.636058
2620.133445,536.266849,444.123565,9178.553681
2620.133774,306.438199,518.144159,9104.533087
2620.134103,229.828649,-518.144159,9326.594869
2620.134433,153.219100,-2146.597232,10214.842000
2620.134762,-536.266849,-2442.679609,10584.944971
2620.135091,-459.657299,-1332.370696,9844.739029
2620.135420,0.000000,1184.329507,8956.491898
2620.135750,153.219100,592.164754,8808.450710
2620.136079,842.705048,740.205942,8586.388927
2620.136408,689.485948,-0.000000,8808.450710
2620.136737,612.876398,1332.370696,8364.327145
2620.137067,1072.533697,1850.514855,7920.203579
2620.137396,1685.410096,1332.370696,8216.285956
2620.137725,1378.971896,-444.123565,9104.533087
2620.138054,229.828649,-1924.535449,9474.636058
2620.138383,-536.266849,-1480.411884,9400.615463
2620.138713,-766.095498,-518.144159,9030.512492
2620.139042,-612.876398,740.205942,8808.450710
2620.139371,-383.047749,-0.000000,9252.574275
2620.139700,-612.876398,-962.267725,9252.574275
2620.140030,-1149.143247,-1332.370696,9326.594869
2620.140359,-1455.581446,-0.000000,8956.491898
2620.140688,-766.095498,592.164754,8364.327145
2620.141017,-995.924147,-518.144159,9178.553681
2620.141347,-536.266849,-1702.473667,9326.594869
2620.141676,-459.657299,-2072.576638,9696.697840
2620.142005,-459.657299,-888.247130,8882.471304
2620.142334,-536.266849,1036.288319,8586.388927
2620.142663,-766.095498,962.267725,8364.327145
2620.142993,-689.485948,-296.082377,8956.491898
2620.143322,-459.657299,-888.247130,9326.594869
2620.143651,-383.047749,-444.123565,8660.409521
2620.143980,-306.438199,222.061783,8216.285956
2620.144310,0.000000,444.123565,8586.388927
2620.144639,536.266849,-222.061783,8808.450710
2620.144968,306.438199,-1480.411884,9844.739029
2620.145297,153.219100,-1036.288319,9104.533087
2620.145627,306.438199,444.123565,8882.471304
2620.145956,995.924147,1480.411884,8290.306550
2620.146285,1225.752797,1036.288319,8216.285956
2620.146614,1302.362347,-444.123565,9104.533087
2620.146943,766.095498,-1036.288319,9474.636058
2620.147273,842.705048,-222.061783,9030.512492
2620.147602,306.438199,740.205942,8956.491898
2620.147931,766.095498,444.123565,8882.471304
2620.148260,1302.362347,-814.226536,9474.636058
2620.148590,1302.362347,-1924.535449,9548.656652
2620.148919,1072.533697,-1036.288319,9474.636058
2620.149248,919.314598,444.123565,9474.636058
2620.149577,229.828649,1110.308913,9030.512492
2620.149907,1455.581446,148.041188,9474.636058
2620.150236,1072.533697,-296.082377,10140.821405
2620.150565,995.924147,-296.082377,9474.636058
2620.150894,995.924147,148.041188,9326.594869
2620.151223,995.924147,888.247130,8882.471304
2620.151553,1378.971896,148.041188,9252.574275
2620.151882,1685.410096,-1184.329507,9696.697840
2620.152211,1302.362347,-1258.350101,9992.780217
2620.152540,1378.971896,-888.247130,9474.636058
2620.152870,766.095498,814.226536,9104.533087
2620.153199,1225.752797,1332.370696,8586.388927
2620.153528,1455.581446,444.123565,9104.533087
2620.153857,1378.971896,-0.000000,8882.471304
2620.154186,842.705048,-0.000000,9400.615463
2620.154516,153.219100,888.247130,8734.430116
2620.154845,76.609550,814.226536,8808.450710
2620.155174,0.000000,-148.041188,8734.430116
2620.155503,-153.219100,-1702.473667,9326.594869
2620.155832,-689.485948,-1850.514855,9770.718434
2620.156161,-995.924147,-740.205942,9548.656652
2620.156490,-689.485948,518.144159,8734.430116
2620.156819,-383.047749,222.061783,8956.491898
2620.157148,-689.485948,-666.185348,8882.471304
2620.157477,-1149.143247,-962.267725,9178.553681
2620.157806,-1072.533697,-222.061783,9178.553681
2620.158135,-689.485948,518.144159,8808.450710
2620.158464,-153.219100,-0.000000,8142.265362
2620.158793,-383.047749,-1184.329507,9474.636058
2620.159122,-612.876398,-1258.350101,9400.615463
2620.159451,-459.657299,-1110.308913,9622.677246
2620.159780,0.000000,-148.041188,8660.409521
2620.160109,-383.047749,1628.453072,7994.224174
2620.160438,153.219100,-0.000000,9104.533087
2620.160767,842.705048,-962.267725,9104.533087
2620.161096,76.609550,-370.102971,8660.409521
2620.161425,383.047749,-74.020594,9178.553681
2620.161754,306.438199,-0.000000,8586.388927
2620.162083,0.000000,-222.061783,9104.533087
2620.162412,536.266849,-1554.432478,9178.553681
2620.162741,0.000000,-2072.576638,9326.594869
2620.163070,76.609550,-962.267725,9622.677246
2620.163399,153.219100,592.164754,8734.430116
2620.163728,383.047749,888.247130,8438.347739
2620.164057,-306.438199,-518.144159,9326.594869
2620.164386,229.828649,-370.102971,9400.615463
2620.164715,0.000000,-518.144159,9474.636058
2620.165044,459.657299,740.205942,8660.409521
2620.165373,689.485948,1332.370696,8364.327145
2620.165702,995.924147,-518.144159,9770.718434
2620.166031,2068.457845,-1480.411884,9548.656652
2620.166360,995.924147,-1628.453072,9030.512492
2620.166689,1225.752797,-148.041188,9326.594869
2620.167018,1685.410096,1480.411884,8364.327145
2620.167347,1915.238745,962.267725,8216.285956
2620.167676,2451.505594,296.082377,8808.450710
2620.168005,2221.676944,-666.185348,9104.533087
2620.168334,1149.143247,296.082377,8956.491898
2620.168663,1685.410096,666.185348,8734.430116
2620.168992,1378.971896,814.226536,8142.265362
2620.169321,1225.752797,-444.123565,8808.450710
2620.169650,1225.752797,-1628.453072,9696.697840
2620.169979,536.266849,-1776.494261,9992.780217
2620.170308,153.219100,-0.000000,8734.430116
2620.170637,306.438199,592.164754,9178.553681
2620.170966,76.609550,-0.000000,9474.636058
2620.171295,0.000000,-222.061783,9474.636058
2620.171624,-612.876398,-148.041188,9548.656652
2620.171953,0.000000,-222.061783,9696.697840
2620.172282,0.000000,592.164754,8586.388927
2620.172611,-229.828649,-74.020594,9104.533087
2620.172940,689.485948,-2146.597232,9770.718434
2620.173269,76.609550,-2220.617826,9770.718434
2620.173597,-383.047749,-592.164754,8882.471304
2620.173926,153.219100,962.267725,8660.409521
2620.174255,229.828649,1110.308913,8438.347739
2620.174584,459.657299,888.247130,8586.388927
2620.174913,766.095498,-444.123565,9178.553681
2620.175242,0.000000,-0.000000,9030.512492
2620.175571,-306.438199,592.164754,8734.430116
2620.175900,-383.047749,518.144159,8586.388927
2620.176229,-383.047749,-962.267725,9030.512492
2620.176558,-459.657299,-1850.514855,9622.677246
2620.176887,-766.095498,-1406.391290,10214.842000
2620.177216,-1532.190996,-1184.329507,9252.574275
2620.177545,-1225.752797,518.144159,8956.491898
2620.177874,-842.705048,-0.000000,8512.368333
2620.178203,-919.314598,-222.061783,8586.388927
2620.178532,-1149.143247,-592.164754,9252.574275
2620.178861,-919.314598,148.041188,8734.430116
2620.179190,-612.876398,666.185348,8068.244768
2620.179519,0.000000,740.205942,7920.203579
2620.179848,0.000000,-666.185348,9474.636058
2620.180177,383.047749,-2146.597232,9696.697840
2620.180506,229.828649,-518.144159,8882.471304
2620.180835,383.047749,518.144159,8734.430116
2620.181164,766.095498,888.247130,8512.368333
2620.181493,1455.581446,666.185348,8438.347739
2620.181822,1608.800546,-370.102971,9548.656652
2620.182151,1072.533697,-296.082377,9326.594869
2620.182480,2068.457845,370.102971,9178.553681
2620.182809,1149.143247,962.267725,8290.306550
2620.183138,1455.581446,222.061783,9030.512492
2620.183467,1225.752797,-1110.308913,9696.697840
2620.183796,995.924147,-2220.617826,9622.677246
2620.184125,842.705048,-1184.329507,9844.739029
2620.184454,842.705048,-148.041188,8956.491898
2620.184783,153.219100,444.123565,9326.594869
2620.185112,689.485948,-222.061783,9548.656652
2620.185441,536.266849,-814.226536,9918.759623
2620.185770,612.876398,-296.082377,9252.574275
2620.186099,1455.581446,592.164754,8586.388927
2620.186428,1455.581446,1036.288319,8068.244768
2620.186757,2451.505594,-0.000000,9104.533087
2620.187086,2068.457845,-1110.308913,9548.656652
2620.187415,1455.581446,-814.226536,9030.512492
2620.187744,1762.019645,-0.000000,9252.574275
2620.188073,1838.629195,1332.370696,8512.368333
2620.188402,1838.629195,888.247130,8438.347739
2620.188731,1608.800546,-666.185348,8808.450710
2620.189060,1225.752797,-370.102971,9326.594869
2620.189389,919.314598,-0.000000,9030.512492
2620.189718,383.047749,592.164754,8142.265362
2620.190047,383.047749,666.185348,8438.347739
2620.190376,306.438199,-888.247130,8882.471304
2620.190705,229.828649,-1480.411884,9326.594869
2620.191034,-766.095498,-1480.411884,9326.594869
2620.191363,-153.219100,-222.061783,9326.594869
2620.191692,-612.876398,962.267725,8290.306550
2620.192021,-842.705048,-0.000000,8808.450710
2620.192350,-766.095498,-888.247130,9104.533087
2620.192679,-995.924147,-888.247130,9252.574275
2620.193008,-995.924147,-296.082377,8808.450710
2620.193337,-689.485948,222.061783,8512.368333
2620.193666,-689.485948,-370.102971,8882.471304
2620.193995,-536.266849,-1776.494261,9844.739029
2620.194324,-919.314598,-1998.556043,9992.780217
2620.194653,-689.485948,-1184.329507,9548.656652
2620.194982,-383.047749,370.102971,8290.306550
2620.195311,76.609550,1184.329507,8660.409521
2620.195640,995.924147,-74.020594,8808.450710
2620.195969,229.828649,-222.061783,9474.636058
2620.196298,0.000000,-444.123565,9474.636058
2620.196627,153.219100,666.185348,8364.327145
2620.196956,229.828649,666.185348,8290.306550
2620.197285,76.609550,-370.102971,8882.471304
2620.197614,0.000000,-1406.391290,9696.697840
2620.197943,-766.095498,-1554.432478,9696.697840
2620.198272,0.000000,-222.061783,9252.574275
2620.198601,306.438199,666.185348,8290.306550
2620.198930,153.219100,740.205942,8364.327145
2620.199259,76.609550,-888.247130,9400.615463
2620.199588,306.438199,-1110.308913,8956.491898
2620.199917,0.000000,296.082377,8808.450710
2620.200246,612.876398,592.164754,8808.450710
2620.200575,689.485948,592.164754,8734.430116
2620.200904,995.924147,-666.185348,9696.697840
2620.201233,1072.533697,-814.226536,9548.656652
2620.201562,919.314598,-518.144159,9770.718434
2620.201891,689.485948,592.164754,9104.533087
2620.202220,1225.752797,1480.411884,8956.491898
2620.202549,1915.238745,370.102971,9474.636058
2620.202878,1378.971896,-740.205942,8808.450710
2620.203207,1378.971896,-518.144159,9770.718434
2620.203536,1838.629195,-0.000000,9178.553681
2620.203865,1608.800546,1406.391290,8216.285956
2620.204194,1838.629195,-222.061783,9030.512492
2620.204523,2068.457845,-888.247130,9030.512492
2620.204852,2221.676944,-296.082377,9844.739029
2620.205181,1532.190996,-888.247130,9474.636058
2620.205510,1838.629195,740.205942,8586.388927
2620.205839,919.314598,1406.391290,8660.409521
2620.206168,1072.533697,962.267725,9104.533087
2620.206497,0.000000,-888.247130,9770.718434
2620.206826,-306.438199,-962.267725,10140.821405
2620.207155,0.000000,370.102971,9178.553681
2620.207484,-229.828649,444.123565,8956.491898
2620.207813,-766.095498,-814.226536,9548.656652
2620.208142,0.000000,-2220.617826,9992.780217
2620.208471,-689.485948,-2072.576638,9992.780217
2620.208800,-536.266849,-814.226536,9326.594869
2620.209129,229.828649,740.205942,7846.182985
2620.209458,-76.609550,888.247130,8068.244768
2620.209787,919.314598,296.082377,8660.409521
2620.210116,919.314598,-0.000000,8660.409521
2620.210445,229.828649,740.205942,8586.388927
2620.210774,153.219100,1628.453072,7550.100608
2620.211103,0.000000,888.247130,8142.265362
2620.211432,-153.219100,-1258.350101,8808.450710
2620.211761,0.000000,-2294.638420,9252.574275
2620.212090,-1608.800546,-1554.432478,9326.594869
2620.212419,-1608.800546,-370.102971,9030.512492
2620.212748,-842.705048,518.144159,8734.430116
2620.213077,-383.047749,592.164754,8142.265362
2620.213406,-842.705048,-740.205942,9400.615463
2620.213735,-995.924147,-1702.473667,9844.739029
2620.214064,-1225.752797,-296.082377,8882.471304
2620.214393,-766.095498,296.082377,8512.368333
2620.214722,0.000000,-222.061783,8882.471304
2620.215051,-536.266849,-1554.432478,9474.636058
2620.215380,-995.924147,-2072.576638,10362.883188
2620.215709,-383.047749,-1184.329507,9696.697840
2620.216038,306.438199,592.164754,8216.285956
2620.216367,1685.410096,1184.329507,8216.285956
2620.216696,1608.800546,296.082377,9030.512492
2620.217025,1302.362347,-222.061783,9474.636058
2620.217354,1455.581446,444.123565,9252.574275
2620.217683,1378.971896,962.267725,8512.368333
2620.218012,1302.362347,1554.432478,8438.347739
2620.218341,1302.362347,-0.000000,9326.594869
2620.218670,1072.533697,-2072.576638,9992.780217
2620.218999,306.438199,-1702.473667,10362.883188
2620.219328,0.000000,-592.164754,9622.677246
2620.219657,-306.438199,740.205942,9474.636058
2620.219986,306.438199,148.041188,9178.553681
2620.220315,689.485948,-148.041188,9474.636058
2620.220644,842.705048,-1036.288319,9696.697840
2620.220973,1072.533697,-74.020594,8882.471304
2620.221302,1762.019645,814.226536,8290.306550
2620.221631,1608.800546,962.267725,8512.368333
2620.221960,2068.457845,-0.000000,8660.409521
2620.222289,2221.676944,-666.185348,9178.553681
2620.222618,1762.019645,-666.185348,9326.594869
2620.222947,1149.143247,518.144159,8882.471304
2620.223276,919.314598,1258.350101,8586.388927
2620.223605,689.485948,-370.102971,9252.574275
2620.223934,536.266849,-666.185348,9548.656652
2620.224263,306.438199,-222.061783,10362.883188
2620.224592,153.219100,-0.000000,8586.388927
2620.224921,-536.266849,666.185348,8808.450710
2620.225250,459.657299,-0.000000,9400.615463
2620.225579,459.657299,-2072.576638,8438.347739
2620.225908,153.219100,-1776.494261,8438.347739
2620.226237,0.000000,-592.164754,8734.430116
2620.226566,76.609550,888.247130,8068.244768
2620.226895,-306.438199,1110.308913,8364.327145
2620.227224,-153.219100,-222.061783,9178.553681
2620.227553,-536.266849,-814.226536,9178.553681
2620.227882,-536.266849,-444.123565,9326.594869
2620.228211,-766.095498,148.041188,7994.224174
2620.228540,-1225.752797,740.205942,8882.471304
2620.228869,-842.705048,-1332.370696,9474.636058
2620.229198,-459.657299,-2072.576638,9474.636058
2620.229527,-459.657299,-1998.556043,9622.677246
2620.229856,-842.705048,-296.082377,8882.471304
2620.230185,-229.828649,592.164754,8216.285956
2620.230514,-306.438199,370.102971,9104.533087
2620.230843,459.657299,-296.082377,9474.636058
2620.231172,0.000000,-740.205942,9178.553681
2620.231501,76.609550,-222.061783,8956.491898
2620.231830,229.828649,962.267725,8142.265362
2620.232159,689.485948,592.164754,8290.306550
2620.232488,536.266849,-1036.288319,8660.409521
2620.232817,383.047749,-1406.391290,9622.677246
2620.233146,-153.219100,-666.185348,9178.553681
2620.233475,-229.828649,518.144159,8216.285956
2620.233804,-306.438199,1184.329507,8808.450710
2620.234133,0.000000,518.144159,9104.533087
2620.234462,76.609550,-888.247130,9400.615463
2620.234791,0.000000,-814.226536,9770.718434
2620.235120,0.000000,-0.000000,9104.533087
2620.235449,153.219100,1036.288319,8142.265362
2620.235778,612.876398,74.020594,9252.574275
2620.236107,1225.752797,-1480.411884,9474.636058
2620.236436,995.924147,-1110.308913,9696.697840
2620.236765,1302.362347,-370.102971,9326.594869
2620.237094,1225.752797,1036.288319,8068.244768
2620.237423,1838.629195,1184.329507,8512.368333
2620.237752,1685.410096,222.061783,9474.636058
2620.238081,1838.629195,-740.205942,9178.553681
2620.238410,1225.752797,-74.020594,9696.697840
2620.238739,1072.533697,666.185348,8808.450710
2620.239068,766.095498,1184.329507,8586.388927
2620.239397,1072.533697,-148.041188,9474.636058
2620.239726,1225.752797,-1628.453072,9770.718434
2620.240055,689.485948,-1554.432478,9622.677246
2620.240384,612.876398,-148.041188,9178.553681
2620.240713,536.266849,888.247130,8290.306550
2620.241042,536.266849,370.102971,8956.491898
2620.241371,612.876398,-148.041188,9178.553681
2620.241700,229.828649,-666.185348,9400.615463
2620.242029,76.609550,-222.061783,9474.636058
2620.242358,459.657299,444.123565,8512.368333
2620.242687,229.828649,518.144159,8734.430116
2620.243016,383.047749,-888.247130,9104.533087
2620.243345,306.438199,-1258.350101,9474.636058
2620.243674,-306.438199,-1258.350101,9548.656652
2620.244003,-612.876398,962.267725,8808.450710
2620.244332,-536.266849,1184.329507,9252.574275
2620.244661,229.828649,296.082377,8512.368333
2620.244990,0.000000,-1184.329507,9696.697840
2620.245319,-1072.533697,-592.164754,9474.636058
2620.245648,-383.047749,-0.000000,8882.471304
2620.245977,-306.438199,592.164754,8364.327145
2620.246306,-229.828649,-370.102971,8290.306550
2620.246635,76.609550,-1776.494261,9474.636058
2620.246964,-306.438199,-2368.659014,9474.636058
2620.247293,-689.485948,-592.164754,8882.471304
2620.247622,-459.657299,148.041188,8438.347739
2620.247951,-229.828649,814.226536,7994.224174
2620.248280,-383.047749,-148.041188,8808.450710
2620.248609,-306.438199,-1258.350101,9770.718434
2620.248938,-536.266849,-592.164754,9326.594869
2620.249267,306.438199,-444.123565,9030.512492
2620.249596,-153.219100,518.144159,9030.512492
2620.249925,0.000000,-814.226536,9696.697840
2620.250254,0.000000,-1924.535449,9844.739029
2620.250583,0.000000,-1110.308913,9548.656652
2620.250912,-153.219100,-0.000000,8956.491898
2620.251241,153.219100,1258.350101,8586.388927
2620.251570,842.705048,370.102971,9104.533087
2620.251899,842.705048,-518.144159,9622.677246
2620.252228,766.095498,-962.267725,9844.739029
2620.252557,612.876398,-0.000000,8660.409521
2620.252886,612.876398,1258.350101,8290.306550
2620.253215,1149.143247,888.247130,8956.491898
2620.253543,1225.752797,-814.226536,9030.512492
2620.253872,1685.410096,-814.226536,9474.636058
2620.254201,612.876398,-296.082377,9178.553681
2620.254530,536.266849,962.267725,9030.512492
2620.254859,842.705048,1406.391290,8438.347739
2620.255188,383.047749,666.185348,8956.491898
2620.255517,459.657299,-1110.308913,9548.656652
2620.255846,459.657299,-296.082377,9400.615463
2620.256175,612.876398,370.102971,9400.615463
2620.256504,612.876398,888.247130,8660.409521
2620.256833,1072.533697,-0.000000,8808.450710
2620.257162,1225.752797,-1480.411884,9770.718434
2620.257491,1532.190996,-1480.411884,9400.615463
2620.257820,1225.752797,-296.082377,9252.574275
2620.258149,1838.629195,888.247130,8586.388927
2620.258478,1608.800546,1258.350101,8364.327145
2620.258807,1838.629195,-0.000000,9104.533087
2620.259136,1149.143247,-444.123565,9326.594869
2620.259465,383.047749,-296.082377,9252.574275
2620.259794,229.828649,518.144159,8512.368333
2620.260123,76.609550,1036.288319,8956.491898
2620.260452,612.876398,-1184.329507,9400.615463
2620.260781,153.219100,-1924.535449,9696.697840
2620.261110,-459.657299,-2072.576638,10362.883188
2620.261439,-536.266849,-666.185348,9104.533087
2620.261768,-383.047749,962.267725,8438.347739
2620.262097,-229.828649,592.164754,8660.409521
2620.262426,-383.047749,-222.061783,9104.533087
2620.262755,0.000000,-518.144159,9252.574275
2620.263084,0.000000,-592.164754,8438.347739
2620.263413,0.000000,296.082377,8142.265362
2620.263742,-306.438199,-0.000000,8438.347739
2620.264071,0.000000,-1184.329507,8956.491898
2620.264400,-229.828649,-1702.473667,9844.739029
2620.264729,-766.095498,-1258.350101,9622.677246
2620.265058,-1149.143247,592.164754,9104.533087
2620.265386,-306.438199,1184.329507,8734.430116
2620.265715,-536.266849,222.061783,9400.615463
2620.266044,0.000000,-888.247130,9400.615463
2620.266373,-229.828649,-1036.288319,9474.636058
2620.266702,0.000000,148.041188,8660.409521
2620.267031,0.000000,740.205942,7772.162391
2620.267360,229.828649,-222.061783,8290.306550
2620.267689,306.438199,-1332.370696,8956.491898
2620.268018,0.000000,-1702.473667,9030.512492
2620.268347,-612.876398,-962.267725,8956.491898
2620.268676,-153.219100,888.247130,8290.306550
2620.269005,0.000000,740.205942,8734.430116
2620.269334,229.828649,-0.000000,9252.574275
2620.269663,0.000000,-1036.288319,9548.656652
2620.269992,229.828649,-518.144159,9326.594869
2620.270321,536.266849,814.226536,8586.388927
2620.270650,536.266849,1184.329507,8290.306550
2620.270979,1378.971896,-148.041188,8512.368333
2620.271308,1915.238745,-888.247130,8882.471304
2620.271637,842.705048,-814.226536,9030.512492
2620.271966,919.314598,-814.226536,9844.739029
2620.272295,1149.143247,296.082377,9252.574275
2620.272624,842.705048,148.041188,8364.327145
2620.272953,1225.752797,-888.247130,9770.718434
2620.273282,1149.143247,-1554.432478,9992.780217
2620.273611,842.705048,-0.000000,9326.594869
2620.273940,1455.581446,962.267725,8882.471304
2620.274269,995.924147,-0.000000,8808.450710
2620.274598,1838.629195,-444.123565,9252.574275
2620.274927,1302.362347,-1702.473667,10214.842000
2620.275256,1455.581446,-1110.308913,9400.615463
2620.275585,995.924147,592.164754,9178.553681
2620.275914,1225.752797,1184.329507,8512.368333
2620.276243,1225.752797,296.082377,9178.553681
2620.276572,1455.581446,-740.205942,9030.512492
2620.276901,459.657299,-370.102971,9252.574275
2620.277229,383.047749,592.164754,8808.450710
2620.277558,153.219100,962.267725,8882.471304
2620.277887,306.438199,296.082377,8882.471304
2620.278216,459.657299,-1628.453072,9326.594869
2620.278545,229.828649,-1850.514855,9400.615463
2620.278874,229.828649,-888.247130,9178.553681
2620.279203,0.000000,518.144159,7994.224174
2620.279532,383.047749,1036.288319,7994.224174
2620.279861,689.485948,-222.061783,8660.409521
2620.280190,229.828649,-74.020594,9178.553681
2620.280519,0.000000,-296.082377,9326.594869
2620.280848,-536.266849,1110.308913,8216.285956
2620.281177,0.000000,444.123565,9104.533087
2620.281506,-536.266849,-222.061783,9252.574275
2620.281835,-612.876398,-1998.556043,9770.718434
2620.282164,-1762.019645,-1110.308913,9326.594869
2620.282493,-1302.362347,-370.102971,9400.615463
2620.282822,-842.705048,-0.000000,8216.285956
2620.283151,-1072.533697,962.267725,8808.450710
2620.283480,-383.047749,-1184.329507,9622.677246
2620.283809,-842.705048,-1776.494261,8956.491898
2620.284138,-689.485948,-518.144159,9178.553681
2620.284467,-612.876398,592.164754,8808.450710
2620.284796,-229.828649,592.164754,8882.471304
2620.285125,0.000000,-1184.329507,9918.759623
2620.285454,153.219100,-1406.391290,9474.636058
2620.285783,153.219100,-592.164754,9474.636058
2620.286112,0.000000,962.267725,8882.471304
2620.286441,306.438199,1998.556043,8586.388927
2620.286770,0.000000,518.144159,9622.677246
2620.287099,536.266849,-666.185348,9178.553681
2620.287428,0.000000,-666.185348,9400.615463
2620.287757,0.000000,-0.000000,9474.636058
2620.288086,842.705048,222.061783,8216.285956
2620.288415,536.266849,-0.000000,9104.533087
2620.288744,1149.143247,-1480.411884,9326.594869
2620.289072,1225.752797,-1184.329507,9474.636058
2620.289401,766.095498,-518.144159,8956.491898
2620.289730,766.095498,1628.453072,8290.306550
2620.290059,766.095498,962.267725,8438.347739
2620.290388,842.705048,-0.000000,9104.533087
2620.290717,229.828649,-814.226536,9696.697840
2620.291046,612.876398,-518.144159,9992.780217
2620.291375,383.047749,222.061783,8512.368333
2620.291704,766.095498,814.226536,9400.615463
2620.292033,1149.143247,-962.267725,9696.697840
2620.292362,1302.362347,-1110.308913,9696.697840
2620.292691,1532.190996,-1110.308913,9400.615463
2620.293020,1455.581446,444.123565,9030.512492
2620.293349,1838.629195,1924.535449,8364.327145
2620.293678,1991.848295,1332.370696,8586.388927
2620.294007,2374.896044,-74.020594,8956.491898
2620.294336,1455.581446,-0.000000,9030.512492
2620.294665,1225.752797,-0.000000,8956.491898
2620.294994,383.047749,888.247130,8364.327145
2620.295323,153.219100,148.041188,8808.450710
2620.295652,153.219100,-518.144159,9474.636058
2620.295981,-459.657299,-1998.556043,10140.821405
2620.296310,-995.924147,-1554.432478,9992.780217
2620.296639,-1378.971896,-0.000000,9326.594869
2620.296968,-1302.362347,518.144159,9400.615463
2620.297297,-919.314598,-0.000000,9622.677246
2620.297626,-459.657299,-370.102971,9474.636058
2620.297955,-612.876398,-666.185348,9474.636058
2620.298284,-536.266849,370.102971,9178.553681
2620.298613,229.828649,1036.288319,7994.224174
2620.298942,536.266849,-74.020594,8216.285956
2620.299271,919.314598,-1110.308913,8586.388927
2620.299600,689.485948,-1554.432478,8808.450710
2620.299929,459.657299,-444.123565,8808.450710
2620.300258,0.000000,1036.288319,8068.244768
2620.300587,383.047749,814.226536,8216.285956
2620.300915,0.000000,-0.000000,9326.594869
2620.301244,-612.876398,-1258.350101,9548.656652
2620.301573,-995.924147,-1184.329507,9548.656652
2620.301902,-766.095498,-888.247130,8956.491898
2620.302231,-1608.800546,-0.000000,9104.533087
2620.302560,-842.705048,-1258.350101,9696.697840
2620.302889,-536.266849,-2072.576638,10066.800811
2620.303218,0.000000,-1554.432478,9474.636058
2620.303547,0.000000,370.102971,8438.347739
2620.303876,383.047749,1554.432478,7920.203579
2620.304205,1378.971896,1184.329507,7846.182985
2620.304534,1838.629195,-0.000000,8512.368333
2620.304863,1149.143247,-296.082377,9030.512492
2620.305192,995.924147,-0.000000,8956.491898
2620.305521,1072.533697,962.267725,8512.368333
2620.305850,689.485948,740.205942,8808.450710
2620.306179,842.705048,-888.247130,10214.842000
2620.306508,1072.533697,-1702.473667,10066.800811
2620.306837,1072.533697,-1332.370696,9918.759623
2620.307166,689.485948,222.061783,9474.636058
2620.307495,919.314598,666.185348,8956.491898
2620.307824,919.314598,-148.041188,9474.636058
2620.308153,1838.629195,-296.082377,9548.656652
2620.308482,1378.971896,-444.123565,9474.636058
2620.308811,1378.971896,592.164754,8956.491898
2620.309140,1685.410096,962.267725,8586.388927
2620.309469,1838.629195,-0.000000,8882.471304
2620.309798,1455.581446,-888.247130,8882.471304
2620.310127,919.314598,-1406.391290,9252.574275
2620.310456,229.828649,-444.123565,9178.553681
2620.310785,229.828649,814.226536,9178.553681
2620.311114,459.657299,518.144159,8956.491898
2620.311443,306.438199,-296.082377,8734.430116
2620.311772,536.266849,-962.267725,9474.636058
2620.312101,229.828649,-0.000000,9326.594869
2620.312430,153.219100,962.267725,8364.327145
2620.312758,612.876398,1554.432478,8364.327145
2620.313087,1302.362347,370.102971,8882.471304
2620.313416,1685.410096,-814.226536,9326.594869
2620.313745,995.924147,-814.226536,8882.471304
2620.314074,689.485948,592.164754,9178.553681
2620.314403,689.485948,1258.350101,8068.244768
2620.314732,383.047749,518.144159,8512.368333
2620.315061,76.609550,-740.205942,9400.615463
2620.315390,-536.266849,-444.123565,9030.512492
2620.315719,-689.485948,-518.144159,9400.615463
2620.316048,-1302.362347,-0.000000,8586.388927
2620.316377,-153.219100,-0.000000,9474.636058
2620.316706,0.000000,-2442.679609,9622.677246
2620.317035,-1532.190996,-2442.679609,9104.533087
2620.317364,-995.924147,-1332.370696,10288.862594
2620.317693,-1608.800546,370.102971,9104.533087
2620.318022,-919.314598,962.267725,8512.368333
2620.318351,-689.485948,148.041188,9326.594869
2620.318680,-1378.971896,-1184.329507,9548.656652
2620.319009,-689.485948,-962.267725,9696.697840
2620.319338,-383.047749,-74.020594,8956.491898
2620.319667,0.000000,592.164754,8142.265362
2620.319996,0.000000,-666.185348,8882.471304
2620.320325,229.828649,-2072.576638,9326.594869
2620.320654,0.000000,-1924.535449,9252.574275
2620.320983,383.047749,-444.123565,8438.347739
2620.321312,383.047749,962.267725,7920.203579
2620.321641,919.314598,1702.473667,8290.306550
2620.321970,919.314598,-222.061783,9030.512492
2620.322299,612.876398,-518.144159,9252.574275
2620.322628,536.266849,-296.082377,9400.615463
2620.322957,612.876398,814.226536,8882.471304
2620.323286,919.314598,962.267725,8660.409521
2620.323615,1302.362347,-666.185348,8808.450710
2620.323944,919.314598,-1480.411884,9474.636058
2620.324273,766.095498,-1110.308913,9400.615463
2620.324601,459.657299,-74.020594,8956.491898
2620.324930,229.828649,666.185348,8216.285956
2620.325259,766.095498,370.102971,8660.409521
2620.325588,1072.533697,-370.102971,9400.615463
2620.325917,689.485948,-1184.329507,9474.636058
2620.326246,153.219100,-518.144159,9696.697840
2620.326575,689.485948,1036.288319,8734.430116
2620.326904,1149.143247,444.123565,9030.512492
2620.327233,1915.238745,-888.247130,9622.677246
2620.327562,2068.457845,-740.205942,9696.697840
2620.327891,1378.971896,-296.082377,9622.677246
2620.328220,1378.971896,1406.391290,9030.512492
2620.328549,1685.410096,1702.473667,7179.997637
2620.328878,1378.971896,518.144159,8438.347739
2620.329207,1532.190996,-518.144159,10732.986159
2620.329536,229.828649,-592.164754,9696.697840
2620.329865,153.219100,-296.082377,8290.306550
2620.330194,536.266849,888.247130,9104.533087
2620.330523,0.000000,-666.185348,9326.594869
2620.330852,383.047749,-666.185348,9548.656652
2620.331181,306.438199,-1628.453072,9548.656652
2620.331510,-306.438199,-370.102971,9474.636058
2620.331839,0.000000,814.226536,8512.368333
2620.332168,-153.219100,814.226536,8586.388927
2620.332497,-306.438199,-0.000000,8956.491898
2620.332826,0.000000,-740.205942,10066.800811
2620.333155,-995.924147,-740.205942,9326.594869
2620.333484,-919.314598,666.185348,8512.368333
2620.333813,-612.876398,592.164754,8290.306550
2620.334142,-306.438199,-1184.329507,8808.450710
2620.334471,-306.438199,-1554.432478,9548.656652
2620.334800,-612.876398,-1480.411884,9400.615463
2620.335129,-995.924147,-0.000000,8438.347739
2620.335458,-459.657299,740.205942,7624.121203
2620.335787,0.000000,296.082377,8660.409521
2620.336116,0.000000,-888.247130,8956.491898
2620.336444,0.000000,-1332.370696,9474.636058
2620.336773,-229.828649,-888.247130,9474.636058
2620.337102,153.219100,740.205942,8438.347739
2620.337431,0.000000,222.061783,8438.347739
2620.337760,459.657299,-666.185348,8956.491898
2620.338089,76.609550,-1702.473667,9548.656652
2620.338418,0.000000,-1110.308913,9400.615463
2620.338747,0.000000,740.205942,8586.388927
2620.339076,-76.609550,814.226536,8586.388927
2620.339405,-306.438199,-74.020594,9326.594869
2620.339734,-459.657299,-962.267725,9622.677246
2620.340063,-459.657299,-1332.370696,9696.697840
2620.340392,-612.876398,296.082377,9104.533087
2620.340721,-306.438199,370.102971,8882.471304
2620.341050,153.219100,-296.082377,9474.636058
2620.341379,842.705048,-1406.391290,10140.821405
2620.341708,919.314598,-1628.453072,10140.821405
2620.342037,689.485948,-148.041188,9178.553681
2620.342366,1302.362347,1184.329507,8586.388927
2620.342695,1762.019645,1702.473667,8290.306550
2620.343024,2604.724693,888.247130,9474.636058
2620.343353,2374.896044,-518.144159,9474.636058
2620.343682,2145.067394,222.061783,9030.512492
2620.344011,2068.457845,962.267725,8734.430116
2620.344340,1608.800546,740.205942,8290.306550
2620.344669,1532.190996,-444.123565,9400.615463
2620.344998,1455.581446,-1332.370696,9474.636058
2620.345327,919.314598,-1406.391290,9622.677246
2620.345656,76.609550,-296.082377,9326.594869
2620.345985,459.657299,370.102971,8808.450710
2620.346314,153.219100,518.144159,8734.430116
2620.346643,612.876398,-518.144159,9622.677246
2620.346972,306.438199,-814.226536,9178.553681
2620.347301,0.000000,296.082377,9326.594869
2620.347630,229.828649,1628.453072,8216.285956
2620.347958,766.095498,370.102971,8660.409521
2620.348287,995.924147,-1110.308913,9400.615463
2620.348616,1072.533697,-1628.453072,9622.677246
2620.348945,612.876398,-888.247130,9696.697840
2620.349274,0.000000,666.185348,8290.306550
2620.349603,536.266849,1110.308913,8068.244768
2620.349932,919.314598,370.102971,8586.388927
2620.350261,766.095498,-518.144159,8956.491898
2620.350590,229.828649,-1036.288319,8808.450710
2620.350919,0.000000,-0.000000,8364.327145
2620.351248,-766.095498,592.164754,8216.285956
2620.351577,-689.485948,-1110.308913,8734.430116
2620.351906,-1149.143247,-2516.700203,9770.718434
2620.352235,-1915.238745,-2960.823768,9844.739029
2620.352564,-2145.067394,-1480.411884,9918.759623
2620.352893,-1762.019645,-0.000000,9178.553681
2620.353222,-1302.362347,592.164754,8216.285956
2620.353551,-995.924147,-222.061783,9326.594869
2620.353880,-1072.533697,-1110.308913,9474.636058
2620.354209,0.000000,-592.164754,9474.636058
2620.354538,0.000000,740.205942,7920.203579
2620.354867,536.266849,1110.308913,7772.162391
2620.355196,766.095498,-222.061783,8290.306550
2620.355525,842.705048,-962.267725,8956.491898
2620.355854,383.047749,-814.226536,9252.574275
2620.356183,612.876398,-0.000000,8808.450710
2620.356512,0.000000,1184.329507,8142.265362
2620.356841,459.657299,-0.000000,8586.388927
2620.357170,306.438199,-296.082377,9252.574275
2620.357499,459.657299,-1036.288319,9474.636058
2620.357828,229.828649,-370.102971,9104.533087
2620.358156,536.266849,1406.391290,8438.347739
2620.358485,689.485948,518.144159,8882.471304
2620.358814,1302.362347,-74.020594,9548.656652
2620.359143,1302.362347,-1110.308913,10288.862594
2620.359472,842.705048,-370.102971,9474.636058
2620.359801,766.095498,1480.411884,8660.409521
2620.360130,995.924147,1850.514855,8882.471304
2620.360459,1149.143247,1184.329507,9474.636058
2620.360788,383.047749,-666.185348,10066.800811
2620.361117,306.438199,-1110.308913,10214.842000
2620.361446,536.266849,-0.000000,9992.780217
2620.361775,612.876398,296.082377,8956.491898
2620.362104,919.314598,-740.205942,9252.574275
2620.362433,1072.533697,-1776.494261,9770.718434
2620.362762,1455.581446,-1702.473667,9918.759623
2620.363091,1608.800546,-222.061783,9622.677246
2620.363420,1072.533697,1258.350101,8290.306550
2620.363749,2068.457845,1110.308913,8216.285956
2620.364078,2221.676944,-0.000000,9252.574275
2620.364407,1991.848295,-296.082377,9252.574275
2620.364736,1302.362347,518.144159,8808.450710
2620.365065,1225.752797,1184.329507,8512.368333
2620.365394,1302.362347,1332.370696,8290.306550
2620.365723,995.924147,-370.102971,8882.471304
2620.366052,612.876398,-1332.370696,9770.718434
2620.366381,0.000000,-1332.370696,9400.615463
2620.366710,0.000000,-0.000000,8438.347739
2620.367039,-612.876398,888.247130,7994.224174
2620.367367,-689.485948,148.041188,8512.368333
2620.367696,-689.485948,-1332.370696,9178.553681
2620.368025,-995.924147,-1258.350101,9770.718434
2620.368354,-1149.143247,-518.144159,9400.615463
2620.368683,-1378.971896,444.123565,8512.368333
2620.369012,-383.047749,-0.000000,8364.327145
2620.369341,0.000000,-1110.308913,9104.533087
2620.369670,0.000000,-1554.432478,9474.636058
2620.369999,153.219100,-0.000000,8586.388927
2620.370328,-383.047749,148.041188,8734.430116
2620.370657,766.095498,296.082377,8734.430116
2620.370986,306.438199,222.061783,8512.368333
2620.371315,-229.828649,-1702.473667,9918.759623
2620.371644,-459.657299,-1850.514855,9326.594869
2620.371973,-383.047749,-0.000000,9252.574275
2620.372302,-995.924147,444.123565,8586.388927
2620.372631,612.876398,-666.185348,8882.471304
2620.372960,0.000000,-2146.597232,9918.759623
2620.373289,-383.047749,-1702.473667,9992.780217
2620.373618,-536.266849,-666.185348,9548.656652
2620.373947,-459.657299,740.205942,8438.347739
2620.374276,-306.438199,1184.329507,8586.388927
2620.374605,76.609550,370.102971,9992.780217
2620.374934,0.000000,-814.226536,10066.800811
2620.375263,229.828649,-444.123565,9696.697840
2620.375592,153.219100,518.144159,9622.677246
2620.375921,229.828649,1184.329507,8882.471304
2620.376250,995.924147,-962.267725,9178.553681
2620.376578,995.924147,-1036.288319,9548.656652
2620.376907,995.924147,-222.061783,9696.697840
2620.377236,612.876398,666.185348,9104.533087
2620.377565,1072.533697,1332.370696,8438.347739
2620.377894,1378.971896,962.267725,8882.471304
2620.378223,1685.410096,-296.082377,9030.512492
2620.378552,1378.971896,-666.185348,9326.594869
2620.378881,919.314598,-148.041188,9326.594869
2620.379210,1532.190996,1406.391290,8364.327145
2620.379539,1149.143247,740.205942,8290.306550
2620.379868,2451.505594,-1036.288319,9400.615463
2620.380197,1762.019645,-1702.473667,9622.677246
2620.380526,1149.143247,-370.102971,9400.615463
2620.380855,1225.752797,962.267725,8290.306550
2620.381184,995.924147,1406.391290,8364.327145
2620.381513,919.314598,370.102971,8808.450710
2620.381842,1149.143247,-666.185348,9770.718434
2620.382171,0.000000,-370.102971,9326.594869
2620.382500,0.000000,-74.020594,9104.533087
2620.382829,0.000000,518.144159,8586.388927
2620.383158,0.000000,-148.041188,8808.450710
2620.383487,0.000000,-1702.473667,10140.821405
2620.383816,0.000000,-1924.535449,9474.636058
2620.384145,76.609550,-370.102971,9326.594869
2620.384474,-766.095498,1110.308913,8734.430116
2620.384803,76.609550,888.247130,8290.306550
2620.385132,459.657299,-444.123565,9548.656652
2620.385461,153.219100,-888.247130,9622.677246
2620.385789,-459.657299,-518.144159,9622.677246
2620.386118,-766.095498,592.164754,8734.430116
2620.386447,-612.876398,814.226536,8734.430116
2620.386776,459.657299,-740.205942,9178.553681
2620.387105,0.000000,-1110.308913,9770.718434
2620.387434,-306.438199,-1258.350101,9474.636058
2620.387763,-766.095498,444.123565,8290.306550
2620.388092,-459.657299,1184.329507,8068.244768
2620.388421,229.828649,-0.000000,8438.347739
2620.388750,-459.657299,-1184.329507,9252.574275
2620.389079,-1072.533697,-1258.350101,9918.759623
2620.389408,-1072.533697,-740.205942,9178.553681
2620.389737,-1072.533697,-0.000000,9104.533087
2620.390066,-612.876398,-148.041188,8512.368333
2620.390395,0.000000,-1110.308913,9622.677246
2620.390724,459.657299,-2072.576638,9474.636058
2620.391053,383.047749,-888.247130,9400.615463
2620.391382,612.876398,962.267725,8438.347739
2620.391711,612.876398,1258.350101,8142.265362
2620.392040,1225.752797,740.205942,8882.471304
2620.392369,1608.800546,-444.123565,9030.512492
2620.392698,1149.143247,-148.041188,9252.574275
2620.393027,1378.971896,-0.000000,8882.471304
2620.393356,919.314598,518.144159,8364.327145
2620.393685,1149.143247,-74.020594,9030.512492
2620.394014,1149.143247,-1554.432478,9770.718434
2620.394343,229.828649,-1776.494261,9622.677246
2620.394672,229.828649,-740.205942,9178.553681
2620.395000,459.657299,962.267725,8290.306550
2620.395329,1072.533697,1110.308913,8364.327145
2620.395658,1302.362347,-444.123565,9696.697840
2620.395987,1225.752797,-592.164754,10066.800811
2620.396316,995.924147,-0.000000,9400.615463
2620.396645,919.314598,370.102971,8512.368333
2620.396974,766.095498,814.226536,8808.450710
2620.397303,1302.362347,-370.102971,9178.553681
2620.397632,1302.362347,-2072.576638,9400.615463
2620.397961,1072.533697,-740.205942,8660.409521
2620.398290,995.924147,222.061783,8956.491898
2620.398619,1149.143247,1332.370696,7994.224174
2620.398948,1225.752797,1036.288319,8808.450710
2620.399277,1532.190996,-222.061783,9252.574275
2620.399606,919.314598,-444.123565,9474.636058
2620.399935,842.705048,-0.000000,9030.512492
2620.400264,536.266849,1184.329507,8142.265362
2620.400593,536.266849,814.226536,8882.471304
2620.400922,919.314598,-666.185348,9400.615463
2620.401251,306.438199,-1554.432478,9918.759623
2620.401580,0.000000,-518.144159,9622.677246
2620.401909,-383.047749,962.267725,8512.368333
2620.402238,-229.828649,1184.329507,8142.265362
2620.402567,-229.828649,-0.000000,9252.574275
2620.402896,-459.657299,-1258.350101,10066.800811
2620.403225,-612.876398,-740.205942,9992.780217
2620.403554,-612.876398,-0.000000,8882.471304
2620.403883,-536.266849,444.123565,8438.347739
2620.404211,0.000000,-74.020594,8882.471304
2620.404540,-153.219100,-1702.473667,9770.718434
2620.404869,-689.485948,-1998.556043,9918.759623
2620.405198,0.000000,-444.123565,10066.800811
2620.405527,229.828649,-0.000000,8438.347739
2620.405856,-689.485948,148.041188,9104.533087
2620.406185,-383.047749,-962.267725,10362.883188
2620.406514,-995.924147,-1998.556043,9104.533087
2620.406843,-459.657299,-518.144159,8808.450710
2620.407172,-612.876398,814.226536,8512.368333
2620.407501,-153.219100,370.102971,8512.368333
2620.407830,229.828649,-1036.288319,9474.636058
2620.408159,306.438199,-2146.597232,9622.677246
2620.408488,76.609550,-1850.514855,9252.574275
2620.408817,0.000000,-370.102971,8438.347739
2620.409146,306.438199,1184.329507,7550.100608
2620.409475,306.438199,814.226536,8216.285956
2620.409804,536.266849,-518.144159,9030.512492
2620.410133,0.000000,-1036.288319,8808.450710
2620.410462,306.438199,222.061783,8734.430116
2620.410791,229.828649,740.205942,8142.265362
2620.411120,229.828649,-0.000000,8512.368333
2620.411449,459.657299,-1480.411884,9696.697840
2620.411778,383.047749,-1776.494261,10066.800811
2620.412107,383.047749,-888.247130,9474.636058
2620.412436,153.219100,296.082377,8882.471304
2620.412765,1225.752797,1110.308913,8216.285956
2620.413093,1225.752797,-0.000000,8956.491898
2620.413422,1378.971896,-962.267725,9104.533087
2620.413751,1532.190996,-888.247130,9474.636058
2620.414080,1302.362347,666.185348,8438.347739
2620.414409,2374.896044,1480.411884,7846.182985
2620.414738,2604.724693,222.061783,8290.306550
2620.415067,2374.896044,-740.205942,9326.594869
2620.415396,2145.067394,-740.205942,9622.677246
2620.415725,919.314598,-74.020594,9178.553681
2620.416054,306.438199,1110.308913,9326.594869
2620.416383,612.876398,888.247130,9326.594869
2620.416712,-153.219100,518.144159,9178.553681
2620.417041,-383.047749,-1406.391290,10807.006753
2620.417370,-612.876398,-1036.288319,10288.862594
2620.417699,-1225.752797,1036.288319,10066.800811
2620.418028,-229.828649,-370.102971,9770.718434
2620.418357,0.000000,-888.247130,8956.491898
2620.418686,0.000000,-1406.391290,9992.780217
2620.419015,153.219100,-814.226536,9474.636058
2620.419344,229.828649,370.102971,8734.430116
2620.419673,919.314598,1702.473667,8364.327145
2620.420002,1225.752797,1036.288319,8364.327145
2620.420331,689.485948,-370.102971,9178.553681
2620.420660,383.047749,-1036.288319,9326.594869
2620.420989,153.219100,-0.000000,8882.471304
2620.421318,-306.438199,1110.308913,8734.430116
2620.421647,0.000000,444.123565,8438.347739
2620.421976,-153.219100,-1184.329507,9474.636058
2620.422304,-689.485948,-2294.638420,10436.903782
2620.422633,-1302.362347,-1110.308913,9548.656652
2620.422962,-1072.533697,-370.102971,8882.471304
2620.423291,-1149.143247,370.102971,8438.347739
2620.423620,-536.266849,-74.020594,8882.471304
2620.423949,-842.705048,-1184.329507,9178.553681
2620.424278,-766.095498,-1258.350101,9104.533087
2620.424607,0.000000,-0.000000,7994.224174
2620.424936,76.609550,592.164754,7772.162391
2620.425265,76.609550,-814.226536,8660.409521
2620.425594,306.438199,-1924.535449,8882.471304
2620.425923,383.047749,-1036.288319,9474.636058
2620.426252,842.705048,-222.061783,8734.430116
2620.426581,612.876398,888.247130,8216.285956
2620.426910,612.876398,962.267725,8364.327145
2620.427239,919.314598,-592.164754,9252.574275
2620.427568,1072.533697,-740.205942,9030.512492
2620.427897,689.485948,-518.144159,9326.594869
2620.428226,383.047749,592.164754,9178.553681
2620.428555,536.266849,740.205942,8734.430116
2620.428884,766.095498,-666.185348,9030.512492
2620.429213,689.485948,-1924.535449,9474.636058
2620.429542,383.047749,-1184.329507,9474.636058
2620.429871,229.828649,-0.000000,9030.512492
2620.430200,459.657299,1110.308913,8290.306550
2620.430529,459.657299,148.041188,9178.553681
2620.430858,1072.533697,-296.082377,9696.697840
2620.431187,1149.143247,-814.226536,9844.739029
2620.431515,689.485948,-0.000000,9252.574275
2620.431844,1149.143247,814.226536,8586.388927
2620.432173,1991.848295,444.123565,9030.512492
2620.432502,2451.505594,-1110.308913,9400.615463
2620.432831,995.924147,-592.164754,9474.636058
2620.433160,1302.362347,-222.061783,9918.759623
2620.433489,995.924147,1332.370696,9104.533087
2620.433818,1378.971896,1776.494261,7846.182985
2620.434147,1302.362347,370.102971,9178.553681
2620.434476,842.705048,-518.144159,9622.677246
2620.434805,153.219100,-222.061783,9696.697840
2620.435134,0.000000,-0.000000,9474.636058
2620.435463,0.000000,222.061783,8808.450710
2620.435792,306.438199,-296.082377,9104.533087
2620.436121,0.000000,-1480.411884,9992.780217
2620.436450,-612.876398,-1110.308913,9992.780217
2620.436779,-995.924147,-296.082377,9474.636058
2620.437108,-1455.581446,1406.391290,8660.409521
2620.437437,-229.828649,-0.000000,9992.780217
2620.437766,76.609550,-0.000000,8512.368333
2620.438095,612.876398,-518.144159,9178.553681
2620.438424,0.000000,-0.000000,8660.409521
2620.438753,306.438199,1924.535449,7920.203579
2620.439082,842.705048,1110.308913,7328.038826
2620.439411,383.047749,-1110.308913,8956.491898
2620.439740,76.609550,-2072.576638,9770.718434
2620.440069,-766.095498,-1702.473667,9104.533087
2620.440398,-1455.581446,-888.247130,9326.594869
2620.440726,-1532.190996,222.061783,8586.388927
2620.441055,-1149.143247,-814.226536,9474.636058
2620.441384,-1532.190996,-1184.329507,9992.780217
2620.441713,-1225.752797,-1850.514855,9992.780217
2620.442042,-612.876398,-74.020594,9326.594869
2620.442371,0.000000,222.061783,8364.327145
2620.442700,76.609550,518.144159,8290.306550
2620.443029,689.485948,-814.226536,8882.471304
2620.443358,689.485948,-1110.308913,9178.553681
2620.443687,842.705048,-0.000000,7994.224174
2620.444016,919.314598,1184.329507,7476.080014
2620.444345,0.000000,888.247130,7846.182985
2620.444674,842.705048,-148.041188,8808.450710
2620.445003,612.876398,-1110.308913,9474.636058
2620.445332,0.000000,-740.205942,9326.594869
2620.445661,0.000000,-0.000000,8734.430116
2620.445990,306.438199,222.061783,7846.182985
2620.446319,842.705048,-1110.308913,9178.553681
2620.446648,766.095498,-2146.597232,10140.821405
2620.446977,919.314598,-1332.370696,9548.656652
2620.447306,1072.533697,-0.000000,8586.388927
2620.447635,1225.752797,1184.329507,8142.265362
2620.447964,1762.019645,1184.329507,8512.368333
2620.448293,1915.238745,-222.061783,9696.697840
2620.448622,1532.190996,-370.102971,9326.594869
2620.448951,1455.581446,-0.000000,9622.677246
2620.449280,1685.410096,1332.370696,9030.512492
2620.449609,1302.362347,888.247130,8882.471304
2620.449937,1225.752797,-1110.308913,10288.862594
2620.450266,1302.362347,-1258.350101,10436.903782
2620.450595,766.095498,-888.247130,9992.780217
2620.450924,459.657299,-0.000000,8956.491898
2620.451253,919.314598,1036.288319,8438.347739
2620.451582,689.485948,-0.000000,9030.512492
2620.451911,306.438199,-518.144159,9918.759623
2620.452240,383.047749,-666.185348,9622.677246
2620.452569,0.000000,-0.000000,9326.594869
2620.452898,536.266849,1184.329507,8068.244768
2620.453227,536.266849,-74.020594,8808.450710
2620.453556,612.876398,-1036.288319,9400.615463
2620.453885,153.219100,-1258.350101,9548.656652
2620.454214,306.438199,-148.041188,9178.553681
2620.454543,306.438199,1332.370696,7920.203579
2620.454872,383.047749,1258.350101,8290.306550
2620.455201,153.219100,444.123565,8734.430116
2620.455530,383.047749,-1332.370696,9474.636058
2620.455859,-383.047749,-962.267725,9474.636058
2620.456188,-383.047749,-148.041188,7994.224174
2620.456517,-612.876398,296.082377,8142.265362
2620.456846,-612.876398,-518.144159,8586.388927
2620.457175,-383.047749,-1850.514855,9474.636058
2620.457504,-842.705048,-1850.514855,9178.553681
2620.457833,-689.485948,-74.020594,8882.471304
2620.458162,-1225.752797,518.144159,8068.244768
2620.458491,-1149.143247,222.061783,8364.327145
2620.458820,-1302.362347,-518.144159,9104.533087
2620.459150,-536.266849,-1332.370696,9992.780217
2620.459479,-842.705048,-888.247130,9326.594869
2620.459808,-1532.190996,592.164754,8808.450710
2620.460137,-306.438199,-74.020594,8734.430116
2620.460466,229.828649,-888.247130,8660.409521
2620.460795,459.657299,-1998.556043,9474.636058
2620.461124,229.828649,-370.102971,9474.636058
2620.461454,229.828649,370.102971,8068.244768
2620.461783,995.924147,1702.473667,8586.388927
2620.462112,995.924147,296.082377,8660.409521
2620.462441,536.266849,-296.082377,9918.759623
2620.462770,689.485948,-1406.391290,10066.800811
2620.463099,459.657299,222.061783,9326.594869
2620.463429,383.047749,814.226536,8734.430116
2620.463758,842.705048,-0.000000,9178.553681
2620.464087,1072.533697,-1776.494261,9918.759623
2620.464416,612.876398,-1406.391290,10214.842000
2620.464745,919.314598,-518.144159,9474.636058
2620.465074,1378.971896,666.185348,8808.450710
2620.465403,1302.362347,1702.473667,8512.368333
2620.465733,1685.410096,370.102971,9696.697840
2620.466062,1608.800546,-444.123565,9770.718434
2620.466391,919.314598,-0.000000,8956.491898
2620.466720,1302.362347,888.247130,8882.471304
2620.467049,842.705048,1036.288319,8882.471304
2620.467378,1455.581446,-370.102971,9178.553681
2620.467708,1991.848295,-1554.432478,10288.862594
2620.468037,1608.800546,-592.164754,9474.636058
2620.468366,1532.190996,222.061783,9326.594869
2620.468695,1532.190996,1036.288319,8586.388927
2620.469024,1685.410096,1406.391290,8216.285956
2620.469353,1915.238745,-0.000000,9622.677246
2620.469682,1685.410096,-814.226536,9474.636058
2620.470012,995.924147,-0.000000,9326.594869
2620.470341,1149.143247,666.185348,8808.450710
2620.470670,1072.533697,1036.288319,7920.203579
2620.470999,306.438199,-148.041188,9400.615463
2620.471328,459.657299,-1850.514855,9696.697840
2620.471657,-229.828649,-666.185348,8808.450710
2620.471986,-842.705048,-0.000000,8734.430116
2620.472316,-766.095498,518.144159,8586.388927
2620.472645,-842.705048,-592.164754,8882.471304
2620.472974,-1149.143247,-1628.453072,9918.759623
2620.473303,-1378.971896,-1702.473667,9622.677246
2620.473632,-1608.800546,-1184.329507,9326.594869
2620.473961,-1225.752797,-0.000000,8734.430116
2620.474291,0.000000,-0.000000,7772.162391
2620.474620,0.000000,-1998.556043,9474.636058
2620.474949,0.000000,-1110.308913,9474.636058
2620.475278,0.000000,-592.164754,8734.430116
2620.475607,76.609550,740.205942,7846.182985
2620.475936,383.047749,1554.432478,7328.038826
2620.476265,536.266849,-74.020594,8660.409521
2620.476595,0.000000,-1258.350101,9400.615463
2620.476924,-689.485948,-888.247130,8956.491898
2620.477253,-612.876398,-148.041188,8438.347739
2620.477582,-689.485948,444.123565,8142.265362
2620.477911,-612.876398,-962.267725,9178.553681
2620.478240,-1149.143247,-2294.638420,10066.800811
2620.478569,-1072.533697,-1850.514855,10066.800811
2620.478899,-459.657299,-0.000000,9474.636058
2620.479228,0.000000,1110.308913,8142.265362
2620.479557,-153.219100,1184.329507,8438.347739
2620.479886,306.438199,-0.000000,9400.615463
2620.480215,842.705048,-444.123565,9474.636058
2620.480544,459.657299,148.041188,9178.553681
2620.480874,995.924147,888.247130,8660.409521
2620.481203,919.314598,888.247130,8364.327145
2620.481532,1302.362347,-1332.370696,9400.615463
2620.481861,1838.629195,-1628.453072,9622.677246
2620.482190,1378.971896,-962.267725,9696.697840
2620.482519,1072.533697,222.061783,9326.594869
2620.482848,1378.971896,1332.370696,8734.430116
2620.483178,1608.800546,-0.000000,8956.491898
2620.483507,1838.629195,-518.144159,9844.739029
2620.483836,1685.410096,-814.226536,9992.780217
2620.484165,1532.190996,444.123565,9400.615463
2620.484494,1762.019645,1332.370696,8364.327145
2620.484823,1378.971896,740.205942,9030.512492
2620.485152,1838.629195,-592.164754,9622.677246
2620.485482,1455.581446,-1110.308913,9770.718434
2620.485811,1149.143247,-444.123565,9326.594869
2620.486140,383.047749,592.164754,8216.285956
2620.486469,306.438199,592.164754,8364.327145
2620.486798,306.438199,-592.164754,8734.430116
2620.487127,459.657299,-444.123565,10140.821405
2620.487457,-153.219100,-370.102971,9474.636058
2620.487786,0.000000,-74.020594,8956.491898
2620.488115,612.876398,1332.370696,8734.430116
2620.488444,1149.143247,-370.102971,9030.512492
2620.488773,1225.752797,-1184.329507,9770.718434
2620.489102,229.828649,-222.061783,9326.594869
2620.489431,995.924147,148.041188,8290.306550
2620.489761,995.924147,1776.494261,7254.018232
2620.490090,842.705048,1480.411884,8586.388927
2620.490419,1149.143247,-222.061783,8808.450710
2620.490748,306.438199,-1110.308913,8586.388927
2620.491077,-229.828649,-148.041188,9178.553681
2620.491406,-153.219100,444.123565,8290.306550
2620.491735,0.000000,-222.061783,8512.368333
2620.492065,-919.314598,-1480.411884,9622.677246
2620.492394,-612.876398,-1110.308913,9474.636058
2620.492723,-1608.800546,-2368.659014,10140.821405
2620.493052,-1838.629195,-0.000000,10362.883188
2620.493381,-842.705048,1258.350101,8586.388927
2620.493710,-1608.800546,-1258.350101,9474.636058
2620.494040,-1455.581446,-888.247130,9474.636058
2620.494369,-995.924147,-148.041188,9770.718434
2620.494698,-1302.362347,-962.267725,9696.697840
2620.495027,-229.828649,888.247130,8068.244768
2620.495356,-383.047749,-1406.391290,9178.553681
2620.495685,612.876398,-1998.556043,9474.636058
2620.496014,229.828649,-1998.556043,9326.594869
2620.496344,-689.485948,-518.144159,9696.697840
2620.496673,-306.438199,592.164754,8068.244768
2620.497002,766.095498,1258.350101,8586.388927
2620.497331,306.438199,-74.020594,9474.636058
2620.497660,919.314598,-740.205942,9474.636058
2620.497989,766.095498,-592.164754,9770.718434
2620.498318,383.047749,444.123565,8660.409521
2620.498648,306.438199,814.226536,7920.203579
2620.498977,1225.752797,-666.185348,9030.512492
2620.499306,1455.581446,-1406.391290,9474.636058
2620.499635,689.485948,-1184.329507,8882.471304
2620.499964,766.095498,-518.144159,9178.553681
2620.500293,1149.143247,1036.288319,7920.203579
2620.500623,1378.971896,666.185348,8808.450710
2620.500952,766.095498,-444.123565,8956.491898
2620.501281,612.876398,-666.185348,9474.636058
2620.501610,1225.752797,-0.000000,8956.491898
2620.501939,1072.533697,1332.370696,8290.306550
2620.502268,1608.800546,1628.453072,8734.430116
2620.502597,2374.896044,-592.164754,9474.636058
2620.502927,1608.800546,-814.226536,9770.718434
2620.503256,1608.800546,222.061783,9400.615463
2620.503585,1532.190996,962.267725,8216.285956
2620.503914,842.705048,1406.391290,7624.121203
2620.504243,1685.410096,518.144159,8808.450710
2620.504572,1685.410096,-1332.370696,9474.636058
2620.504902,306.438199,-814.226536,9252.574275
2620.505231,306.438199,-1258.350101,9474.636058
2620.505560,-536.266849,518.144159,8438.347739
2620.505889,536.266849,-0.000000,8956.491898
2620.506218,842.705048,-962.267725,10066.800811
2620.506547,459.657299,-1184.329507,9992.780217
2620.506876,76.609550,222.061783,10066.800811
2620.507206,76.609550,1332.370696,9104.533087
2620.507535,-1149.143247,1776.494261,9178.553681
2620.507864,0.000000,-0.000000,9770.718434
2620.508193,-536.266849,-666.185348,10066.800811
2620.508522,-1072.533697,-666.185348,9696.697840
2620.508851,-919.314598,-74.020594,9252.574275
2620.509180,-459.657299,518.144159,8512.368333
2620.509510,-383.047749,-1110.308913,9326.594869
2620.509839,-153.219100,-2072.576638,9622.677246
2620.510168,-306.438199,-1628.453072,9548.656652
2620.510497,-536.266849,-666.185348,8956.491898
2620.510826,-612.876398,962.267725,7624.121203
2620.511155,76.609550,666.185348,8438.347739
2620.511485,0.000000,-518.144159,8882.471304
2620.511814,459.657299,-1036.288319,9770.718434
2620.512143,0.000000,-148.041188,9400.615463
2620.512472,306.438199,444.123565,7772.162391
2620.512801,0.000000,1036.288319,7846.182985
2620.513130,459.657299,-740.205942,9178.553681
2620.513459,383.047749,-1924.535449,9326.594869
2620.513789,0.000000,-962.267725,8956.491898
2620.514118,0.000000,-0.000000,8364.327145
2620.514447,0.000000,296.082377,7994.224174
2620.514776,0.000000,-0.000000,8290.306550
2620.515105,-459.657299,-1332.370696,9326.594869
2620.515434,0.000000,-1480.411884,9622.677246
2620.515763,-536.266849,-518.144159,9030.512492
2620.516093,0.000000,-0.000000,8364.327145
2620.516422,766.095498,-296.082377,8734.430116
2620.516751,995.924147,-1332.370696,9104.533087
2620.517080,1608.800546,-1036.288319,9770.718434
2620.517409,1302.362347,-0.000000,8956.491898
2620.517738,1302.362347,1628.453072,8142.265362
2620.518068,1838.629195,1258.350101,8216.285956
2620.518397,2298.286494,-0.000000,8882.471304
2620.518726,1302.362347,-666.185348,9326.594869
2620.519055,1455.581446,-592.164754,9474.636058
2620.519384,1685.410096,-0.000000,9030.512492
2620.519713,919.314598,814.226536,8734.430116
2620.520042,1149.143247,-814.226536,9178.553681
2620.520372,766.095498,-1554.432478,9918.759623
2620.520701,536.266849,-2368.659014,9548.656652
2620.521030,153.219100,-222.061783,9622.677246
2620.521359,0.000000,888.247130,8660.409521
2620.521688,229.828649,592.164754,8882.471304
2620.522017,766.095498,-0.000000,9548.656652
2620.522346,689.485948,-222.061783,9844.739029
2620.522676,612.876398,592.164754,9030.512492
2620.523005,459.657299,1184.329507,8734.430116
2620.523334,842.705048,1036.288319,8290.306550
2620.523663,1302.362347,-518.144159,8956.491898
2620.523992,689.485948,-1184.329507,9474.636058
2620.524321,229.828649,-962.267725,9548.656652
2620.524651,76.609550,222.061783,8734.430116
2620.524980,0.000000,1554.432478,7550.100608
2620.525309,306.438199,666.185348,8586.388927
2620.525638,306.438199,-888.247130,9548.656652
2620.525967,76.609550,-740.205942,9622.677246
2620.526296,-766.095498,-0.000000,9178.553681
2620.526625,-612.876398,296.082377,8290.306550
2620.526955,-383.047749,-296.082377,9030.512492
2620.527284,-612.876398,-1702.473667,9622.677246
2620.527613,-383.047749,-1998.556043,10584.944971
2620.527942,-766.095498,-1480.411884,9326.594869
2620.528271,-689.485948,296.082377,8142.265362
2620.528600,-536.266849,888.247130,8142.265362
2620.528929,-383.047749,-0.000000,8734.430116
2620.529259,-842.705048,-962.267725,9326.594869
2620.529588,-612.876398,-1406.391290,9474.636058
2620.529917,-306.438199,-74.020594,8660.409521
2620.530246,-612.876398,148.041188,8956.491898
2620.530575,-459.657299,-1406.391290,8956.491898
2620.530904,-459.657299,-1924.535449,9844.739029
2620.531234,-612.876398,-1480.411884,9622.677246
2620.531563,76.609550,-74.020594,8512.368333
2620.531892,536.266849,1036.288319,7994.224174
2620.532221,995.924147,888.247130,7920.203579
2620.532550,1378.971896,-0.000000,9104.533087
2620.532879,1685.410096,-814.226536,9252.574275
2620.533208,1225.752797,296.082377,8290.306550
2620.533538,1302.362347,1184.329507,7920.203579
2620.533867,1225.752797,444.123565,8364.327145
2620.534196,1302.362347,-518.144159,8734.430116
2620.534525,1378.971896,-1850.514855,9548.656652
2620.534854,689.485948,-1702.473667,9252.574275
2620.535183,76.609550,296.082377,8956.491898
2620.535513,229.828649,-74.020594,9104.533087
2620.535842,0.000000,444.123565,8512.368333
2620.536171,229.828649,-296.082377,9696.697840
2620.536500,0.000000,-444.123565,9918.759623
2620.536829,-383.047749,222.061783,9178.553681
2620.537158,-459.657299,1332.370696,8956.491898
2620.537487,-842.705048,962.267725,8364.327145
2620.537817,-766.095498,-1036.288319,9548.656652
2620.538146,-1149.143247,-1258.350101,9622.677246
2620.538475,-1762.019645,-592.164754,9918.759623
2620.538804,-2451.505594,-74.020594,9474.636058
2620.539133,-2374.896044,222.061783,8882.471304
2620.539462,-2604.724693,-0.000000,9326.594869
2620.539791,-2298.286494,-814.226536,10362.883188
2620.540121,-3217.601092,-740.205942,10066.800811
2620.540450,-2681.334243,-222.061783,9400.615463
2620.540779,-2604.724693,1110.308913,8512.368333
2620.541108,-2221.676944,444.123565,8660.409521
2620.541437,-1608.800546,-592.164754,8882.471304
2620.541766,-2145.067394,-1480.411884,9474.636058
2620.542096,-2681.334243,-1036.288319,9474.636058
2620.542425,-3140.991542,-0.000000,8586.388927
2620.542754,-2681.334243,666.185348,7624.121203
2620.543083,-2834.553343,740.205942,8734.430116
2620.543412,-3294.210641,-148.041188,8882.471304
2620.543741,-3217.601092,-814.226536,9474.636058
2620.544070,-3140.991542,-962.267725,8808.450710
2620.544400,-2681.334243,-222.061783,8438.347739
2620.544729,-2528.115143,-962.267725,8734.430116
2620.545058,-3064.381992,-740.205942,8734.430116
2620.545387,-2987.772442,-962.267725,9326.594869
2620.545716,-2757.943793,-666.185348,8808.450710
2620.546045,-2604.724693,-0.000000,8216.285956
2620.546374,-2604.724693,-0.000000,8734.430116
2620.546704,-2757.943793,296.082377,7920.203579
2620.547033,-3524.039291,-0.000000,8660.409521
2620.547362,-3907.087040,592.164754,8068.244768
2620.547691,-4366.744339,592.164754,8438.347739
2620.548020,-4673.182538,-148.041188,9030.512492
2620.548349,-5286.058936,-1554.432478,9474.636058
2620.548679,-5056.230287,-1924.535449,10140.821405
2620.549008,-5132.839837,-2368.659014,10066.800811
2620.549337,-5209.449386,-2220.617826,10066.800811
2620.549666,-4060.306139,-1110.308913,9474.636058
2620.549995,-2528.115143,-74.020594,8586.388927
2620.550324,-1762.019645,296.082377,8734.430116
2620.550653,-1225.752797,148.041188,8660.409521
2620.550983,-1455.581446,-740.205942,9030.512492
2620.551312,-2298.286494,-888.247130,10362.883188
2620.551641,-1762.019645,-0.000000,9474.636058
2620.551970,-1838.629195,1480.411884,8808.450710
2620.552299,-1838.629195,1554.432478,8734.430116
2620.552628,-1685.410096,2072.576638,8808.450710
2620.552957,-2068.457845,1554.432478,9104.533087
2620.553287,-1991.848295,740.205942,8956.491898
2620.553616,-689.485948,-444.123565,9178.553681
2620.553945,-1532.190996,-962.267725,9400.615463
2620.554274,-2374.896044,-1776.494261,9548.656652
2620.554603,-1991.848295,-666.185348,9992.780217
2620.554932,-1378.971896,-518.144159,9474.636058
2620.555262,-842.705048,-148.041188,9252.574275
2620.555591,-995.924147,296.082377,9622.677246
2620.555920,-383.047749,888.247130,9770.718434
2620.556249,-459.657299,296.082377,8586.388927
2620.556578,-229.828649,888.247130,8438.347739
2620.556907,-995.924147,666.185348,8142.265362
2620.557236,-1532.190996,222.061783,9030.512492
2620.557566,-2451.505594,-740.205942,9770.718434
2620.557895,-2221.676944,-1184.329507,9474.636058
2620.558224,-2374.896044,-1332.370696,9326.594869
2620.558553,-2221.676944,-518.144159,8956.491898
2620.558882,-2374.896044,-444.123565,8734.430116
2620.559211,-2221.676944,222.061783,9178.553681
2620.559541,-2068.457845,370.102971,8956.491898
2620.559870,-2068.457845,370.102971,8660.409521
2620.560199,-1608.800546,-296.082377,8660.409521
2620.560528,-1915.238745,222.061783,8586.388927
2620.560857,-2298.286494,-740.205942,8808.450710
2620.561186,-2298.286494,-1110.308913,9030.512492
2620.561516,-2451.505594,-814.226536,9326.594869
2620.561845,-2451.505594,-592.164754,9400.615463
2620.562174,-2451.505594,-518.144159,9400.615463
2620.562503,-2681.334243,-222.061783,8882.471304
2620.562832,-2681.334243,-444.123565,9178.553681
2620.563161,-2451.505594,-148.041188,8808.450710
2620.563491,-3064.381992,444.123565,8734.430116
2620.563820,-3294.210641,592.164754,8364.327145
2620.564149,-3294.210641,740.205942,7994.224174
2620.564478,-3830.477490,666.185348,7994.224174
2620.564807,-4136.915689,-0.000000,8290.306550
2620.565136,-4366.744339,-962.267725,8512.368333
2620.565465,-4903.011187,-888.247130,9178.553681
2620.565795,-5669.106685,-1998.556043,9696.697840
2620.566124,-5592.497135,-2368.659014,9992.780217
2620.566453,-5515.887586,-2294.638420,10362.883188
2620.566782,-5286.058936,-1850.514855,10362.883188
2620.567111,-4826.401637,-1258.350101,10658.965565
2620.567440,-4136.915689,296.082377,10066.800811
2620.567770,-2757.943793,814.226536,9326.594869
2620.568099,-1608.800546,2146.597232,8512.368333
2620.568428,-1532.190996,2368.659014,8290.306550
2620.568757,-1302.362347,2516.700203,7698.141797
2620.569086,-1685.410096,2146.597232,7254.018232
2620.569415,-2145.067394,1332.370696,8438.347739
2620.569745,-766.095498,518.144159,7920.203579
2620.570074,-1532.190996,370.102971,8216.285956
2620.570403,-1838.629195,-0.000000,7402.059420
2620.570732,-2298.286494,518.144159,7994.224174
2620.571061,-2374.896044,222.061783,8956.491898
2620.571390,-2681.334243,1332.370696,8882.471304
2620.571720,-2528.115143,1406.391290,9474.636058
2620.572049,-2757.943793,1036.288319,10362.883188
2620.572378,-2451.505594,1406.391290,10362.883188
2620.572707,-2451.505594,1184.329507,10066.800811
2620.573036,-2757.943793,518.144159,10584.944971
2620.573365,-2221.676944,296.082377,11103.089130
2620.573695,-1838.629195,888.247130,10658.965565
2620.574024,-1072.533697,962.267725,10140.821405
2620.574353,-842.705048,1480.411884,9474.636058
2620.574682,-842.705048,740.205942,10362.883188
2620.575011,689.485948,666.185348,11843.295072
2620.575340,2068.457845,2738.761985,7105.977043
2620.575669,4673.182538,3552.988522,8068.244768
2620.575999,3830.477490,4441.235652,5255.462188
2620.576328,4366.744339,4959.379811,6587.832884
2620.576657,3140.991542,4219.173869,7624.121203
2620.576986,2451.505594,4737.318029,8068.244768
2620.577315,1838.629195,2220.617826,10214.842000
2620.577644,-229.828649,2516.700203,9326.594869
2620.577974,-1838.629195,1480.411884,11103.089130
2620.578303,-1991.848295,1554.432478,10658.965565
2620.578632,-1225.752797,1332.370696,10214.842000
2620.578961,-689.485948,888.247130,10955.047942
2620.579290,153.219100,2072.576638,9474.636058
2620.579619,919.314598,3849.070898,7772.162391
2620.579949,1838.629195,2664.741391,7624.121203
2620.580278,2911.162892,5033.400406,6661.853478
2620.580607,2145.067394,5033.400406,5921.647536
2620.580936,2298.286494,4515.256246,7328.038826
2620.581265,536.266849,4145.153275,7476.080014
2620.581594,-689.485948,3108.864956,9104.533087
2620.581924,-2528.115143,2664.741391,9548.656652
2620.582253,-3753.867940,814.226536,10658.965565
2620.582582,-3524.039291,444.123565,11917.315666
2620.582911,-3983.696590,2220.617826,9622.677246
2620.583240,-3064.381992,1628.453072,10066.800811
2620.583569,-3677.258390,1924.535449,10584.944971
2620.583898,-2528.115143,1998.556043,11029.068536
2620.584228,-2221.676944,2368.659014,10362.883188
2620.584557,-1225.752797,3108.864956,8512.368333
2620.584886,-1378.971896,2960.823768,8068.244768
2620.585215,-1455.581446,3034.844362,9844.739029
2620.585544,153.219100,1332.370696,12213.398043
2620.585873,1532.190996,3034.844362,7550.100608
2620.586203,4673.182538,4441.235652,7698.141797
2620.586532,3753.867940,5625.565159,4145.153275
2620.586861,3677.258390,6513.812290,7328.038826
2620.587190,2145.067394,7105.977043,8068.244768
2620.587519,1838.629195,6217.729913,7994.224174
2620.587848,1685.410096,5329.482782,8586.388927
2620.588178,229.828649,4737.318029,8364.327145
2620.588507,-1762.019645,2590.720797,10066.800811
2620.588836,-2528.115143,222.061783,12731.542202
2620.589165,-1915.238745,2146.597232,10584.944971
2620.589494,-1225.752797,-1332.370696,11843.295072
2620.589823,-2068.457845,1924.535449,9548.656652
2620.590153,-1302.362347,2590.720797,11547.212695
2620.590482,766.095498,1554.432478,10214.842000
2620.590811,2145.067394,4367.215058,7698.141797
2620.591140,4213.525239,4219.173869,8068.244768
2620.591469,3983.696590,4737.318029,7476.080014
2620.591798,3677.258390,6513.812290,7105.977043
2620.592128,3217.601092,5699.585753,6809.894666
2620.592457,2068.457845,3923.091493,7105.977043
2620.592786,766.095498,3701.029710,9030.512492
2620.593115,-995.924147,296.082377,11103.089130
2620.593444,-2451.505594,-444.123565,12953.603985
2620.593773,-3524.039291,-0.000000,11843.295072
2620.594102,-2298.286494,-1554.432478,11029.068536
2620.594432,-2757.943793,1332.370696,9178.553681
2620.594761,-1915.238745,1332.370696,11103.089130
2620.595090,-842.705048,3034.844362,9178.553681
2620.595419,-459.657299,1036.288319,10288.862594
2620.595748,3677.258390,1554.432478,8734.430116
2620.596077,4749.792088,3552.988522,5403.503377
2620.596407,3907.087040,3330.926739,8068.244768
2620.596736,2451.505594,3330.926739,4811.338623
2620.597065,4213.525239,4219.173869,8216.285956
2620.597394,2604.724693,4367.215058,6661.853478
2620.597723,2451.505594,5033.400406,5551.544565
2620.598052,1149.143247,3478.967927,8586.388927
2620.598382,-2068.457845,2516.700203,7105.977043
2620.598711,-3370.820191,-4367.215058,13545.768739
2620.599040,-4366.744339,-0.000000,11399.171507
2620.599369,-2528.115143,-2072.576638,10584.944971
2620.599698,-3447.429741,-1184.329507,10584.944971
2620.600027,-2834.553343,2886.803174,10510.924376
2620.600357,0.000000,2516.700203,8290.306550
2620.600686,-229.828649,3108.864956,7994.224174
2620.601015,3447.429741,2294.638420,13249.686362
2620.601344,2604.724693,3330.926739,5921.647536
2620.601673,5515.887586,3627.009116,8512.368333
2620.602002,3677.258390,7328.038826,2368.659014
2620.602332,5209.449386,4737.318029,5551.544565
2620.602661,1838.629195,3701.029710,7328.038826
2620.602990,2604.724693,5699.585753,6883.915261
2620.603319,2757.943793,4367.215058,7402.059420
2620.603648,-1072.533697,6957.935855,6143.709319
2620.603977,-3370.820191,222.061783,9696.697840
2620.604306,-5592.497135,-5773.606348,15396.283594
2620.604636,-4366.744339,4293.194464,9474.636058
2620.604965,-3524.039291,-4219.173869,11769.274478
2620.605294,-4290.134789,-3627.009116,12287.418637
2620.605623,-2834.553343,3923.091493,13545.768739
2620.605952,-306.438199,518.144159,9104.533087
2620.606281,-2987.772442,5329.482782,7254.018232
2620.606611,306.438199,-0.000000,13175.665768
2620.606940,4826.401637,2072.576638,9326.594869
2620.607269,4673.182538,5847.626942,5699.585753
2620.607598,3830.477490,2960.823768,5699.585753
2620.607927,2604.724693,3775.050304,4959.379811
2620.608256,3140.991542,4663.297435,12065.356855
2620.608586,-842.705048,5107.421000,6513.812290
2620.608915,1838.629195,6069.688724,8438.347739
2620.609244,-2221.676944,-444.123565,9918.759623
2620.609573,-1915.238745,-2516.700203,11621.233289
2620.609902,-3140.991542,1480.411884,11547.212695
2620.610231,-3524.039291,-2664.741391,11473.192101
2620.610561,-3217.601092,-2664.741391,9474.636058
2620.610890,-2298.286494,-592.164754,12213.398043
2620.611219,-1072.533697,592.164754,9326.594869
2620.611548,842.705048,1332.370696,9622.677246
2620.611877,1991.848295,2590.720797,4663.297435
2620.612206,4903.011187,4737.318029,8512.368333
2620.612535,2298.286494,5107.421000,5329.482782
2620.612865,3677.258390,3182.885551,8808.450710
2620.613194,842.705048,3330.926739,8068.244768
2620.613523,2681.334243,2812.782580,6291.750507
2620.613852,1302.362347,1776.494261,6735.874072
2620.614181,306.438199,592.164754,8216.285956
2620.614510,-1685.410096,-4293.194464,13175.665768
2620.614840,-1915.238745,-1776.494261,11399.171507
2620.615169,-536.266849,-2590.720797,10140.821405
2620.615498,-1455.581446,-3552.988522,10066.800811
2620.615827,0.000000,1406.391290,9696.697840
2620.616156,2068.457845,2590.720797,7254.018232
2620.616485,3064.381992,814.226536,7328.038826
2620.616815,4443.353888,2072.576638,7105.977043
2620.617144,3830.477490,1628.453072,7105.977043
2620.617473,2911.162892,2812.782580,7698.141797
2620.617802,2681.334243,1110.308913,6883.915261
2620.618131,1072.533697,-1258.350101,8734.430116
2620.618460,-612.876398,-2146.597232,10955.047942
2620.618790,-1455.581446,-2368.659014,11029.068536
2620.619119,-1915.238745,-3404.947333,12953.603985
2620.619448,-3447.429741,-1258.350101,9474.636058
2620.619777,-2374.896044,-1110.308913,11547.212695
2620.620106,-2374.896044,-1628.453072,10362.883188
2620.620435,-1685.410096,-1628.453072,11843.295072
2620.620765,-842.705048,-518.144159,9326.594869
2620.621094,2145.067394,-0.000000,7105.977043
2620.621423,3524.039291,814.226536,7031.956449
2620.621752,3983.696590,-0.000000,6439.791695
2620.622081,2757.943793,-222.061783,7550.100608
2620.622410,1225.752797,-1702.473667,8586.388927
2620.622739,459.657299,-2368.659014,8882.471304
2620.623069,-536.266849,-666.185348,9844.739029
2620.623398,-536.266849,-740.205942,10362.883188
2620.623727,-1608.800546,-1036.288319,9992.780217
2620.624056,-2451.505594,-1850.514855,10214.842000
2620.624385,-2757.943793,-1406.391290,10436.903782
2620.624714,-2374.896044,-666.185348,10436.903782
2620.625044,-919.314598,-1480.411884,10214.842000
2620.625373,1072.533697,-1554.432478,8882.471304
2620.625702,1991.848295,-592.164754,8956.491898
2620.626031,1991.848295,-148.041188,6957.935855
2620.626360,2221.676944,666.185348,6143.709319
2620.626689,2604.724693,2146.597232,6365.771101
2620.627019,2681.334243,2368.659014,6291.750507
2620.627348,995.924147,962.267725,8216.285956
2620.627677,536.266849,-1184.329507,9326.594869
2620.628006,-383.047749,-1702.473667,9696.697840
2620.628335,-1608.800546,-1702.473667,10214.842000
2620.628664,-1991.848295,-1480.411884,10584.944971
2620.628994,-2145.067394,-1554.432478,11473.192101
2620.629323,-2451.505594,-962.267725,11399.171507
2620.629652,-1838.629195,-74.020594,9474.636058
2620.629981,229.828649,962.267725,8734.430116
2620.630310,76.609550,1332.370696,8808.450710
2620.630639,1762.019645,1850.514855,8512.368333
2620.630968,2298.286494,962.267725,8068.244768
2620.631298,1991.848295,888.247130,6957.935855
2620.631627,1455.581446,1036.288319,7031.956449
2620.631956,1762.019645,444.123565,8068.244768
2620.632285,1838.629195,-148.041188,8660.409521
2620.632614,2068.457845,-1776.494261,9992.780217
2620.632943,306.438199,-1480.411884,9992.780217
2620.633273,-383.047749,-740.205942,10288.862594
2620.633602,-842.705048,444.123565,9918.759623
2620.633931,-842.705048,1184.329507,9844.739029
2620.634260,-459.657299,1184.329507,10214.842000
2620.634589,0.000000,666.185348,9622.677246
2620.634918,0.000000,-0.000000,9474.636058
2620.635248,306.438199,222.061783,8882.471304
2620.635577,1072.533697,370.102971,8438.347739
2620.635906,1149.143247,-0.000000,8512.368333
2620.636235,1149.143247,-1110.308913,8586.388927
2620.636564,842.705048,-1258.350101,8142.265362
2620.636893,1378.971896,-444.123565,8142.265362
2620.637223,995.924147,-74.020594,8512.368333
2620.637552,919.314598,518.144159,8882.471304
2620.637881,1225.752797,148.041188,9252.574275
2620.638210,536.266849,370.102971,9770.718434
2620.638539,383.047749,370.102971,9770.718434
2620.638868,306.438199,-0.000000,9918.759623
2620.639198,-229.828649,962.267725,9696.697840
2620.639527,1378.971896,-148.041188,9918.759623
2620.639856,995.924147,-0.000000,9696.697840
2620.640185,459.657299,-296.082377,8808.450710
2620.640514,0.000000,148.041188,8882.471304
2620.640843,153.219100,888.247130,8438.347739
2620.641172,459.657299,-74.020594,8068.244768
2620.641502,612.876398,-74.020594,8438.347739
2620.641831,-229.828649,-296.082377,8956.491898
2620.642160,-383.047749,-1998.556043,9252.574275
2620.642489,306.438199,-1702.473667,8512.368333
2620.642818,689.485948,-592.164754,8882.471304
2620.643147,153.219100,-592.164754,9548.656652
2620.643477,536.266849,-148.041188,9474.636058
2620.643806,689.485948,-0.000000,8882.471304
2620.644135,842.705048,888.247130,8142.265362
2620.644464,1302.362347,1258.350101,8290.306550
2620.644793,536.266849,666.185348,8660.409521
2620.645122,229.828649,-370.102971,8956.491898
2620.645452,76.609550,-518.144159,8438.347739
2620.645781,-612.876398,-1924.535449,8364.327145
2620.646110,0.000000,-2294.638420,9030.512492
2620.646439,-229.828649,-2368.659014,8882.471304
2620.646768,0.000000,-2960.823768,8956.491898
2620.647097,-459.657299,-1998.556043,8734.430116
2620.647427,-383.047749,-1406.391290,8142.265362
2620.647756,-229.828649,-74.020594,8438.347739
2620.648085,0.000000,592.164754,8734.430116
2620.648414,76.609550,-222.061783,9178.553681
2620.648743,-383.047749,-222.061783,9548.656652
2620.649072,0.000000,-518.144159,9252.574275
2620.649401,919.314598,-1184.329507,9474.636058
2620.649731,459.657299,-518.144159,9696.697840
2620.650060,306.438199,-1036.288319,9770.718434
2620.650389,0.000000,-1110.308913,9548.656652
2620.650718,153.219100,-148.041188,8882.471304
2620.651047,229.828649,-148.041188,8956.491898
2620.651376,459.657299,-148.041188,8586.388927
2620.651706,536.266849,-370.102971,8290.306550
2620.652035,842.705048,-370.102971,9326.594869
2620.652364,689.485948,-148.041188,9030.512492
2620.652693,306.438199,-148.041188,9030.512492
2620.653022,995.924147,-0.000000,8808.450710
2620.653351,1455.581446,-0.000000,8882.471304
2620.653681,919.314598,-148.041188,9992.780217
2620.654010,919.314598,-74.020594,9252.574275
2620.654339,689.485948,518.144159,8808.450710
2620.654668,536.266849,1480.411884,8290.306550
2620.654997,306.438199,2146.597232,8586.388927
2620.655326,612.876398,666.185348,9548.656652
2620.655656,76.609550,-444.123565,9178.553681
2620.655985,-229.828649,-148.041188,9030.512492
2620.656314,153.219100,-1036.288319,8808.450710
2620.656643,995.924147,-1110.308913,8956.491898
2620.656972,1149.143247,-740.205942,9252.574275
2620.657301,995.924147,-1110.308913,9474.636058
2620.657631,612.876398,-444.123565,8512.368333
2620.657960,842.705048,962.267725,8512.368333
2620.658289,1378.971896,1406.391290,7772.162391
2620.658618,1455.581446,1776.494261,8586.388927
2620.658947,1072.533697,1036.288319,9696.697840
2620.659276,306.438199,518.144159,9178.553681
2620.659606,0.000000,-0.000000,9326.594869
2620.659935,0.000000,-444.123565,9548.656652
2620.660264,-536.266849,-1628.453072,9326.594869
2620.660593,-766.095498,-2368.659014,10584.944971
2620.660922,-459.657299,-1702.473667,10214.842000
2620.661251,-383.047749,-1110.308913,9474.636058
2620.661581,-536.266849,148.041188,8660.409521
2620.661910,0.000000,296.082377,8586.388927
2620.662239,229.828649,666.185348,9178.553681
2620.662568,689.485948,-148.041188,9474.636058
2620.662897,842.705048,-74.020594,8364.327145
2620.663226,306.438199,-0.000000,8808.450710
2620.663556,995.924147,-0.000000,9030.512492
2620.663885,919.314598,-74.020594,9474.636058
2620.664214,612.876398,-222.061783,9400.615463
2620.664543,0.000000,-444.123565,9104.533087
2620.664872,-536.266849,592.164754,8808.450710
2620.665202,-229.828649,592.164754,8512.368333
2620.665531,-229.828649,592.164754,8956.491898
2620.665860,76.609550,-0.000000,9252.574275
2620.666189,-383.047749,-592.164754,8956.491898
2620.666518,-766.095498,-592.164754,9030.512492
2620.666847,-153.219100,-962.267725,8956.491898
2620.667177,76.609550,-1110.308913,8586.388927
2620.667506,689.485948,-814.226536,9178.553681
2620.667835,153.219100,-1258.350101,9622.677246
2620.668164,459.657299,-1110.308913,9252.574275
2620.668493,919.314598,-0.000000,8142.265362
2620.668822,1302.362347,962.267725,8290.306550
2620.669152,1225.752797,1332.370696,8734.430116
2620.669481,1532.190996,-0.000000,9104.533087
2620.669810,536.266849,-0.000000,8882.471304
2620.670139,306.438199,-814.226536,8512.368333
2620.670468,1072.533697,-1258.350101,8660.409521
2620.670797,995.924147,-1776.494261,8734.430116
2620.671127,689.485948,-1554.432478,9548.656652
2620.671456,536.266849,-1850.514855,9548.656652
2620.671785,-229.828649,-1184.329507,8660.409521
2620.672114,229.828649,-0.000000,8882.471304
2620.672443,536.266849,444.123565,9030.512492
2620.672773,536.266849,444.123565,8882.471304
2620.673102,383.047749,-0.000000,9474.636058
2620.673431,459.657299,-296.082377,9178.553681
2620.673760,459.657299,-1036.288319,9474.636058
2620.674089,689.485948,-814.226536,9474.636058
2620.674418,1225.752797,-1924.535449,9770.718434
2620.674748,766.095498,-1258.350101,9770.718434
2620.675077,842.705048,-814.226536,9474.636058
2620.675406,536.266849,370.102971,8586.388927
2620.675735,229.828649,962.267725,8364.327145
2620.676064,766.095498,1628.453072,8660.409521
2620.676393,1225.752797,592.164754,9400.615463
2620.676723,0.000000,-0.000000,9474.636058
2620.677052,-306.438199,-814.226536,8734.430116
2620.677381,-229.828649,-1110.308913,9030.512492
2620.677710,0.000000,-1184.329507,9104.533087
2620.678039,689.485948,-962.267725,9770.718434
2620.678368,0.000000,-1036.288319,9474.636058
2620.678698,0.000000,-370.102971,8660.409521
2620.679027,383.047749,370.102971,8216.285956
2620.679356,536.266849,1406.391290,7994.224174
2620.679685,842.705048,1036.288319,8808.450710
2620.680014,306.438199,444.123565,9030.512492
2620.680344,229.828649,-370.102971,9178.553681
2620.680673,0.000000,-518.144159,8734.430116
2620.681002,0.000000,-592.164754,8290.306550
2620.681331,-153.219100,-814.226536,9178.553681
2620.681660,0.000000,-1258.350101,9326.594869
2620.681989,-229.828649,-666.185348,9474.636058
2620.682319,-842.705048,-444.123565,9030.512492
2620.682648,-306.438199,814.226536,8586.388927
2620.682977,0.000000,1332.370696,8882.471304
2620.683306,229.828649,666.185348,9030.512492
2620.683635,-229.828649,222.061783,9548.656652
2620.683964,689.485948,222.061783,9326.594869
2620.684294,536.266849,-370.102971,9178.553681
2620.684623,1225.752797,370.102971,8808.450710
2620.684952,1608.800546,370.102971,8956.491898
2620.685281,1225.752797,222.061783,9400.615463
2620.685610,842.705048,518.144159,9178.553681
2620.685940,612.876398,1110.308913,9104.533087
2620.686269,76.609550,2516.700203,8808.450710
2620.686598,0.000000,1776.494261,9548.656652
2620.686927,229.828649,814.226536,9918.759623
2620.687256,0.000000,-74.020594,9326.594869
2620.687585,-459.657299,-0.000000,9474.636058
2620.687915,-229.828649,-296.082377,9844.739029
2620.688244,229.828649,-222.061783,9400.615463
2620.688573,689.485948,148.041188,10066.800811
2620.688902,919.314598,-0.000000,9548.656652
2620.689231,842.705048,740.205942,9104.533087
2620.689560,919.314598,1480.411884,8882.471304
2620.689890,1455.581446,1702.473667,8438.347739
2620.690219,1225.752797,1480.411884,9326.594869
2620.690548,995.924147,148.041188,9696.697840
2620.690877,536.266849,-222.061783,9474.636058
2620.691206,0.000000,-296.082377,9326.594869
2620.691535,76.609550,-888.247130,9178.553681
2620.691865,536.266849,-888.247130,8882.471304
2620.692194,383.047749,-1036.288319,9770.718434
2620.692523,229.828649,-1628.453072,9770.718434
2620.692852,229.828649,-1110.308913,9104.533087
2620.693181,229.828649,-0.000000,8290.306550
2620.693511,1072.533697,518.144159,8142.265362
2620.693840,842.705048,444.123565,9178.553681
2620.694169,919.314598,-370.102971,9474.636058
2620.694498,689.485948,-518.144159,9030.512492
2620.694827,76.609550,-370.102971,8808.450710
2620.695156,306.438199,-740.205942,8364.327145
2620.695486,306.438199,-1406.391290,9104.533087
2620.695815,0.000000,-1850.514855,10066.800811
2620.696144,-536.266849,-1776.494261,9918.759623
2620.696473,-766.095498,-1184.329507,9252.574275
2620.696802,-689.485948,-518.144159,8364.327145
2620.697131,-383.047749,444.123565,8660.409521
2620.697461,-229.828649,-0.000000,9474.636058
2620.697790,-306.438199,-740.205942,8660.409521
2620.698119,-383.047749,-518.144159,8660.409521
2620.698448,153.219100,-1036.288319,8808.450710
2620.698777,842.705048,-888.247130,9104.533087
2620.699106,919.314598,-666.185348,9178.553681
2620.699436,842.705048,-1184.329507,9030.512492
2620.699765,459.657299,370.102971,8438.347739
2620.700094,306.438199,518.144159,8290.306550
2620.700423,689.485948,1480.411884,8142.265362
2620.700752,612.876398,1036.288319,9104.533087
2620.701082,1225.752797,-222.061783,9030.512492
2620.701411,229.828649,-814.226536,8660.409521
2620.701740,0.000000,-962.267725,9178.553681
2620.702069,0.000000,-1480.411884,9104.533087
2620.702398,153.219100,-962.267725,9326.594869
2620.702727,229.828649,-1850.514855,9770.718434
2620.703057,229.828649,-962.267725,9696.697840
2620.703386,0.000000,-518.144159,8882.471304
2620.703715,-306.438199,-74.020594,9104.533087
2620.704044,612.876398,1480.411884,9030.512492
2620.704373,383.047749,962.267725,9474.636058
2620.704702,536.266849,-0.000000,9622.677246
2620.705032,536.266849,-0.000000,9548.656652
2620.705361,1072.533697,-518.144159,9400.615463
2620.705690,2298.286494,-814.226536,8882.471304
2620.706019,1302.362347,-0.000000,9548.656652
2620.706348,1072.533697,-296.082377,9918.759623
2620.706677,1072.533697,-222.061783,9400.615463
2620.707007,459.657299,814.226536,8956.491898
2620.707336,842.705048,962.267725,8290.306550
2620.707665,842.705048,1036.288319,8734.430116
2620.707994,536.266849,-0.000000,9992.780217
2620.708323,0.000000,-592.164754,9400.615463
2620.708653,0.000000,-296.082377,9474.636058
2620.708982,0.000000,-370.102971,9030.512492
2620.709311,0.000000,-740.205942,9326.594869
2620.709640,459.657299,-666.185348,10140.821405
2620.709969,766.095498,-1332.370696,9474.636058
2620.710298,459.657299,-518.144159,8882.471304
2620.710628,306.438199,962.267725,8512.368333
2620.710957,383.047749,1554.432478,7920.203579
2620.711286,459.657299,1554.432478,8586.388927
2620.711615,536.266849,444.123565,8808.450710
2620.711944,306.438199,-148.041188,8660.409521
2620.712273,0.000000,-0.000000,8290.306550
2620.712603,689.485948,-1184.329507,8660.409521
2620.712932,459.657299,-592.164754,9178.553681
2620.713261,229.828649,-1036.288319,9474.636058
2620.713590,229.828649,-1184.329507,9252.574275
2620.713919,-153.219100,222.061783,8512.368333
2620.714249,0.000000,962.267725,7698.141797
2620.714578,459.657299,1332.370696,8512.368333
2620.714907,536.266849,1184.329507,9400.615463
2620.715236,459.657299,-0.000000,9104.533087
2620.715565,76.609550,-0.000000,8882.471304
2620.715894,0.000000,-0.000000,8438.347739
2620.716224,153.219100,-592.164754,8882.471304
2620.716553,-229.828649,-814.226536,9770.718434
2620.716882,76.609550,-1332.370696,9474.636058
2620.717211,-383.047749,-666.185348,9622.677246
2620.717540,-383.047749,222.061783,8956.491898
2620.717869,-995.924147,814.226536,8882.471304
2620.718199,-536.266849,518.144159,9696.697840
2620.718528,0.000000,-0.000000,9696.697840
2620.718857,-229.828649,-814.226536,9326.594869
2620.719186,306.438199,-1036.288319,10436.903782
2620.719515,842.705048,-888.247130,9474.636058
2620.719844,1072.533697,-888.247130,9178.553681
2620.720174,1378.971896,-222.061783,9474.636058
2620.720503,1532.190996,-148.041188,8882.471304
2620.720832,995.924147,666.185348,9030.512492
2620.721161,1455.581446,1406.391290,8734.430116
2620.721490,1302.362347,962.267725,8290.306550
2620.721820,1149.143247,518.144159,8882.471304
2620.722149,612.876398,-444.123565,9474.636058
2620.722478,0.000000,-1110.308913,9474.636058
2620.722807,-306.438199,-1258.350101,9252.574275
2620.723136,0.000000,-1110.308913,8438.347739
2620.723465,383.047749,-1406.391290,9104.533087
2620.723795,76.609550,-1480.411884,9918.759623
2620.724124,383.047749,-1554.432478,8956.491898
2620.724453,0.000000,-518.144159,8142.265362
2620.724782,0.000000,740.205942,7698.141797
2620.725111,919.314598,370.102971,8512.368333
2620.725440,842.705048,-0.000000,9030.512492
2620.725770,842.705048,-740.205942,9178.553681
2620.726099,1072.533697,-1258.350101,8956.491898
2620.726428,1149.143247,-1184.329507,8364.327145
2620.726757,1225.752797,-888.247130,8808.450710
2620.727086,1149.143247,-888.247130,9030.512492
2620.727415,536.266849,-962.267725,9474.636058
2620.727745,459.657299,-518.144159,9178.553681
2620.728074,459.657299,-222.061783,8586.388927
2620.728403,1072.533697,-0.000000,8364.327145
2620.728732,1149.143247,-0.000000,8734.430116
2620.729061,306.438199,-888.247130,9326.594869
2620.729391,153.219100,-444.123565,9474.636058
2620.729720,229.828649,-518.144159,8882.471304
2620.730049,0.000000,-148.041188,8142.265362
2620.730378,153.219100,-444.123565,9326.594869
2620.730707,229.828649,-1776.494261,9178.553681
2620.731036,0.000000,-2146.597232,9622.677246
2620.731366,-229.828649,-1406.391290,9178.553681
2620.731695,-536.266849,-666.185348,8586.388927
2620.732024,-919.314598,370.102971,8882.471304
2620.732353,-306.438199,-0.000000,9474.636058
2620.732682,0.000000,-0.000000,8734.430116
2620.733011,-383.047749,-222.061783,9178.553681
2620.733341,153.219100,-0.000000,8734.430116
2620.733670,612.876398,-296.082377,8512.368333
2620.733999,842.705048,-444.123565,8734.430116
2620.734328,383.047749,-888.247130,9030.512492
2620.734657,536.266849,-592.164754,9400.615463
2620.734986,229.828649,444.123565,8956.491898
2620.735316,459.657299,666.185348,7846.182985
2620.735645,459.657299,1554.432478,8808.450710
2620.735974,1072.533697,1036.288319,9104.533087
2620.736303,153.219100,-148.041188,9104.533087
2620.736632,-306.438199,518.144159,9178.553681
2620.736962,0.000000,-0.000000,8734.430116
2620.737291,0.000000,-74.020594,8882.471304
2620.737620,76.609550,-148.041188,9474.636058
2620.737949,76.609550,-1406.391290,10288.862594
2620.738278,0.000000,-814.226536,9104.533087
2620.738607,153.219100,-0.000000,8808.450710
2620.738937,383.047749,740.205942,8660.409521
2620.739266,76.609550,1480.411884,8882.471304
2620.739595,306.438199,1184.329507,9770.718434
2620.739924,306.438199,444.123565,9326.594869
2620.740253,153.219100,1036.288319,9178.553681
2620.740582,1149.143247,-518.144159,9178.553681
2620.740912,1608.800546,-814.226536,9400.615463
2620.741241,1378.971896,-0.000000,9400.615463
2620.741570,689.485948,-370.102971,9696.697840
2620.741899,689.485948,-0.000000,9104.533087
2620.742228,1072.533697,1184.329507,8438.347739
2620.742558,1302.362347,1628.453072,8142.265362
2620.742887,1072.533697,1480.411884,8882.471304
2620.743216,612.876398,518.144159,9400.615463
2620.743545,0.000000,-0.000000,9474.636058
2620.743874,-383.047749,-444.123565,9326.594869
2620.744203,0.000000,-962.267725,9104.533087
2620.744533,76.609550,-1036.288319,9622.677246
2620.744862,0.000000,-1628.453072,10066.800811
2620.745191,153.219100,-2146.597232,9696.697840
2620.745520,-153.219100,-222.061783,8882.471304
2620.745849,0.000000,518.144159,7846.182985
2620.746178,536.266849,1406.391290,9178.553681
2620.746508,612.876398,1258.350101,8882.471304
2620.746837,383.047749,-0.000000,9474.636058
2620.747166,306.438199,-222.061783,8808.450710
2620.747495,-306.438199,-962.267725,8586.388927
2620.747824,536.266849,-1702.473667,9104.533087
2620.748153,383.047749,-1702.473667,9696.697840
2620.748483,0.000000,-1554.432478,9474.636058
2620.748812,-459.657299,-962.267725,9252.574275
2620.749141,0.000000,-370.102971,8808.450710
2620.749470,0.000000,666.185348,8290.306550
2620.749799,766.095498,1184.329507,8216.285956
2620.750129,842.705048,-148.041188,9474.636058
2620.750458,383.047749,-370.102971,9474.636058
2620.750787,459.657299,-296.082377,9030.512492
2620.751116,612.876398,-592.164754,8734.430116
2620.751445,459.657299,-518.144159,8586.388927
2620.751774,689.485948,-1258.350101,9548.656652
2620.752104,689.485948,-1036.288319,9770.718434
2620.752433,612.876398,-962.267725,9030.512492
2620.752762,-229.828649,-296.082377,8142.265362
2620.753091,-306.438199,740.205942,8956.491898
2620.753420,-383.047749,370.102971,9178.553681
2620.753749,-229.828649,-148.041188,9104.533087
2620.754079,-459.657299,-962.267725,9252.574275
2620.754408,-383.047749,-1406.391290,9400.615463
2620.754737,306.438199,-1036.288319,8956.491898
2620.755066,919.314598,-888.247130,8808.450710
2620.755395,995.924147,-666.185348,9252.574275
2620.755724,842.705048,-0.000000,9104.533087
2620.756054,536.266849,-296.082377,8808.450710
2620.756383,842.705048,444.123565,8142.265362
2620.756712,1302.362347,666.185348,8290.306550
2620.757041,1455.581446,296.082377,8364.327145
2620.757370,1225.752797,-666.185348,9252.574275
2620.757700,612.876398,-740.205942,9104.533087
2620.758029,842.705048,-296.082377,8216.285956
2620.758358,995.924147,-592.164754,8734.430116
2620.758687,766.095498,-814.226536,9178.553681
2620.759016,536.266849,-1406.391290,9696.697840
2620.759346,536.266849,-1184.329507,9548.656652
2620.759675,0.000000,-222.061783,8882.471304
2620.760004,76.609550,-0.000000,8734.430116
2620.760333,0.000000,962.267725,8956.491898
2620.760662,0.000000,666.185348,9696.697840
2620.760992,0.000000,-222.061783,9548.656652
2620.761321,76.609550,-296.082377,8882.471304
2620.761650,459.657299,-74.020594,9104.533087
2620.761979,612.876398,-148.041188,9474.636058
2620.762308,1378.971896,-518.144159,9844.739029
2620.762638,1225.752797,-592.164754,9770.718434
2620.762967,919.314598,296.082377,8882.471304
2620.763296,842.705048,1258.350101,8808.450710
2620.763625,1455.581446,1480.411884,8364.327145
2620.763954,1378.971896,1924.535449,9104.533087
2620.764284,919.314598,962.267725,9548.656652
2620.764613,306.438199,1258.350101,9400.615463
2620.764942,-153.219100,666.185348,9104.533087
2620.765271,0.000000,666.185348,8956.491898
2620.765600,153.219100,-592.164754,9474.636058
2620.765930,-153.219100,-1554.432478,10066.800811
2620.766259,-612.876398,-1850.514855,9770.718434
2620.766588,-766.095498,-518.144159,8956.491898
2620.766917,-612.876398,-222.061783,8216.285956
2620.767246,-229.828649,1258.350101,8364.327145
2620.767576,0.000000,814.226536,9178.553681
2620.767905,-383.047749,370.102971,8734.430116
2620.768234,-153.219100,-0.000000,8808.450710
2620.768563,-229.828649,-1036.288319,8808.450710
2620.768892,0.000000,-1184.329507,8808.450710
2620.769222,76.609550,-1184.329507,9474.636058
2620.769551,0.000000,-2072.576638,9474.636058
2620.769880,-229.828649,-1332.370696,9696.697840
2620.770209,76.609550,-74.020594,8734.430116
2620.770538,383.047749,814.226536,8068.244768
2620.770868,919.314598,1850.514855,8512.368333
2620.771197,229.828649,666.185348,8956.491898
2620.771526,306.438199,370.102971,8512.368333
2620.771855,229.828649,148.041188,8734.430116
2620.772184,766.095498,-592.164754,8734.430116
2620.772514,612.876398,-518.144159,9104.533087
2620.772843,459.657299,-1110.308913,9770.718434
2620.773172,612.876398,-1110.308913,9696.697840
2620.773501,459.657299,-592.164754,8660.409521
2620.773830,383.047749,518.144159,8586.388927
2620.774160,153.219100,1406.391290,8586.388927
2620.774489,229.828649,1776.494261,9326.594869
2620.774818,459.657299,740.205942,9622.677246
2620.775147,0.000000,-0.000000,9474.636058
2620.775476,-459.657299,-592.164754,10066.800811
2620.775806,306.438199,-1258.350101,9474.636058
2620.776135,842.705048,-444.123565,9178.553681
2620.776464,1149.143247,-370.102971,9770.718434
2620.776793,1072.533697,-0.000000,9326.594869
2620.777122,766.095498,370.102971,8808.450710
2620.777452,919.314598,1036.288319,8512.368333
2620.777781,2221.676944,1480.411884,8882.471304
2620.778110,1608.800546,518.144159,8808.450710
2620.778439,842.705048,518.144159,9400.615463
2620.778768,689.485948,-148.041188,9400.615463
2620.779098,306.438199,-518.144159,8290.306550
2620.779427,459.657299,-1110.308913,9104.533087
2620.779756,306.438199,-1480.411884,9992.780217
2620.780085,383.047749,-2368.659014,9844.739029
2620.780414,459.657299,-1628.453072,9474.636058
2620.780744,-306.438199,-222.061783,8956.491898
2620.781073,-306.438199,222.061783,8068.244768
2620.781402,0.000000,444.123565,9030.512492
2620.781731,0.000000,-0.000000,9474.636058
2620.782060,-306.438199,-962.267725,9474.636058
2620.782390,536.266849,-962.267725,8882.471304
2620.782719,459.657299,-814.226536,9030.512492
2620.783048,612.876398,-1776.494261,9400.615463
2620.783377,-229.828649,-740.205942,9696.697840
2620.783706,76.609550,-1258.350101,9548.656652
2620.784036,229.828649,-296.082377,8586.388927
2620.784365,306.438199,370.102971,7994.224174
2620.784694,612.876398,666.185348,8364.327145
2620.785023,383.047749,518.144159,8734.430116
2620.785352,306.438199,148.041188,8956.491898
2620.785682,459.657299,-740.205942,8956.491898
2620.786011,0.000000,-222.061783,8438.347739
2620.786340,0.000000,-888.247130,8956.491898
2620.786669,0.000000,-666.185348,8734.430116
2620.786998,-229.828649,-1332.370696,9474.636058
2620.787328,-229.828649,-962.267725,9474.636058
2620.787657,-459.657299,-592.164754,9104.533087
2620.787986,-766.095498,666.185348,8586.388927
2620.788315,-306.438199,814.226536,8438.347739
2620.788644,0.000000,1184.329507,8882.471304
2620.788974,0.000000,222.061783,8956.491898
2620.789303,0.000000,-0.000000,9030.512492
2620.789632,-306.438199,-518.144159,9030.512492
2620.789961,1685.410096,-592.164754,9326.594869
2620.790290,1302.362347,-814.226536,8660.409521
2620.790620,689.485948,-1184.329507,9696.697840
2620.790949,229.828649,-148.041188,9400.615463
2620.791278,459.657299,-0.000000,8882.471304
2620.791607,689.485948,1036.288319,8290.306550
2620.791936,1378.971896,962.267725,8808.450710
2620.792266,76.609550,444.123565,9770.718434
2620.792595,383.047749,518.144159,9400.615463
2620.792924,612.876398,-0.000000,8882.471304
2620.793253,612.876398,-666.185348,9030.512492
2620.793582,1072.533697,-370.102971,8808.450710
2620.793912,1072.533697,-740.205942,9844.739029
2620.794241,383.047749,-1184.329507,9696.697840
2620.794570,842.705048,-814.226536,8808.450710
2620.794899,383.047749,-0.000000,8734.430116
2620.795228,612.876398,1184.329507,8512.368333
2620.795558,689.485948,962.267725,9252.574275
2620.795887,229.828649,370.102971,9844.739029
2620.796216,0.000000,-0.000000,9400.615463
2620.796545,383.047749,-444.123565,9326.594869
2620.796874,842.705048,-1184.329507,8808.450710
2620.797204,612.876398,-518.144159,9696.697840
2620.797533,842.705048,-1110.308913,10214.842000
2620.797862,766.095498,-1110.308913,9548.656652
2620.798191,306.438199,-0.000000,8882.471304
2620.798520,383.047749,740.205942,8512.368333
2620.798850,612.876398,1554.432478,7920.203579
2620.799179,1762.019645,740.205942,8808.450710
2620.799508,1149.143247,-0.000000,8956.491898
2620.799837,76.609550,-0.000000,9104.533087
2620.800166,0.000000,-888.247130,8882.471304
2620.800495,153.219100,-1184.329507,8660.409521
2620.800825,229.828649,-1702.473667,9326.594869
2620.801154,536.266849,-2442.679609,9548.656652
2620.801483,-306.438199,-592.164754,9400.615463
2620.801812,-459.657299,-296.082377,8882.471304
2620.802141,76.609550,518.144159,8142.265362
2620.802471,153.219100,1184.329507,8142.265362
2620.802800,76.609550,-0.000000,8956.491898
2620.803129,0.000000,-148.041188,8956.491898
2620.803458,-153.219100,-444.123565,8586.388927
2620.803787,0.000000,-666.185348,8142.265362
2620.804117,76.609550,-518.144159,8808.450710
2620.804446,0.000000,-1110.308913,9474.636058
2620.804775,-536.266849,-888.247130,9326.594869
2620.805104,-536.266849,-814.226536,9178.553681
2620.805433,-536.266849,222.061783,8438.347739
2620.805763,0.000000,-0.000000,8290.306550
2620.806092,459.657299,1184.329507,9326.594869
2620.806421,153.219100,-74.020594,9474.636058
2620.806750,0.000000,-0.000000,9104.533087
2620.807079,0.000000,-74.020594,9252.574275
2620.807409,919.314598,-592.164754,8586.388927
2620.807738,1149.143247,-222.061783,9474.636058
2620.808067,1072.533697,-666.185348,10066.800811
2620.808396,689.485948,-814.226536,9474.636058
2620.808725,229.828649,666.185348,9326.594869
2620.809055,612.876398,592.164754,8290.306550
2620.809384,612.876398,1480.411884,8586.388927
2620.809713,612.876398,740.205942,9400.615463
2620.810042,229.828649,-444.123565,9474.636058
2620.810371,0.000000,-518.144159,9474.636058
2620.810701,306.438199,-1480.411884,8512.368333
2620.811030,229.828649,-814.226536,8808.450710
2620.811359,383.047749,-518.144159,9770.718434
2620.811688,76.609550,-888.247130,9844.739029
2620.812017,306.438199,-740.205942,9548.656652
2620.812347,0.000000,222.061783,8290.306550
2620.812676,842.705048,-0.000000,8734.430116
2620.813005,1302.362347,1332.370696,8734.430116
2620.813334,842.705048,518.144159,9178.553681
2620.813663,536.266849,-74.020594,9844.739029
2620.813993,536.266849,-0.000000,9104.533087
2620.814322,459.657299,-592.164754,8882.471304
2620.814651,919.314598,-814.226536,8882.471304
2620.814980,1225.752797,-1480.411884,9474.636058
2620.815309,612.876398,-1406.391290,9696.697840
2620.815639,459.657299,-740.205942,8438.347739
2620.815968,229.828649,-0.000000,8216.285956
