#time,accel_x,accel_y,accel_z
2527.981175,229.828649,-222.061783,8882.471304
2527.981503,459.657299,-0.000000,8956.491898
2527.981832,229.828649,-148.041188,8808.450710
2527.982161,612.876398,-444.123565,9104.533087
2527.982490,76.609550,-296.082377,8882.471304
2527.982819,229.828649,-74.020594,9104.533087
2527.983148,229.828649,-74.020594,9030.512492
2527.983477,383.047749,-0.000000,8808.450710
2527.983806,153.219100,-0.000000,9030.512492
2527.984135,536.266849,-0.000000,8882.471304
2527.984464,153.219100,-0.000000,8956.491898
2527.984793,-153.219100,-296.082377,9104.533087
2527.985122,76.609550,-222.061783,9104.533087
2527.985451,229.828649,-222.061783,8956.491898
2527.985780,306.438199,-74.020594,9030.512492
2527.986109,459.657299,-222.061783,9030.512492
2527.986437,76.609550,-74.020594,9030.512492
2527.986766,229.828649,-296.082377,9178.553681
2527.987095,766.095498,-148.041188,9104.533087
2527.987424,229.828649,-222.061783,9104.533087
2527.987753,0.000000,-296.082377,8956.491898
2527.988082,306.438199,-148.041188,9252.574275
2527.988411,229.828649,-296.082377,9104.533087
2527.988740,306.438199,-222.061783,9178.553681
2527.989069,383.047749,-296.082377,9252.574275
2527.989398,306.438199,-370.102971,9474.636058
2527.989727,76.609550,-222.061783,9326.594869
2527.990056,536.266849,-222.061783,9474.636058
2527.990385,0.000000,148.041188,9474.636058
2527.990714,306.438199,-222.061783,9178.553681
2527.991043,306.438199,-148.041188,8956.491898
2527.991371,306.438199,-0.000000,9178.553681
2527.991700,306.438199,-0.000000,9104.533087
2527.992029,459.657299,-444.123565,9104.533087
2527.992358,995.924147,-370.102971,9104.533087
2527.992687,76.609550,222.061783,9178.553681
2527.993016,766.095498,-148.041188,9104.533087
2527.993345,229.828649,-0.000000,8882.471304
2527.993674,383.047749,-148.041188,8956.491898
2527.994003,383.047749,-0.000000,8956.491898
2527.994332,459.657299,-518.144159,8956.491898
2527.994661,1149.143247,-222.061783,9252.574275
2527.994990,536.266849,-296.082377,9104.533087
2527.995319,229.828649,-222.061783,8956.491898
2527.995648,229.828649,-148.041188,8882.471304
2527.995976,383.047749,-222.061783,8734.430116
2527.996305,383.047749,-148.041188,8956.491898
2527.996634,459.657299,-296.082377,9030.512492
2527.996963,383.047749,-296.082377,9178.553681
2527.997292,766.095498,-222.061783,8956.491898
2527.997621,153.219100,-0.000000,9030.512492
2527.997950,306.438199,-0.000000,9252.574275
2527.998279,229.828649,-74.020594,9178.553681
2527.998608,459.657299,-74.020594,9030.512492
2527.998937,612.876398,-296.082377,9474.636058
2527.999266,842.705048,-518.144159,8882.471304
2527.999595,919.314598,-0.000000,9104.533087
2527.999924,612.876398,-222.061783,9030.512492
2528.000253,459.657299,-74.020594,9030.512492
2528.000582,459.657299,-0.000000,9104.533087
2528.000910,229.828649,-222.061783,9104.533087
2528.001239,459.657299,-222.061783,9178.553681
2528.001568,1072.533697,-518.144159,9474.636058
2528.001897,306.438199,-518.144159,9400.615463
2528.002226,76.609550,-222.061783,9400.615463
2528.002555,306.438199,-222.061783,9252.574275
2528.002884,383.047749,-0.000000,9178.553681
2528.003213,536.266849,-0.000000,9178.553681
2528.003542,76.609550,-0.000000,9030.512492
2528.003871,536.266849,-0.000000,8882.471304
2528.004200,689.485948,-148.041188,8586.388927
2528.004529,612.876398,-74.020594,8660.409521
2528.004858,383.047749,-0.000000,9030.512492
2528.005187,0.000000,-222.061783,8882.471304
2528.005516,76.609550,-222.061783,9030.512492
2528.005844,0.000000,-592.164754,8956.491898
2528.006173,76.609550,-666.185348,9104.533087
2528.006502,612.876398,-1110.308913,9696.697840
2528.006831,1455.581446,-888.247130,9548.656652
2528.007160,1608.800546,-518.144159,9252.574275
2528.007489,2145.067394,-518.144159,9104.533087
2528.007818,2528.115143,-0.000000,8734.430116
2528.008147,3447.429741,592.164754,8512.368333
2528.008476,4136.915689,-0.000000,8438.347739
2528.008805,4290.134789,222.061783,8290.306550
2528.009134,3294.210641,740.205942,8290.306550
2528.009463,2834.553343,666.185348,8438.347739
2528.009792,2451.505594,-370.102971,9104.533087
2528.010121,2681.334243,-518.144159,9474.636058
2528.010450,1378.971896,-1036.288319,9548.656652
2528.010778,1685.410096,-1702.473667,10807.006753
2528.011107,2145.067394,-2516.700203,9992.780217
2528.011436,2451.505594,-592.164754,9696.697840
2528.011765,2221.676944,-740.205942,9918.759623
2528.012094,3600.648841,-1110.308913,9474.636058
2528.012423,3600.648841,444.123565,9030.512492
2528.012752,5669.106685,1184.329507,8364.327145
2528.013081,5975.544884,1258.350101,7179.997637
2528.013410,4749.792088,1776.494261,9104.533087
2528.013739,5745.716235,1628.453072,8512.368333
2528.014068,4213.525239,1258.350101,7105.977043
2528.014397,3907.087040,-0.000000,9178.553681
2528.014726,2298.286494,-148.041188,8586.388927
2528.015055,2145.067394,-296.082377,9696.697840
2528.015384,383.047749,-1628.453072,9548.656652
2528.015712,1378.971896,-814.226536,10288.862594
2528.016041,536.266849,-1628.453072,9622.677246
2528.016370,766.095498,-888.247130,9622.677246
2528.016699,1532.190996,-740.205942,9844.739029
2528.017028,2911.162892,444.123565,9622.677246
2528.017357,3524.039291,222.061783,7698.141797
2528.017686,4903.011187,962.267725,9770.718434
2528.018015,4826.401637,1332.370696,7920.203579
2528.018344,4903.011187,1258.350101,7698.141797
2528.018673,4903.011187,888.247130,8364.327145
2528.019002,4136.915689,222.061783,8290.306550
2528.019331,3370.820191,-296.082377,8956.491898
2528.019660,3140.991542,-2072.576638,9474.636058
2528.019989,2068.457845,-1850.514855,10288.862594
2528.020318,2298.286494,-2664.741391,9844.739029
2528.020646,1762.019645,-1628.453072,10066.800811
2528.020975,1915.238745,-1702.473667,9992.780217
2528.021304,2604.724693,-0.000000,9844.739029
2528.021633,3447.429741,296.082377,8882.471304
2528.021962,3983.696590,1184.329507,8290.306550
2528.022291,4979.620737,2220.617826,8438.347739
2528.022620,5669.106685,3108.864956,7476.080014
2528.022949,4443.353888,2812.782580,7105.977043
2528.023278,4366.744339,2146.597232,8142.265362
2528.023607,3983.696590,1702.473667,7846.182985
2528.023936,2987.772442,-148.041188,8438.347739
2528.024265,2451.505594,-1480.411884,9696.697840
2528.024594,1838.629195,-2664.741391,10658.965565
2528.024923,1608.800546,-3256.906145,10510.924376
2528.025251,1838.629195,-3182.885551,10658.965565
2528.025580,2681.334243,-2590.720797,10881.027347
2528.025909,3600.648841,-1036.288319,9918.759623
2528.026238,4826.401637,444.123565,9104.533087
2528.026567,6205.373534,1850.514855,8586.388927
2528.026896,5898.935335,3182.885551,7846.182985
2528.027225,5132.839837,3775.050304,7550.100608
2528.027554,4366.744339,4145.153275,6957.935855
2528.027883,3983.696590,3701.029710,6735.874072
2528.028212,2528.115143,1184.329507,7624.121203
2528.028541,383.047749,-962.267725,9178.553681
2528.028870,-1072.533697,-2960.823768,9918.759623
2528.029199,-1915.238745,-4589.276840,11769.274478
2528.029528,-1762.019645,-4811.338623,10288.862594
2528.029857,-1455.581446,-2738.761985,9474.636058
2528.030185,-1302.362347,-2220.617826,10362.883188
2528.030514,-1302.362347,-0.000000,9696.697840
2528.030843,-153.219100,518.144159,9696.697840
2528.031172,1225.752797,1998.556043,8660.409521
2528.031501,995.924147,1776.494261,9104.533087
2528.031830,2374.896044,370.102971,10732.986159
2528.032159,2145.067394,888.247130,6513.812290
2528.032488,3830.477490,518.144159,7994.224174
2528.032817,4136.915689,888.247130,6069.688724
2528.033146,3983.696590,1184.329507,6735.874072
2528.033475,1149.143247,962.267725,8290.306550
2528.033804,1225.752797,-592.164754,7920.203579
2528.034133,-689.485948,-2368.659014,8808.450710
2528.034462,-1838.629195,-2886.803174,10288.862594
2528.034791,-2145.067394,-2812.782580,10362.883188
2528.035119,-2451.505594,-3627.009116,10732.986159
2528.035448,-1378.971896,-2516.700203,10807.006753
2528.035777,-1532.190996,-1258.350101,10658.965565
2528.036106,-1378.971896,-814.226536,10955.047942
2528.036435,-1302.362347,296.082377,9770.718434
2528.036764,153.219100,740.205942,9622.677246
2528.037093,76.609550,2590.720797,9326.594869
2528.037422,689.485948,2368.659014,9400.615463
2528.037751,2451.505594,740.205942,9474.636058
2528.038080,3907.087040,1110.308913,7402.059420
2528.038409,5132.839837,814.226536,6809.894666
2528.038738,4903.011187,740.205942,6069.688724
2528.039067,4519.963438,1110.308913,6661.853478
2528.039396,4290.134789,1110.308913,7846.182985
2528.039725,2834.553343,666.185348,7624.121203
2528.040053,1072.533697,-0.000000,8586.388927
2528.040382,-612.876398,-1110.308913,9474.636058
2528.040711,-2298.286494,-1628.453072,10732.986159
2528.041040,-2528.115143,-2220.617826,10584.944971
2528.041369,-1915.238745,-1998.556043,9992.780217
2528.041698,-1838.629195,-1702.473667,11177.109724
2528.042027,-2451.505594,-1036.288319,11177.109724
2528.042356,-2374.896044,-444.123565,10584.944971
2528.042685,-1838.629195,-0.000000,9918.759623
2528.043014,-995.924147,888.247130,9252.574275
2528.043343,-383.047749,1480.411884,9178.553681
2528.043672,0.000000,1036.288319,9252.574275
2528.044001,536.266849,-74.020594,8882.471304
2528.044330,1072.533697,-1258.350101,9474.636058
2528.044659,1225.752797,-2368.659014,10066.800811
2528.044987,2757.943793,-1258.350101,8660.409521
2528.045316,3677.258390,814.226536,7105.977043
2528.045645,3907.087040,1776.494261,7402.059420
2528.045974,3677.258390,2516.700203,6883.915261
2528.046303,3677.258390,3034.844362,7920.203579
2528.046632,1838.629195,2146.597232,7254.018232
2528.046961,689.485948,-0.000000,8290.306550
2528.047290,-1532.190996,-1628.453072,9918.759623
2528.047619,-2528.115143,-2960.823768,11177.109724
2528.047948,-3294.210641,-3330.926739,9992.780217
2528.048277,-2757.943793,-2812.782580,10732.986159
2528.048606,-2528.115143,-1776.494261,9770.718434
2528.048935,-2528.115143,-444.123565,9844.739029
2528.049264,-1991.848295,222.061783,10658.965565
2528.049593,-919.314598,518.144159,8956.491898
2528.049921,612.876398,148.041188,9326.594869
2528.050250,842.705048,1850.514855,7476.080014
2528.050579,536.266849,-0.000000,9030.512492
2528.050908,536.266849,-2072.576638,12435.459826
2528.051237,3753.867940,148.041188,7476.080014
2528.051566,5362.668486,1776.494261,6217.729913
2528.051895,4519.963438,1258.350101,5329.482782
2528.052224,4060.306139,3478.967927,5995.668130
2528.052553,2298.286494,2368.659014,8586.388927
2528.052882,229.828649,518.144159,7105.977043
2528.053211,-995.924147,-888.247130,8808.450710
2528.053540,-1762.019645,-3552.988522,11547.212695
2528.053869,-3524.039291,-2886.803174,9104.533087
2528.054198,-3370.820191,-2960.823768,10955.047942
2528.054527,-3983.696590,-2516.700203,9548.656652
2528.054856,-3064.381992,-1258.350101,11473.192101
2528.055185,-2757.943793,-666.185348,12731.542202
2528.055514,-2681.334243,1702.473667,8956.491898
2528.055843,-1072.533697,-0.000000,10214.842000
2528.056172,536.266849,148.041188,9992.780217
2528.056501,536.266849,2664.741391,7402.059420
2528.056831,0.000000,222.061783,9326.594869
2528.057160,1302.362347,-1702.473667,11325.150913
2528.057489,2604.724693,-296.082377,9474.636058
2528.057818,3830.477490,1036.288319,6217.729913
2528.058147,4673.182538,1258.350101,5995.668130
2528.058476,3217.601092,148.041188,5921.647536
2528.058805,2834.553343,2368.659014,8364.327145
2528.059134,842.705048,1776.494261,8142.265362
2528.059463,-536.266849,-1258.350101,8808.450710
2528.059793,-1532.190996,-2368.659014,10881.027347
2528.060122,-1072.533697,-2072.576638,10584.944971
2528.060451,-2451.505594,-2072.576638,9326.594869
2528.060780,-1685.410096,-1406.391290,9844.739029
2528.061109,-229.828649,-592.164754,10807.006753
2528.061438,229.828649,2220.617826,10584.944971
2528.061767,0.000000,2738.761985,8956.491898
2528.062096,689.485948,370.102971,8660.409521
2528.062426,1532.190996,-444.123565,9104.533087
2528.062755,1302.362347,296.082377,8216.285956
2528.063084,306.438199,-1406.391290,9770.718434
2528.063413,0.000000,-2220.617826,10214.842000
2528.063742,2757.943793,-740.205942,10214.842000
2528.064071,3294.210641,888.247130,5847.626942
2528.064400,4290.134789,148.041188,6661.853478
2528.064729,3600.648841,518.144159,5329.482782
2528.065058,3600.648841,1850.514855,7624.121203
2528.065388,1455.581446,962.267725,8586.388927
2528.065717,-229.828649,-444.123565,8438.347739
2528.066046,-1762.019645,-2812.782580,10658.965565
2528.066375,-2604.724693,-2072.576638,11177.109724
2528.066704,-2528.115143,-1480.411884,9326.594869
2528.067033,-1838.629195,-1258.350101,9918.759623
2528.067362,-383.047749,296.082377,10214.842000
2528.067691,-306.438199,2294.638420,9696.697840
2528.068021,-459.657299,1480.411884,9844.739029
2528.068350,76.609550,296.082377,9252.574275
2528.068679,689.485948,-888.247130,9400.615463
2528.069008,459.657299,148.041188,8734.430116
2528.069337,-459.657299,-370.102971,9992.780217
2528.069666,-995.924147,-2294.638420,10584.944971
2528.069995,153.219100,-1184.329507,9844.739029
2528.070324,2451.505594,-666.185348,8290.306550
2528.070653,1915.238745,444.123565,5699.585753
2528.070983,2068.457845,888.247130,7031.956449
2528.071312,1149.143247,1406.391290,7624.121203
2528.071641,306.438199,1924.535449,9104.533087
2528.071970,-995.924147,-518.144159,9326.594869
2528.072299,-1532.190996,-2146.597232,10214.842000
2528.072628,-1838.629195,-1554.432478,9992.780217
2528.072957,-1685.410096,-0.000000,8882.471304
2528.073286,-1302.362347,-148.041188,9326.594869
2528.073616,-1072.533697,518.144159,9844.739029
2528.073945,76.609550,1628.453072,10510.924376
2528.074274,383.047749,1332.370696,9474.636058
2528.074603,766.095498,-148.041188,9326.594869
2528.074932,612.876398,-592.164754,8290.306550
2528.075261,76.609550,-962.267725,9178.553681
2528.075590,-612.876398,-1776.494261,10732.986159
2528.075919,612.876398,-1998.556043,9992.780217
2528.076249,2451.505594,-296.082377,8660.409521
2528.076578,3140.991542,592.164754,6143.709319
2528.076907,2911.162892,1184.329507,6365.771101
2528.077236,1915.238745,1036.288319,7402.059420
2528.077565,1072.533697,-0.000000,8290.306550
2528.077894,-229.828649,-296.082377,9252.574275
2528.078223,-1532.190996,-1480.411884,10140.821405
2528.078552,-2145.067394,-2516.700203,11177.109724
2528.078881,-2068.457845,-814.226536,9770.718434
2528.079211,-1149.143247,-296.082377,9770.718434
2528.079540,0.000000,-444.123565,9474.636058
2528.079869,919.314598,1332.370696,9770.718434
2528.080198,919.314598,1702.473667,9844.739029
2528.080527,459.657299,1406.391290,8364.327145
2528.080856,1378.971896,-592.164754,8438.347739
2528.081185,153.219100,-444.123565,8956.491898
2528.081514,-842.705048,-1628.453072,10214.842000
2528.081844,1225.752797,-1776.494261,10436.903782
2528.082173,2451.505594,-0.000000,7476.080014
2528.082502,2374.896044,370.102971,6809.894666
2528.082831,2834.553343,2220.617826,7105.977043
2528.083160,1762.019645,518.144159,7254.018232
2528.083489,842.705048,370.102971,8586.388927
2528.083818,76.609550,-1036.288319,9622.677246
2528.084147,-2221.676944,-1406.391290,9696.697840
2528.084476,-2451.505594,-2368.659014,10955.047942
2528.084806,-1915.238745,-1110.308913,9918.759623
2528.085135,-1455.581446,-518.144159,9252.574275
2528.085464,-383.047749,222.061783,9252.574275
2528.085793,229.828649,888.247130,9474.636058
2528.086122,383.047749,1628.453072,9400.615463
2528.086451,1225.752797,962.267725,8512.368333
2528.086780,842.705048,-74.020594,8882.471304
2528.087109,306.438199,-518.144159,9104.533087
2528.087439,766.095498,-2072.576638,10140.821405
2528.087768,1762.019645,-1036.288319,8882.471304
2528.088097,3064.381992,-74.020594,7624.121203
2528.088426,3370.820191,-0.000000,7105.977043
2528.088755,2987.772442,962.267725,7254.018232
2528.089084,1915.238745,740.205942,8290.306550
2528.089413,766.095498,-222.061783,7994.224174
2528.089742,-383.047749,-888.247130,9178.553681
2528.090072,-2068.457845,-1776.494261,10510.924376
2528.090401,-2374.896044,-2368.659014,11103.089130
2528.090730,-2528.115143,-1924.535449,10140.821405
2528.091059,-1608.800546,-1036.288319,9696.697840
2528.091388,-1225.752797,-444.123565,9770.718434
2528.091717,-766.095498,888.247130,9548.656652
2528.092046,-229.828649,1850.514855,9474.636058
2528.092375,612.876398,1258.350101,8586.388927
2528.092704,1149.143247,962.267725,8290.306550
2528.093034,1149.143247,370.102971,8290.306550
2528.093363,612.876398,-1850.514855,10066.800811
2528.093692,1838.629195,-1628.453072,10066.800811
2528.094021,3140.991542,296.082377,7105.977043
2528.094350,3907.087040,296.082377,7328.038826
2528.094679,3064.381992,1184.329507,6587.832884
2528.095008,2987.772442,1850.514855,7920.203579
2528.095337,612.876398,518.144159,8290.306550
2528.095667,536.266849,-740.205942,8808.450710
2528.095996,-1302.362347,-1924.535449,9548.656652
2528.096325,-2451.505594,-1998.556043,11473.192101
2528.096654,-2528.115143,-2368.659014,10732.986159
2528.096983,-2374.896044,-1406.391290,9474.636058
2528.097312,-1378.971896,-888.247130,9400.615463
2528.097641,-689.485948,148.041188,10288.862594
2528.097970,0.000000,1702.473667,9992.780217
2528.098299,0.000000,1406.391290,8290.306550
2528.098629,1149.143247,518.144159,8660.409521
2528.098958,689.485948,-0.000000,8882.471304
2528.099287,689.485948,-1554.432478,9992.780217
2528.099616,1455.581446,-1998.556043,10510.924376
2528.099945,3447.429741,-0.000000,7772.162391
2528.100274,4903.011187,814.226536,7772.162391
2528.100603,3983.696590,666.185348,6069.688724
2528.100932,3370.820191,1702.473667,7179.997637
2528.101262,1838.629195,1036.288319,8216.285956
2528.101591,306.438199,370.102971,8216.285956
2528.101920,-1149.143247,-1406.391290,9844.739029
2528.102249,-2681.334243,-2664.741391,11399.171507
2528.102578,-3370.820191,-2886.803174,11103.089130
2528.102907,-3217.601092,-1998.556043,9622.677246
2528.103236,-1915.238745,-1036.288319,9548.656652
2528.103565,-1991.848295,-222.061783,9622.677246
2528.103894,-1149.143247,1850.514855,10140.821405
2528.104224,0.000000,1628.453072,9104.533087
2528.104553,919.314598,-0.000000,8438.347739
2528.104882,1072.533697,592.164754,8068.244768
2528.105211,229.828649,-0.000000,8142.265362
2528.105540,306.438199,-1924.535449,10881.027347
2528.105869,1225.752797,-1480.411884,9918.759623
2528.106198,3370.820191,-222.061783,7772.162391
2528.106527,3907.087040,592.164754,6513.812290
2528.106857,3753.867940,1332.370696,6217.729913
2528.107186,2757.943793,2516.700203,7550.100608
2528.107515,1762.019645,740.205942,8216.285956
2528.107844,76.609550,370.102971,8808.450710
2528.108173,-1685.410096,-1628.453072,9770.718434
2528.108502,-2451.505594,-3256.906145,11473.192101
2528.108831,-3217.601092,-2294.638420,9474.636058
2528.109160,-1838.629195,-2146.597232,9622.677246
2528.109490,-1225.752797,-1184.329507,10214.842000
2528.109819,-536.266849,666.185348,10658.965565
2528.110148,-612.876398,2146.597232,10214.842000
2528.110477,0.000000,1406.391290,9030.512492
2528.110806,536.266849,148.041188,9104.533087
2528.111135,306.438199,444.123565,8290.306550
2528.111464,0.000000,-592.164754,10510.924376
2528.111793,0.000000,-2368.659014,10584.944971
2528.112122,2298.286494,-518.144159,9326.594869
2528.112452,3294.210641,666.185348,7105.977043
2528.112781,3524.039291,1480.411884,6291.750507
2528.113110,2528.115143,1924.535449,6439.791695
2528.113439,1838.629195,1184.329507,8142.265362
2528.113768,383.047749,666.185348,8734.430116
2528.114097,-842.705048,-740.205942,9400.615463
2528.114426,-2221.676944,-2886.803174,10881.027347
2528.114755,-3600.648841,-2590.720797,10658.965565
2528.115085,-2834.553343,-2146.597232,9918.759623
2528.115414,-2451.505594,-1702.473667,9770.718434
2528.115743,-1149.143247,-592.164754,10362.883188
2528.116072,-306.438199,1480.411884,10584.944971
2528.116401,153.219100,2072.576638,8882.471304
2528.116730,689.485948,1258.350101,8734.430116
2528.117059,689.485948,518.144159,8512.368333
2528.117388,229.828649,444.123565,9178.553681
2528.117717,0.000000,-1332.370696,10658.965565
2528.118047,1991.848295,-1110.308913,9400.615463
2528.118376,3064.381992,296.082377,7179.997637
2528.118705,3907.087040,370.102971,7179.997637
2528.119034,3907.087040,888.247130,6291.750507
2528.119363,2298.286494,1332.370696,7328.038826
2528.119692,1838.629195,518.144159,8142.265362
2528.120021,383.047749,-0.000000,8808.450710
2528.120350,-1225.752797,-2072.576638,10288.862594
2528.120680,-2221.676944,-2738.761985,11029.068536
2528.121009,-2451.505594,-2590.720797,10881.027347
2528.121338,-2451.505594,-1406.391290,9548.656652
2528.121667,-766.095498,-666.185348,9696.697840
2528.121996,-383.047749,1110.308913,10066.800811
2528.122325,689.485948,2368.659014,9474.636058
2528.122654,536.266849,1406.391290,8808.450710
2528.122983,1072.533697,296.082377,8882.471304
2528.123312,1072.533697,-592.164754,9992.780217
2528.123642,2298.286494,-962.267725,9696.697840
2528.123971,2374.896044,-370.102971,8142.265362
2528.124300,3907.087040,-0.000000,8216.285956
2528.124629,3907.087040,814.226536,6957.935855
2528.124958,3677.258390,1406.391290,7476.080014
2528.125287,2528.115143,592.164754,7550.100608
2528.125616,842.705048,-74.020594,7846.182985
2528.125945,-76.609550,-962.267725,10066.800811
2528.126275,-2221.676944,-1554.432478,10066.800811
2528.126604,-2604.724693,-2738.761985,11251.130318
2528.126933,-2987.772442,-2220.617826,9474.636058
2528.127262,-1991.848295,-1406.391290,10214.842000
2528.127591,-1991.848295,-888.247130,9918.759623
2528.127920,-1838.629195,518.144159,10066.800811
2528.128249,-612.876398,1628.453072,10214.842000
2528.128578,153.219100,1110.308913,8364.327145
2528.128908,1149.143247,1332.370696,8808.450710
2528.129237,459.657299,962.267725,7920.203579
2528.129566,306.438199,-740.205942,9992.780217
2528.129895,766.095498,-2146.597232,10955.047942
2528.130224,2604.724693,-666.185348,8068.244768
2528.130553,3600.648841,-0.000000,7254.018232
2528.130882,3217.601092,296.082377,6217.729913
2528.131211,3294.210641,1998.556043,7105.977043
2528.131540,2221.676944,1258.350101,7994.224174
2528.131870,689.485948,962.267725,7920.203579
2528.132199,-612.876398,-1184.329507,9178.553681
2528.132528,-1685.410096,-2442.679609,10436.903782
2528.132857,-2604.724693,-2590.720797,10955.047942
2528.133186,-3294.210641,-2220.617826,9252.574275
2528.133515,-2298.286494,-1776.494261,10214.842000
2528.133844,-1991.848295,-814.226536,10066.800811
2528.134173,-1378.971896,1258.350101,9992.780217
2528.134503,-766.095498,962.267725,10510.924376
2528.134832,229.828649,444.123565,9252.574275
2528.135161,1378.971896,222.061783,9474.636058
2528.135490,0.000000,740.205942,8586.388927
2528.135819,0.000000,-1332.370696,10807.006753
2528.136148,995.924147,-1184.329507,10584.944971
2528.136477,3294.210641,592.164754,7698.141797
2528.136806,3677.258390,518.144159,7031.956449
2528.137135,3907.087040,740.205942,5847.626942
2528.137465,2911.162892,2146.597232,6587.832884
2528.137794,1915.238745,370.102971,7994.224174
2528.138123,459.657299,-0.000000,8290.306550
2528.138452,-1378.971896,-1776.494261,9474.636058
2528.138781,-2221.676944,-3034.844362,10881.027347
2528.139110,-3370.820191,-2294.638420,9178.553681
2528.139439,-2604.724693,-1480.411884,9696.697840
2528.139768,-1608.800546,-1258.350101,9622.677246
2528.140098,-919.314598,296.082377,11103.089130
2528.140427,-1149.143247,1480.411884,10436.903782
2528.140756,-459.657299,1702.473667,9104.533087
2528.141085,383.047749,-222.061783,9104.533087
2528.141414,1149.143247,518.144159,7402.059420
2528.141743,0.000000,-296.082377,9474.636058
2528.142072,153.219100,-2590.720797,11177.109724
2528.142401,3294.210641,-444.123565,8068.244768
2528.142731,4443.353888,740.205942,6587.832884
2528.143060,4213.525239,740.205942,5551.544565
2528.143389,3677.258390,1850.514855,5625.565159
2528.143718,2528.115143,1184.329507,7920.203579
2528.144047,1608.800546,444.123565,7846.182985
2528.144376,-229.828649,-740.205942,9548.656652
2528.144705,-2528.115143,-2812.782580,11695.253884
2528.145034,-3294.210641,-3330.926739,11843.295072
2528.145363,-3370.820191,-2072.576638,10807.006753
2528.145693,-2221.676944,-1110.308913,9474.636058
2528.146022,-1378.971896,-222.061783,11177.109724
2528.146351,-689.485948,1998.556043,10658.965565
2528.146680,-995.924147,3182.885551,9918.759623
2528.147009,306.438199,740.205942,9252.574275
2528.147338,1225.752797,740.205942,7772.162391
2528.147667,0.000000,-0.000000,9474.636058
2528.147996,306.438199,-2294.638420,11399.171507
2528.148326,1838.629195,-814.226536,8734.430116
2528.148655,4826.401637,592.164754,7846.182985
2528.148984,4519.963438,740.205942,5773.606348
2528.149313,3983.696590,1332.370696,6217.729913
2528.149642,2528.115143,1554.432478,7550.100608
2528.149971,1149.143247,1184.329507,7179.997637
2528.150300,-383.047749,-444.123565,9548.656652
2528.150629,-2374.896044,-1702.473667,10288.862594
2528.150958,-2757.943793,-2738.761985,11621.233289
2528.151288,-3217.601092,-2590.720797,10658.965565
2528.151617,-2068.457845,-1110.308913,9622.677246
2528.151946,-1762.019645,-1406.391290,10066.800811
2528.152275,-1302.362347,444.123565,10140.821405
2528.152604,-612.876398,2072.576638,9548.656652
2528.152933,76.609550,-0.000000,8882.471304
2528.153263,612.876398,-0.000000,7994.224174
2528.153592,383.047749,444.123565,7920.203579
2528.153921,153.219100,-1554.432478,10732.986159
2528.154250,1225.752797,-2442.679609,11251.130318
2528.154579,3447.429741,-148.041188,6957.935855
2528.154908,4903.011187,592.164754,7031.956449
2528.155237,4366.744339,1332.370696,6069.688724
2528.155566,3524.039291,1850.514855,7105.977043
2528.155895,2298.286494,1184.329507,8660.409521
2528.156224,842.705048,444.123565,8290.306550
2528.156553,-842.705048,-1036.288319,9844.739029
2528.156882,-2681.334243,-2442.679609,11177.109724
2528.157211,-3447.429741,-2812.782580,11177.109724
2528.157541,-2987.772442,-1924.535449,9992.780217
2528.157870,-1608.800546,-2072.576638,9918.759623
2528.158199,-1225.752797,-370.102971,10807.006753
2528.158528,306.438199,2368.659014,10214.842000
2528.158857,306.438199,1998.556043,9104.533087
2528.159186,1455.581446,666.185348,8290.306550
2528.159515,995.924147,1184.329507,8290.306550
2528.159844,689.485948,-592.164754,10510.924376
2528.160173,2681.334243,-1776.494261,10436.903782
2528.160502,3830.477490,444.123565,7105.977043
2528.160831,4903.011187,296.082377,7105.977043
2528.161160,4060.306139,1036.288319,5551.544565
2528.161489,3753.867940,2220.617826,7254.018232
2528.161818,1838.629195,1332.370696,7402.059420
2528.162147,689.485948,592.164754,8068.244768
2528.162476,-1838.629195,-814.226536,10288.862594
2528.162805,-2451.505594,-1924.535449,11769.274478
2528.163134,-3600.648841,-3256.906145,11177.109724
2528.163463,-3370.820191,-2368.659014,10584.944971
2528.163793,-2681.334243,-2072.576638,10066.800811
2528.164122,-2451.505594,-1036.288319,10584.944971
2528.164451,-1455.581446,1110.308913,10584.944971
2528.164780,-1149.143247,1924.535449,8956.491898
2528.165109,459.657299,814.226536,9178.553681
2528.165438,842.705048,1406.391290,7846.182985
2528.165767,536.266849,222.061783,7846.182985
2528.166096,536.266849,-2146.597232,11325.150913
2528.166425,2451.505594,-1332.370696,8290.306550
2528.166754,3830.477490,592.164754,6513.812290
2528.167083,3064.381992,148.041188,6661.853478
2528.167412,2757.943793,1110.308913,5921.647536
2528.167741,2451.505594,1258.350101,9178.553681
2528.168070,459.657299,1628.453072,8290.306550
2528.168399,76.609550,-0.000000,9178.553681
2528.168728,-2374.896044,-2738.761985,11103.089130
2528.169057,-3064.381992,-1628.453072,10881.027347
2528.169386,-2451.505594,-2812.782580,10510.924376
2528.169715,-2911.162892,-1480.411884,8734.430116
2528.170044,-1991.848295,-1776.494261,10362.883188
2528.170374,-1072.533697,814.226536,11473.192101
2528.170703,-459.657299,2294.638420,9178.553681
2528.171032,0.000000,1110.308913,8808.450710
2528.171361,995.924147,-0.000000,8586.388927
2528.171690,766.095498,962.267725,7698.141797
2528.172019,612.876398,-1184.329507,10362.883188
2528.172348,1991.848295,-1258.350101,9474.636058
2528.172677,3600.648841,370.102971,6291.750507
2528.173006,4519.963438,962.267725,7105.977043
2528.173335,3370.820191,1480.411884,5329.482782
2528.173664,2757.943793,1480.411884,7698.141797
2528.173993,1455.581446,888.247130,7994.224174
2528.174322,76.609550,518.144159,8364.327145
2528.174651,-2451.505594,-1998.556043,10510.924376
2528.174980,-2681.334243,-2590.720797,10881.027347
2528.175309,-3600.648841,-2442.679609,9918.759623
2528.175638,-3830.477490,-2368.659014,10362.883188
2528.175967,-2834.553343,-1998.556043,10066.800811
2528.176296,-1762.019645,-740.205942,11547.212695
2528.176626,-1378.971896,1406.391290,9918.759623
2528.176955,-1302.362347,1702.473667,8660.409521
2528.177284,306.438199,-222.061783,8660.409521
2528.177613,1149.143247,1332.370696,8216.285956
2528.177942,459.657299,-0.000000,9252.574275
2528.178271,689.485948,-1998.556043,11547.212695
2528.178600,3140.991542,-888.247130,9252.574275
2528.178929,4903.011187,888.247130,6217.729913
2528.179258,4366.744339,296.082377,6513.812290
2528.179587,3600.648841,1850.514855,6365.771101
2528.179916,2987.772442,1480.411884,8364.327145
2528.180245,1149.143247,1554.432478,7550.100608
2528.180574,-306.438199,-74.020594,9104.533087
2528.180903,-1762.019645,-2590.720797,11547.212695
2528.181232,-3677.258390,-2516.700203,10881.027347
2528.181561,-2834.553343,-2590.720797,10510.924376
2528.181890,-2145.067394,-1776.494261,9178.553681
2528.182219,-1455.581446,-1184.329507,10214.842000
2528.182548,-383.047749,1184.329507,11029.068536
2528.182877,-229.828649,2812.782580,9326.594869
2528.183207,536.266849,518.144159,8734.430116
2528.183536,919.314598,296.082377,8660.409521
2528.183865,842.705048,1036.288319,8808.450710
2528.184194,536.266849,-1036.288319,11103.089130
2528.184523,2451.505594,-1554.432478,9696.697840
2528.184852,3907.087040,1110.308913,6661.853478
2528.185181,4749.792088,888.247130,6735.874072
2528.185510,4366.744339,1258.350101,5255.462188
2528.185839,3294.210641,1480.411884,7105.977043
2528.186168,1762.019645,1258.350101,7624.121203
2528.186497,689.485948,814.226536,7994.224174
2528.186826,-1685.410096,-2072.576638,10362.883188
2528.187155,-2528.115143,-3182.885551,11473.192101
2528.187484,-3524.039291,-2886.803174,10584.944971
2528.187813,-2757.943793,-2442.679609,9918.759623
2528.188142,-1762.019645,-2220.617826,10362.883188
2528.188471,-1685.410096,-0.000000,10881.027347
2528.188800,-1302.362347,1776.494261,10881.027347
2528.189129,-842.705048,1850.514855,9178.553681
2528.189459,229.828649,296.082377,9326.594869
2528.189788,842.705048,888.247130,8882.471304
2528.190117,76.609550,148.041188,7846.182985
2528.190446,153.219100,-2072.576638,12065.356855
2528.190775,1991.848295,-1628.453072,10362.883188
2528.191104,3064.381992,740.205942,6439.791695
2528.191433,4136.915689,-0.000000,7254.018232
2528.191762,3217.601092,1258.350101,5033.400406
2528.192091,2987.772442,2146.597232,8586.388927
2528.192420,995.924147,1258.350101,7698.141797
2528.192749,536.266849,962.267725,8068.244768
2528.193078,-1915.238745,-2664.741391,11177.109724
2528.193407,-2528.115143,-2442.679609,10436.903782
2528.193736,-3217.601092,-2516.700203,10881.027347
2528.194065,-2681.334243,-1776.494261,9696.697840
2528.194394,-1302.362347,-814.226536,9696.697840
2528.194723,-766.095498,1184.329507,11029.068536
2528.195052,76.609550,2442.679609,8882.471304
2528.195381,536.266849,1332.370696,8142.265362
2528.195710,995.924147,-74.020594,8438.347739
2528.196040,842.705048,666.185348,7994.224174
2528.196369,459.657299,-1554.432478,10214.842000
2528.196698,1608.800546,-1702.473667,9030.512492
2528.197027,2911.162892,444.123565,6809.894666
2528.197356,3294.210641,-0.000000,6735.874072
2528.197685,2987.772442,814.226536,6143.709319
2528.198014,2757.943793,1258.350101,7772.162391
2528.198343,1072.533697,592.164754,7920.203579
2528.198672,0.000000,-0.000000,8808.450710
2528.199001,-1915.238745,-1702.473667,10140.821405
2528.199330,-2528.115143,-3034.844362,11103.089130
2528.199659,-3907.087040,-2886.803174,11103.089130
2528.199988,-2834.553343,-1850.514855,10510.924376
2528.200317,-2451.505594,-1554.432478,10066.800811
2528.200646,-1378.971896,-0.000000,10658.965565
2528.200975,-383.047749,1998.556043,10140.821405
2528.201304,0.000000,1924.535449,8808.450710
2528.201633,1072.533697,814.226536,8734.430116
2528.201962,919.314598,1480.411884,8290.306550
2528.202292,383.047749,-370.102971,9992.780217
2528.202621,919.314598,-2294.638420,11325.150913
2528.202950,2451.505594,-370.102971,7476.080014
2528.203279,3907.087040,-0.000000,8068.244768
2528.203608,3370.820191,666.185348,6217.729913
2528.203937,3753.867940,1998.556043,7179.997637
2528.204266,2451.505594,1406.391290,8364.327145
2528.204595,536.266849,1332.370696,7698.141797
2528.204924,-153.219100,-0.000000,9474.636058
2528.205253,-2145.067394,-1924.535449,10436.903782
2528.205582,-2451.505594,-2664.741391,11695.253884
2528.205911,-2834.553343,-1998.556043,10140.821405
2528.206240,-1532.190996,-1184.329507,9326.594869
2528.206569,-1302.362347,-814.226536,10584.944971
2528.206898,-229.828649,1776.494261,10066.800811
2528.207227,0.000000,2368.659014,9474.636058
2528.207556,612.876398,148.041188,9030.512492
2528.207885,1532.190996,148.041188,8586.388927
2528.208214,536.266849,-0.000000,9178.553681
2528.208543,383.047749,-1998.556043,10807.006753
2528.208873,1685.410096,-1036.288319,9104.533087
2528.209202,3677.258390,444.123565,7179.997637
2528.209531,3524.039291,-0.000000,6809.894666
2528.209860,3983.696590,1036.288319,6291.750507
2528.210189,3064.381992,1480.411884,7624.121203
2528.210518,1072.533697,296.082377,7328.038826
2528.210847,0.000000,-740.205942,8586.388927
2528.211176,-2145.067394,-1998.556043,9992.780217
2528.211505,-2604.724693,-3034.844362,10807.006753
2528.211834,-3064.381992,-3256.906145,10436.903782
2528.212163,-2681.334243,-1998.556043,10066.800811
2528.212492,-2068.457845,-1406.391290,10436.903782
2528.212821,-1915.238745,-222.061783,10584.944971
2528.213150,-919.314598,1480.411884,10288.862594
2528.213479,-306.438199,740.205942,9252.574275
2528.213808,995.924147,370.102971,8808.450710
2528.214137,612.876398,1258.350101,8364.327145
2528.214466,229.828649,-296.082377,9770.718434
2528.214795,1149.143247,-1924.535449,11029.068536
2528.215125,2681.334243,-296.082377,7402.059420
2528.215454,4519.963438,370.102971,7179.997637
2528.215783,3830.477490,666.185348,5625.565159
2528.216112,3677.258390,2294.638420,6513.812290
2528.216441,2451.505594,1406.391290,8364.327145
2528.216770,1072.533697,888.247130,7994.224174
2528.217099,-612.876398,-1110.308913,9326.594869
2528.217428,-2374.896044,-2368.659014,10140.821405
2528.217757,-3294.210641,-2738.761985,11473.192101
2528.218086,-3370.820191,-2294.638420,10658.965565
2528.218415,-1915.238745,-888.247130,9622.677246
2528.218744,-1455.581446,-222.061783,10584.944971
2528.219073,153.219100,2220.617826,10066.800811
2528.219402,612.876398,2516.700203,9400.615463
2528.219731,766.095498,592.164754,8512.368333
2528.220060,1072.533697,518.144159,8512.368333
2528.220389,2145.067394,-1036.288319,11473.192101
2528.220718,2374.896044,-962.267725,7402.059420
2528.221047,4366.744339,296.082377,8364.327145
2528.221376,4290.134789,962.267725,6513.812290
2528.221706,4826.401637,1850.514855,6291.750507
2528.222035,2911.162892,1110.308913,8068.244768
2528.222364,1762.019645,962.267725,7550.100608
2528.222693,383.047749,-370.102971,9178.553681
2528.223022,-1838.629195,-1332.370696,10066.800811
2528.223351,-3064.381992,-3182.885551,11695.253884
2528.223680,-4213.525239,-3627.009116,11991.336260
2528.224009,-3064.381992,-2442.679609,9696.697840
2528.224338,-2757.943793,-1998.556043,10288.862594
2528.224667,-2145.067394,-148.041188,9992.780217
2528.224996,-919.314598,1480.411884,9844.739029
2528.225325,-306.438199,1554.432478,9104.533087
2528.225654,1149.143247,2146.597232,8512.368333
2528.225983,459.657299,1480.411884,8290.306550
2528.226312,995.924147,-0.000000,8586.388927
2528.226641,1149.143247,-2294.638420,11695.253884
2528.226970,2298.286494,-1036.288319,7920.203579
2528.227299,4136.915689,-0.000000,7105.977043
2528.227628,4136.915689,296.082377,6291.750507
2528.227957,4213.525239,1998.556043,6809.894666
2528.228287,2068.457845,2368.659014,8290.306550
2528.228616,1685.410096,1332.370696,7624.121203
2528.228945,229.828649,444.123565,9030.512492
2528.229274,-1838.629195,-1258.350101,10362.883188
2528.229603,-3217.601092,-2442.679609,10807.006753
2528.229932,-3600.648841,-2886.803174,10881.027347
2528.230261,-2068.457845,-2368.659014,9474.636058
2528.230590,-1762.019645,-2146.597232,10584.944971
2528.230919,-1455.581446,296.082377,10288.862594
2528.231248,-383.047749,1702.473667,9992.780217
2528.231577,76.609550,666.185348,8660.409521
2528.231906,1302.362347,1036.288319,8068.244768
2528.232235,612.876398,888.247130,8808.450710
2528.232564,0.000000,-2294.638420,11325.150913
2528.232893,2681.334243,-1184.329507,9548.656652
2528.233222,4673.182538,1332.370696,6587.832884
2528.233551,4136.915689,814.226536,6661.853478
2528.233880,3677.258390,1702.473667,6217.729913
2528.234209,3140.991542,2220.617826,8216.285956
2528.234539,919.314598,1332.370696,7698.141797
2528.234868,153.219100,-222.061783,8660.409521
2528.235197,-1149.143247,-1998.556043,10732.986159
2528.235526,-2604.724693,-3404.947333,11621.233289
2528.235855,-4290.134789,-3404.947333,10881.027347
2528.236184,-3830.477490,-2590.720797,10584.944971
2528.236513,-2757.943793,-2294.638420,10140.821405
2528.236842,-1991.848295,-444.123565,10658.965565
2528.237171,-1378.971896,1850.514855,9622.677246
2528.237500,-766.095498,1406.391290,8808.450710
2528.237829,612.876398,-0.000000,9104.533087
2528.238158,995.924147,2072.576638,7698.141797
2528.238487,383.047749,518.144159,8364.327145
2528.238816,0.000000,-1628.453072,10955.047942
2528.239145,2757.943793,-1406.391290,9548.656652
2528.239474,3753.867940,148.041188,5847.626942
2528.239803,4213.525239,296.082377,6587.832884
2528.240132,3370.820191,1702.473667,5847.626942
2528.240461,3753.867940,2368.659014,7846.182985
2528.240790,1149.143247,1628.453072,7920.203579
2528.241120,229.828649,370.102971,8438.347739
2528.241449,-1302.362347,-2368.659014,10436.903782
2528.241778,-2757.943793,-2516.700203,11177.109724
2528.242107,-2604.724693,-2812.782580,10807.006753
2528.242436,-2298.286494,-1850.514855,9770.718434
2528.242765,-842.705048,-1628.453072,10658.965565
2528.243094,-689.485948,962.267725,10288.862594
2528.243423,0.000000,2220.617826,9474.636058
2528.243752,306.438199,1036.288319,8808.450710
2528.244081,1532.190996,-74.020594,8734.430116
2528.244410,612.876398,814.226536,9104.533087
2528.244739,1072.533697,-1702.473667,11769.274478
2528.245068,2374.896044,-1184.329507,8142.265362
2528.245397,4826.401637,666.185348,7920.203579
2528.245726,4749.792088,962.267725,5921.647536
2528.246055,4596.572988,1554.432478,6365.771101
2528.246384,3370.820191,1702.473667,8142.265362
2528.246713,2221.676944,1184.329507,7624.121203
2528.247042,306.438199,-148.041188,9548.656652
2528.247372,-1762.019645,-1110.308913,10288.862594
2528.247701,-2987.772442,-2886.803174,12065.356855
2528.248030,-3907.087040,-2442.679609,11103.089130
2528.248359,-2145.067394,-1924.535449,9918.759623
2528.248688,-2604.724693,-1776.494261,9770.718434
2528.249017,-2298.286494,-0.000000,10362.883188
2528.249346,-612.876398,1406.391290,10066.800811
2528.249675,-536.266849,1110.308913,8512.368333
2528.250004,842.705048,962.267725,7624.121203
2528.250333,995.924147,1554.432478,8438.347739
2528.250662,0.000000,-444.123565,8216.285956
2528.250991,153.219100,-1850.514855,11621.233289
2528.251320,2604.724693,-1998.556043,8660.409521
2528.251649,3830.477490,666.185348,6365.771101
2528.251978,4213.525239,-0.000000,6291.750507
2528.252307,3370.820191,2220.617826,5625.565159
2528.252636,2681.334243,1924.535449,8290.306550
2528.252965,1225.752797,2072.576638,7698.141797
2528.253294,-229.828649,296.082377,8512.368333
2528.253623,-2451.505594,-2368.659014,11251.130318
2528.253953,-2834.553343,-3182.885551,10584.944971
2528.254282,-3677.258390,-2960.823768,10584.944971
2528.254611,-2757.943793,-2368.659014,10140.821405
2528.254940,-1685.410096,-1850.514855,9844.739029
2528.255269,-1072.533697,814.226536,10732.986159
2528.255598,-612.876398,2146.597232,9696.697840
2528.255927,229.828649,518.144159,8734.430116
2528.256256,1608.800546,-0.000000,8956.491898
2528.256585,229.828649,740.205942,8512.368333
2528.256914,0.000000,-2072.576638,10881.027347
2528.257243,1072.533697,-2220.617826,11103.089130
2528.257572,3600.648841,296.082377,7402.059420
2528.257901,4673.182538,1480.411884,6957.935855
2528.258231,3907.087040,1554.432478,5329.482782
2528.258560,3447.429741,2886.803174,7105.977043
2528.258889,2374.896044,1554.432478,7920.203579
2528.259218,766.095498,814.226536,7476.080014
2528.259547,-1302.362347,-666.185348,9400.615463
2528.259876,-2757.943793,-3701.029710,11695.253884
2528.260205,-3907.087040,-2812.782580,11177.109724
2528.260534,-3064.381992,-2664.741391,9992.780217
2528.260863,-2298.286494,-1998.556043,9844.739029
2528.261192,-2298.286494,-518.144159,10732.986159
2528.261521,-306.438199,1924.535449,10214.842000
2528.261850,-229.828649,2220.617826,9104.533087
2528.262180,459.657299,370.102971,8438.347739
2528.262509,1072.533697,1184.329507,7846.182985
2528.262838,153.219100,666.185348,8438.347739
2528.263167,-383.047749,-2368.659014,11251.130318
2528.263496,1225.752797,-2146.597232,10510.924376
2528.263825,4519.963438,-0.000000,6365.771101
2528.264154,4290.134789,370.102971,6661.853478
2528.264483,3140.991542,1702.473667,5551.544565
2528.264812,2604.724693,2516.700203,7698.141797
2528.265141,1378.971896,1184.329507,7772.162391
2528.265470,229.828649,740.205942,8660.409521
2528.265800,-1225.752797,-2220.617826,10288.862594
2528.266129,-2911.162892,-2812.782580,11103.089130
2528.266458,-2681.334243,-2886.803174,11103.089130
2528.266787,-1991.848295,-2072.576638,9622.677246
2528.267116,-1225.752797,-1406.391290,10140.821405
2528.267445,-459.657299,1110.308913,11029.068536
2528.267774,76.609550,2960.823768,9696.697840
2528.268103,306.438199,1628.453072,9252.574275
2528.268432,766.095498,-0.000000,8808.450710
2528.268761,995.924147,222.061783,9030.512492
2528.269090,1149.143247,-1036.288319,10732.986159
2528.269419,1838.629195,-296.082377,7624.121203
2528.269749,3447.429741,370.102971,8216.285956
2528.270078,3753.867940,592.164754,6439.791695
2528.270407,3370.820191,1332.370696,7179.997637
2528.270736,2221.676944,666.185348,7920.203579
2528.271065,1072.533697,370.102971,8216.285956
2528.271394,-229.828649,-0.000000,9918.759623
2528.271723,-2298.286494,-1554.432478,9770.718434
2528.272052,-2604.724693,-2886.803174,11251.130318
2528.272381,-3294.210641,-2738.761985,10584.944971
2528.272710,-1991.848295,-1036.288319,9992.780217
2528.273039,-1915.238745,-1110.308913,10214.842000
2528.273368,-383.047749,370.102971,9770.718434
2528.273698,-612.876398,2146.597232,9400.615463
2528.274027,229.828649,1850.514855,8808.450710
2528.274356,612.876398,1036.288319,8512.368333
2528.274685,842.705048,962.267725,7846.182985
2528.275014,536.266849,-1332.370696,9696.697840
2528.275343,1149.143247,-2664.741391,11103.089130
2528.275672,2528.115143,-1480.411884,7994.224174
2528.276001,3830.477490,-740.205942,7476.080014
2528.276330,3524.039291,666.185348,6439.791695
2528.276659,3524.039291,2146.597232,6809.894666
2528.276988,2221.676944,1332.370696,8290.306550
2528.277318,919.314598,740.205942,7920.203579
2528.277647,76.609550,-518.144159,9326.594869
2528.277976,-1378.971896,-1924.535449,9918.759623
2528.278305,-2757.943793,-3034.844362,11103.089130
2528.278634,-2604.724693,-2368.659014,10732.986159
2528.278963,-1532.190996,-1332.370696,9474.636058
2528.279292,-995.924147,-666.185348,10214.842000
2528.279621,-153.219100,1480.411884,9918.759623
2528.279950,-536.266849,2516.700203,9400.615463
2528.280279,689.485948,370.102971,9252.574275
2528.280608,1455.581446,370.102971,8586.388927
2528.280937,995.924147,-666.185348,9844.739029
2528.281267,1915.238745,-1406.391290,9548.656652
2528.281596,2987.772442,444.123565,7402.059420
2528.281925,4366.744339,814.226536,7328.038826
2528.282254,3217.601092,1406.391290,6661.853478
2528.282583,3524.039291,1998.556043,7402.059420
2528.282912,2451.505594,1998.556043,7402.059420
2528.283241,766.095498,1036.288319,7402.059420
2528.283570,-766.095498,-1258.350101,10140.821405
2528.283899,-2451.505594,-2220.617826,10362.883188
2528.284228,-2528.115143,-3923.091493,11473.192101
2528.284557,-3370.820191,-2960.823768,10066.800811
2528.284887,-2068.457845,-2072.576638,10584.944971
2528.285216,-2221.676944,-962.267725,9992.780217
2528.285545,-1149.143247,666.185348,10066.800811
2528.285874,-842.705048,1554.432478,9474.636058
2528.286203,459.657299,962.267725,8586.388927
2528.286532,995.924147,1110.308913,8142.265362
2528.286861,536.266849,740.205942,7698.141797
2528.287190,-229.828649,-888.247130,10807.006753
2528.287519,1455.581446,-2368.659014,10732.986159
2528.287848,2911.162892,-222.061783,6513.812290
2528.288177,3600.648841,-0.000000,7476.080014
2528.288506,2681.334243,666.185348,5773.606348
2528.288836,2911.162892,2368.659014,7402.059420
2528.289165,1225.752797,1110.308913,8364.327145
2528.289494,306.438199,592.164754,8142.265362
2528.289823,-1378.971896,-1702.473667,10288.862594
2528.290152,-2681.334243,-2590.720797,10658.965565
2528.290481,-3064.381992,-3478.967927,11103.089130
2528.290810,-3294.210641,-2294.638420,10288.862594
2528.291139,-1762.019645,-1406.391290,10288.862594
2528.291468,-1685.410096,148.041188,10362.883188
2528.291797,-306.438199,2294.638420,9696.697840
2528.292126,306.438199,1776.494261,8734.430116
2528.292455,995.924147,296.082377,8586.388927
2528.292785,842.705048,962.267725,7698.141797
2528.293114,766.095498,-888.247130,10955.047942
2528.293443,1685.410096,-962.267725,8438.347739
2528.293772,3140.991542,1036.288319,7105.977043
2528.294101,3907.087040,1406.391290,6735.874072
2528.294430,3217.601092,1406.391290,6587.832884
2528.294759,3140.991542,1702.473667,8068.244768
2528.295088,1225.752797,666.185348,7772.162391
2528.295417,229.828649,-148.041188,8808.450710
2528.295746,-1762.019645,-1628.453072,9992.780217
2528.296075,-2987.772442,-2960.823768,10955.047942
2528.296405,-3524.039291,-3404.947333,11473.192101
2528.296734,-2604.724693,-2442.679609,9696.697840
2528.297063,-1455.581446,-1406.391290,10362.883188
2528.297392,-1685.410096,-444.123565,10214.842000
2528.297721,-766.095498,1998.556043,9548.656652
2528.298050,-306.438199,1998.556043,8882.471304
2528.298379,689.485948,1332.370696,8438.347739
2528.298708,536.266849,1480.411884,7994.224174
2528.299037,383.047749,-222.061783,9474.636058
2528.299366,919.314598,-2368.659014,11399.171507
2528.299695,2451.505594,-1184.329507,8142.265362
2528.300024,4213.525239,-0.000000,7772.162391
2528.300354,3753.867940,-0.000000,6143.709319
2528.300683,3983.696590,1776.494261,7254.018232
2528.301012,2374.896044,1850.514855,8512.368333
2528.301341,1072.533697,1110.308913,8216.285956
2528.301670,-766.095498,-444.123565,10288.862594
2528.301999,-2068.457845,-1924.535449,10658.965565
2528.302328,-2911.162892,-2664.741391,11843.295072
2528.302657,-3524.039291,-2812.782580,10881.027347
2528.302986,-1991.848295,-1998.556043,10140.821405
2528.303315,-1225.752797,-1036.288319,10881.027347
2528.303644,-383.047749,1184.329507,10140.821405
2528.303973,383.047749,2368.659014,9104.533087
2528.304303,1072.533697,962.267725,8586.388927
2528.304632,1149.143247,1110.308913,7698.141797
2528.304961,1225.752797,-296.082377,10436.903782
2528.305290,2604.724693,-1110.308913,8586.388927
2528.305619,4060.306139,740.205942,6735.874072
2528.305948,5209.449386,666.185348,6439.791695
2528.306277,5439.278036,1480.411884,5477.523971
2528.306606,4519.963438,1554.432478,7772.162391
2528.306935,2145.067394,1628.453072,7031.956449
2528.307264,842.705048,444.123565,8142.265362
2528.307593,-1302.362347,-1110.308913,10362.883188
2528.307923,-2757.943793,-2072.576638,10510.924376
2528.308252,-3447.429741,-3478.967927,11769.274478
2528.308581,-3140.991542,-3034.844362,10658.965565
2528.308910,-2911.162892,-2442.679609,10362.883188
2528.309239,-2834.553343,-1554.432478,10584.944971
2528.309568,-1225.752797,888.247130,9992.780217
2528.309897,-995.924147,1406.391290,9326.594869
2528.310226,306.438199,1480.411884,8808.450710
2528.310555,689.485948,2072.576638,8364.327145
2528.310884,612.876398,962.267725,7254.018232
2528.311213,1149.143247,-1702.473667,11177.109724
2528.311542,2221.676944,-1036.288319,8882.471304
2528.311872,4596.572988,592.164754,7179.997637
2528.312201,4290.134789,-592.164754,6513.812290
2528.312530,3370.820191,1110.308913,6809.894666
2528.312859,2681.334243,1924.535449,9400.615463
2528.313188,842.705048,1110.308913,7846.182985
2528.313517,536.266849,518.144159,9104.533087
2528.313846,-1838.629195,-1406.391290,10807.006753
2528.314175,-2987.772442,-2738.761985,10881.027347
2528.314504,-3524.039291,-3182.885551,11251.130318
2528.314833,-2911.162892,-2368.659014,10140.821405
2528.315162,-1838.629195,-2664.741391,10362.883188
2528.315491,-1915.238745,-666.185348,10881.027347
2528.315821,-612.876398,1702.473667,9844.739029
2528.316150,-306.438199,1184.329507,8808.450710
2528.316479,995.924147,666.185348,8438.347739
2528.316808,995.924147,1776.494261,7624.121203
2528.317137,842.705048,-888.247130,9696.697840
2528.317466,2451.505594,-1258.350101,9770.718434
2528.317795,3983.696590,1036.288319,5773.606348
2528.318124,5592.497135,740.205942,7105.977043
2528.318453,3677.258390,1184.329507,5181.441594
2528.318782,4596.572988,2220.617826,7105.977043
2528.319111,2298.286494,1628.453072,7772.162391
2528.319441,1302.362347,1036.288319,7846.182985
2528.319770,-766.095498,-1110.308913,10140.821405
2528.320099,-2757.943793,-2812.782580,10807.006753
2528.320428,-3524.039291,-3478.967927,11769.274478
2528.320757,-3677.258390,-2368.659014,9918.759623
2528.321086,-2451.505594,-2960.823768,10510.924376
2528.321415,-2374.896044,-1406.391290,11029.068536
2528.321744,-995.924147,1406.391290,10140.821405
2528.322073,-842.705048,1776.494261,9622.677246
2528.322402,-383.047749,666.185348,8808.450710
2528.322731,1455.581446,1184.329507,8290.306550
2528.323060,153.219100,1332.370696,7698.141797
2528.323390,0.000000,-1628.453072,11399.171507
2528.323719,1302.362347,-1776.494261,10584.944971
2528.324048,3140.991542,666.185348,6809.894666
2528.324377,4136.915689,592.164754,7550.100608
2528.324706,4060.306139,1480.411884,5847.626942
2528.325035,3600.648841,2812.782580,7698.141797
2528.325364,1455.581446,1998.556043,8068.244768
2528.325693,76.609550,1258.350101,8364.327145
2528.326022,-1838.629195,-1628.453072,10214.842000
2528.326351,-2604.724693,-3034.844362,11547.212695
2528.326680,-3294.210641,-2812.782580,10288.862594
2528.327009,-2681.334243,-2664.741391,10510.924376
2528.327339,-1915.238745,-2368.659014,10288.862594
2528.327668,-1225.752797,-0.000000,11103.089130
2528.327997,-919.314598,2294.638420,10288.862594
2528.328326,-536.266849,1628.453072,8882.471304
2528.328655,612.876398,148.041188,9178.553681
2528.328984,919.314598,1702.473667,7698.141797
2528.329313,306.438199,-0.000000,9104.533087
2528.329642,0.000000,-2368.659014,11399.171507
2528.329971,2604.724693,-518.144159,8734.430116
2528.330300,3983.696590,962.267725,6291.750507
2528.330629,4290.134789,370.102971,5995.668130
2528.330959,3600.648841,1850.514855,5033.400406
2528.331288,3677.258390,1850.514855,8364.327145
2528.331617,1532.190996,1110.308913,6957.935855
2528.331946,229.828649,444.123565,8734.430116
2528.332275,-1762.019645,-2960.823768,10362.883188
2528.332604,-3294.210641,-3552.988522,11621.233289
2528.332933,-3753.867940,-3182.885551,10658.965565
2528.333262,-2604.724693,-2664.741391,9770.718434
2528.333591,-2145.067394,-1924.535449,10584.944971
2528.333920,-995.924147,1110.308913,10436.903782
2528.334249,0.000000,2368.659014,9548.656652
2528.334578,-612.876398,1258.350101,9104.533087
2528.334908,766.095498,296.082377,8882.471304
2528.335237,459.657299,1258.350101,7624.121203
2528.335566,-153.219100,-1184.329507,9992.780217
2528.335895,-383.047749,-2812.782580,10955.047942
2528.336224,2911.162892,-1332.370696,9030.512492
2528.336553,3983.696590,370.102971,6809.894666
2528.336882,4519.963438,518.144159,6069.688724
2528.337211,3753.867940,1924.535449,6439.791695
2528.337540,3217.601092,2146.597232,7698.141797
2528.337869,1915.238745,1850.514855,7624.121203
2528.338198,842.705048,148.041188,8586.388927
2528.338527,-1378.971896,-2368.659014,10214.842000
2528.338857,-2528.115143,-2368.659014,11103.089130
2528.339186,-3064.381992,-2664.741391,11251.130318
2528.339515,-2221.676944,-1628.453072,9400.615463
2528.339844,-689.485948,-962.267725,10510.924376
2528.340173,-536.266849,1998.556043,9548.656652
2528.340502,306.438199,2294.638420,9400.615463
2528.340831,536.266849,1036.288319,9104.533087
2528.341160,612.876398,-74.020594,8734.430116
2528.341489,536.266849,-518.144159,9474.636058
2528.341818,842.705048,-2442.679609,11177.109724
2528.342147,1991.848295,-740.205942,8438.347739
2528.342477,4060.306139,-0.000000,7994.224174
2528.342806,4443.353888,666.185348,5625.565159
2528.343135,4596.572988,1406.391290,6661.853478
2528.343464,3830.477490,1776.494261,7772.162391
2528.343793,1685.410096,1628.453072,7328.038826
2528.344122,1149.143247,-0.000000,9622.677246
2528.344451,-1991.848295,-1776.494261,9844.739029
2528.344780,-3677.258390,-3034.844362,12435.459826
2528.345109,-3064.381992,-4071.132681,12065.356855
2528.345438,-2528.115143,-2072.576638,9178.553681
2528.345767,-2221.676944,-1406.391290,9326.594869
2528.346096,-1378.971896,444.123565,10288.862594
2528.346426,-689.485948,1850.514855,9992.780217
2528.346755,-383.047749,962.267725,9844.739029
2528.347084,689.485948,518.144159,8586.388927
2528.347413,-306.438199,296.082377,8438.347739
2528.347742,229.828649,-1554.432478,10140.821405
2528.348071,0.000000,-2368.659014,11103.089130
2528.348400,1455.581446,-1110.308913,9400.615463
2528.348729,3064.381992,740.205942,6661.853478
2528.349058,4060.306139,888.247130,6143.709319
2528.349387,3140.991542,2812.782580,5995.668130
2528.349716,2681.334243,2812.782580,7402.059420
2528.350045,1225.752797,1776.494261,7402.059420
2528.350375,-229.828649,-296.082377,7920.203579
2528.350704,-1685.410096,-2368.659014,9992.780217
2528.351033,-2987.772442,-2738.761985,10658.965565
2528.351362,-3217.601092,-2442.679609,9696.697840
2528.351691,-2528.115143,-1776.494261,9918.759623
2528.352020,-2298.286494,-962.267725,10288.862594
2528.352349,-1455.581446,1184.329507,10807.006753
2528.352678,-995.924147,1184.329507,9844.739029
2528.353007,-306.438199,222.061783,9622.677246
2528.353336,766.095498,-74.020594,9400.615463
2528.353665,0.000000,518.144159,8290.306550
2528.353995,0.000000,-1702.473667,11473.192101
2528.354324,1378.971896,-1332.370696,10807.006753
2528.354653,3524.039291,1184.329507,6513.812290
2528.354982,4596.572988,1554.432478,6661.853478
2528.355312,2987.772442,1998.556043,5477.523971
2528.355641,3983.696590,2368.659014,7105.977043
2528.355970,1685.410096,1258.350101,7328.038826
2528.356299,459.657299,222.061783,8364.327145
2528.356629,-995.924147,-1998.556043,10584.944971
2528.356958,-2757.943793,-3182.885551,11177.109724
2528.357287,-3907.087040,-2886.803174,11621.233289
2528.357616,-2451.505594,-1924.535449,10362.883188
2528.357946,-2451.505594,-1110.308913,10140.821405
2528.358275,-1608.800546,592.164754,11103.089130
2528.358604,-383.047749,1776.494261,10214.842000
2528.358933,-306.438199,1776.494261,9326.594869
2528.359262,306.438199,-518.144159,8512.368333
2528.359592,536.266849,444.123565,7550.100608
2528.359921,-1072.533697,-1628.453072,10436.903782
2528.360250,229.828649,-2886.803174,11251.130318
2528.360579,2451.505594,-740.205942,7994.224174
2528.360909,3753.867940,592.164754,6883.915261
2528.361238,3447.429741,814.226536,5625.565159
2528.361567,2834.553343,2368.659014,6957.935855
2528.361896,2987.772442,1628.453072,8068.244768
2528.362226,1302.362347,888.247130,8660.409521
2528.362555,-536.266849,-148.041188,9400.615463
2528.362884,-2374.896044,-2072.576638,10288.862594
2528.363213,-3370.820191,-2812.782580,11621.233289
2528.363543,-2757.943793,-2146.597232,10807.006753
2528.363872,-1608.800546,-1628.453072,9622.677246
2528.364201,-842.705048,-1258.350101,10510.924376
2528.364530,-153.219100,1850.514855,9548.656652
2528.364860,76.609550,1924.535449,9104.533087
2528.365189,76.609550,370.102971,8956.491898
2528.365518,1225.752797,-222.061783,8512.368333
2528.365847,1915.238745,-666.185348,9992.780217
2528.366176,3217.601092,-740.205942,6957.935855
2528.366506,4136.915689,1184.329507,8216.285956
2528.366835,3370.820191,666.185348,7179.997637
2528.367164,4443.353888,1554.432478,7105.977043
2528.367493,2834.553343,1332.370696,8142.265362
2528.367823,1915.238745,1184.329507,7550.100608
2528.368152,536.266849,-74.020594,9474.636058
2528.368481,-2298.286494,-1554.432478,10584.944971
2528.368810,-2221.676944,-2812.782580,11843.295072
2528.369140,-2911.162892,-3923.091493,10955.047942
2528.369469,-2757.943793,-2590.720797,10288.862594
2528.369798,-2451.505594,-1628.453072,10140.821405
2528.370127,-1762.019645,222.061783,9622.677246
2528.370457,-536.266849,666.185348,9104.533087
2528.370786,536.266849,1554.432478,8660.409521
2528.371115,1302.362347,1998.556043,8364.327145
2528.371444,612.876398,814.226536,8734.430116
2528.371774,1991.848295,-1480.411884,10288.862594
2528.372103,2681.334243,-814.226536,7698.141797
2528.372432,4213.525239,370.102971,7624.121203
2528.372761,4290.134789,592.164754,6291.750507
2528.373090,4290.134789,1924.535449,7105.977043
2528.373420,2987.772442,2072.576638,8216.285956
2528.373749,1378.971896,1480.411884,7624.121203
2528.374078,76.609550,-148.041188,9178.553681
2528.374407,-2221.676944,-1184.329507,10066.800811
2528.374737,-2834.553343,-2516.700203,11473.192101
2528.375066,-3600.648841,-3182.885551,10362.883188
2528.375395,-2834.553343,-2960.823768,10584.944971
2528.375724,-2451.505594,-2368.659014,10584.944971
2528.376054,-2298.286494,-888.247130,10066.800811
2528.376383,-1072.533697,1110.308913,9474.636058
2528.376712,-229.828649,1184.329507,8956.491898
2528.377041,689.485948,1480.411884,8364.327145
2528.377371,306.438199,1258.350101,8808.450710
2528.377700,919.314598,-1776.494261,10732.986159
2528.378029,2528.115143,-1258.350101,9400.615463
2528.378358,4443.353888,814.226536,6513.812290
2528.378688,4903.011187,370.102971,6957.935855
2528.379017,4213.525239,962.267725,6661.853478
2528.379346,3753.867940,2220.617826,8364.327145
2528.379675,1762.019645,1702.473667,7920.203579
2528.380004,459.657299,740.205942,8142.265362
2528.380334,-1532.190996,-666.185348,9992.780217
2528.380663,-2911.162892,-2590.720797,11103.089130
2528.380992,-2834.553343,-3775.050304,11843.295072
2528.381321,-3753.867940,-2812.782580,10362.883188
2528.381651,-2374.896044,-3034.844362,10288.862594
2528.381980,-2374.896044,-1036.288319,10362.883188
2528.382309,-1225.752797,1258.350101,9918.759623
2528.382638,-842.705048,1554.432478,9030.512492
2528.382968,459.657299,1406.391290,8512.368333
2528.383297,689.485948,2664.741391,8068.244768
2528.383626,459.657299,370.102971,8438.347739
2528.383955,1532.190996,-1998.556043,11769.274478
2528.384285,2757.943793,-666.185348,7624.121203
2528.384614,4979.620737,888.247130,6809.894666
2528.384943,4290.134789,148.041188,5773.606348
2528.385272,3907.087040,2146.597232,6365.771101
2528.385602,2911.162892,2220.617826,9030.512492
2528.385931,1455.581446,1850.514855,7254.018232
2528.386260,0.000000,370.102971,8734.430116
2528.386589,-1838.629195,-1776.494261,10362.883188
2528.386919,-3140.991542,-3108.864956,10955.047942
2528.387248,-3524.039291,-3552.988522,11547.212695
2528.387577,-2451.505594,-3108.864956,10214.842000
2528.387906,-2145.067394,-2812.782580,11029.068536
2528.388235,-1762.019645,-518.144159,10436.903782
2528.388565,-842.705048,2072.576638,9474.636058
2528.388894,-459.657299,518.144159,9400.615463
2528.389223,612.876398,1332.370696,8068.244768
2528.389552,612.876398,1850.514855,8586.388927
2528.389882,919.314598,-1480.411884,11251.130318
2528.390211,1685.410096,-1184.329507,9326.594869
2528.390540,4519.963438,-0.000000,7328.038826
2528.390869,4366.744339,-0.000000,6513.812290
2528.391199,3677.258390,814.226536,6143.709319
2528.391528,3907.087040,1702.473667,8068.244768
2528.391857,1762.019645,1850.514855,7624.121203
2528.392186,766.095498,518.144159,8512.368333
2528.392516,-1378.971896,-1258.350101,9992.780217
2528.392845,-2604.724693,-3182.885551,10881.027347
2528.393174,-3753.867940,-3552.988522,11547.212695
2528.393503,-3140.991542,-2368.659014,9696.697840
2528.393833,-2528.115143,-2886.803174,10362.883188
2528.394162,-2374.896044,-814.226536,10658.965565
2528.394491,-919.314598,1850.514855,10140.821405
2528.394820,-1149.143247,1850.514855,9252.574275
2528.395149,536.266849,962.267725,8290.306550
2528.395479,536.266849,1924.535449,7698.141797
2528.395808,306.438199,148.041188,9178.553681
2528.396137,536.266849,-2072.576638,11177.109724
2528.396466,2528.115143,-1110.308913,8438.347739
2528.396796,4443.353888,296.082377,6735.874072
2528.397125,4903.011187,-0.000000,6143.709319
2528.397454,4903.011187,1702.473667,6809.894666
2528.397783,3830.477490,2442.679609,7920.203579
2528.398113,2068.457845,1628.453072,7254.018232
2528.398442,229.828649,444.123565,8882.471304
2528.398771,-1838.629195,-1924.535449,10362.883188
2528.399100,-2987.772442,-3256.906145,11695.253884
2528.399430,-3753.867940,-3330.926739,11473.192101
2528.399759,-1685.410096,-2664.741391,10288.862594
2528.400088,-1838.629195,-2294.638420,10214.842000
2528.400417,-1072.533697,740.205942,10510.924376
2528.400747,-306.438199,1924.535449,9918.759623
2528.401076,-383.047749,888.247130,9178.553681
2528.401405,766.095498,1184.329507,8734.430116
2528.401734,536.266849,888.247130,8956.491898
2528.402063,0.000000,-1184.329507,10658.965565
2528.402393,1685.410096,-1776.494261,10436.903782
2528.402722,3830.477490,296.082377,7031.956449
2528.403051,4749.792088,296.082377,7254.018232
2528.403380,4366.744339,1258.350101,5847.626942
2528.403710,4673.182538,2738.761985,6957.935855
2528.404039,2757.943793,2294.638420,7179.997637
2528.404368,1685.410096,1776.494261,7179.997637
2528.404697,-153.219100,-222.061783,9770.718434
2528.405027,-2451.505594,-2368.659014,10732.986159
2528.405356,-3447.429741,-3701.029710,12065.356855
2528.405685,-3677.258390,-3034.844362,9992.780217
2528.406014,-2221.676944,-3108.864956,10214.842000
2528.406344,-1991.848295,-1110.308913,10288.862594
2528.406673,-1149.143247,1554.432478,9770.718434
2528.407002,-1149.143247,1628.453072,9696.697840
2528.407331,-229.828649,740.205942,8882.471304
2528.407661,689.485948,1332.370696,8438.347739
2528.407990,383.047749,666.185348,7920.203579
2528.408319,-536.266849,-1924.535449,10658.965565
2528.408648,383.047749,-2812.782580,11843.295072
2528.408977,3294.210641,-666.185348,7105.977043
2528.409307,4673.182538,-222.061783,7550.100608
2528.409636,4060.306139,1258.350101,5551.544565
2528.409965,4136.915689,3478.967927,6883.915261
2528.410294,2451.505594,2368.659014,7550.100608
2528.410624,1455.581446,1554.432478,7402.059420
2528.410953,0.000000,-814.226536,9030.512492
2528.411282,-2911.162892,-2442.679609,10362.883188
2528.411611,-3907.087040,-3701.029710,11769.274478
2528.411941,-3524.039291,-3256.906145,10732.986159
2528.412270,-2145.067394,-2590.720797,9770.718434
2528.412599,-1915.238745,-814.226536,10214.842000
2528.412928,-995.924147,1332.370696,9474.636058
2528.413258,-842.705048,1480.411884,9474.636058
2528.413587,229.828649,-74.020594,8734.430116
2528.413916,766.095498,814.226536,8364.327145
2528.414245,0.000000,-370.102971,9548.656652
2528.414575,306.438199,-2442.679609,11695.253884
2528.414904,1838.629195,-814.226536,8438.347739
2528.415233,4290.134789,740.205942,7846.182985
2528.415562,3370.820191,888.247130,6587.832884
2528.415891,4826.401637,2072.576638,6513.812290
2528.416221,3217.601092,2812.782580,7698.141797
2528.416550,1532.190996,2072.576638,7031.956449
2528.416879,306.438199,370.102971,8290.306550
2528.417208,-2221.676944,-1554.432478,9474.636058
2528.417538,-3830.477490,-3182.885551,11177.109724
2528.417867,-3294.210641,-3404.947333,11251.130318
2528.418196,-2604.724693,-2072.576638,9992.780217
2528.418525,-1762.019645,-1702.473667,9696.697840
2528.418855,-1378.971896,666.185348,10066.800811
2528.419184,-842.705048,2220.617826,9622.677246
2528.419513,-689.485948,1036.288319,9622.677246
2528.419842,1225.752797,962.267725,8882.471304
2528.420172,229.828649,1036.288319,9104.533087
2528.420501,-383.047749,-1332.370696,10881.027347
2528.420830,306.438199,-2738.761985,11547.212695
2528.421159,2298.286494,-370.102971,8438.347739
2528.421489,4443.353888,222.061783,7328.038826
2528.421818,4213.525239,888.247130,5847.626942
2528.422147,4519.963438,2886.803174,6735.874072
2528.422476,3140.991542,2664.741391,7846.182985
2528.422805,1302.362347,1258.350101,7698.141797
2528.423135,-306.438199,-518.144159,8882.471304
2528.423464,-2374.896044,-2442.679609,10955.047942
2528.423793,-3600.648841,-3256.906145,11769.274478
2528.424122,-3217.601092,-2590.720797,10807.006753
2528.424452,-1608.800546,-1850.514855,10288.862594
2528.424781,-1455.581446,-1258.350101,10881.027347
2528.425110,-995.924147,1480.411884,10140.821405
2528.425439,-306.438199,2072.576638,9918.759623
2528.425769,306.438199,-0.000000,9104.533087
2528.426098,842.705048,814.226536,7994.224174
2528.426427,229.828649,-740.205942,10066.800811
2528.426756,1532.190996,-2294.638420,10288.862594
2528.427086,3294.210641,-296.082377,7031.956449
2528.427415,4443.353888,592.164754,6957.935855
2528.427744,4749.792088,1036.288319,5699.585753
2528.428073,4596.572988,2220.617826,6143.709319
2528.428403,2298.286494,2516.700203,7698.141797
2528.428732,1762.019645,296.082377,7624.121203
2528.429061,-383.047749,-962.267725,8586.388927
2528.429390,-2298.286494,-1924.535449,9474.636058
2528.429719,-2834.553343,-3775.050304,12361.439231
2528.430049,-4136.915689,-3256.906145,10658.965565
2528.430378,-2374.896044,-2146.597232,10436.903782
2528.430707,-1838.629195,-1184.329507,9992.780217
2528.431036,-842.705048,1110.308913,9770.718434
2528.431366,0.000000,1924.535449,9252.574275
2528.431695,306.438199,888.247130,9030.512492
2528.432024,1532.190996,1110.308913,7920.203579
2528.432353,995.924147,-0.000000,9548.656652
2528.432683,1915.238745,-2072.576638,10881.027347
2528.433012,2451.505594,-814.226536,7105.977043
2528.433341,4673.182538,592.164754,7550.100608
2528.433670,4290.134789,592.164754,5625.565159
2528.434000,4366.744339,1628.453072,7105.977043
2528.434329,2911.162892,2072.576638,8142.265362
2528.434658,1838.629195,1406.391290,7402.059420
2528.434987,-229.828649,-592.164754,9992.780217
2528.435317,-2528.115143,-1258.350101,9992.780217
2528.435646,-3600.648841,-3775.050304,12435.459826
2528.435975,-4673.182538,-3182.885551,11695.253884
2528.436304,-2451.505594,-2590.720797,10288.862594
2528.436634,-2145.067394,-1628.453072,10066.800811
2528.436963,-1378.971896,740.205942,10510.924376
2528.437292,-919.314598,2146.597232,9548.656652
2528.437621,76.609550,888.247130,9252.574275
2528.437950,766.095498,1480.411884,7994.224174
2528.438280,1378.971896,-0.000000,9844.739029
2528.438609,2374.896044,-1850.514855,10584.944971
2528.438938,2145.067394,-74.020594,6661.853478
2528.439267,4826.401637,740.205942,7698.141797
2528.439597,3830.477490,888.247130,5921.647536
2528.439926,4596.572988,1702.473667,7179.997637
2528.440255,2528.115143,2220.617826,7550.100608
2528.440584,1455.581446,1554.432478,7550.100608
2528.440914,-1149.143247,-370.102971,9548.656652
2528.441243,-2221.676944,-1184.329507,9548.656652
2528.441572,-3600.648841,-3256.906145,11991.336260
2528.441901,-4136.915689,-3552.988522,11103.089130
2528.442231,-2834.553343,-3108.864956,9622.677246
2528.442560,-2911.162892,-2146.597232,10658.965565
2528.442889,-2145.067394,-296.082377,10140.821405
2528.443218,-1455.581446,1480.411884,9326.594869
2528.443548,76.609550,888.247130,9326.594869
2528.443877,1149.143247,2220.617826,7772.162391
2528.444206,612.876398,1110.308913,8660.409521
2528.444535,1455.581446,-1776.494261,11769.274478
2528.444864,2298.286494,-666.185348,7920.203579
2528.445194,4979.620737,1184.329507,7254.018232
2528.445523,4596.572988,666.185348,5551.544565
2528.445852,4136.915689,1554.432478,6587.832884
2528.446181,2911.162892,2664.741391,8438.347739
2528.446511,1149.143247,1998.556043,7254.018232
2528.446840,153.219100,296.082377,9104.533087
2528.447169,-1762.019645,-666.185348,10066.800811
2528.447498,-3447.429741,-3330.926739,11473.192101
2528.447828,-4213.525239,-4071.132681,12213.398043
2528.448157,-3064.381992,-2664.741391,10807.006753
2528.448486,-2451.505594,-2664.741391,10955.047942
2528.448815,-2068.457845,-592.164754,10362.883188
2528.449145,-1072.533697,2072.576638,9770.718434
2528.449474,-459.657299,1332.370696,9178.553681
2528.449803,1225.752797,2368.659014,8438.347739
2528.450132,919.314598,1998.556043,8808.450710
2528.450462,919.314598,-518.144159,9844.739029
2528.450791,2068.457845,-888.247130,9474.636058
2528.451120,4366.744339,666.185348,6587.832884
2528.451449,4596.572988,666.185348,6143.709319
2528.451778,3524.039291,-0.000000,6365.771101
2528.452108,4366.744339,1702.473667,8364.327145
2528.452437,1915.238745,814.226536,7920.203579
2528.452766,1225.752797,888.247130,7624.121203
2528.453095,-919.314598,-1258.350101,9474.636058
2528.453425,-3140.991542,-2368.659014,10510.924376
2528.453754,-3677.258390,-3775.050304,12657.521608
2528.454083,-3600.648841,-2664.741391,10362.883188
2528.454412,-2374.896044,-3997.112087,10510.924376
2528.454742,-2068.457845,-1776.494261,11103.089130
2528.455071,-1302.362347,888.247130,9400.615463
2528.455400,-995.924147,2146.597232,9326.594869
2528.455729,306.438199,1332.370696,8586.388927
2528.456058,842.705048,2368.659014,7772.162391
2528.456388,842.705048,-0.000000,10362.883188
2528.456717,2604.724693,-1332.370696,9178.553681
2528.457046,3370.820191,-74.020594,6957.935855
2528.457375,4596.572988,-296.082377,6957.935855
2528.457704,3907.087040,-0.000000,6291.750507
2528.458033,4213.525239,1258.350101,8216.285956
2528.458362,2528.115143,2072.576638,7698.141797
2528.458691,1455.581446,1110.308913,7772.162391
2528.459020,-612.876398,-296.082377,9696.697840
2528.459350,-2757.943793,-1480.411884,10066.800811
2528.459679,-3140.991542,-3701.029710,12065.356855
2528.460008,-3294.210641,-2960.823768,10732.986159
2528.460337,-2298.286494,-2294.638420,9918.759623
2528.460666,-2298.286494,-1924.535449,10807.006753
2528.460995,-1608.800546,666.185348,9696.697840
2528.461324,-689.485948,1554.432478,9326.594869
2528.461653,383.047749,1480.411884,8438.347739
2528.461982,919.314598,2220.617826,7254.018232
2528.462312,1149.143247,-0.000000,9844.739029
2528.462641,2145.067394,-1110.308913,9474.636058
2528.462970,3370.820191,-0.000000,6513.812290
2528.463299,5056.230287,592.164754,7550.100608
2528.463628,4519.963438,518.144159,5995.668130
2528.463957,4826.401637,1480.411884,7550.100608
2528.464286,3217.601092,2146.597232,7920.203579
2528.464615,1838.629195,1406.391290,7624.121203
2528.464944,-536.266849,-222.061783,9474.636058
2528.465274,-2221.676944,-1184.329507,9844.739029
2528.465603,-3294.210641,-3552.988522,12065.356855
2528.465932,-3983.696590,-4071.132681,11029.068536
2528.466261,-3217.601092,-3478.967927,9474.636058
2528.466590,-3064.381992,-3552.988522,10807.006753
2528.466919,-2528.115143,-888.247130,9992.780217
2528.467248,-1915.238745,814.226536,9992.780217
2528.467577,-689.485948,666.185348,9696.697840
2528.467907,689.485948,2146.597232,8216.285956
2528.468236,0.000000,1998.556043,8216.285956
2528.468565,76.609550,-370.102971,9992.780217
2528.468894,1991.848295,-2220.617826,11769.274478
2528.469223,3064.381992,-0.000000,6809.894666
2528.469552,4979.620737,-0.000000,7624.121203
2528.469881,4136.915689,444.123565,5995.668130
2528.470210,4673.182538,2812.782580,6883.915261
2528.470539,2681.334243,2590.720797,7254.018232
2528.470869,1915.238745,1628.453072,7254.018232
2528.471198,-306.438199,-370.102971,9474.636058
2528.471527,-2604.724693,-1628.453072,10214.842000
2528.471856,-2911.162892,-3701.029710,11991.336260
2528.472185,-3830.477490,-3108.864956,10066.800811
2528.472514,-2145.067394,-3034.844362,9992.780217
2528.472843,-2298.286494,-2072.576638,10732.986159
2528.473172,-919.314598,888.247130,9770.718434
2528.473501,-1072.533697,1702.473667,9622.677246
2528.473831,-612.876398,888.247130,8882.471304
2528.474160,1225.752797,2072.576638,8290.306550
2528.474489,383.047749,1776.494261,7920.203579
2528.474818,76.609550,-1554.432478,10732.986159
2528.475147,1838.629195,-1776.494261,10955.047942
2528.475476,3830.477490,814.226536,5551.544565
2528.475805,5132.839837,-0.000000,7179.997637
2528.476134,3677.258390,1184.329507,5107.421000
2528.476463,4290.134789,3552.988522,7031.956449
2528.476793,1762.019645,2220.617826,7105.977043
2528.477122,1149.143247,1924.535449,6883.915261
2528.477451,-1072.533697,-1258.350101,9844.739029
2528.477780,-3064.381992,-2960.823768,10807.006753
2528.478109,-3753.867940,-4219.173869,12065.356855
2528.478438,-4213.525239,-3775.050304,10288.862594
2528.478767,-2145.067394,-3627.009116,10658.965565
2528.479096,-2374.896044,-1258.350101,11547.212695
2528.479425,-1685.410096,1702.473667,9992.780217
2528.479755,-1685.410096,2146.597232,9844.739029
2528.480084,76.609550,370.102971,9400.615463
2528.480413,919.314598,2516.700203,8142.265362
2528.480742,0.000000,1332.370696,8586.388927
2528.481071,-383.047749,-2072.576638,11177.109724
2528.481400,1455.581446,-1998.556043,10436.903782
2528.481729,3830.477490,370.102971,6291.750507
2528.482058,4749.792088,-222.061783,6217.729913
2528.482387,4060.306139,962.267725,5921.647536
2528.482717,3983.696590,2294.638420,7698.141797
2528.483046,2068.457845,2146.597232,6957.935855
2528.483375,842.705048,1406.391290,7772.162391
2528.483704,-536.266849,-1110.308913,9548.656652
2528.484033,-2528.115143,-2368.659014,9992.780217
2528.484362,-3753.867940,-3627.009116,12361.439231
2528.484691,-2834.553343,-3404.947333,10510.924376
2528.485020,-1302.362347,-3182.885551,10066.800811
2528.485350,-1378.971896,-296.082377,10510.924376
2528.485679,-995.924147,2294.638420,9326.594869
2528.486008,-306.438199,1924.535449,9030.512492
2528.486337,383.047749,814.226536,8512.368333
2528.486666,1302.362347,1554.432478,8512.368333
2528.486995,2451.505594,-1110.308913,9992.780217
2528.487324,2604.724693,-1110.308913,6883.915261
2528.487653,4366.744339,-0.000000,7994.224174
2528.487982,4366.744339,444.123565,6957.935855
2528.488312,4443.353888,740.205942,6735.874072
2528.488641,3064.381992,888.247130,7328.038826
2528.488970,2221.676944,1332.370696,7476.080014
2528.489299,612.876398,-0.000000,9400.615463
2528.489628,-1532.190996,-1332.370696,9548.656652
2528.489957,-2911.162892,-2960.823768,11473.192101
2528.490286,-3217.601092,-3478.967927,12139.377449
2528.490615,-2834.553343,-2738.761985,9918.759623
2528.490944,-2681.334243,-2368.659014,11177.109724
2528.491274,-1762.019645,-666.185348,9918.759623
2528.491603,-842.705048,1480.411884,9400.615463
2528.491932,0.000000,1332.370696,9104.533087
2528.492261,612.876398,1998.556043,8734.430116
2528.492590,306.438199,1480.411884,8734.430116
2528.492919,995.924147,-444.123565,9770.718434
2528.493248,2068.457845,-1184.329507,9326.594869
2528.493577,3524.039291,-222.061783,7624.121203
2528.493906,4290.134789,222.061783,7105.977043
2528.494236,3753.867940,666.185348,6587.832884
2528.494565,4366.744339,2220.617826,7550.100608
2528.494894,2681.334243,2516.700203,7179.997637
2528.495223,1762.019645,1184.329507,7920.203579
2528.495552,-689.485948,-0.000000,9474.636058
2528.495881,-2528.115143,-1628.453072,9918.759623
2528.496210,-3217.601092,-3775.050304,12287.418637
2528.496539,-3217.601092,-2886.803174,10214.842000
2528.496868,-1915.238745,-2368.659014,11029.068536
2528.497198,-2068.457845,-1998.556043,10214.842000
2528.497527,-1455.581446,888.247130,9770.718434
2528.497856,-1149.143247,1258.350101,9918.759623
2528.498185,229.828649,1110.308913,8882.471304
2528.498514,1149.143247,1480.411884,8364.327145
2528.498843,536.266849,-666.185348,9844.739029
2528.499172,612.876398,-2442.679609,10658.965565
2528.499501,2145.067394,-1184.329507,8438.347739
2528.499830,4136.915689,444.123565,7031.956449
2528.500160,4136.915689,592.164754,6069.688724
2528.500489,4443.353888,2146.597232,6217.729913
2528.500818,3370.820191,2812.782580,7476.080014
2528.501147,1302.362347,1776.494261,7402.059420
2528.501476,-76.609550,-0.000000,8216.285956
2528.501805,-1915.238745,-1702.473667,9622.677246
2528.502134,-3524.039291,-2960.823768,10955.047942
2528.502463,-3830.477490,-4219.173869,11695.253884
2528.502792,-3370.820191,-3182.885551,10140.821405
2528.503122,-2451.505594,-2368.659014,10732.986159
2528.503451,-3753.867940,-592.164754,11473.192101
2528.503780,-1991.848295,740.205942,10881.027347
2528.504109,-1455.581446,1406.391290,9696.697840
2528.504438,0.000000,814.226536,8956.491898
2528.504767,76.609550,1850.514855,7846.182985
2528.505096,0.000000,444.123565,8956.491898
2528.505425,-383.047749,-2368.659014,12213.398043
2528.505755,2221.676944,-1480.411884,8882.471304
2528.506084,3907.087040,444.123565,6291.750507
2528.506413,4596.572988,444.123565,6809.894666
2528.506742,3830.477490,2960.823768,5107.421000
2528.507071,3983.696590,3256.906145,7994.224174
2528.507400,1608.800546,2442.679609,6883.915261
2528.507729,1838.629195,222.061783,8142.265362
2528.508058,-1225.752797,-2294.638420,10288.862594
2528.508387,-2987.772442,-2516.700203,9992.780217
2528.508717,-4366.744339,-4145.153275,13397.727550
2528.509046,-4060.306139,-2664.741391,10510.924376
2528.509375,-1762.019645,-1998.556043,10436.903782
2528.509704,-1532.190996,518.144159,10881.027347
2528.510033,-229.828649,2664.741391,9252.574275
2528.510362,229.828649,1554.432478,8734.430116
2528.510691,612.876398,222.061783,9030.512492
2528.511020,2451.505594,222.061783,10732.986159
2528.511349,2604.724693,-592.164754,7994.224174
2528.511679,4366.744339,-0.000000,7698.141797
2528.512008,4290.134789,444.123565,6587.832884
2528.512337,4749.792088,814.226536,6587.832884
2528.512666,3983.696590,444.123565,7402.059420
2528.512995,2911.162892,1258.350101,7994.224174
2528.513324,1225.752797,592.164754,8068.244768
2528.513653,-1532.190996,-962.267725,9844.739029
2528.513982,-3447.429741,-2072.576638,10066.800811
2528.514311,-3830.477490,-3997.112087,12731.542202
2528.514641,-3830.477490,-3108.864956,9992.780217
2528.514970,-3140.991542,-3108.864956,10436.903782
2528.515299,-3217.601092,-1628.453072,10658.965565
2528.515628,-1685.410096,444.123565,9474.636058
2528.515957,-842.705048,666.185348,9622.677246
2528.516286,229.828649,2146.597232,8216.285956
2528.516615,919.314598,2294.638420,8068.244768
2528.516944,1608.800546,222.061783,9844.739029
2528.517273,2987.772442,-0.000000,8808.450710
2528.517603,3830.477490,-222.061783,7994.224174
2528.517932,5286.058936,-0.000000,6513.812290
2528.518261,4826.401637,666.185348,5921.647536
2528.518590,4596.572988,1554.432478,7550.100608
2528.518919,2987.772442,2368.659014,7105.977043
2528.519248,1991.848295,1184.329507,7105.977043
2528.519577,-383.047749,-0.000000,10288.862594
2528.519906,-2604.724693,-1702.473667,10140.821405
2528.520235,-3600.648841,-3775.050304,12361.439231
2528.520565,-4060.306139,-4071.132681,11695.253884
2528.520894,-2681.334243,-3404.947333,10140.821405
2528.521223,-2681.334243,-2442.679609,10732.986159
2528.521552,-2451.505594,-518.144159,9770.718434
2528.521881,-842.705048,1184.329507,9622.677246
2528.522210,153.219100,1184.329507,8438.347739
2528.522539,1149.143247,2368.659014,7920.203579
2528.522868,2604.724693,-0.000000,11103.089130
2528.523197,3140.991542,592.164754,7476.080014
2528.523527,5132.839837,666.185348,7550.100608
2528.523856,5822.325785,1184.329507,6735.874072
2528.524185,6128.763984,1036.288319,7179.997637
2528.524514,4290.134789,1628.453072,8290.306550
2528.524843,2145.067394,1998.556043,7846.182985
2528.525172,689.485948,1258.350101,8438.347739
2528.525501,-1302.362347,-148.041188,9400.615463
2528.525830,-3217.601092,-1924.535449,10584.944971
2528.526160,-3217.601092,-3256.906145,12731.542202
2528.526489,-3294.210641,-4145.153275,9918.759623
2528.526818,-3983.696590,-3627.009116,11251.130318
2528.527147,-3907.087040,-3108.864956,11399.171507
2528.527476,-2834.553343,-296.082377,9844.739029
2528.527805,-1685.410096,592.164754,9918.759623
2528.528134,-536.266849,1924.535449,8734.430116
2528.528463,536.266849,2738.761985,8216.285956
2528.528792,766.095498,2368.659014,8216.285956
2528.529122,919.314598,-888.247130,10510.924376
2528.529451,3294.210641,-962.267725,9622.677246
2528.529780,4903.011187,148.041188,5699.585753
2528.530109,5132.839837,518.144159,6735.874072
2528.530438,4213.525239,814.226536,6365.771101
2528.530767,4519.963438,2664.741391,7624.121203
2528.531096,2298.286494,2294.638420,7402.059420
2528.531425,2068.457845,1332.370696,7772.162391
2528.531754,-995.924147,-296.082377,9622.677246
2528.532084,-2604.724693,-2072.576638,9844.739029
2528.532413,-3983.696590,-4219.173869,12287.418637
2528.532742,-4596.572988,-3552.988522,10510.924376
2528.533071,-2528.115143,-4367.215058,10807.006753
2528.533400,-3140.991542,-2590.720797,11103.089130
2528.533729,-1762.019645,1036.288319,9992.780217
2528.534058,-1225.752797,814.226536,9474.636058
2528.534387,-76.609550,1036.288319,8808.450710
2528.534716,689.485948,3034.844362,7920.203579
2528.535046,995.924147,518.144159,10066.800811
2528.535375,3064.381992,-592.164754,9918.759623
2528.535704,3983.696590,370.102971,5995.668130
2528.536033,5592.497135,888.247130,7105.977043
2528.536362,3907.087040,740.205942,5477.523971
2528.536691,4826.401637,2368.659014,7624.121203
2528.537020,2374.896044,2664.741391,7328.038826
2528.537349,1455.581446,1850.514855,7031.956449
2528.537678,-919.314598,-444.123565,9918.759623
2528.538008,-3140.991542,-1776.494261,9696.697840
2528.538337,-3447.429741,-4219.173869,11991.336260
2528.538666,-4903.011187,-3108.864956,10732.986159
2528.538995,-2757.943793,-4145.153275,10658.965565
2528.539324,-3830.477490,-2738.761985,11177.109724
2528.539653,-2068.457845,-0.000000,10288.862594
2528.539982,-2145.067394,1924.535449,9474.636058
2528.540311,-383.047749,1258.350101,9548.656652
2528.540640,459.657299,2812.782580,8216.285956
2528.540970,766.095498,2664.741391,7772.162391
2528.541299,76.609550,-0.000000,9474.636058
2528.541628,1915.238745,-2294.638420,11991.336260
2528.541957,3140.991542,-222.061783,5847.626942
2528.542286,5362.668486,-0.000000,7402.059420
2528.542615,4136.915689,-0.000000,5625.565159
2528.542944,4290.134789,2146.597232,6735.874072
2528.543273,2451.505594,2072.576638,8364.327145
2528.543602,766.095498,1924.535449,7476.080014
2528.543932,-306.438199,-962.267725,9918.759623
2528.544261,-2604.724693,-2072.576638,10288.862594
2528.544590,-3677.258390,-3997.112087,11251.130318
2528.544919,-3907.087040,-3701.029710,11251.130318
2528.545248,-2834.553343,-2812.782580,10140.821405
2528.545577,-1532.190996,-2146.597232,11695.253884
2528.545906,-1378.971896,1110.308913,9992.780217
2528.546235,-842.705048,2146.597232,9104.533087
2528.546565,76.609550,740.205942,8808.450710
2528.546894,536.266849,1998.556043,8216.285956
2528.547223,459.657299,296.082377,11029.068536
2528.547552,2681.334243,-1406.391290,9400.615463
2528.547881,4519.963438,-74.020594,7105.977043
2528.548210,5286.058936,592.164754,7179.997637
2528.548539,4673.182538,1036.288319,5847.626942
2528.548868,5209.449386,1924.535449,7328.038826
2528.549197,3677.258390,2442.679609,6661.853478
2528.549527,2834.553343,2368.659014,7254.018232
2528.549856,459.657299,370.102971,8660.409521
2528.550185,-2145.067394,-1184.329507,9622.677246
2528.550514,-3217.601092,-4293.194464,11843.295072
2528.550843,-3370.820191,-3923.091493,10955.047942
2528.551172,-2911.162892,-3701.029710,9696.697840
2528.551501,-2757.943793,-2812.782580,11029.068536
2528.551830,-2604.724693,-370.102971,10584.944971
2528.552159,-1149.143247,1332.370696,9474.636058
2528.552489,-612.876398,1776.494261,9400.615463
2528.552818,612.876398,2664.741391,7772.162391
2528.553147,995.924147,1702.473667,8364.327145
2528.553476,0.000000,-0.000000,9474.636058
2528.553805,2298.286494,-2516.700203,11843.295072
2528.554134,3064.381992,-444.123565,6069.688724
2528.554463,4596.572988,-74.020594,8216.285956
2528.554792,4213.525239,740.205942,5551.544565
2528.555122,5592.497135,2812.782580,6957.935855
2528.555451,2451.505594,2812.782580,7624.121203
2528.555780,1838.629195,2072.576638,7105.977043
2528.556109,0.000000,-0.000000,9770.718434
2528.556438,-2987.772442,-1480.411884,9696.697840
2528.556767,-4060.306139,-4589.276840,12065.356855
2528.557096,-4136.915689,-4071.132681,11547.212695
2528.557426,-2451.505594,-3182.885551,9918.759623
2528.557755,-2681.334243,-2368.659014,11325.150913
2528.558084,-1991.848295,740.205942,10362.883188
2528.558413,-842.705048,2294.638420,9400.615463
2528.558742,229.828649,-0.000000,9696.697840
2528.559071,612.876398,1776.494261,7920.203579
2528.559400,153.219100,444.123565,9326.594869
2528.559730,1378.971896,-1776.494261,12213.398043
2528.560059,2221.676944,-1184.329507,8068.244768
2528.560388,4903.011187,666.185348,7698.141797
2528.560717,4596.572988,592.164754,5773.606348
2528.561046,4826.401637,1924.535449,6069.688724
2528.561375,3983.696590,2664.741391,7328.038826
2528.561705,1991.848295,2590.720797,6513.812290
2528.562034,1225.752797,-74.020594,8290.306550
2528.562363,-1762.019645,-740.205942,9474.636058
2528.562692,-3447.429741,-2960.823768,10584.944971
2528.563021,-4366.744339,-4293.194464,11769.274478
2528.563350,-4060.306139,-2812.782580,9622.677246
2528.563679,-2681.334243,-3552.988522,11325.150913
2528.564009,-3140.991542,-1258.350101,10362.883188
2528.564338,-1532.190996,1776.494261,9770.718434
2528.564667,-1225.752797,1258.350101,9696.697840
2528.564996,306.438199,1332.370696,8438.347739
2528.565325,536.266849,2294.638420,8142.265362
2528.565654,0.000000,222.061783,8734.430116
2528.565983,612.876398,-3034.844362,13027.624579
2528.566313,2145.067394,-1924.535449,8364.327145
2528.566642,5286.058936,592.164754,6735.874072
2528.566971,4826.401637,-0.000000,5551.544565
2528.567300,4366.744339,2664.741391,5847.626942
2528.567629,3294.210641,3330.926739,8364.327145
2528.567958,1302.362347,2368.659014,6957.935855
2528.568288,766.095498,592.164754,8882.471304
2528.568617,-2221.676944,-2368.659014,10140.821405
2528.568946,-3907.087040,-3330.926739,11177.109724
2528.569275,-4519.963438,-4515.256246,12361.439231
2528.569604,-3140.991542,-2442.679609,9918.759623
2528.569933,-2068.457845,-2664.741391,11251.130318
2528.570262,-1915.238745,666.185348,10807.006753
2528.570592,-383.047749,2368.659014,9104.533087
2528.570921,-459.657299,518.144159,9178.553681
2528.571250,1149.143247,1110.308913,8438.347739
2528.571579,612.876398,1924.535449,8734.430116
2528.571908,1378.971896,-1850.514855,12065.356855
2528.572237,2528.115143,-518.144159,7105.977043
2528.572566,5209.449386,740.205942,7624.121203
2528.572896,4596.572988,444.123565,5255.462188
2528.573225,5362.668486,1554.432478,5921.647536
2528.573554,3370.820191,1924.535449,7772.162391
2528.573883,1915.238745,2812.782580,6735.874072
2528.574212,919.314598,444.123565,8808.450710
2528.574541,-1915.238745,-962.267725,9400.615463
2528.574871,-3830.477490,-3627.009116,11325.150913
2528.575200,-3600.648841,-4145.153275,12361.439231
2528.575529,-3064.381992,-2886.803174,10066.800811
2528.575858,-2451.505594,-3034.844362,10658.965565
2528.576187,-2374.896044,-518.144159,10658.965565
2528.576516,-1532.190996,2072.576638,9696.697840
2528.576845,-1149.143247,888.247130,9622.677246
2528.577175,229.828649,1406.391290,8512.368333
2528.577504,153.219100,1924.535449,7994.224174
2528.577833,766.095498,-444.123565,9178.553681
2528.578162,1762.019645,-2368.659014,12583.501014
2528.578491,2374.896044,-370.102971,5921.647536
2528.578820,5515.887586,-0.000000,7846.182985
2528.579149,4213.525239,222.061783,5329.482782
2528.579479,5056.230287,2664.741391,6735.874072
2528.579808,3140.991542,2886.803174,7994.224174
2528.580137,2528.115143,1998.556043,7550.100608
2528.580466,459.657299,-296.082377,9918.759623
2528.580795,-2451.505594,-1406.391290,10214.842000
2528.581124,-4060.306139,-3775.050304,12065.356855
2528.581454,-4366.744339,-3701.029710,12213.398043
2528.581783,-2604.724693,-2516.700203,10140.821405
2528.582112,-2298.286494,-2072.576638,11399.171507
2528.582441,-2068.457845,1332.370696,10584.944971
2528.582770,0.000000,3108.864956,9400.615463
2528.583099,229.828649,888.247130,8882.471304
2528.583428,1072.533697,1998.556043,7920.203579
2528.583758,3217.601092,296.082377,10584.944971
2528.584087,3600.648841,666.185348,5551.544565
2528.584416,5745.716235,-0.000000,8216.285956
2528.584745,4979.620737,666.185348,6439.791695
2528.585074,5822.325785,1702.473667,6957.935855
2528.585403,3830.477490,1258.350101,7328.038826
2528.585732,2757.943793,2220.617826,6217.729913
2528.586062,919.314598,592.164754,9030.512492
2528.586391,-1685.410096,-888.247130,9474.636058
2528.586720,-2911.162892,-2812.782580,11473.192101
2528.587049,-5056.230287,-4737.318029,12657.521608
2528.587378,-3524.039291,-3997.112087,9918.759623
2528.587707,-3524.039291,-3182.885551,11177.109724
2528.588037,-2757.943793,-1998.556043,10362.883188
2528.588366,-2374.896044,444.123565,9178.553681
2528.588695,-995.924147,518.144159,9622.677246
2528.589024,306.438199,2368.659014,8068.244768
2528.589353,612.876398,2072.576638,8216.285956
2528.589682,229.828649,592.164754,10214.842000
2528.590011,2298.286494,-1554.432478,9548.656652
2528.590341,3677.258390,-0.000000,6957.935855
2528.590670,4826.401637,-0.000000,6735.874072
2528.590999,3983.696590,444.123565,6069.688724
2528.591328,4673.182538,1850.514855,7846.182985
2528.591657,2068.457845,2368.659014,7550.100608
2528.591986,1072.533697,1406.391290,7550.100608
2528.592315,-995.924147,-740.205942,10362.883188
2528.592645,-2834.553343,-1776.494261,10288.862594
2528.592974,-3677.258390,-3923.091493,12065.356855
2528.593303,-4060.306139,-3627.009116,10288.862594
2528.593632,-2374.896044,-3182.885551,10436.903782
2528.593961,-2374.896044,-2368.659014,10584.944971
2528.594290,-1455.581446,370.102971,9918.759623
2528.594620,-919.314598,1554.432478,9696.697840
2528.594949,-536.266849,1332.370696,8364.327145
2528.595278,1149.143247,2664.741391,7994.224174
2528.595607,1149.143247,370.102971,10807.006753
2528.595936,3140.991542,-148.041188,9104.533087
2528.596265,4596.572988,1036.288319,6587.832884
2528.596594,5362.668486,814.226536,6883.915261
2528.596924,4749.792088,1184.329507,6143.709319
2528.597253,5439.278036,2368.659014,8142.265362
2528.597582,2451.505594,2590.720797,6957.935855
2528.597911,1838.629195,2072.576638,7328.038826
2528.598240,-306.438199,-296.082377,9548.656652
2528.598569,-2911.162892,-1628.453072,9918.759623
2528.598899,-3524.039291,-4293.194464,12805.562797
2528.599228,-4673.182538,-4293.194464,10732.986159
2528.599557,-2757.943793,-4071.132681,10881.027347
2528.599886,-3294.210641,-2738.761985,10881.027347
2528.600215,-2911.162892,-444.123565,10510.924376
2528.600544,-2068.457845,962.267725,10066.800811
2528.600873,-1072.533697,1850.514855,9400.615463
2528.601203,76.609550,3108.864956,8734.430116
2528.601532,919.314598,1776.494261,8586.388927
2528.601861,1225.752797,-1036.288319,10881.027347
2528.602190,2528.115143,-444.123565,9030.512492
2528.602519,4903.011187,592.164754,6661.853478
2528.602848,4903.011187,-0.000000,6291.750507
2528.603177,4366.744339,1184.329507,6143.709319
2528.603507,4213.525239,2516.700203,8660.409521
2528.603836,1762.019645,1702.473667,7031.956449
2528.604165,766.095498,888.247130,8142.265362
2528.604494,-2221.676944,-1184.329507,11103.089130
2528.604823,-3370.820191,-2812.782580,10436.903782
2528.605152,-3600.648841,-4441.235652,11547.212695
2528.605482,-3370.820191,-2960.823768,9474.636058
2528.605811,-2068.457845,-3404.947333,10807.006753
2528.606140,-2145.067394,-1776.494261,10732.986159
2528.606469,-689.485948,1554.432478,9770.718434
2528.606798,-229.828649,962.267725,9326.594869
2528.607127,536.266849,1702.473667,7624.121203
2528.607456,689.485948,2294.638420,8734.430116
2528.607786,2298.286494,-0.000000,10436.903782
2528.608115,3600.648841,962.267725,6217.729913
2528.608444,5822.325785,444.123565,7328.038826
2528.608773,5592.497135,444.123565,5921.647536
2528.609102,5209.449386,888.247130,6661.853478
2528.609431,3907.087040,1628.453072,7105.977043
2528.609760,2528.115143,1776.494261,6513.812290
2528.610090,842.705048,-148.041188,9326.594869
2528.610419,-1608.800546,-962.267725,9326.594869
2528.610748,-3217.601092,-3404.947333,11251.130318
2528.611077,-4519.963438,-4663.297435,11843.295072
2528.611406,-3677.258390,-3330.926739,9696.697840
2528.611735,-3217.601092,-3182.885551,11029.068536
2528.612065,-2911.162892,-1850.514855,10881.027347
2528.612394,-2221.676944,666.185348,10066.800811
2528.612723,-1378.971896,814.226536,9770.718434
2528.613052,229.828649,2368.659014,8512.368333
2528.613381,383.047749,2146.597232,8734.430116
2528.613710,76.609550,962.267725,9474.636058
2528.614039,1532.190996,-1110.308913,10881.027347
2528.614369,2681.334243,-0.000000,7698.141797
2528.614698,5209.449386,-222.061783,7772.162391
2528.615027,4213.525239,592.164754,6143.709319
2528.615356,4903.011187,2220.617826,7328.038826
2528.615685,4213.525239,2220.617826,7624.121203
2528.616014,2068.457845,1924.535449,7105.977043
2528.616343,153.219100,518.144159,9474.636058
2528.616673,-2221.676944,-666.185348,9622.677246
2528.617002,-3524.039291,-3552.988522,11547.212695
2528.617331,-3524.039291,-3775.050304,10955.047942
2528.617660,-2604.724693,-3701.029710,9696.697840
2528.617989,-2834.553343,-3256.906145,11547.212695
2528.618318,-2221.676944,-666.185348,10288.862594
2528.618648,-919.314598,1628.453072,9474.636058
2528.618977,-536.266849,740.205942,8882.471304
2528.619306,383.047749,2590.720797,7624.121203
2528.619635,459.657299,1628.453072,9178.553681
2528.619964,689.485948,-1036.288319,10955.047942
2528.620293,2681.334243,-1258.350101,8142.265362
2528.620622,4673.182538,296.082377,7105.977043
2528.620952,4903.011187,296.082377,6883.915261
2528.621281,3907.087040,962.267725,6587.832884
2528.621610,4443.353888,2442.679609,8068.244768
2528.621939,2757.943793,2664.741391,6143.709319
2528.622268,2528.115143,1554.432478,7105.977043
2528.622597,0.000000,-666.185348,9474.636058
2528.622926,-3140.991542,-2220.617826,9622.677246
2528.623256,-3753.867940,-4959.379811,13101.645173
2528.623585,-4213.525239,-4293.194464,10436.903782
2528.623914,-3064.381992,-3849.070898,10066.800811
2528.624243,-2987.772442,-2368.659014,11621.233289
2528.624572,-2451.505594,666.185348,9770.718434
2528.624901,-1685.410096,814.226536,10362.883188
2528.625231,-306.438199,1850.514855,8956.491898
2528.625560,383.047749,2960.823768,8438.347739
2528.625889,229.828649,2146.597232,8586.388927
2528.626218,229.828649,-888.247130,10881.027347
2528.626547,1762.019645,-1776.494261,9918.759623
2528.626876,4213.525239,740.205942,6069.688724
2528.627205,5132.839837,222.061783,6809.894666
2528.627535,3217.601092,1406.391290,5403.503377
2528.627864,4519.963438,3034.844362,7846.182985
2528.628193,1838.629195,2960.823768,6587.832884
2528.628522,1302.362347,1406.391290,6809.894666
2528.628851,-1532.190996,-1258.350101,10140.821405
2528.629180,-2987.772442,-2442.679609,9548.656652
2528.629509,-3600.648841,-4589.276840,12657.521608
2528.629839,-3677.258390,-3552.988522,9844.739029
2528.630168,-2298.286494,-4219.173869,10584.944971
2528.630497,-3064.381992,-1998.556043,11473.192101
2528.630826,-1532.190996,1924.535449,10140.821405
2528.631155,-919.314598,1332.370696,9474.636058
2528.631484,0.000000,1332.370696,8586.388927
2528.631814,995.924147,2960.823768,7920.203579
2528.632143,612.876398,296.082377,10214.842000
2528.632472,2145.067394,-1554.432478,10732.986159
2528.632801,2987.772442,370.102971,6513.812290
2528.633130,5286.058936,-0.000000,7920.203579
2528.633459,3907.087040,592.164754,5625.565159
2528.633788,4903.011187,1924.535449,7254.018232
2528.634118,2681.334243,2146.597232,7179.997637
2528.634447,1378.971896,1776.494261,6365.771101
2528.634776,0.000000,-740.205942,9844.739029
2528.635105,-2604.724693,-2220.617826,9992.780217
2528.635434,-3907.087040,-4885.359217,12509.480420
2528.635763,-4443.353888,-3701.029710,11251.130318
2528.636092,-2681.334243,-3478.967927,10140.821405
2528.636422,-3524.039291,-2886.803174,11843.295072
2528.636751,-1378.971896,666.185348,10584.944971
2528.637080,-995.924147,2368.659014,9770.718434
2528.637409,0.000000,814.226536,9548.656652
2528.637738,995.924147,3182.885551,7476.080014
2528.638067,612.876398,2072.576638,8882.471304
2528.638397,1225.752797,-1110.308913,11177.109724
2528.638726,2987.772442,-444.123565,6735.874072
2528.639055,5286.058936,296.082377,7476.080014
2528.639384,4519.963438,592.164754,5625.565159
2528.639713,4673.182538,1406.391290,6439.791695
2528.640042,3370.820191,2294.638420,7624.121203
2528.640371,2145.067394,2516.700203,6439.791695
2528.640701,1225.752797,222.061783,9474.636058
2528.641030,-1149.143247,-962.267725,9992.780217
2528.641359,-2757.943793,-3182.885551,10807.006753
2528.641688,-3677.258390,-4071.132681,11917.315666
2528.642017,-2757.943793,-3034.844362,9696.697840
2528.642346,-2757.943793,-2960.823768,10955.047942
2528.642675,-2221.676944,-666.185348,10881.027347
2528.643005,-1225.752797,1924.535449,9474.636058
2528.643334,0.000000,814.226536,9474.636058
2528.643663,306.438199,1628.453072,8216.285956
2528.643992,995.924147,1554.432478,9474.636058
2528.644321,2451.505594,-518.144159,10214.842000
2528.644650,3064.381992,-222.061783,7105.977043
2528.644980,4596.572988,-148.041188,8438.347739
2528.645309,4290.134789,222.061783,6439.791695
2528.645638,5286.058936,1554.432478,7031.956449
2528.645967,4213.525239,1702.473667,7105.977043
2528.646296,2834.553343,1998.556043,6957.935855
2528.646625,1302.362347,666.185348,8512.368333
2528.646954,-1149.143247,-666.185348,9252.574275
2528.647284,-2681.334243,-2738.761985,11177.109724
2528.647613,-4136.915689,-4219.173869,11843.295072
2528.647942,-3217.601092,-3108.864956,10510.924376
2528.648271,-3140.991542,-2664.741391,10881.027347
2528.648600,-3140.991542,-1776.494261,11177.109724
2528.648929,-2451.505594,592.164754,9770.718434
2528.649258,-1302.362347,1184.329507,10288.862594
2528.649588,-383.047749,2072.576638,8808.450710
2528.649917,306.438199,1776.494261,8660.409521
2528.650246,0.000000,592.164754,8808.450710
2528.650575,995.924147,-1628.453072,11325.150913
2528.650904,2221.676944,-1036.288319,8142.265362
2528.651233,4213.525239,592.164754,7031.956449
2528.651563,4903.011187,666.185348,5847.626942
2528.651892,4060.306139,2220.617826,5847.626942
2528.652221,2987.772442,3108.864956,8216.285956
2528.652550,1915.238745,1998.556043,6809.894666
2528.652879,919.314598,-0.000000,8808.450710
2528.653208,-1991.848295,-814.226536,9622.677246
2528.653537,-3753.867940,-3034.844362,9844.739029
2528.653867,-4673.182538,-5255.462188,12953.603985
2528.654196,-4673.182538,-3627.009116,10955.047942
2528.654525,-2757.943793,-3404.947333,11843.295072
2528.654854,-2757.943793,-1258.350101,10584.944971
2528.655183,-1378.971896,1628.453072,9622.677246
2528.655512,-459.657299,2072.576638,8808.450710
2528.655841,229.828649,1924.535449,9104.533087
2528.656171,1762.019645,962.267725,9844.739029
2528.656500,3140.991542,740.205942,9030.512492
2528.656829,5439.278036,296.082377,7476.080014
2528.657158,4979.620737,1184.329507,5773.606348
2528.657487,5745.716235,1480.411884,7105.977043
2528.657816,4443.353888,1184.329507,8068.244768
2528.658145,3677.258390,2368.659014,7105.977043
2528.658475,2068.457845,1480.411884,7846.182985
2528.658804,-306.438199,-74.020594,9178.553681
2528.659133,-2834.553343,-2294.638420,10140.821405
2528.659462,-3983.696590,-4737.318029,12805.562797
2528.659791,-4673.182538,-4367.215058,11325.150913
2528.660120,-3600.648841,-3404.947333,10881.027347
2528.660449,-3677.258390,-2590.720797,10807.006753
2528.660779,-2604.724693,-0.000000,9992.780217
2528.661108,-1149.143247,1110.308913,9844.739029
2528.661437,-306.438199,2072.576638,8438.347739
2528.661766,383.047749,3404.947333,7920.203579
2528.662095,1302.362347,2072.576638,9992.780217
2528.662424,3140.991542,370.102971,8734.430116
2528.662753,3983.696590,518.144159,6661.853478
2528.663083,4826.401637,296.082377,7179.997637
2528.663412,4519.963438,-0.000000,6217.729913
2528.663741,4979.620737,518.144159,7846.182985
2528.664070,3140.991542,1036.288319,7624.121203
2528.664399,2145.067394,962.267725,7254.018232
2528.664728,0.000000,-444.123565,9696.697840
2528.665057,-2451.505594,-1184.329507,9844.739029
2528.665386,-3524.039291,-2960.823768,11769.274478
2528.665716,-3830.477490,-4293.194464,11547.212695
2528.666045,-3677.258390,-3701.029710,9844.739029
2528.666374,-2834.553343,-3034.844362,11399.171507
2528.666703,-2911.162892,-1776.494261,10436.903782
2528.667032,-1915.238745,296.082377,9696.697840
2528.667361,-689.485948,592.164754,9326.594869
2528.667690,0.000000,2072.576638,8216.285956
2528.668020,1532.190996,814.226536,9844.739029
2528.668349,2757.943793,592.164754,8586.388927
2528.668678,4596.572988,592.164754,7031.956449
2528.669007,5439.278036,1110.308913,6735.874072
2528.669336,4366.744339,1258.350101,6661.853478
2528.669665,4903.011187,1554.432478,8216.285956
2528.669994,3830.477490,1924.535449,7328.038826
2528.670324,2451.505594,1776.494261,7254.018232
2528.670653,612.876398,370.102971,8956.491898
2528.670982,-1838.629195,-1776.494261,10066.800811
2528.671311,-3294.210641,-2960.823768,11547.212695
2528.671640,-3830.477490,-3997.112087,11769.274478
2528.671969,-3830.477490,-3923.091493,10140.821405
2528.672298,-3600.648841,-3182.885551,10584.944971
2528.672628,-2987.772442,-1702.473667,10362.883188
2528.672957,-1072.533697,148.041188,9696.697840
2528.673286,-612.876398,962.267725,9474.636058
2528.673615,229.828649,2590.720797,8142.265362
2528.673944,689.485948,2812.782580,8364.327145
2528.674273,1455.581446,370.102971,10658.965565
2528.674602,2987.772442,-0.000000,7846.182985
2528.674931,5132.839837,666.185348,7476.080014
2528.675261,5362.668486,1036.288319,6217.729913
2528.675590,4443.353888,1110.308913,6957.935855
2528.675919,4290.134789,2072.576638,8142.265362
2528.676248,3447.429741,2368.659014,6735.874072
2528.676577,1915.238745,814.226536,8068.244768
2528.676906,-919.314598,-592.164754,9696.697840
2528.677235,-2681.334243,-1998.556043,10362.883188
2528.677565,-3370.820191,-4589.276840,12583.501014
2528.677894,-3677.258390,-4441.235652,10732.986159
2528.678223,-3677.258390,-3552.988522,10732.986159
2528.678552,-2987.772442,-3627.009116,11695.253884
2528.678881,-2757.943793,-592.164754,9992.780217
2528.679210,-1838.629195,370.102971,10288.862594
2528.679539,-306.438199,1480.411884,9104.533087
2528.679869,0.000000,3330.926739,7624.121203
2528.680198,1762.019645,1110.308913,10584.944971
2528.680527,3524.039291,518.144159,8734.430116
2528.680856,4826.401637,814.226536,6957.935855
2528.681185,5669.106685,1406.391290,6439.791695
2528.681514,5209.449386,666.185348,6513.812290
2528.681843,4903.011187,1850.514855,7994.224174
2528.682173,3830.477490,2368.659014,6513.812290
2528.682502,2757.943793,1406.391290,7624.121203
2528.682831,-229.828649,-740.205942,9918.759623
2528.683160,-2528.115143,-1184.329507,9622.677246
2528.683489,-3600.648841,-3775.050304,11547.212695
2528.683818,-4443.353888,-4293.194464,11103.089130
2528.684147,-3753.867940,-3997.112087,10362.883188
2528.684476,-4060.306139,-4071.132681,11547.212695
2528.684806,-3294.210641,-1554.432478,10362.883188
2528.685135,-2374.896044,-0.000000,9622.677246
2528.685464,-459.657299,592.164754,9326.594869
2528.685793,76.609550,3478.967927,7328.038826
2528.686122,766.095498,3256.906145,8142.265362
2528.686451,1915.238745,666.185348,10510.924376
2528.686780,2528.115143,370.102971,7402.059420
2528.687110,4903.011187,740.205942,7402.059420
2528.687439,4749.792088,740.205942,5551.544565
2528.687768,4673.182538,1110.308913,7105.977043
2528.688097,3753.867940,1850.514855,7994.224174
2528.688426,1762.019645,1850.514855,7402.059420
2528.688755,536.266849,-148.041188,9104.533087
2528.689084,-1608.800546,-1036.288319,9622.677246
2528.689414,-3140.991542,-2590.720797,10288.862594
2528.689743,-4060.306139,-4219.173869,12065.356855
2528.690072,-4519.963438,-3478.967927,10658.965565
2528.690401,-3294.210641,-4219.173869,11325.150913
2528.690730,-3370.820191,-2442.679609,11399.171507
2528.691059,-2374.896044,444.123565,10140.821405
2528.691388,-1302.362347,370.102971,9400.615463
2528.691717,-383.047749,1998.556043,8512.368333
2528.692047,536.266849,3034.844362,8290.306550
2528.692376,2298.286494,814.226536,10214.842000
2528.692705,2987.772442,1406.391290,7328.038826
2528.693034,4903.011187,962.267725,7846.182985
2528.693363,4749.792088,1036.288319,6661.853478
2528.693692,4596.572988,962.267725,7031.956449
2528.694021,3983.696590,740.205942,7920.203579
2528.694351,2757.943793,1776.494261,7105.977043
2528.694680,919.314598,518.144159,8364.327145
2528.695009,-995.924147,-370.102971,9548.656652
2528.695338,-3294.210641,-2516.700203,10510.924376
2528.695667,-3524.039291,-3256.906145,11769.274478
2528.695996,-3370.820191,-3627.009116,10066.800811
2528.696325,-3217.601092,-3256.906145,10658.965565
2528.696655,-3140.991542,-2516.700203,10807.006753
2528.696984,-2451.505594,-592.164754,9844.739029
2528.697313,-1532.190996,-74.020594,9918.759623
2528.697642,0.000000,1554.432478,8512.368333
2528.697971,153.219100,2516.700203,7994.224174
2528.698300,612.876398,1702.473667,9548.656652
2528.698629,2604.724693,296.082377,9400.615463
2528.698959,3907.087040,1184.329507,6735.874072
2528.699288,5209.449386,666.185348,7179.997637
2528.699617,3830.477490,-0.000000,6365.771101
2528.699946,5515.887586,962.267725,8438.347739
2528.700275,3524.039291,1332.370696,7698.141797
2528.700604,2451.505594,1110.308913,6883.915261
2528.700933,1149.143247,-0.000000,9104.533087
2528.701262,-919.314598,-666.185348,9252.574275
2528.701592,-2068.457845,-2516.700203,11251.130318
2528.701921,-3294.210641,-4071.132681,10732.986159
2528.702250,-2911.162892,-4145.153275,10881.027347
2528.702579,-3064.381992,-3182.885551,10732.986159
2528.702908,-2528.115143,-1702.473667,11103.089130
2528.703237,-2298.286494,-0.000000,9844.739029
2528.703566,-536.266849,740.205942,9548.656652
2528.703896,0.000000,2886.803174,8364.327145
2528.704225,612.876398,2146.597232,8808.450710
2528.704554,2145.067394,-0.000000,10436.903782
2528.704883,2681.334243,444.123565,7476.080014
2528.705212,5286.058936,740.205942,7402.059420
2528.705541,5132.839837,888.247130,6217.729913
2528.705870,5132.839837,1110.308913,6661.853478
2528.706200,4826.401637,1628.453072,7920.203579
2528.706529,3677.258390,2294.638420,6217.729913
2528.706858,2451.505594,1480.411884,7031.956449
2528.707187,0.000000,-222.061783,8808.450710
2528.707516,-2298.286494,-1406.391290,9918.759623
2528.707845,-3447.429741,-3330.926739,11547.212695
2528.708174,-3064.381992,-4145.153275,11325.150913
2528.708503,-3600.648841,-3849.070898,10288.862594
2528.708833,-4060.306139,-3034.844362,11917.315666
2528.709162,-2757.943793,-666.185348,10510.924376
2528.709491,-2068.457845,370.102971,9992.780217
2528.709820,-766.095498,1332.370696,9400.615463
2528.710149,0.000000,2590.720797,8216.285956
2528.710478,153.219100,1776.494261,9178.553681
2528.710807,153.219100,-0.000000,9622.677246
2528.711137,2374.896044,-1406.391290,10288.862594
2528.711466,3370.820191,222.061783,6661.853478
2528.711795,5439.278036,370.102971,7846.182985
2528.712124,3447.429741,1036.288319,5625.565159
2528.712453,4596.572988,2516.700203,7328.038826
2528.712782,2604.724693,2664.741391,6809.894666
2528.713111,1838.629195,962.267725,7031.956449
2528.713441,76.609550,-814.226536,9992.780217
2528.713770,-1838.629195,-888.247130,9474.636058
2528.714099,-3983.696590,-4737.318029,11917.315666
2528.714428,-4290.134789,-3627.009116,10881.027347
2528.714757,-3064.381992,-3701.029710,10362.883188
2528.715086,-3600.648841,-2516.700203,11177.109724
2528.715415,-2604.724693,-296.082377,10510.924376
2528.715745,-612.876398,1258.350101,10584.944971
2528.716074,-766.095498,444.123565,9400.615463
2528.716403,536.266849,2516.700203,8586.388927
2528.716732,459.657299,962.267725,8808.450710
2528.717061,1685.410096,-444.123565,10807.006753
2528.717390,2911.162892,-518.144159,7920.203579
2528.717719,5592.497135,518.144159,6957.935855
2528.718048,5286.058936,1110.308913,5403.503377
2528.718378,4979.620737,1554.432478,5625.565159
2528.718707,4596.572988,3182.885551,7402.059420
2528.719036,2374.896044,3108.864956,6513.812290
2528.719365,1532.190996,666.185348,7920.203579
2528.719694,-919.314598,-666.185348,9548.656652
2528.720023,-2987.772442,-2664.741391,10362.883188
2528.720352,-3753.867940,-4663.297435,13027.624579
2528.720682,-3907.087040,-3849.070898,10955.047942
2528.721011,-3064.381992,-3997.112087,11103.089130
2528.721340,-3447.429741,-1776.494261,10807.006753
2528.721669,-2451.505594,1110.308913,10288.862594
2528.721998,-1915.238745,962.267725,10214.842000
2528.722327,229.828649,1924.535449,8956.491898
2528.722656,459.657299,2590.720797,9104.533087
2528.722986,612.876398,148.041188,9030.512492
2528.723315,2374.896044,-740.205942,11177.109724
2528.723644,3140.991542,-0.000000,6587.832884
2528.723973,5592.497135,592.164754,7772.162391
2528.724302,4290.134789,1184.329507,5847.626942
2528.724631,5209.449386,1924.535449,7105.977043
2528.724960,3140.991542,2516.700203,7105.977043
2528.725290,1608.800546,1406.391290,7402.059420
2528.725619,-229.828649,-1036.288319,10066.800811
2528.725948,-2834.553343,-1776.494261,10436.903782
2528.726277,-4213.525239,-4145.153275,11991.336260
2528.726606,-4749.792088,-4219.173869,11695.253884
2528.726935,-3447.429741,-2886.803174,10066.800811
2528.727264,-3140.991542,-2368.659014,11103.089130
2528.727593,-2068.457845,592.164754,10362.883188
2528.727923,-919.314598,1776.494261,9252.574275
2528.728252,0.000000,1110.308913,8216.285956
2528.728581,1225.752797,2590.720797,7846.182985
2528.728910,1838.629195,518.144159,9992.780217
2528.729239,2757.943793,370.102971,7920.203579
2528.729568,5132.839837,-0.000000,7624.121203
2528.729897,4979.620737,666.185348,5995.668130
2528.730227,5209.449386,888.247130,6217.729913
2528.730556,5132.839837,1332.370696,7254.018232
2528.730885,4136.915689,1850.514855,6957.935855
2528.731214,2221.676944,1406.391290,8216.285956
2528.731543,-306.438199,-370.102971,9104.533087
2528.731872,-2451.505594,-2146.597232,9770.718434
2528.732201,-3600.648841,-3849.070898,11621.233289
2528.732531,-4060.306139,-4589.276840,11843.295072
2528.732860,-4060.306139,-4145.153275,10584.944971
2528.733189,-3217.601092,-3256.906145,11103.089130
2528.733518,-2451.505594,-888.247130,9918.759623
2528.733847,-1608.800546,888.247130,9622.677246
2528.734176,-536.266849,2220.617826,9104.533087
2528.734505,229.828649,3256.906145,8216.285956
2528.734834,1149.143247,1110.308913,10066.800811
2528.735164,2604.724693,-444.123565,9918.759623
2528.735493,4136.915689,666.185348,7550.100608
2528.735822,4903.011187,518.144159,7105.977043
2528.736151,4519.963438,740.205942,6587.832884
2528.736480,4749.792088,2146.597232,8438.347739
2528.736809,3677.258390,2220.617826,7328.038826
2528.737138,2221.676944,1998.556043,6957.935855
2528.737468,306.438199,296.082377,9252.574275
2528.737797,-1455.581446,-1332.370696,9548.656652
2528.738126,-3064.381992,-3256.906145,11473.192101
2528.738455,-3907.087040,-4367.215058,12065.356855
2528.738784,-3524.039291,-3775.050304,9992.780217
2528.739113,-3600.648841,-3997.112087,11177.109724
2528.739442,-3064.381992,-1258.350101,10362.883188
2528.739772,-1762.019645,370.102971,8956.491898
2528.740101,-689.485948,962.267725,9474.636058
2528.740430,459.657299,3034.844362,8364.327145
2528.740759,689.485948,2220.617826,8660.409521
2528.741088,2604.724693,-0.000000,10510.924376
2528.741417,3370.820191,740.205942,6291.750507
2528.741746,5056.230287,592.164754,7846.182985
2528.742076,4749.792088,962.267725,6365.771101
2528.742405,5286.058936,1702.473667,6735.874072
2528.742734,4060.306139,2368.659014,6809.894666
2528.743063,2757.943793,3034.844362,6291.750507
2528.743392,766.095498,-74.020594,8586.388927
2528.743721,-1991.848295,-1110.308913,9474.636058
2528.744050,-3753.867940,-2960.823768,10955.047942
2528.744379,-4366.744339,-5107.421000,12879.583391
2528.744709,-4213.525239,-4071.132681,10140.821405
2528.745038,-3677.258390,-4145.153275,11991.336260
2528.745367,-3600.648841,-2590.720797,11325.150913
2528.745696,-2451.505594,370.102971,10214.842000
2528.746025,-1532.190996,444.123565,9696.697840
2528.746354,-306.438199,2960.823768,8216.285956
2528.746683,536.266849,3034.844362,8216.285956
2528.747013,919.314598,740.205942,9844.739029
2528.747342,2451.505594,-222.061783,9474.636058
2528.747671,3983.696590,1036.288319,6439.791695
2528.748000,5056.230287,666.185348,6439.791695
2528.748329,3677.258390,962.267725,5773.606348
2528.748658,4826.401637,1998.556043,8512.368333
2528.748987,3064.381992,2072.576638,6957.935855
2528.749317,1225.752797,1406.391290,7402.059420
2528.749646,-612.876398,-518.144159,9918.759623
2528.749975,-2834.553343,-1554.432478,9622.677246
2528.750304,-3447.429741,-3997.112087,12435.459826
2528.750633,-4060.306139,-3478.967927,10807.006753
2528.750962,-2451.505594,-3256.906145,10807.006753
2528.751291,-3064.381992,-3034.844362,11325.150913
2528.751621,-2374.896044,444.123565,10140.821405
2528.751950,-1685.410096,1332.370696,10066.800811
2528.752279,-306.438199,962.267725,8882.471304
2528.752608,229.828649,3701.029710,7772.162391
2528.752937,612.876398,1184.329507,9696.697840
2528.753266,1532.190996,-444.123565,10584.944971
2528.753595,2911.162892,-222.061783,7402.059420
2528.753924,5515.887586,-74.020594,7994.224174
2528.754254,4903.011187,370.102971,5625.565159
2528.754583,4903.011187,888.247130,7328.038826
2528.754912,4366.744339,1554.432478,7550.100608
2528.755241,2604.724693,2738.761985,6957.935855
2528.755570,842.705048,-0.000000,9548.656652
2528.755899,-1225.752797,-1036.288319,9918.759623
2528.756228,-3140.991542,-3330.926739,11621.233289
2528.756558,-4060.306139,-4145.153275,11991.336260
2528.756887,-3447.429741,-3478.967927,10066.800811
2528.757216,-3064.381992,-3404.947333,11843.295072
2528.757545,-2681.334243,-1776.494261,10658.965565
2528.757874,-1532.190996,962.267725,9770.718434
2528.758203,-1149.143247,-0.000000,9992.780217
2528.758532,76.609550,2368.659014,8142.265362
2528.758862,459.657299,2960.823768,7920.203579
2528.759191,995.924147,-74.020594,10584.944971
2528.759520,1838.629195,-0.000000,7846.182985
2528.759849,4519.963438,-0.000000,7920.203579
2528.760178,4673.182538,-222.061783,5847.626942
2528.760507,4213.525239,1110.308913,6365.771101
2528.760836,4826.401637,1110.308913,7920.203579
2528.761166,3217.601092,2516.700203,6735.874072
2528.761495,2451.505594,1184.329507,7920.203579
2528.761824,76.609550,-444.123565,9474.636058
2528.762153,-2145.067394,-1184.329507,9326.594869
2528.762482,-3294.210641,-3256.906145,11547.212695
2528.762811,-3217.601092,-3478.967927,10807.006753
2528.763140,-2834.553343,-3330.926739,10288.862594
2528.763470,-2451.505594,-2442.679609,11103.089130
2528.763799,-2221.676944,-814.226536,9474.636058
2528.764128,-1302.362347,740.205942,9770.718434
2528.764457,0.000000,1332.370696,8660.409521
2528.764786,459.657299,2516.700203,8142.265362
2528.765115,1455.581446,518.144159,10288.862594
2528.765445,2374.896044,-0.000000,8734.430116
2528.765774,4596.572988,-0.000000,7772.162391
2528.766103,5439.278036,296.082377,7105.977043
2528.766432,4903.011187,814.226536,7105.977043
2528.766761,4826.401637,1184.329507,7994.224174
2528.767090,3524.039291,2368.659014,7105.977043
2528.767419,2221.676944,1924.535449,7920.203579
2528.767749,-459.657299,-74.020594,9548.656652
2528.768078,-2298.286494,-2072.576638,10066.800811
2528.768407,-3677.258390,-3256.906145,11843.295072
2528.768736,-3140.991542,-4589.276840,11325.150913
2528.769065,-4060.306139,-3478.967927,9622.677246
2528.769394,-3677.258390,-3552.988522,11769.274478
2528.769723,-2987.772442,-962.267725,10140.821405
2528.770053,-1608.800546,-0.000000,10140.821405
2528.770382,-842.705048,1406.391290,9770.718434
2528.770711,0.000000,2368.659014,8142.265362
2528.771040,-153.219100,1924.535449,8512.368333
2528.771369,1455.581446,296.082377,10658.965565
2528.771698,2451.505594,296.082377,7402.059420
2528.772028,4826.401637,370.102971,7920.203579
2528.772357,4749.792088,888.247130,5847.626942
2528.772686,4826.401637,1110.308913,6735.874072
2528.773015,2911.162892,1480.411884,7920.203579
2528.773344,2451.505594,2516.700203,6365.771101
2528.773673,1225.752797,-74.020594,8660.409521
2528.774002,-1149.143247,-592.164754,9474.636058
2528.774332,-2757.943793,-2442.679609,10066.800811
2528.774661,-3217.601092,-4145.153275,11843.295072
2528.774990,-2911.162892,-3923.091493,9770.718434
2528.775319,-3064.381992,-3701.029710,11103.089130
2528.775648,-3140.991542,-1998.556043,10807.006753
2528.775977,-2604.724693,592.164754,9770.718434
2528.776307,-1608.800546,-0.000000,10140.821405
2528.776636,-153.219100,2072.576638,8438.347739
2528.776965,76.609550,2738.761985,8142.265362
2528.777294,1838.629195,-0.000000,11103.089130
2528.777623,2757.943793,-0.000000,8216.285956
2528.777952,5209.449386,592.164754,7698.141797
2528.778281,5286.058936,1036.288319,6439.791695
2528.778611,4596.572988,1628.453072,6735.874072
2528.778940,4366.744339,1554.432478,7698.141797
2528.779269,2987.772442,3034.844362,7031.956449
2528.779598,1762.019645,1036.288319,7920.203579
2528.779927,-536.266849,-1258.350101,9992.780217
2528.780256,-2987.772442,-2220.617826,10510.924376
2528.780585,-3830.477490,-4219.173869,12731.542202
2528.780915,-4060.306139,-3627.009116,10066.800811
2528.781244,-3677.258390,-3775.050304,11325.150913
2528.781573,-4060.306139,-3330.926739,11547.212695
2528.781902,-3217.601092,-148.041188,10288.862594
2528.782231,-2528.115143,888.247130,10955.047942
2528.782560,-1149.143247,1184.329507,8956.491898
2528.782890,536.266849,2886.803174,8290.306550
2528.783219,76.609550,1998.556043,8586.388927
2528.783548,2374.896044,222.061783,10807.006753
2528.783877,2911.162892,740.205942,6439.791695
2528.784206,5592.497135,962.267725,7698.141797
2528.784535,4366.744339,888.247130,5699.585753
2528.784864,4596.572988,2072.576638,7328.038826
2528.785194,3370.820191,1776.494261,7254.018232
2528.785523,1991.848295,1850.514855,7105.977043
2528.785852,459.657299,-814.226536,9696.697840
2528.786181,-1838.629195,-1036.288319,9474.636058
2528.786510,-2911.162892,-3923.091493,11473.192101
2528.786839,-3294.210641,-4219.173869,11843.295072
2528.787168,-2834.553343,-2590.720797,9918.759623
2528.787498,-2757.943793,-3034.844362,11547.212695
2528.787827,-2604.724693,-1332.370696,10658.965565
2528.788156,-1455.581446,1406.391290,9770.718434
2528.788485,-919.314598,370.102971,9252.574275
2528.788814,0.000000,1924.535449,7772.162391
2528.789143,76.609550,1332.370696,9918.759623
2528.789473,1762.019645,-592.164754,10955.047942
2528.789802,2528.115143,-0.000000,7550.100608
2528.790131,5362.668486,-0.000000,8290.306550
2528.790460,4903.011187,740.205942,5625.565159
2528.790789,4826.401637,888.247130,7254.018232
2528.791118,4060.306139,1184.329507,7624.121203
2528.791447,2987.772442,2664.741391,7105.977043
2528.791777,1991.848295,592.164754,8882.471304
2528.792106,0.000000,-148.041188,8956.491898
2528.792435,-2221.676944,-2294.638420,10510.924376
2528.792764,-3294.210641,-3108.864956,11251.130318
2528.793093,-2451.505594,-3552.988522,10732.986159
2528.793422,-2987.772442,-3034.844362,9992.780217
2528.793751,-2528.115143,-2516.700203,11251.130318
2528.794081,-2145.067394,296.082377,9696.697840
2528.794410,-1685.410096,666.185348,9474.636058
2528.794739,-459.657299,2072.576638,8586.388927
2528.795068,0.000000,2664.741391,8438.347739
2528.795397,612.876398,592.164754,9104.533087
2528.795726,842.705048,-1258.350101,10732.986159
2528.796056,2068.457845,-1110.308913,9178.553681
2528.796385,3907.087040,-148.041188,7550.100608
2528.796714,4596.572988,444.123565,6439.791695
2528.797043,4366.744339,1258.350101,7105.977043
2528.797372,4213.525239,2368.659014,7476.080014
2528.797701,3294.210641,2960.823768,7105.977043
