#time,accel_x,accel_y,accel_z
2382.372118,383.047749,-0.000000,9104.533087
2382.372447,536.266849,148.041188,8882.471304
2382.372776,459.657299,-222.061783,9104.533087
2382.373105,76.609550,-370.102971,9030.512492
2382.373435,229.828649,-444.123565,9104.533087
2382.373764,76.609550,-296.082377,9104.533087
2382.374093,76.609550,-518.144159,8882.471304
2382.374422,306.438199,-222.061783,9252.574275
2382.374751,306.438199,-0.000000,9178.553681
2382.375080,536.266849,-222.061783,8956.491898
2382.375409,612.876398,-148.041188,8956.491898
2382.375739,689.485948,-0.000000,9178.553681
2382.376068,536.266849,148.041188,8734.430116
2382.376397,612.876398,-0.000000,8808.450710
2382.376726,383.047749,-0.000000,8956.491898
2382.377055,76.609550,-0.000000,9030.512492
2382.377384,229.828649,-296.082377,9178.553681
2382.377713,0.000000,-740.205942,9326.594869
2382.378042,229.828649,-666.185348,9178.553681
2382.378372,229.828649,-666.185348,8882.471304
2382.378701,229.828649,-296.082377,9252.574275
2382.379030,229.828649,-148.041188,9178.553681
2382.379359,612.876398,-222.061783,9030.512492
2382.379688,306.438199,-148.041188,9178.553681
2382.380017,383.047749,-74.020594,8956.491898
2382.380346,766.095498,148.041188,9030.512492
2382.380676,689.485948,-444.123565,9326.594869
2382.381005,612.876398,-296.082377,9400.615463
2382.381334,229.828649,-148.041188,9326.594869
2382.381663,76.609550,-222.061783,9252.574275
2382.381992,306.438199,-222.061783,9252.574275
2382.382321,229.828649,-222.061783,9030.512492
2382.382650,536.266849,-148.041188,9474.636058
2382.382980,459.657299,-148.041188,9252.574275
2382.383309,612.876398,-0.000000,9178.553681
2382.383638,383.047749,-0.000000,9030.512492
2382.383967,536.266849,-0.000000,8882.471304
2382.384296,689.485948,-0.000000,9030.512492
2382.384625,536.266849,-74.020594,8956.491898
2382.384954,229.828649,-0.000000,8956.491898
2382.385283,-153.219100,-222.061783,8956.491898
2382.385613,536.266849,-148.041188,9252.574275
2382.385942,306.438199,-444.123565,8734.430116
2382.386271,153.219100,-148.041188,8734.430116
2382.386600,306.438199,-148.041188,9030.512492
2382.386929,153.219100,-148.041188,8882.471304
2382.387258,229.828649,-296.082377,8808.450710
2382.387587,383.047749,-222.061783,8882.471304
2382.387917,459.657299,-370.102971,9178.553681
2382.388246,536.266849,-148.041188,9178.553681
2382.388575,383.047749,-74.020594,8956.491898
2382.388904,383.047749,-0.000000,9030.512492
2382.389233,306.438199,-148.041188,9104.533087
2382.389562,306.438199,-296.082377,9104.533087
2382.389891,459.657299,-666.185348,9400.615463
2382.390221,459.657299,-370.102971,8438.347739
2382.390550,536.266849,-74.020594,9400.615463
2382.390879,306.438199,-74.020594,9030.512492
2382.391208,229.828649,-222.061783,9178.553681
2382.391537,459.657299,-148.041188,9104.533087
2382.391866,306.438199,-74.020594,9252.574275
2382.392195,229.828649,-370.102971,9104.533087
2382.392524,766.095498,-518.144159,8808.450710
2382.392854,383.047749,-0.000000,9400.615463
2382.393183,459.657299,-222.061783,9030.512492
2382.393512,383.047749,-74.020594,9252.574275
2382.393841,459.657299,-74.020594,9252.574275
2382.394170,383.047749,-222.061783,9178.553681
2382.394499,0.000000,-148.041188,9178.553681
2382.394828,306.438199,-0.000000,8956.491898
2382.395158,536.266849,-222.061783,9178.553681
2382.395487,229.828649,-0.000000,8882.471304
2382.395816,306.438199,-0.000000,8956.491898
2382.396145,229.828649,-74.020594,9030.512492
2382.396474,-153.219100,-0.000000,8956.491898
2382.396803,0.000000,-0.000000,9104.533087
2382.397132,0.000000,222.061783,9178.553681
2382.397461,383.047749,-148.041188,8882.471304
2382.397791,76.609550,-0.000000,9030.512492
2382.398120,383.047749,-0.000000,8882.471304
2382.398449,383.047749,-0.000000,8882.471304
2382.398778,153.219100,-0.000000,9030.512492
2382.399107,766.095498,-296.082377,8660.409521
2382.399436,383.047749,222.061783,9474.636058
2382.399765,536.266849,-666.185348,9030.512492
2382.400095,229.828649,-222.061783,8882.471304
2382.400424,153.219100,-222.061783,9178.553681
2382.400753,612.876398,-888.247130,9770.718434
2382.401082,1302.362347,-962.267725,9474.636058
2382.401411,1915.238745,-814.226536,9844.739029
2382.401740,1838.629195,-814.226536,9548.656652
2382.402069,2145.067394,-444.123565,8882.471304
2382.402399,2987.772442,296.082377,8956.491898
2382.402728,3677.258390,-0.000000,9104.533087
2382.403057,4213.525239,-0.000000,8734.430116
2382.403386,3294.210641,-0.000000,8808.450710
2382.403715,2987.772442,1110.308913,8512.368333
2382.404044,2374.896044,-296.082377,9178.553681
2382.404373,3064.381992,-592.164754,9474.636058
2382.404702,1685.410096,-518.144159,9252.574275
2382.405032,1225.752797,-814.226536,9992.780217
2382.405361,2145.067394,-1998.556043,9770.718434
2382.405690,2681.334243,-370.102971,9252.574275
2382.406019,2604.724693,-592.164754,9770.718434
2382.406348,3677.258390,-1184.329507,9548.656652
2382.406677,3907.087040,-0.000000,8882.471304
2382.407006,5209.449386,962.267725,8660.409521
2382.407336,5592.497135,740.205942,7105.977043
2382.407665,4443.353888,1924.535449,8438.347739
2382.407994,4749.792088,1110.308913,8512.368333
2382.408323,4136.915689,888.247130,6513.812290
2382.408652,2757.943793,592.164754,8290.306550
2382.408981,2145.067394,-518.144159,8808.450710
2382.409310,459.657299,-0.000000,8438.347739
2382.409640,-766.095498,-1184.329507,10066.800811
2382.409969,-612.876398,-1184.329507,9030.512492
2382.410298,-1762.019645,-1258.350101,10288.862594
2382.410627,-1455.581446,-1628.453072,9770.718434
2382.410956,-1302.362347,-740.205942,9696.697840
2382.411285,-536.266849,-518.144159,9548.656652
2382.411614,-306.438199,-370.102971,8512.368333
2382.411943,919.314598,370.102971,9622.677246
2382.412273,766.095498,666.185348,9474.636058
2382.412602,1838.629195,1036.288319,7550.100608
2382.412931,1838.629195,962.267725,9548.656652
2382.413260,2068.457845,1406.391290,8512.368333
2382.413589,1149.143247,-148.041188,8512.368333
2382.413918,1455.581446,370.102971,9252.574275
2382.414247,383.047749,-814.226536,8512.368333
2382.414577,229.828649,-222.061783,9770.718434
2382.414906,-842.705048,-1850.514855,9104.533087
2382.415235,-153.219100,-1332.370696,10066.800811
2382.415564,-1149.143247,-1036.288319,10362.883188
2382.415893,0.000000,-1480.411884,10140.821405
2382.416222,-459.657299,-1406.391290,9622.677246
2382.416551,689.485948,-518.144159,9696.697840
2382.416881,1302.362347,-148.041188,9474.636058
2382.417210,1225.752797,148.041188,8364.327145
2382.417539,2757.943793,1036.288319,9252.574275
2382.417868,2451.505594,592.164754,8216.285956
2382.418197,2451.505594,1998.556043,8438.347739
2382.418526,2604.724693,1258.350101,8216.285956
2382.418855,2145.067394,1332.370696,8142.265362
2382.419184,842.705048,814.226536,7550.100608
2382.419514,612.876398,296.082377,8808.450710
2382.419843,-842.705048,-148.041188,8216.285956
2382.420172,-689.485948,-444.123565,9104.533087
2382.420501,-1225.752797,-370.102971,9474.636058
2382.420830,-1762.019645,-592.164754,9326.594869
2382.421159,-1225.752797,-370.102971,9326.594869
2382.421488,-1455.581446,-888.247130,9474.636058
2382.421818,-1455.581446,-148.041188,9474.636058
2382.422147,-612.876398,-888.247130,10214.842000
2382.422476,-1378.971896,-518.144159,9622.677246
2382.422805,-153.219100,-148.041188,9844.739029
2382.423134,153.219100,-0.000000,10140.821405
2382.423463,459.657299,-148.041188,9770.718434
2382.423792,1302.362347,-0.000000,9474.636058
2382.424121,2145.067394,-0.000000,9178.553681
2382.424451,2374.896044,222.061783,8734.430116
2382.424780,2451.505594,740.205942,9178.553681
2382.425109,2834.553343,370.102971,8586.388927
2382.425438,2221.676944,888.247130,8290.306550
2382.425767,2451.505594,370.102971,8808.450710
2382.426096,1532.190996,370.102971,8734.430116
2382.426425,1455.581446,148.041188,9030.512492
2382.426755,842.705048,-592.164754,9622.677246
2382.427084,689.485948,-222.061783,9030.512492
2382.427413,689.485948,74.020594,9696.697840
2382.427742,306.438199,-518.144159,9400.615463
2382.428071,229.828649,370.102971,8882.471304
2382.428400,459.657299,-0.000000,9326.594869
2382.428729,0.000000,-0.000000,8808.450710
2382.429059,0.000000,-222.061783,8438.347739
2382.429388,536.266849,-962.267725,9178.553681
2382.429717,-842.705048,-518.144159,8586.388927
2382.430046,-229.828649,-740.205942,8956.491898
2382.430375,-612.876398,-1406.391290,9104.533087
2382.430704,-1149.143247,-1258.350101,8808.450710
2382.431033,-766.095498,-1628.453072,9622.677246
2382.431362,-1072.533697,-1554.432478,9178.553681
2382.431692,-766.095498,-1406.391290,9474.636058
2382.432021,-459.657299,-1702.473667,9696.697840
2382.432350,-842.705048,-1332.370696,9548.656652
2382.432679,-459.657299,-814.226536,9326.594869
2382.433008,-536.266849,-962.267725,9104.533087
2382.433337,-383.047749,-518.144159,8734.430116
2382.433666,76.609550,-814.226536,9178.553681
2382.433996,536.266849,-814.226536,8956.491898
2382.434325,0.000000,-296.082377,8956.491898
2382.434654,766.095498,-296.082377,9178.553681
2382.434983,153.219100,-0.000000,8290.306550
2382.435312,76.609550,518.144159,8364.327145
2382.435641,689.485948,444.123565,8956.491898
2382.435970,383.047749,666.185348,8438.347739
2382.436300,919.314598,888.247130,8956.491898
2382.436629,689.485948,370.102971,9030.512492
2382.436958,0.000000,1110.308913,8364.327145
2382.437287,612.876398,962.267725,9178.553681
2382.437616,0.000000,814.226536,8660.409521
2382.437945,-229.828649,962.267725,8512.368333
2382.438274,459.657299,740.205942,9474.636058
2382.438603,0.000000,-0.000000,9178.553681
2382.438933,-153.219100,222.061783,9400.615463
2382.439262,0.000000,-370.102971,9770.718434
2382.439591,0.000000,-222.061783,9474.636058
2382.439920,459.657299,-296.082377,9844.739029
2382.440249,306.438199,-518.144159,9622.677246
2382.440578,766.095498,-74.020594,9622.677246
2382.440907,1762.019645,-370.102971,9918.759623
2382.441237,1685.410096,-0.000000,9622.677246
2382.441566,2834.553343,1258.350101,8882.471304
2382.441895,2834.553343,592.164754,9178.553681
2382.442224,2528.115143,1036.288319,8808.450710
2382.442553,2911.162892,1036.288319,8734.430116
2382.442882,2834.553343,-0.000000,8956.491898
2382.443211,1991.848295,592.164754,8586.388927
2382.443540,1455.581446,296.082377,9622.677246
2382.443870,1225.752797,-962.267725,9252.574275
2382.444199,76.609550,-296.082377,8734.430116
2382.444528,229.828649,-962.267725,9770.718434
2382.444857,-689.485948,-888.247130,9400.615463
2382.445186,-612.876398,-592.164754,8882.471304
2382.445515,-459.657299,-1258.350101,9770.718434
2382.445844,-1532.190996,-296.082377,9104.533087
2382.446174,0.000000,-1036.288319,9474.636058
2382.446503,-612.876398,-814.226536,9252.574275
2382.446832,-383.047749,-370.102971,8882.471304
2382.447161,76.609550,-592.164754,9326.594869
2382.447490,-842.705048,-1184.329507,9030.512492
2382.447819,-383.047749,-1184.329507,9104.533087
2382.448148,229.828649,-1702.473667,9326.594869
2382.448477,-919.314598,-1110.308913,8882.471304
2382.448806,0.000000,-1036.288319,9104.533087
2382.449136,0.000000,-1184.329507,9030.512492
2382.449465,-306.438199,-740.205942,8438.347739
2382.449794,306.438199,-888.247130,9178.553681
2382.450123,-229.828649,-1184.329507,8956.491898
2382.450452,-153.219100,-222.061783,8290.306550
2382.450781,-153.219100,-370.102971,9030.512492
2382.451110,-306.438199,-0.000000,8142.265362
2382.451439,0.000000,-0.000000,8512.368333
2382.451768,306.438199,-0.000000,8364.327145
2382.452097,153.219100,592.164754,8290.306550
2382.452426,612.876398,-0.000000,8512.368333
2382.452755,76.609550,-148.041188,8068.244768
2382.453084,0.000000,148.041188,8216.285956
2382.453414,306.438199,222.061783,8882.471304
2382.453743,0.000000,-0.000000,8290.306550
2382.454072,0.000000,444.123565,8586.388927
2382.454401,306.438199,-0.000000,9104.533087
2382.454730,0.000000,370.102971,8660.409521
2382.455059,0.000000,370.102971,9400.615463
2382.455388,153.219100,-0.000000,9474.636058
2382.455717,-306.438199,444.123565,9104.533087
2382.456046,229.828649,-0.000000,9844.739029
2382.456375,0.000000,-0.000000,9548.656652
2382.456704,536.266849,296.082377,9474.636058
2382.457033,919.314598,-370.102971,10066.800811
2382.457363,842.705048,-518.144159,9992.780217
2382.457692,1072.533697,296.082377,10140.821405
2382.458021,1608.800546,-0.000000,10140.821405
2382.458350,1302.362347,148.041188,9400.615463
2382.458679,2068.457845,370.102971,10140.821405
2382.459008,1685.410096,222.061783,9696.697840
2382.459337,2298.286494,814.226536,9104.533087
2382.459666,3217.601092,592.164754,9770.718434
2382.459995,2298.286494,518.144159,8882.471304
2382.460324,2145.067394,962.267725,8956.491898
2382.460653,2068.457845,592.164754,9326.594869
2382.460982,1149.143247,444.123565,8734.430116
2382.461311,995.924147,592.164754,9400.615463
2382.461641,-153.219100,-0.000000,9474.636058
2382.461970,153.219100,-148.041188,9400.615463
2382.462299,-459.657299,-74.020594,9622.677246
2382.462628,-1149.143247,-814.226536,9474.636058
2382.462957,-842.705048,-592.164754,8956.491898
2382.463286,-536.266849,-814.226536,9104.533087
2382.463615,-995.924147,-1110.308913,9030.512492
2382.463944,0.000000,-1110.308913,9104.533087
2382.464273,229.828649,-1184.329507,9178.553681
2382.464602,-689.485948,-1110.308913,9178.553681
2382.464931,0.000000,-1406.391290,9104.533087
2382.465260,0.000000,-1406.391290,8956.491898
2382.465590,-383.047749,-666.185348,8438.347739
2382.465919,229.828649,-1110.308913,8882.471304
2382.466248,-306.438199,-1258.350101,8216.285956
2382.466577,-383.047749,-888.247130,8438.347739
2382.466906,306.438199,-1406.391290,8512.368333
2382.467235,-536.266849,-740.205942,7920.203579
2382.467564,153.219100,-740.205942,8216.285956
2382.467893,153.219100,-1184.329507,8216.285956
2382.468222,0.000000,-444.123565,7624.121203
2382.468551,0.000000,-814.226536,8512.368333
2382.468880,229.828649,-222.061783,8364.327145
2382.469209,-153.219100,370.102971,8068.244768
2382.469538,536.266849,-0.000000,8808.450710
2382.469868,-229.828649,-0.000000,8364.327145
2382.470197,229.828649,370.102971,8586.388927
2382.470526,0.000000,370.102971,8512.368333
2382.470855,-383.047749,592.164754,8660.409521
2382.471184,0.000000,518.144159,8956.491898
2382.471513,0.000000,-0.000000,8882.471304
2382.471842,-612.876398,296.082377,9104.533087
2382.472171,0.000000,-0.000000,9326.594869
2382.472500,-306.438199,-0.000000,9474.636058
2382.472829,0.000000,-0.000000,9696.697840
2382.473158,76.609550,-518.144159,9992.780217
2382.473487,-153.219100,-74.020594,9844.739029
2382.473817,689.485948,-0.000000,10140.821405
2382.474146,536.266849,-444.123565,10584.944971
2382.474475,612.876398,296.082377,10510.924376
2382.474804,1149.143247,-296.082377,10732.986159
2382.475133,1915.238745,-0.000000,9844.739029
2382.475462,2451.505594,1332.370696,9252.574275
2382.475791,3524.039291,1258.350101,9326.594869
2382.476120,3217.601092,1258.350101,8438.347739
2382.476449,3370.820191,1702.473667,8956.491898
2382.476778,2451.505594,962.267725,8734.430116
2382.477107,1762.019645,1036.288319,8438.347739
2382.477436,1455.581446,740.205942,9548.656652
2382.477765,383.047749,-370.102971,9326.594869
2382.478095,-383.047749,-518.144159,9622.677246
2382.478424,-383.047749,-1258.350101,9844.739029
2382.478753,-536.266849,-962.267725,9326.594869
2382.479082,-459.657299,-1184.329507,9474.636058
2382.479411,-153.219100,-814.226536,9770.718434
2382.479740,-766.095498,-296.082377,9104.533087
2382.480069,0.000000,-296.082377,9474.636058
2382.480398,-383.047749,-666.185348,9252.574275
2382.480727,-306.438199,-666.185348,8660.409521
2382.481056,153.219100,-1036.288319,9178.553681
2382.481385,0.000000,-1110.308913,8734.430116
2382.481714,0.000000,-1406.391290,8438.347739
2382.482044,536.266849,-1110.308913,8808.450710
2382.482373,-153.219100,-1258.350101,8364.327145
2382.482702,229.828649,-518.144159,8142.265362
2382.483031,0.000000,-1406.391290,8586.388927
2382.483360,229.828649,-1184.329507,7994.224174
2382.483689,612.876398,-592.164754,8438.347739
2382.484018,0.000000,-1406.391290,8438.347739
2382.484347,-153.219100,-518.144159,7994.224174
2382.484676,383.047749,-148.041188,8882.471304
2382.485005,-153.219100,-518.144159,8216.285956
2382.485334,229.828649,296.082377,7920.203579
2382.485663,229.828649,-74.020594,8660.409521
2382.485992,0.000000,296.082377,7920.203579
2382.486322,383.047749,-0.000000,8512.368333
2382.486651,76.609550,148.041188,8364.327145
2382.486980,-153.219100,740.205942,7994.224174
2382.487309,306.438199,370.102971,8512.368333
2382.487638,0.000000,-0.000000,8660.409521
2382.487967,-153.219100,222.061783,8586.388927
2382.488296,153.219100,-74.020594,9326.594869
2382.488625,0.000000,-74.020594,9400.615463
2382.488954,-153.219100,-0.000000,9326.594869
2382.489283,0.000000,-0.000000,9844.739029
2382.489612,-459.657299,-74.020594,9622.677246
2382.489941,229.828649,-0.000000,9696.697840
2382.490271,-229.828649,-444.123565,10214.842000
2382.490600,-153.219100,-148.041188,10214.842000
2382.490929,1149.143247,-0.000000,10584.944971
2382.491258,612.876398,-74.020594,9992.780217
2382.491587,1455.581446,148.041188,9918.759623
2382.491916,2068.457845,-0.000000,9844.739029
2382.492245,1762.019645,-0.000000,9474.636058
2382.492574,2604.724693,592.164754,9474.636058
2382.492903,2451.505594,962.267725,9474.636058
2382.493232,2374.896044,1110.308913,8734.430116
2382.493561,2451.505594,1110.308913,9474.636058
2382.493890,1532.190996,592.164754,8956.491898
2382.494219,1455.581446,740.205942,8882.471304
2382.494549,1532.190996,296.082377,9400.615463
2382.494878,689.485948,370.102971,8734.430116
2382.495207,153.219100,-0.000000,8956.491898
2382.495536,-383.047749,-370.102971,9622.677246
2382.495865,-919.314598,-444.123565,9030.512492
2382.496194,-383.047749,-888.247130,9326.594869
2382.496523,-689.485948,-962.267725,9400.615463
2382.496852,-536.266849,-888.247130,9104.533087
2382.497181,306.438199,-1184.329507,9178.553681
2382.497510,-612.876398,-1258.350101,9252.574275
2382.497839,-306.438199,-814.226536,8956.491898
2382.498168,0.000000,-888.247130,8956.491898
2382.498498,0.000000,-740.205942,8290.306550
2382.498827,76.609550,-666.185348,8734.430116
2382.499156,229.828649,-1184.329507,8586.388927
2382.499485,612.876398,-592.164754,8438.347739
2382.499814,842.705048,-740.205942,8586.388927
2382.500143,612.876398,-740.205942,7994.224174
2382.500472,459.657299,-296.082377,7846.182985
2382.500801,306.438199,-518.144159,8364.327145
2382.501130,-229.828649,-592.164754,8142.265362
2382.501459,0.000000,-740.205942,8438.347739
2382.501788,0.000000,-1110.308913,8882.471304
2382.502117,-919.314598,-518.144159,8660.409521
2382.502446,-1225.752797,-518.144159,8956.491898
2382.502776,-766.095498,-444.123565,8808.450710
2382.503105,-383.047749,-0.000000,8586.388927
2382.503434,0.000000,-0.000000,9104.533087
2382.503763,0.000000,222.061783,8438.347739
2382.504092,229.828649,666.185348,8882.471304
2382.504421,-306.438199,222.061783,8882.471304
2382.504750,-612.876398,296.082377,8734.430116
2382.505079,-306.438199,592.164754,9104.533087
2382.505408,-229.828649,-0.000000,9104.533087
2382.505737,-766.095498,296.082377,8956.491898
2382.506066,76.609550,-74.020594,9918.759623
2382.506395,-306.438199,-370.102971,9918.759623
2382.506725,-306.438199,-0.000000,9918.759623
2382.507054,76.609550,-296.082377,10732.986159
2382.507383,-153.219100,-444.123565,9992.780217
2382.507712,383.047749,-0.000000,9992.780217
2382.508041,1149.143247,-296.082377,10584.944971
2382.508370,1838.629195,222.061783,9548.656652
2382.508699,2528.115143,518.144159,9548.656652
2382.509028,2681.334243,296.082377,9326.594869
2382.509357,3447.429741,1480.411884,8660.409521
2382.509686,3370.820191,1480.411884,9252.574275
2382.510015,2911.162892,1184.329507,8586.388927
2382.510344,2834.553343,962.267725,8512.368333
2382.510673,2145.067394,148.041188,8956.491898
2382.511003,919.314598,-296.082377,8734.430116
2382.511332,1072.533697,-518.144159,9400.615463
2382.511661,383.047749,-1184.329507,9622.677246
2382.511990,-612.876398,-888.247130,9474.636058
2382.512319,-229.828649,-888.247130,9622.677246
2382.512648,-995.924147,-888.247130,9474.636058
2382.512977,-536.266849,-518.144159,9030.512492
2382.513306,0.000000,-740.205942,9474.636058
2382.513635,0.000000,-518.144159,9400.615463
2382.513964,0.000000,-814.226536,9252.574275
2382.514293,153.219100,-888.247130,9400.615463
2382.514622,0.000000,-592.164754,8586.388927
2382.514952,76.609550,-740.205942,8734.430116
2382.515281,0.000000,-888.247130,8734.430116
2382.515610,76.609550,-814.226536,8512.368333
2382.515939,842.705048,-962.267725,9326.594869
2382.516268,0.000000,-888.247130,8660.409521
2382.516597,0.000000,-666.185348,8586.388927
2382.516926,0.000000,-1036.288319,8956.491898
2382.517255,-229.828649,-444.123565,8364.327145
2382.517584,0.000000,-370.102971,8586.388927
2382.517913,-153.219100,-888.247130,8734.430116
2382.518242,-383.047749,-74.020594,8216.285956
2382.518571,229.828649,-0.000000,8660.409521
2382.518900,0.000000,-74.020594,8290.306550
2382.519230,-536.266849,444.123565,7920.203579
2382.519559,0.000000,-74.020594,8290.306550
2382.519888,-306.438199,-0.000000,8438.347739
2382.520217,0.000000,370.102971,8438.347739
2382.520546,76.609550,-0.000000,8660.409521
2382.520875,-153.219100,-0.000000,8512.368333
2382.521204,76.609550,-0.000000,8882.471304
2382.521533,0.000000,-148.041188,8882.471304
2382.521862,-536.266849,370.102971,8882.471304
2382.522191,-306.438199,-0.000000,9622.677246
2382.522520,-689.485948,-74.020594,9252.574275
2382.522849,-229.828649,296.082377,9474.636058
2382.523179,153.219100,-518.144159,10140.821405
2382.523508,-383.047749,-0.000000,9696.697840
2382.523837,153.219100,-444.123565,10362.883188
2382.524166,612.876398,-296.082377,10214.842000
2382.524495,459.657299,-148.041188,9918.759623
2382.524824,1455.581446,-0.000000,10288.862594
2382.525153,1455.581446,-0.000000,9770.718434
2382.525482,2145.067394,-0.000000,9548.656652
2382.525811,2834.553343,962.267725,9548.656652
2382.526140,2681.334243,592.164754,9326.594869
2382.526469,2451.505594,888.247130,9104.533087
2382.526798,2451.505594,888.247130,9326.594869
2382.527127,1762.019645,814.226536,8808.450710
2382.527457,1608.800546,740.205942,9030.512492
2382.527786,1149.143247,222.061783,9030.512492
2382.528115,459.657299,-0.000000,8808.450710
2382.528444,306.438199,-148.041188,9474.636058
2382.528773,-306.438199,-296.082377,9326.594869
2382.529102,-612.876398,-592.164754,9104.533087
2382.529431,-306.438199,-1036.288319,9548.656652
2382.529760,-842.705048,-962.267725,8956.491898
2382.530089,-229.828649,-962.267725,9178.553681
2382.530418,-229.828649,-1480.411884,9178.553681
2382.530747,-536.266849,-888.247130,8660.409521
2382.531076,0.000000,-740.205942,9326.594869
2382.531406,0.000000,-962.267725,8808.450710
2382.531735,229.828649,-814.226536,8512.368333
2382.532064,689.485948,-740.205942,9030.512492
2382.532393,229.828649,-814.226536,8142.265362
2382.532722,842.705048,-888.247130,8068.244768
2382.533051,459.657299,-1036.288319,8586.388927
2382.533380,153.219100,-370.102971,7994.224174
2382.533709,306.438199,-444.123565,8290.306550
2382.534038,0.000000,-740.205942,8364.327145
2382.534367,-383.047749,-592.164754,8068.244768
2382.534696,153.219100,-666.185348,9030.512492
2382.535025,-842.705048,-1184.329507,8660.409521
2382.535354,-689.485948,-222.061783,8734.430116
2382.535684,0.000000,-740.205942,8808.450710
2382.536013,-229.828649,-444.123565,8512.368333
2382.536342,0.000000,-0.000000,8808.450710
2382.536671,76.609550,-74.020594,8882.471304
2382.537000,0.000000,666.185348,8734.430116
2382.537329,689.485948,814.226536,9326.594869
2382.537658,459.657299,518.144159,7994.224174
2382.537987,76.609550,962.267725,8364.327145
2382.538316,459.657299,592.164754,9104.533087
2382.538645,-306.438199,962.267725,8956.491898
2382.538974,0.000000,370.102971,9030.512492
2382.539303,-536.266849,-0.000000,9992.780217
2382.539633,-536.266849,-296.082377,10066.800811
2382.539962,-306.438199,-444.123565,10214.842000
2382.540291,-459.657299,-740.205942,10214.842000
2382.540620,-383.047749,-370.102971,10066.800811
2382.540949,383.047749,-370.102971,10658.965565
2382.541278,76.609550,-0.000000,10510.924376
2382.541607,306.438199,-0.000000,10066.800811
2382.541936,2068.457845,-74.020594,10658.965565
2382.542265,2068.457845,666.185348,9178.553681
2382.542594,3294.210641,1480.411884,9030.512492
2382.542923,2987.772442,1258.350101,8808.450710
2382.543252,2681.334243,1850.514855,8364.327145
2382.543581,3064.381992,1406.391290,8586.388927
2382.543911,2451.505594,962.267725,8290.306550
2382.544240,1455.581446,888.247130,8142.265362
2382.544569,1072.533697,-74.020594,9178.553681
2382.544898,-536.266849,-888.247130,8956.491898
2382.545227,-383.047749,-1184.329507,9622.677246
2382.545556,-612.876398,-1406.391290,9844.739029
2382.545885,-1072.533697,-1036.288319,9548.656652
2382.546214,-229.828649,-962.267725,9770.718434
2382.546543,-459.657299,-1036.288319,9474.636058
2382.546872,-153.219100,-888.247130,9326.594869
2382.547201,229.828649,-888.247130,9548.656652
2382.547530,-306.438199,-814.226536,9326.594869
2382.547859,0.000000,-666.185348,8956.491898
2382.548188,229.828649,-1110.308913,9252.574275
2382.548517,0.000000,-1036.288319,8586.388927
2382.548846,766.095498,-814.226536,8438.347739
2382.549175,1149.143247,-1036.288319,8512.368333
2382.549504,612.876398,-518.144159,7920.203579
2382.549833,842.705048,-518.144159,8512.368333
2382.550162,76.609550,-814.226536,7994.224174
2382.550492,0.000000,-444.123565,7994.224174
2382.550821,76.609550,-1036.288319,8734.430116
2382.551150,0.000000,-1036.288319,8364.327145
2382.551479,-229.828649,-592.164754,8068.244768
2382.551808,0.000000,-740.205942,8808.450710
2382.552137,-306.438199,-74.020594,8290.306550
2382.552466,0.000000,-0.000000,8512.368333
2382.552795,0.000000,-0.000000,8364.327145
2382.553124,0.000000,296.082377,8364.327145
2382.553453,383.047749,-0.000000,8586.388927
2382.553782,0.000000,592.164754,8142.265362
2382.554111,0.000000,518.144159,7994.224174
2382.554440,229.828649,222.061783,8660.409521
2382.554769,-229.828649,444.123565,8586.388927
2382.555098,-229.828649,518.144159,8956.491898
2382.555427,0.000000,-370.102971,9252.574275
2382.555756,-689.485948,-296.082377,9474.636058
2382.556085,-536.266849,-0.000000,10510.924376
2382.556414,-689.485948,-444.123565,9844.739029
2382.556743,-459.657299,-74.020594,9770.718434
2382.557072,229.828649,-296.082377,10732.986159
2382.557401,0.000000,-370.102971,10288.862594
2382.557730,0.000000,-74.020594,10362.883188
2382.558059,1762.019645,-296.082377,10362.883188
2382.558388,1225.752797,296.082377,9992.780217
2382.558717,2451.505594,740.205942,10214.842000
2382.559046,2451.505594,666.185348,9400.615463
2382.559375,2221.676944,1258.350101,8882.471304
2382.559704,2528.115143,1184.329507,9474.636058
2382.560033,1991.848295,814.226536,8882.471304
2382.560362,1915.238745,888.247130,8882.471304
2382.560691,1685.410096,592.164754,9770.718434
2382.561020,459.657299,-0.000000,8882.471304
2382.561350,459.657299,-0.000000,9400.615463
2382.561679,76.609550,-370.102971,9474.636058
2382.562008,-766.095498,-222.061783,9178.553681
2382.562337,-536.266849,-592.164754,9622.677246
2382.562666,-919.314598,-888.247130,9474.636058
2382.562995,-766.095498,-666.185348,9178.553681
2382.563324,0.000000,-370.102971,9474.636058
2382.563653,-306.438199,-888.247130,9104.533087
2382.563982,0.000000,-740.205942,8364.327145
2382.564311,459.657299,-740.205942,8734.430116
2382.564640,153.219100,-814.226536,8290.306550
2382.564969,842.705048,-1184.329507,8216.285956
2382.565298,612.876398,-592.164754,8586.388927
2382.565627,612.876398,-814.226536,7994.224174
2382.565956,842.705048,-814.226536,8512.368333
2382.566285,-153.219100,-888.247130,8216.285956
2382.566614,0.000000,-814.226536,8142.265362
2382.566943,-229.828649,-1332.370696,8882.471304
2382.567272,-383.047749,-1332.370696,8438.347739
2382.567601,-229.828649,-1110.308913,8438.347739
2382.567930,-229.828649,-1110.308913,8586.388927
2382.568259,-306.438199,-666.185348,7994.224174
2382.568588,76.609550,-296.082377,8512.368333
2382.568917,0.000000,-296.082377,8438.347739
2382.569246,153.219100,296.082377,8068.244768
2382.569575,842.705048,-222.061783,8438.347739
2382.569904,76.609550,518.144159,8808.450710
2382.570233,76.609550,518.144159,8808.450710
2382.570562,383.047749,444.123565,9400.615463
2382.570891,-229.828649,592.164754,8364.327145
2382.571220,0.000000,518.144159,8734.430116
2382.571549,-306.438199,518.144159,9474.636058
2382.571878,-612.876398,740.205942,9104.533087
2382.572208,-919.314598,-222.061783,9696.697840
2382.572537,-1378.971896,-444.123565,9770.718434
2382.572866,-842.705048,-0.000000,9844.739029
2382.573195,-383.047749,-666.185348,10288.862594
2382.573524,-689.485948,-296.082377,9918.759623
2382.573853,153.219100,-0.000000,10436.903782
2382.574182,766.095498,-222.061783,10658.965565
2382.574511,766.095498,-148.041188,9844.739029
2382.574840,2298.286494,-0.000000,10066.800811
2382.575169,2145.067394,518.144159,9474.636058
2382.575498,2451.505594,1184.329507,9178.553681
2382.575827,2834.553343,1406.391290,9400.615463
2382.576156,2374.896044,962.267725,8808.450710
2382.576485,2451.505594,962.267725,9030.512492
2382.576814,2451.505594,444.123565,9178.553681
2382.577143,995.924147,444.123565,8956.491898
2382.577472,995.924147,148.041188,9474.636058
2382.577801,153.219100,-666.185348,9474.636058
2382.578130,-383.047749,-518.144159,9326.594869
2382.578459,306.438199,-814.226536,9696.697840
2382.578788,-766.095498,-1184.329507,9178.553681
2382.579117,-383.047749,-962.267725,9178.553681
2382.579446,0.000000,-1036.288319,9326.594869
2382.579775,-153.219100,-592.164754,8808.450710
2382.580104,383.047749,-444.123565,9030.512492
2382.580433,306.438199,-740.205942,8882.471304
2382.580762,0.000000,-444.123565,8882.471304
2382.581091,689.485948,-444.123565,9104.533087
2382.581420,459.657299,-1036.288319,8734.430116
2382.581749,76.609550,-740.205942,8438.347739
2382.582078,536.266849,-814.226536,9178.553681
2382.582407,-153.219100,-1184.329507,8808.450710
2382.582736,-153.219100,-740.205942,8290.306550
2382.583066,0.000000,-1332.370696,9178.553681
2382.583395,-612.876398,-1036.288319,8438.347739
2382.583724,-306.438199,-888.247130,8808.450710
2382.584053,-153.219100,-888.247130,8956.491898
2382.584382,0.000000,-518.144159,7994.224174
2382.584711,229.828649,-370.102971,8808.450710
2382.585040,0.000000,-518.144159,8068.244768
2382.585369,459.657299,-0.000000,8068.244768
2382.585698,919.314598,-74.020594,8660.409521
2382.586027,0.000000,-0.000000,7920.203579
2382.586356,766.095498,666.185348,8438.347739
2382.586685,383.047749,296.082377,8512.368333
2382.587014,0.000000,740.205942,8142.265362
2382.587343,229.828649,592.164754,8586.388927
2382.587672,-306.438199,-0.000000,8808.450710
2382.588001,-306.438199,148.041188,8734.430116
2382.588330,-459.657299,222.061783,9326.594869
2382.588659,-306.438199,-666.185348,9104.533087
2382.588988,-689.485948,-0.000000,9548.656652
2382.589317,-306.438199,-370.102971,9992.780217
2382.589646,-689.485948,-296.082377,9770.718434
2382.589975,0.000000,-74.020594,10288.862594
2382.590304,383.047749,-518.144159,10881.027347
2382.590633,919.314598,148.041188,10214.842000
2382.590962,1532.190996,-296.082377,10732.986159
2382.591291,1378.971896,-0.000000,9992.780217
2382.591620,1838.629195,740.205942,9548.656652
2382.591949,2451.505594,518.144159,10214.842000
2382.592278,2374.896044,1036.288319,9400.615463
2382.592607,2834.553343,1258.350101,9178.553681
2382.592936,3217.601092,444.123565,9548.656652
2382.593265,2221.676944,592.164754,8956.491898
2382.593594,1685.410096,592.164754,9326.594869
2382.593924,766.095498,-0.000000,9252.574275
2382.594253,306.438199,148.041188,8956.491898
2382.594582,536.266849,-222.061783,9622.677246
2382.594911,-306.438199,-370.102971,9252.574275
2382.595240,-842.705048,-148.041188,9548.656652
2382.595569,-383.047749,-370.102971,9770.718434
2382.595898,-689.485948,-296.082377,8734.430116
2382.596227,0.000000,-370.102971,9104.533087
2382.596556,-459.657299,-814.226536,8808.450710
2382.596885,0.000000,-740.205942,8512.368333
2382.597214,459.657299,-666.185348,8882.471304
2382.597543,229.828649,-1258.350101,7476.080014
2382.597872,229.828649,-518.144159,8512.368333
2382.598201,306.438199,-740.205942,8734.430116
2382.598530,306.438199,-1110.308913,8068.244768
2382.598859,229.828649,-814.226536,8142.265362
2382.599188,76.609550,-888.247130,8512.368333
2382.599517,-306.438199,-1036.288319,8216.285956
2382.599846,0.000000,-888.247130,8734.430116
2382.600175,0.000000,-1184.329507,8734.430116
2382.600504,-306.438199,-962.267725,8364.327145
2382.600833,306.438199,-518.144159,8956.491898
2382.601162,-536.266849,-592.164754,8808.450710
2382.601491,153.219100,-296.082377,8216.285956
2382.601820,229.828649,-592.164754,8660.409521
2382.602149,0.000000,-74.020594,8290.306550
2382.602478,536.266849,-0.000000,8586.388927
2382.602807,689.485948,-222.061783,8512.368333
2382.603136,-612.876398,222.061783,8586.388927
2382.603465,689.485948,148.041188,8290.306550
2382.603794,76.609550,296.082377,8586.388927
2382.604123,0.000000,666.185348,8438.347739
2382.604452,0.000000,222.061783,9252.574275
2382.604782,-766.095498,148.041188,9104.533087
2382.605111,-229.828649,370.102971,9474.636058
2382.605440,-612.876398,-296.082377,9474.636058
2382.605769,-1072.533697,-222.061783,9400.615463
2382.606098,-459.657299,-74.020594,10066.800811
2382.606427,-689.485948,-444.123565,10140.821405
2382.606756,-459.657299,-74.020594,9770.718434
2382.607085,536.266849,-222.061783,10436.903782
2382.607414,1072.533697,-518.144159,9696.697840
2382.607743,995.924147,222.061783,9918.759623
2382.608072,2221.676944,222.061783,9918.759623
2382.608401,1762.019645,666.185348,9030.512492
2382.608730,2528.115143,1184.329507,9252.574275
2382.609059,2451.505594,666.185348,9326.594869
2382.609388,2298.286494,1258.350101,9104.533087
2382.609717,2528.115143,1110.308913,9548.656652
2382.610046,1838.629195,444.123565,9178.553681
2382.610375,1455.581446,370.102971,8808.450710
2382.610704,1072.533697,-370.102971,9696.697840
2382.611033,153.219100,-444.123565,9252.574275
2382.611362,229.828649,-296.082377,9474.636058
2382.611691,-153.219100,-592.164754,9178.553681
2382.612020,-153.219100,-518.144159,8956.491898
2382.612349,459.657299,-666.185348,9326.594869
2382.612678,0.000000,-518.144159,9178.553681
2382.613007,0.000000,-0.000000,8882.471304
2382.613336,536.266849,-518.144159,9104.533087
2382.613665,0.000000,-518.144159,8734.430116
2382.613994,536.266849,-148.041188,8660.409521
2382.614323,306.438199,-814.226536,9178.553681
2382.614652,-229.828649,-888.247130,8956.491898
2382.614981,0.000000,-1036.288319,9400.615463
2382.615310,0.000000,-1332.370696,9326.594869
2382.615640,-536.266849,-1184.329507,8438.347739
2382.615969,153.219100,-1184.329507,9178.553681
2382.616298,153.219100,-1332.370696,8586.388927
2382.616627,383.047749,-1036.288319,8290.306550
2382.616956,459.657299,-1184.329507,8808.450710
2382.617285,-153.219100,-592.164754,8290.306550
2382.617614,306.438199,-222.061783,8216.285956
2382.617943,229.828649,-592.164754,8290.306550
2382.618272,0.000000,-74.020594,8142.265362
2382.618601,383.047749,-0.000000,8290.306550
2382.618930,-995.924147,-0.000000,8364.327145
2382.619259,-383.047749,-222.061783,8290.306550
2382.619588,153.219100,-74.020594,8734.430116
2382.619917,-459.657299,148.041188,8438.347739
2382.620246,0.000000,370.102971,8512.368333
2382.620575,76.609550,-0.000000,8734.430116
2382.620904,-229.828649,148.041188,8586.388927
2382.621233,-689.485948,1036.288319,9104.533087
2382.621562,229.828649,-148.041188,8808.450710
2382.621891,-306.438199,444.123565,9104.533087
2382.622220,0.000000,222.061783,9474.636058
2382.622549,-153.219100,148.041188,9474.636058
2382.622878,-153.219100,296.082377,9622.677246
2382.623207,0.000000,-296.082377,10732.986159
2382.623536,76.609550,-444.123565,9992.780217
2382.623865,306.438199,74.020594,10584.944971
2382.624194,536.266849,-74.020594,10510.924376
2382.624523,766.095498,-0.000000,9918.759623
2382.624852,1532.190996,-0.000000,10140.821405
2382.625181,1685.410096,148.041188,9918.759623
2382.625510,2451.505594,592.164754,9770.718434
2382.625839,2757.943793,666.185348,9770.718434
2382.626168,2374.896044,1110.308913,9252.574275
2382.626498,2374.896044,1332.370696,9030.512492
2382.626827,2298.286494,740.205942,9326.594869
2382.627156,1302.362347,592.164754,9030.512492
2382.627485,1532.190996,740.205942,9252.574275
2382.627814,689.485948,-296.082377,9400.615463
2382.628143,76.609550,-370.102971,9326.594869
2382.628472,536.266849,-592.164754,9178.553681
2382.628801,-536.266849,-740.205942,9474.636058
2382.629130,-995.924147,-592.164754,8808.450710
2382.629459,-612.876398,-962.267725,9474.636058
2382.629788,-919.314598,-814.226536,8956.491898
2382.630117,-612.876398,-888.247130,9326.594869
2382.630446,-306.438199,-1332.370696,9400.615463
2382.630775,-919.314598,-1110.308913,8660.409521
2382.631104,76.609550,-740.205942,8956.491898
2382.631433,0.000000,-1184.329507,8586.388927
2382.631762,76.609550,-592.164754,8364.327145
2382.632091,766.095498,-592.164754,8808.450710
2382.632420,536.266849,-814.226536,8290.306550
2382.632749,459.657299,-444.123565,7772.162391
2382.633078,689.485948,-888.247130,8586.388927
2382.633407,229.828649,-592.164754,8068.244768
2382.633736,536.266849,-518.144159,8142.265362
2382.634065,0.000000,-1036.288319,8512.368333
2382.634394,-229.828649,-666.185348,8438.347739
2382.634723,76.609550,-1110.308913,9030.512492
2382.635052,-306.438199,-1110.308913,8438.347739
2382.635381,0.000000,-518.144159,8734.430116
2382.635710,0.000000,-222.061783,8956.491898
2382.636039,-459.657299,-0.000000,8512.368333
2382.636368,229.828649,296.082377,8586.388927
2382.636697,306.438199,296.082377,8808.450710
2382.637026,0.000000,444.123565,8512.368333
2382.637356,612.876398,814.226536,8882.471304
2382.637685,612.876398,592.164754,8808.450710
2382.638014,-153.219100,962.267725,8586.388927
2382.638343,0.000000,592.164754,9400.615463
2382.638672,-766.095498,296.082377,9400.615463
2382.639001,-766.095498,-0.000000,9400.615463
2382.639330,-689.485948,-444.123565,10362.883188
2382.639659,-1072.533697,-666.185348,9992.780217
2382.639988,-459.657299,-444.123565,10140.821405
2382.640317,76.609550,-518.144159,10214.842000
2382.640646,0.000000,-222.061783,10140.821405
2382.640975,229.828649,-0.000000,10807.006753
2382.641304,306.438199,-296.082377,10584.944971
2382.641633,1225.752797,444.123565,10066.800811
2382.641962,2451.505594,518.144159,9770.718434
2382.642291,2451.505594,1110.308913,9326.594869
2382.642620,3447.429741,1406.391290,9030.512492
2382.642949,3294.210641,1258.350101,8956.491898
2382.643278,2757.943793,1036.288319,8808.450710
2382.643607,2987.772442,1332.370696,8956.491898
2382.643936,2068.457845,592.164754,8956.491898
2382.644265,995.924147,296.082377,8734.430116
2382.644594,689.485948,-222.061783,9696.697840
2382.644923,-229.828649,-1110.308913,9696.697840
2382.645252,-383.047749,-666.185348,9474.636058
2382.645581,-229.828649,-1406.391290,10140.821405
2382.645910,-1225.752797,-1036.288319,9252.574275
2382.646239,-383.047749,-592.164754,9400.615463
2382.646568,-383.047749,-888.247130,9326.594869
2382.646897,-229.828649,-962.267725,8882.471304
2382.647226,0.000000,-666.185348,9326.594869
2382.647555,0.000000,-518.144159,9030.512492
2382.647884,383.047749,-888.247130,8216.285956
2382.648214,612.876398,-888.247130,9030.512492
2382.648542,306.438199,-1036.288319,8290.306550
2382.648871,383.047749,-888.247130,8512.368333
2382.649200,766.095498,-1258.350101,8586.388927
2382.649529,306.438199,-1110.308913,8216.285956
2382.649858,536.266849,-962.267725,8808.450710
2382.650187,-153.219100,-1554.432478,8586.388927
2382.650516,0.000000,-814.226536,8364.327145
2382.650845,0.000000,-592.164754,8734.430116
2382.651174,-383.047749,-814.226536,8438.347739
2382.651503,-229.828649,-222.061783,8512.368333
2382.651832,0.000000,-518.144159,8660.409521
2382.652161,-536.266849,-148.041188,8068.244768
2382.652489,76.609550,-0.000000,8364.327145
2382.652818,-383.047749,-0.000000,8956.491898
2382.653147,0.000000,148.041188,8068.244768
2382.653476,229.828649,518.144159,8734.430116
2382.653805,0.000000,296.082377,8660.409521
2382.654134,459.657299,666.185348,8364.327145
2382.654463,536.266849,296.082377,9030.512492
2382.654792,-766.095498,592.164754,9030.512492
2382.655121,0.000000,518.144159,8808.450710
2382.655450,153.219100,-0.000000,9400.615463
2382.655779,-383.047749,444.123565,9326.594869
2382.656108,0.000000,-0.000000,9770.718434
2382.656437,-229.828649,-370.102971,10436.903782
2382.656765,0.000000,-74.020594,9918.759623
2382.657094,459.657299,-444.123565,10732.986159
2382.657423,-306.438199,-592.164754,10436.903782
2382.657752,229.828649,-222.061783,10214.842000
2382.658081,1149.143247,-148.041188,10510.924376
2382.658410,1072.533697,-0.000000,9696.697840
2382.658739,2528.115143,592.164754,10214.842000
2382.659068,2451.505594,296.082377,9918.759623
2382.659397,2451.505594,1110.308913,8956.491898
2382.659726,2834.553343,1036.288319,9178.553681
2382.660055,2221.676944,1184.329507,8956.491898
2382.660384,1838.629195,1332.370696,8882.471304
2382.660712,1762.019645,666.185348,9326.594869
2382.661041,919.314598,296.082377,9252.574275
2382.661370,76.609550,-0.000000,9474.636058
2382.661699,0.000000,-296.082377,9622.677246
2382.662028,-689.485948,-592.164754,9030.512492
2382.662357,-689.485948,-444.123565,9696.697840
2382.662686,-842.705048,-888.247130,9400.615463
2382.663015,-1225.752797,-1036.288319,8808.450710
2382.663344,-536.266849,-888.247130,9252.574275
2382.663673,-766.095498,-1480.411884,9030.512492
2382.664002,-459.657299,-666.185348,8734.430116
2382.664331,0.000000,-1554.432478,9030.512492
2382.664659,-383.047749,-814.226536,8586.388927
2382.664988,153.219100,-666.185348,8586.388927
2382.665317,383.047749,-814.226536,8660.409521
2382.665646,76.609550,-666.185348,8068.244768
2382.665975,842.705048,-962.267725,8734.430116
2382.666304,383.047749,-666.185348,8660.409521
2382.666633,612.876398,-592.164754,7846.182985
2382.666962,383.047749,-814.226536,8512.368333
2382.667291,0.000000,-888.247130,8290.306550
2382.667620,229.828649,-592.164754,8438.347739
2382.667949,306.438199,-1110.308913,9104.533087
2382.668278,0.000000,-962.267725,8438.347739
2382.668607,0.000000,-814.226536,8660.409521
2382.668935,0.000000,-296.082377,8956.491898
2382.669264,-229.828649,-0.000000,8438.347739
2382.669593,306.438199,-0.000000,8808.450710
2382.669922,0.000000,222.061783,8660.409521
2382.670251,0.000000,518.144159,8216.285956
2382.670580,153.219100,222.061783,8586.388927
2382.670909,76.609550,592.164754,8364.327145
2382.671238,306.438199,296.082377,8660.409521
2382.671567,-229.828649,222.061783,9178.553681
2382.671896,-919.314598,370.102971,8956.491898
2382.672225,-536.266849,-0.000000,9474.636058
2382.672554,-842.705048,-518.144159,9474.636058
2382.672882,-612.876398,-148.041188,9548.656652
2382.673211,-383.047749,-592.164754,10584.944971
2382.673540,-1225.752797,-296.082377,10436.903782
2382.673869,-229.828649,-222.061783,9918.759623
2382.674198,76.609550,-222.061783,10362.883188
2382.674527,306.438199,-0.000000,10066.800811
2382.674856,2221.676944,296.082377,9992.780217
2382.675185,2298.286494,518.144159,9992.780217
2382.675514,1991.848295,962.267725,8882.471304
2382.675843,3064.381992,1110.308913,9326.594869
2382.676172,2834.553343,1184.329507,8808.450710
2382.676501,2757.943793,1480.411884,8290.306550
2382.676830,2911.162892,888.247130,9178.553681
2382.677158,1685.410096,666.185348,8438.347739
2382.677487,1762.019645,148.041188,8956.491898
2382.677816,842.705048,-592.164754,9400.615463
2382.678145,-153.219100,-666.185348,9030.512492
2382.678474,0.000000,-740.205942,9770.718434
2382.678803,-766.095498,-888.247130,9326.594869
2382.679132,-766.095498,-592.164754,9326.594869
2382.679461,-153.219100,-666.185348,9548.656652
2382.679790,-689.485948,-962.267725,9178.553681
2382.680119,0.000000,-814.226536,9474.636058
2382.680448,-153.219100,-1036.288319,9400.615463
2382.680777,-612.876398,-592.164754,8956.491898
2382.681105,76.609550,-814.226536,9178.553681
2382.681434,229.828649,-962.267725,8882.471304
2382.681763,153.219100,-592.164754,8882.471304
2382.682092,689.485948,-814.226536,8956.491898
2382.682421,612.876398,-1332.370696,8512.368333
2382.682750,383.047749,-814.226536,8142.265362
2382.683079,0.000000,-666.185348,9030.512492
2382.683408,0.000000,-740.205942,8438.347739
2382.683737,0.000000,-444.123565,8364.327145
2382.684066,0.000000,-592.164754,8660.409521
2382.684395,-383.047749,-518.144159,8142.265362
2382.684724,0.000000,-222.061783,8808.450710
2382.685053,-459.657299,-370.102971,8438.347739
2382.685381,-766.095498,-74.020594,8216.285956
2382.685710,153.219100,-0.000000,8734.430116
2382.686039,-383.047749,-0.000000,8512.368333
2382.686368,0.000000,222.061783,8512.368333
2382.686697,153.219100,222.061783,8956.491898
2382.687026,0.000000,592.164754,8216.285956
2382.687355,919.314598,518.144159,8956.491898
2382.687684,842.705048,370.102971,8882.471304
2382.688013,153.219100,666.185348,8586.388927
2382.688342,612.876398,592.164754,9178.553681
2382.688671,-229.828649,296.082377,8882.471304
2382.689000,-153.219100,222.061783,9178.553681
2382.689328,0.000000,-148.041188,9844.739029
2382.689657,-536.266849,-296.082377,9918.759623
2382.689986,459.657299,-666.185348,10436.903782
2382.690315,306.438199,-666.185348,10362.883188
2382.690644,0.000000,-444.123565,10214.842000
2382.690973,689.485948,-518.144159,10584.944971
2382.691302,995.924147,-370.102971,10288.862594
2382.691631,1378.971896,148.041188,9992.780217
2382.691960,1608.800546,370.102971,10214.842000
2382.692289,2451.505594,518.144159,9326.594869
2382.692618,2757.943793,1184.329507,9326.594869
2382.692947,2604.724693,888.247130,9474.636058
2382.693276,2298.286494,1036.288319,8216.285956
2382.693604,2068.457845,888.247130,9178.553681
2382.693933,1532.190996,444.123565,9178.553681
2382.694262,1302.362347,148.041188,9030.512492
2382.694591,995.924147,-666.185348,9548.656652
2382.694920,0.000000,-740.205942,9252.574275
2382.695249,-229.828649,-370.102971,9104.533087
2382.695578,-153.219100,-666.185348,9474.636058
2382.695907,-689.485948,-666.185348,9030.512492
2382.696236,-383.047749,-666.185348,9030.512492
2382.696565,0.000000,-1036.288319,9030.512492
2382.696894,0.000000,-74.020594,9474.636058
2382.697223,383.047749,-888.247130,9474.636058
2382.697551,0.000000,-740.205942,8660.409521
2382.697880,0.000000,-592.164754,8586.388927
2382.698209,383.047749,-1036.288319,8734.430116
2382.698538,383.047749,-888.247130,8364.327145
2382.698867,1149.143247,-296.082377,8290.306550
2382.699196,612.876398,-888.247130,8660.409521
2382.699525,536.266849,-888.247130,7994.224174
2382.699854,536.266849,-370.102971,8586.388927
2382.700183,76.609550,-962.267725,8364.327145
2382.700512,0.000000,-592.164754,8142.265362
2382.700841,0.000000,-814.226536,8734.430116
2382.701170,-459.657299,-1036.288319,8660.409521
2382.701499,0.000000,-814.226536,8660.409521
2382.701827,76.609550,-1184.329507,9178.553681
2382.702156,0.000000,-666.185348,8660.409521
2382.702485,0.000000,-74.020594,8512.368333
2382.702814,76.609550,-222.061783,8808.450710
2382.703143,0.000000,222.061783,8364.327145
2382.703472,383.047749,740.205942,9178.553681
2382.703801,0.000000,222.061783,8438.347739
2382.704130,76.609550,666.185348,8438.347739
2382.704459,306.438199,666.185348,9030.512492
2382.704788,-536.266849,444.123565,8586.388927
2382.705117,-306.438199,296.082377,9178.553681
2382.705446,-383.047749,-222.061783,9400.615463
2382.705774,-995.924147,-74.020594,9622.677246
2382.706103,-459.657299,-148.041188,10140.821405
2382.706432,-459.657299,-814.226536,10140.821405
2382.706761,-459.657299,-444.123565,10066.800811
2382.707090,0.000000,-74.020594,10362.883188
2382.707419,0.000000,-444.123565,10066.800811
2382.707748,459.657299,-74.020594,9844.739029
2382.708077,1838.629195,-148.041188,10881.027347
2382.708406,2298.286494,-74.020594,9474.636058
2382.708735,3294.210641,962.267725,9104.533087
2382.709064,3064.381992,962.267725,9104.533087
2382.709393,2681.334243,1628.453072,8142.265362
2382.709721,3217.601092,1702.473667,8882.471304
2382.710050,2451.505594,1110.308913,8512.368333
2382.710379,1532.190996,1036.288319,8438.347739
2382.710708,2681.334243,148.041188,9548.656652
2382.711037,766.095498,-592.164754,9178.553681
2382.711366,0.000000,-296.082377,9548.656652
2382.711695,0.000000,-814.226536,10140.821405
2382.712024,-919.314598,-518.144159,9326.594869
2382.712353,-383.047749,-814.226536,9474.636058
2382.712682,-612.876398,-1258.350101,9696.697840
2382.713011,-766.095498,-148.041188,9400.615463
2382.713340,76.609550,-592.164754,9622.677246
2382.713669,-536.266849,-888.247130,9474.636058
2382.713997,0.000000,-370.102971,9178.553681
2382.714326,153.219100,-740.205942,9252.574275
2382.714655,76.609550,-666.185348,8808.450710
2382.714984,842.705048,-740.205942,8882.471304
2382.715313,919.314598,-740.205942,9030.512492
2382.715642,536.266849,-814.226536,8364.327145
2382.715971,459.657299,-888.247130,8734.430116
2382.716300,229.828649,-888.247130,8586.388927
2382.716629,0.000000,-592.164754,8142.265362
2382.716958,76.609550,-592.164754,8956.491898
2382.717287,-459.657299,-740.205942,8882.471304
2382.717616,-229.828649,-666.185348,8660.409521
2382.717944,0.000000,-1036.288319,8142.265362
2382.718273,-459.657299,-518.144159,8364.327145
2382.718602,-229.828649,-296.082377,8512.368333
2382.718931,-383.047749,-148.041188,8586.388927
2382.719260,-383.047749,-0.000000,8142.265362
2382.719589,229.828649,-0.000000,8882.471304
2382.719918,229.828649,-74.020594,8512.368333
2382.720247,229.828649,296.082377,7920.203579
2382.720576,383.047749,222.061783,8438.347739
2382.720905,76.609550,370.102971,8142.265362
2382.721234,153.219100,592.164754,8364.327145
2382.721563,0.000000,222.061783,8882.471304
2382.721892,0.000000,666.185348,8660.409521
2382.722220,306.438199,148.041188,9400.615463
2382.722549,0.000000,-74.020594,8882.471304
2382.722878,-612.876398,-0.000000,9622.677246
2382.723207,-76.609550,-518.144159,10140.821405
2382.723536,-306.438199,-666.185348,9770.718434
2382.723865,0.000000,-296.082377,9992.780217
2382.724194,766.095498,-518.144159,10510.924376
2382.724523,306.438199,-222.061783,10510.924376
2382.724852,1455.581446,-148.041188,10140.821405
2382.725181,1608.800546,-0.000000,9918.759623
2382.725510,1915.238745,592.164754,9474.636058
2382.725839,2451.505594,962.267725,9326.594869
2382.726167,2681.334243,888.247130,9252.574275
2382.726496,2374.896044,1110.308913,8808.450710
2382.726825,2681.334243,1036.288319,9252.574275
2382.727154,1378.971896,518.144159,8808.450710
2382.727483,1455.581446,666.185348,9030.512492
2382.727812,919.314598,-296.082377,9474.636058
2382.728141,76.609550,-74.020594,9252.574275
2382.728470,-76.609550,-370.102971,9548.656652
2382.728799,-766.095498,-814.226536,9622.677246
2382.729128,-766.095498,-518.144159,9178.553681
2382.729457,-383.047749,-444.123565,9696.697840
2382.729786,-842.705048,-814.226536,9326.594869
2382.730115,0.000000,-0.000000,9770.718434
2382.730443,-306.438199,-1110.308913,9474.636058
2382.730772,-612.876398,-666.185348,8882.471304
2382.731101,0.000000,-444.123565,9030.512492
2382.731430,0.000000,-740.205942,8808.450710
2382.731759,306.438199,-296.082377,8586.388927
2382.732088,1302.362347,-222.061783,9104.533087
2382.732417,612.876398,-814.226536,8364.327145
2382.732746,995.924147,-740.205942,7920.203579
2382.733075,919.314598,-666.185348,8660.409521
2382.733404,76.609550,-518.144159,7994.224174
2382.733733,536.266849,-518.144159,8364.327145
2382.734062,383.047749,-888.247130,8512.368333
2382.734390,612.876398,-666.185348,8438.347739
2382.734719,383.047749,-1258.350101,8586.388927
2382.735048,0.000000,-1110.308913,8586.388927
2382.735377,-306.438199,-444.123565,8512.368333
2382.735706,0.000000,-444.123565,8660.409521
2382.736035,-459.657299,-0.000000,8290.306550
2382.736364,0.000000,-0.000000,8660.409521
2382.736693,0.000000,444.123565,8586.388927
2382.737022,-383.047749,296.082377,8068.244768
2382.737351,0.000000,296.082377,8660.409521
2382.737680,0.000000,370.102971,8586.388927
2382.738009,-306.438199,518.144159,8586.388927
2382.738338,0.000000,370.102971,9252.574275
2382.738666,-459.657299,592.164754,9104.533087
2382.738995,0.000000,74.020594,8808.450710
2382.739324,0.000000,-148.041188,9770.718434
2382.739653,-459.657299,-222.061783,9548.656652
2382.739982,-383.047749,-0.000000,9918.759623
2382.740311,153.219100,-444.123565,10140.821405
2382.740640,-229.828649,-74.020594,9548.656652
2382.740969,536.266849,-74.020594,10362.883188
2382.741298,689.485948,-444.123565,10214.842000
2382.741627,1532.190996,222.061783,9104.533087
2382.741956,2681.334243,370.102971,9992.780217
2382.742285,2221.676944,592.164754,9474.636058
2382.742613,2221.676944,1110.308913,8956.491898
2382.742942,2604.724693,962.267725,9326.594869
2382.743271,2145.067394,814.226536,8882.471304
2382.743600,2681.334243,814.226536,8660.409521
2382.743929,1762.019645,370.102971,9178.553681
2382.744258,842.705048,222.061783,8808.450710
2382.744587,612.876398,-0.000000,9474.636058
2382.744916,383.047749,-370.102971,9474.636058
2382.745245,-153.219100,-296.082377,9104.533087
2382.745574,0.000000,-592.164754,9844.739029
2382.745903,-1072.533697,-1036.288319,9178.553681
2382.746232,-459.657299,-814.226536,9474.636058
2382.746561,-306.438199,-1332.370696,9918.759623
2382.746889,-919.314598,-814.226536,9030.512492
2382.747218,-306.438199,-888.247130,9326.594869
2382.747547,-383.047749,-1332.370696,9474.636058
2382.747876,-306.438199,-740.205942,9030.512492
2382.748205,459.657299,-1406.391290,9474.636058
2382.748534,-153.219100,-1258.350101,8956.491898
2382.748863,153.219100,-740.205942,8956.491898
2382.749192,842.705048,-888.247130,9030.512492
2382.749521,229.828649,-518.144159,8216.285956
2382.749850,995.924147,-518.144159,8586.388927
2382.750179,689.485948,-666.185348,8512.368333
2382.750509,153.219100,-222.061783,7772.162391
2382.750838,76.609550,-370.102971,8290.306550
2382.751167,459.657299,-518.144159,8290.306550
2382.751496,0.000000,-74.020594,8142.265362
2382.751825,76.609550,-592.164754,8216.285956
2382.752154,-689.485948,-74.020594,8216.285956
2382.752483,0.000000,-222.061783,8216.285956
2382.752812,76.609550,-148.041188,8142.265362
2382.753141,-153.219100,-0.000000,8216.285956
2382.753470,0.000000,-0.000000,8364.327145
2382.753799,-306.438199,-0.000000,8216.285956
2382.754128,-306.438199,518.144159,8142.265362
2382.754457,459.657299,518.144159,8734.430116
2382.754786,0.000000,370.102971,8512.368333
2382.755115,0.000000,666.185348,9104.533087
2382.755444,76.609550,-592.164754,9400.615463
2382.755773,0.000000,-0.000000,9400.615463
2382.756102,0.000000,-0.000000,9474.636058
2382.756431,0.000000,-444.123565,9844.739029
2382.756760,-229.828649,-74.020594,9548.656652
2382.757089,306.438199,-296.082377,10288.862594
2382.757418,-383.047749,-740.205942,10214.842000
2382.757747,306.438199,-74.020594,10288.862594
2382.758076,1991.848295,-0.000000,10510.924376
2382.758405,1072.533697,-0.000000,10140.821405
2382.758734,1915.238745,444.123565,9992.780217
2382.759063,2298.286494,518.144159,9918.759623
2382.759392,2068.457845,1036.288319,9326.594869
2382.759721,2374.896044,962.267725,9992.780217
2382.760050,2451.505594,666.185348,9252.574275
2382.760379,2145.067394,1036.288319,9030.512492
2382.760708,1762.019645,814.226536,9326.594869
2382.761037,689.485948,666.185348,9178.553681
2382.761366,459.657299,-0.000000,9178.553681
2382.761695,153.219100,-296.082377,9474.636058
2382.762024,-536.266849,-296.082377,9474.636058
2382.762353,-919.314598,-888.247130,9548.656652
2382.762682,-919.314598,-888.247130,9918.759623
2382.763011,-1225.752797,-1110.308913,9030.512492
2382.763340,-536.266849,-666.185348,9622.677246
2382.763669,-842.705048,-1184.329507,9252.574275
2382.763998,-536.266849,-666.185348,9030.512492
2382.764327,229.828649,-518.144159,9400.615463
2382.764656,459.657299,-1258.350101,8808.450710
2382.764985,383.047749,-370.102971,8290.306550
2382.765314,1149.143247,-444.123565,8586.388927
2382.765643,842.705048,-222.061783,7994.224174
2382.765972,1302.362347,-296.082377,7846.182985
2382.766301,919.314598,-666.185348,7772.162391
2382.766630,459.657299,-666.185348,7698.141797
2382.766959,-383.047749,-1036.288319,8660.409521
2382.767288,-306.438199,-1110.308913,8734.430116
2382.767617,-536.266849,-1110.308913,8142.265362
2382.767946,-612.876398,-1184.329507,9104.533087
2382.768275,-766.095498,-962.267725,8364.327145
2382.768604,-536.266849,-666.185348,8882.471304
2382.768933,-383.047749,-666.185348,8734.430116
2382.769262,-766.095498,-222.061783,8068.244768
2382.769591,995.924147,-296.082377,9030.512492
2382.769920,459.657299,-0.000000,8438.347739
2382.770249,229.828649,962.267725,8290.306550
2382.770578,842.705048,888.247130,8882.471304
2382.770907,536.266849,740.205942,8142.265362
2382.771236,689.485948,814.226536,8142.265362
2382.771565,612.876398,592.164754,8956.491898
2382.771894,-612.876398,-0.000000,8882.471304
2382.772223,0.000000,-0.000000,9548.656652
2382.772552,-689.485948,-814.226536,9696.697840
2382.772881,-1302.362347,-296.082377,9696.697840
2382.773210,-842.705048,-592.164754,10362.883188
2382.773539,-612.876398,-518.144159,10066.800811
2382.773868,-306.438199,148.041188,9992.780217
2382.774197,153.219100,-296.082377,10140.821405
2382.774526,612.876398,296.082377,9992.780217
2382.774855,2068.457845,962.267725,9844.739029
2382.775184,2451.505594,370.102971,9252.574275
2382.775513,2451.505594,1184.329507,9104.533087
2382.775842,3294.210641,962.267725,9474.636058
2382.776171,2681.334243,666.185348,8734.430116
2382.776500,2298.286494,1332.370696,9326.594869
2382.776829,2298.286494,370.102971,9474.636058
2382.777158,1838.629195,-0.000000,9474.636058
2382.777487,1149.143247,-0.000000,9474.636058
2382.777816,612.876398,-296.082377,9474.636058
2382.778145,0.000000,-0.000000,9400.615463
2382.778474,153.219100,-0.000000,9474.636058
2382.778803,0.000000,-222.061783,9696.697840
2382.779132,-842.705048,-296.082377,9178.553681
2382.779461,0.000000,-592.164754,9622.677246
2382.779790,-612.876398,-814.226536,9178.553681
2382.780119,-459.657299,-444.123565,9030.512492
2382.780448,0.000000,-1184.329507,9400.615463
2382.780777,-536.266849,-888.247130,8882.471304
2382.781106,76.609550,-1036.288319,9178.553681
2382.781435,0.000000,-1406.391290,9326.594869
2382.781764,0.000000,-962.267725,8882.471304
2382.782093,383.047749,-444.123565,9178.553681
2382.782422,153.219100,-962.267725,8660.409521
2382.782751,306.438199,-444.123565,8290.306550
2382.783080,459.657299,-666.185348,8586.388927
2382.783409,0.000000,-518.144159,8142.265362
2382.783738,0.000000,-148.041188,8290.306550
2382.784067,229.828649,-0.000000,8438.347739
2382.784396,306.438199,-222.061783,7920.203579
2382.784725,0.000000,-296.082377,8290.306550
2382.785054,-383.047749,-740.205942,8216.285956
2382.785383,-689.485948,-222.061783,7994.224174
2382.785712,0.000000,-666.185348,8586.388927
2382.786041,-459.657299,-666.185348,8512.368333
2382.786370,0.000000,-370.102971,8438.347739
2382.786699,229.828649,-148.041188,8290.306550
2382.787028,153.219100,592.164754,8068.244768
2382.787357,612.876398,962.267725,8438.347739
2382.787686,612.876398,740.205942,8660.409521
2382.788015,0.000000,962.267725,8586.388927
2382.788344,766.095498,740.205942,9326.594869
2382.788673,459.657299,-0.000000,9178.553681
2382.789002,-766.095498,148.041188,9474.636058
2382.789331,-153.219100,-0.000000,9992.780217
2382.789660,-612.876398,-518.144159,9622.677246
2382.789989,0.000000,-370.102971,10066.800811
2382.790318,0.000000,-740.205942,10510.924376
2382.790647,0.000000,-888.247130,10362.883188
2382.790976,459.657299,-518.144159,10288.862594
2382.791305,842.705048,-666.185348,10436.903782
2382.791634,1532.190996,296.082377,9696.697840
2382.791963,2298.286494,444.123565,10066.800811
2382.792292,1915.238745,888.247130,9622.677246
2382.792621,2911.162892,1480.411884,9622.677246
2382.792950,2757.943793,814.226536,9844.739029
2382.793279,2221.676944,814.226536,9104.533087
2382.793608,1762.019645,592.164754,9400.615463
2382.793937,1149.143247,-0.000000,9474.636058
2382.794267,76.609550,-0.000000,9104.533087
2382.794596,153.219100,-222.061783,9696.697840
2382.794925,-459.657299,-370.102971,9178.553681
2382.795254,-612.876398,-740.205942,9326.594869
2382.795583,-383.047749,-1258.350101,9696.697840
2382.795912,-995.924147,-740.205942,9030.512492
2382.796241,-306.438199,-592.164754,8882.471304
2382.796570,-229.828649,-666.185348,9178.553681
2382.796899,0.000000,-222.061783,8734.430116
2382.797228,306.438199,-444.123565,8882.471304
2382.797557,0.000000,-1036.288319,8660.409521
2382.797886,459.657299,-222.061783,8364.327145
2382.798215,229.828649,-148.041188,9030.512492
2382.798544,76.609550,-814.226536,8438.347739
2382.798873,229.828649,-666.185348,8290.306550
2382.799202,306.438199,-1110.308913,8882.471304
2382.799531,-229.828649,-1036.288319,8216.285956
2382.799860,229.828649,-888.247130,8512.368333
2382.800189,-306.438199,-1184.329507,8956.491898
2382.800518,-229.828649,-1110.308913,8142.265362
2382.800847,153.219100,-740.205942,8734.430116
2382.801176,0.000000,-814.226536,8438.347739
2382.801505,0.000000,-222.061783,8142.265362
2382.801834,766.095498,-74.020594,8660.409521
2382.802163,306.438199,-0.000000,8216.285956
2382.802492,919.314598,-0.000000,8438.347739
2382.802821,612.876398,-74.020594,8734.430116
2382.803150,0.000000,518.144159,8438.347739
2382.803479,229.828649,666.185348,8586.388927
2382.803808,0.000000,148.041188,8734.430116
2382.804137,-229.828649,592.164754,8586.388927
2382.804466,153.219100,-74.020594,9400.615463
2382.804795,-842.705048,-0.000000,8956.491898
2382.805124,-306.438199,-0.000000,9178.553681
2382.805453,-459.657299,-74.020594,9696.697840
2382.805782,-1072.533697,-222.061783,9474.636058
2382.806111,-536.266849,-0.000000,10214.842000
2382.806440,-766.095498,-518.144159,10288.862594
2382.806769,-766.095498,-222.061783,9844.739029
2382.807098,229.828649,-148.041188,10362.883188
2382.807427,459.657299,-0.000000,9918.759623
2382.807756,995.924147,296.082377,9622.677246
2382.808085,1915.238745,444.123565,10140.821405
2382.808414,1915.238745,592.164754,9326.594869
2382.808743,2834.553343,740.205942,9178.553681
2382.809072,2681.334243,518.144159,9696.697840
2382.809401,1838.629195,814.226536,9252.574275
2382.809730,2604.724693,1036.288319,9400.615463
2382.810059,2068.457845,370.102971,9326.594869
2382.810388,1455.581446,666.185348,8956.491898
2382.810717,1378.971896,148.041188,9622.677246
2382.811046,383.047749,-296.082377,9326.594869
2382.811375,0.000000,-518.144159,9030.512492
2382.811704,383.047749,-666.185348,9622.677246
2382.812033,-536.266849,-666.185348,9104.533087
2382.812362,-383.047749,-666.185348,9178.553681
2382.812691,-383.047749,-1036.288319,9474.636058
2382.813020,-689.485948,-740.205942,8734.430116
2382.813349,-153.219100,-1110.308913,9474.636058
2382.813678,-229.828649,-962.267725,9104.533087
2382.814007,-153.219100,-666.185348,8586.388927
2382.814336,383.047749,-1184.329507,9400.615463
2382.814665,229.828649,-1258.350101,8586.388927
2382.814994,919.314598,-1036.288319,8882.471304
2382.815323,383.047749,-740.205942,8734.430116
2382.815652,0.000000,-740.205942,7994.224174
2382.815981,612.876398,-592.164754,8512.368333
2382.816310,0.000000,-888.247130,8586.388927
2382.816639,0.000000,-814.226536,8290.306550
2382.816968,536.266849,-1036.288319,8882.471304
2382.817297,-306.438199,-666.185348,8512.368333
2382.817626,-306.438199,-666.185348,8142.265362
2382.817955,0.000000,-592.164754,8734.430116
2382.818284,-383.047749,-518.144159,8290.306550
2382.818613,76.609550,-222.061783,8290.306550
2382.818942,0.000000,-222.061783,8808.450710
2382.819271,0.000000,-74.020594,7698.141797
2382.819600,766.095498,296.082377,8586.388927
2382.819929,229.828649,592.164754,8586.388927
2382.820258,459.657299,592.164754,7920.203579
2382.820587,919.314598,592.164754,8512.368333
2382.820916,459.657299,962.267725,8586.388927
2382.821245,536.266849,370.102971,8290.306550
2382.821574,0.000000,148.041188,9178.553681
2382.821903,-383.047749,222.061783,9400.615463
2382.822232,0.000000,296.082377,9992.780217
2382.822561,-766.095498,-222.061783,9696.697840
2382.822890,-919.314598,-222.061783,9696.697840
2382.823219,-229.828649,-518.144159,10436.903782
2382.823548,0.000000,-888.247130,10436.903782
2382.823877,-229.828649,-666.185348,10140.821405
2382.824206,842.705048,-1258.350101,10362.883188
2382.824535,459.657299,-148.041188,9918.759623
2382.824864,1532.190996,296.082377,9918.759623
2382.825193,2298.286494,370.102971,9844.739029
2382.825522,2145.067394,888.247130,9252.574275
2382.825851,2757.943793,888.247130,9548.656652
2382.826180,1915.238745,962.267725,9400.615463
2382.826509,2451.505594,1036.288319,8882.471304
2382.826838,1991.848295,592.164754,9326.594869
2382.827167,995.924147,370.102971,9326.594869
2382.827496,306.438199,-0.000000,9178.553681
2382.827825,76.609550,-222.061783,9622.677246
2382.828154,-919.314598,-222.061783,9400.615463
2382.828483,-689.485948,-666.185348,9474.636058
2382.828812,-536.266849,-1184.329507,9474.636058
2382.829141,-995.924147,-518.144159,8956.491898
2382.829470,-383.047749,-592.164754,9104.533087
2382.829799,-689.485948,-888.247130,8956.491898
2382.830128,-459.657299,-666.185348,8882.471304
2382.830457,229.828649,-518.144159,8808.450710
2382.830786,536.266849,-592.164754,8364.327145
2382.831115,842.705048,-518.144159,8290.306550
2382.831444,842.705048,-1110.308913,8438.347739
2382.831773,536.266849,-518.144159,7920.203579
2382.832102,1149.143247,-444.123565,8586.388927
2382.832431,306.438199,-888.247130,8290.306550
2382.832760,229.828649,-888.247130,8290.306550
2382.833089,536.266849,-1036.288319,8956.491898
2382.833418,0.000000,-1332.370696,8142.265362
2382.833747,-229.828649,-1036.288319,8512.368333
2382.834076,-153.219100,-1036.288319,8882.471304
2382.834405,-689.485948,-814.226536,8512.368333
2382.834734,0.000000,-666.185348,8808.450710
2382.835063,383.047749,-962.267725,8808.450710
2382.835392,-306.438199,-222.061783,8438.347739
2382.835721,153.219100,-0.000000,8956.491898
2382.836050,0.000000,-0.000000,8586.388927
2382.836379,153.219100,592.164754,8438.347739
2382.836708,612.876398,444.123565,8734.430116
2382.837037,76.609550,592.164754,8364.327145
2382.837366,842.705048,962.267725,8512.368333
2382.837695,383.047749,740.205942,8882.471304
2382.838024,-459.657299,888.247130,8808.450710
2382.838354,0.000000,-0.000000,9400.615463
2382.838683,-766.095498,-0.000000,9474.636058
2382.839012,-995.924147,-0.000000,9400.615463
2382.839341,-612.876398,-444.123565,10140.821405
2382.839670,-919.314598,-518.144159,9770.718434
2382.839999,-612.876398,-740.205942,9548.656652
2382.840328,0.000000,-296.082377,10584.944971
2382.840657,0.000000,-222.061783,10140.821405
2382.840986,919.314598,-0.000000,10214.842000
2382.841315,1225.752797,-0.000000,10066.800811
2382.841644,1762.019645,666.185348,9400.615463
2382.841973,2834.553343,888.247130,9326.594869
2382.842302,2834.553343,1036.288319,9104.533087
2382.842631,2834.553343,1184.329507,8438.347739
2382.842960,3217.601092,1184.329507,8882.471304
2382.843289,2451.505594,1184.329507,8808.450710
2382.843618,2451.505594,814.226536,8586.388927
2382.843947,1685.410096,444.123565,9400.615463
2382.844276,689.485948,148.041188,8808.450710
2382.844605,536.266849,-592.164754,9400.615463
2382.844934,-536.266849,-814.226536,9770.718434
2382.845263,-383.047749,-592.164754,9326.594869
2382.845592,-459.657299,-962.267725,9548.656652
2382.845921,-842.705048,-1110.308913,9252.574275
2382.846250,-536.266849,-666.185348,9178.553681
2382.846579,-536.266849,-1036.288319,9104.533087
2382.846908,-153.219100,-1036.288319,8882.471304
2382.847237,-229.828649,-814.226536,9252.574275
2382.847566,76.609550,-666.185348,9030.512492
2382.847895,0.000000,-666.185348,8586.388927
2382.848224,612.876398,-1036.288319,9178.553681
2382.848553,0.000000,-1036.288319,8364.327145
2382.848882,0.000000,-888.247130,8660.409521
2382.849210,536.266849,-1110.308913,8956.491898
2382.849539,0.000000,-814.226536,8290.306550
2382.849868,-536.266849,-740.205942,8586.388927
2382.850197,76.609550,-1110.308913,8734.430116
2382.850526,-459.657299,-592.164754,8142.265362
2382.850855,0.000000,-592.164754,8438.347739
2382.851184,306.438199,-888.247130,8438.347739
2382.851513,0.000000,-370.102971,8512.368333
2382.851842,229.828649,-666.185348,8438.347739
2382.852171,-383.047749,-148.041188,8586.388927
2382.852500,0.000000,148.041188,8438.347739
2382.852829,383.047749,-0.000000,8734.430116
2382.853158,0.000000,444.123565,8364.327145
2382.853487,689.485948,518.144159,8512.368333
2382.853816,919.314598,592.164754,8290.306550
2382.854145,536.266849,962.267725,8290.306550
2382.854474,1072.533697,740.205942,8512.368333
2382.854803,76.609550,666.185348,8660.409521
2382.855132,76.609550,740.205942,8660.409521
2382.855461,229.828649,-0.000000,9400.615463
2382.855790,-306.438199,-74.020594,9474.636058
2382.856119,-612.876398,-592.164754,9770.718434
2382.856448,-306.438199,-666.185348,10362.883188
2382.856777,-689.485948,-444.123565,10288.862594
2382.857106,0.000000,-666.185348,10732.986159
2382.857435,76.609550,-592.164754,10658.965565
2382.857764,459.657299,-296.082377,9992.780217
2382.858093,1455.581446,-0.000000,10584.944971
2382.858422,1455.581446,-0.000000,9992.780217
2382.858751,2451.505594,888.247130,9474.636058
2382.859080,2757.943793,814.226536,9548.656652
2382.859409,2757.943793,1406.391290,9104.533087
2382.859738,2987.772442,1480.411884,9104.533087
2382.860067,2528.115143,1110.308913,9030.512492
2382.860396,1302.362347,888.247130,8438.347739
2382.860725,1455.581446,518.144159,9252.574275
2382.861054,76.609550,222.061783,9474.636058
2382.861383,-306.438199,-74.020594,9326.594869
2382.861712,-153.219100,-444.123565,9770.718434
2382.862041,-1149.143247,-740.205942,9400.615463
2382.862369,-995.924147,-740.205942,9622.677246
2382.862698,-689.485948,-888.247130,9400.615463
2382.863027,-612.876398,-888.247130,9252.574275
2382.863356,-153.219100,-222.061783,9770.718434
2382.863685,0.000000,-962.267725,9474.636058
2382.864014,76.609550,-518.144159,8586.388927
2382.864343,766.095498,-444.123565,9030.512492
2382.864672,459.657299,-592.164754,8290.306550
2382.865001,229.828649,-74.020594,8216.285956
2382.865330,995.924147,-740.205942,8142.265362
2382.865659,919.314598,-814.226536,7994.224174
2382.865988,766.095498,-666.185348,8512.368333
2382.866317,306.438199,-1184.329507,8290.306550
2382.866646,0.000000,-962.267725,7994.224174
2382.866975,153.219100,-1184.329507,8808.450710
2382.867304,-536.266849,-1628.453072,8586.388927
2382.867633,-383.047749,-518.144159,8734.430116
2382.867962,0.000000,-888.247130,9474.636058
2382.868291,-306.438199,-740.205942,8586.388927
2382.868620,-306.438199,-222.061783,8586.388927
2382.868949,0.000000,-444.123565,8808.450710
2382.869278,0.000000,-0.000000,8216.285956
2382.869607,383.047749,-0.000000,8882.471304
2382.869936,459.657299,-0.000000,8660.409521
2382.870265,0.000000,592.164754,8216.285956
2382.870594,689.485948,222.061783,8364.327145
2382.870923,76.609550,296.082377,8142.265362
2382.871252,0.000000,592.164754,8734.430116
2382.871581,0.000000,296.082377,9252.574275
2382.871910,-612.876398,222.061783,9030.512492
2382.872239,-383.047749,148.041188,9622.677246
2382.872568,-536.266849,-222.061783,9918.759623
2382.872897,-919.314598,-0.000000,9992.780217
2382.873226,-306.438199,-370.102971,10288.862594
2382.873555,-612.876398,-444.123565,10066.800811
2382.873884,0.000000,-0.000000,9918.759623
2382.874213,612.876398,-222.061783,10584.944971
2382.874542,1378.971896,-74.020594,10066.800811
2382.874871,1302.362347,148.041188,9770.718434
2382.875200,2528.115143,370.102971,9770.718434
2382.875529,2451.505594,814.226536,8882.471304
2382.875858,3217.601092,1184.329507,9474.636058
2382.876187,2757.943793,1184.329507,8882.471304
2382.876516,3064.381992,1480.411884,8956.491898
2382.876845,3217.601092,814.226536,9178.553681
2382.877174,1532.190996,592.164754,8586.388927
2382.877503,1225.752797,222.061783,8882.471304
2382.877832,919.314598,-0.000000,9548.656652
2382.878160,-153.219100,-370.102971,9326.594869
2382.878489,-383.047749,-518.144159,9622.677246
2382.878818,-612.876398,-1184.329507,9696.697840
2382.879147,-995.924147,-370.102971,9844.739029
2382.879476,-153.219100,-1184.329507,9696.697840
2382.879805,-995.924147,-814.226536,9326.594869
2382.880134,-383.047749,-592.164754,9400.615463
2382.880463,0.000000,-1036.288319,9622.677246
2382.880792,-306.438199,-888.247130,9030.512492
2382.881121,76.609550,-592.164754,9030.512492
2382.881450,612.876398,-1036.288319,9104.533087
2382.881779,383.047749,-1184.329507,8586.388927
2382.882108,842.705048,-666.185348,8808.450710
2382.882437,459.657299,-740.205942,8512.368333
2382.882766,229.828649,-296.082377,8364.327145
2382.883095,536.266849,-592.164754,8882.471304
2382.883424,0.000000,-814.226536,8216.285956
2382.883753,0.000000,-296.082377,8512.368333
2382.884082,612.876398,-1184.329507,9252.574275
2382.884411,-383.047749,-1258.350101,8142.265362
2382.884740,0.000000,-592.164754,8586.388927
2382.885069,-153.219100,-666.185348,8438.347739
2382.885398,-383.047749,-74.020594,7994.224174
2382.885727,153.219100,-0.000000,8512.368333
2382.886056,-383.047749,-148.041188,8438.347739
2382.886385,0.000000,592.164754,8290.306550
2382.886714,306.438199,518.144159,8882.471304
2382.887043,-153.219100,592.164754,7846.182985
2382.887372,229.828649,814.226536,8216.285956
2382.887701,689.485948,222.061783,8660.409521
2382.888030,0.000000,666.185348,8068.244768
2382.888359,459.657299,444.123565,9030.512492
2382.888688,0.000000,-592.164754,9030.512492
2382.889017,-153.219100,-296.082377,9030.512492
2382.889346,0.000000,-222.061783,9770.718434
2382.889675,-766.095498,-592.164754,9770.718434
2382.890004,-612.876398,-518.144159,9992.780217
2382.890333,0.000000,-666.185348,10584.944971
2382.890662,0.000000,-814.226536,10066.800811
2382.890991,689.485948,-444.123565,10288.862594
2382.891320,842.705048,-666.185348,10140.821405
2382.891649,766.095498,296.082377,9918.759623
2382.891978,2221.676944,-0.000000,10066.800811
2382.892307,1915.238745,592.164754,9474.636058
2382.892636,2374.896044,1258.350101,9030.512492
2382.892965,3140.991542,888.247130,9548.656652
2382.893294,2221.676944,1110.308913,8956.491898
2382.893623,2451.505594,888.247130,9104.533087
2382.893951,1685.410096,296.082377,9400.615463
2382.894280,919.314598,666.185348,8734.430116
2382.894609,612.876398,370.102971,9474.636058
2382.894938,0.000000,-74.020594,9326.594869
2382.895267,-306.438199,-74.020594,9030.512492
2382.895596,-383.047749,-222.061783,10288.862594
2382.895925,-995.924147,-1332.370696,9326.594869
2382.896254,-842.705048,-592.164754,9474.636058
2382.896583,-766.095498,-1036.288319,9474.636058
2382.896912,-842.705048,-814.226536,9178.553681
2382.897241,-229.828649,-592.164754,9400.615463
2382.897570,153.219100,-888.247130,9252.574275
2382.897899,76.609550,-740.205942,8512.368333
2382.898228,383.047749,-814.226536,8660.409521
2382.898557,995.924147,-740.205942,8290.306550
2382.898886,1072.533697,-444.123565,8142.265362
2382.899215,1302.362347,-148.041188,8512.368333
2382.899544,536.266849,-666.185348,7920.203579
2382.899873,536.266849,-444.123565,8142.265362
2382.900202,612.876398,-888.247130,8438.347739
2382.900531,-459.657299,-814.226536,7994.224174
2382.900860,0.000000,-1332.370696,8882.471304
2382.901189,-229.828649,-1480.411884,8586.388927
2382.901518,-459.657299,-1258.350101,7994.224174
2382.901847,-229.828649,-962.267725,8956.491898
2382.902176,-612.876398,-518.144159,8512.368333
2382.902505,-306.438199,-296.082377,8512.368333
2382.902834,76.609550,-296.082377,9030.512492
2382.903163,-306.438199,-148.041188,8660.409521
2382.903492,229.828649,296.082377,8586.388927
2382.903821,0.000000,370.102971,8734.430116
2382.904150,0.000000,1036.288319,8216.285956
2382.904479,536.266849,1036.288319,8512.368333
2382.904808,153.219100,888.247130,8586.388927
2382.905137,459.657299,740.205942,8290.306550
2382.905466,229.828649,222.061783,9548.656652
2382.905795,-919.314598,-148.041188,9548.656652
2382.906124,-995.924147,-148.041188,9844.739029
2382.906453,-842.705048,-888.247130,10436.903782
2382.906782,-1225.752797,-518.144159,9770.718434
2382.907111,0.000000,-518.144159,10658.965565
2382.907440,-229.828649,-962.267725,10362.883188
2382.907769,153.219100,-370.102971,10140.821405
2382.908098,1302.362347,-0.000000,10955.047942
2382.908427,1378.971896,222.061783,10214.842000
2382.908756,2221.676944,1184.329507,9474.636058
2382.909085,3217.601092,1036.288319,9474.636058
2382.909414,3294.210641,1702.473667,8290.306550
2382.909742,3600.648841,1702.473667,8512.368333
2382.910071,3524.039291,1110.308913,8512.368333
2382.910400,2911.162892,1554.432478,7994.224174
2382.910729,2374.896044,814.226536,9400.615463
2382.911058,919.314598,-0.000000,8956.491898
2382.911387,0.000000,-666.185348,9400.615463
2382.911716,-306.438199,-1110.308913,10066.800811
2382.912045,-1378.971896,-1184.329507,9622.677246
2382.912374,-1149.143247,-1258.350101,10510.924376
2382.912703,-995.924147,-1184.329507,10066.800811
2382.913032,-1225.752797,-888.247130,9474.636058
2382.913361,-306.438199,-1110.308913,9548.656652
2382.913690,-383.047749,-740.205942,9400.615463
2382.914019,-459.657299,-518.144159,8956.491898
2382.914348,0.000000,-888.247130,9474.636058
2382.914677,0.000000,-1036.288319,8808.450710
2382.915006,919.314598,-666.185348,9030.512492
2382.915335,459.657299,-740.205942,8808.450710
2382.915664,229.828649,-444.123565,8068.244768
2382.915993,1302.362347,-296.082377,8364.327145
2382.916322,842.705048,-592.164754,8216.285956
2382.916651,459.657299,-518.144159,7846.182985
2382.916980,383.047749,-888.247130,8438.347739
2382.917309,0.000000,-666.185348,8512.368333
2382.917638,-536.266849,-666.185348,8290.306550
2382.917967,0.000000,-518.144159,8882.471304
2382.918296,-612.876398,-740.205942,8364.327145
2382.918625,-612.876398,-444.123565,8438.347739
2382.918954,0.000000,-296.082377,8956.491898
2382.919283,-766.095498,-74.020594,8290.306550
2382.919612,0.000000,-0.000000,8512.368333
2382.919941,-383.047749,-222.061783,8512.368333
2382.920270,-306.438199,296.082377,8216.285956
2382.920599,459.657299,296.082377,8438.347739
2382.920928,0.000000,296.082377,8290.306550
2382.921257,536.266849,740.205942,8438.347739
2382.921586,1072.533697,444.123565,8882.471304
2382.921915,0.000000,148.041188,8660.409521
2382.922244,383.047749,370.102971,9104.533087
2382.922573,0.000000,-0.000000,9474.636058
2382.922902,-612.876398,-370.102971,9474.636058
2382.923231,-229.828649,-518.144159,10214.842000
2382.923560,-689.485948,-814.226536,9770.718434
2382.923889,-536.266849,-814.226536,10436.903782
2382.924218,0.000000,-1036.288319,10732.986159
2382.924547,229.828649,-370.102971,10732.986159
2382.924876,1225.752797,-0.000000,10140.821405
2382.925205,2145.067394,148.041188,10066.800811
2382.925533,2068.457845,370.102971,9548.656652
2382.925862,2911.162892,666.185348,9548.656652
2382.926191,3064.381992,666.185348,9104.533087
2382.926520,2604.724693,1184.329507,8068.244768
2382.926849,2987.772442,1110.308913,9178.553681
2382.927178,1762.019645,888.247130,8808.450710
2382.927507,1302.362347,888.247130,8808.450710
2382.927836,842.705048,-0.000000,9548.656652
2382.928165,0.000000,-370.102971,9474.636058
2382.928494,-459.657299,-444.123565,9252.574275
2382.928823,-842.705048,-740.205942,9918.759623
2382.929152,-1072.533697,-518.144159,9326.594869
2382.929481,-536.266849,-518.144159,9622.677246
2382.929810,-919.314598,-666.185348,9400.615463
2382.930139,-766.095498,-518.144159,9030.512492
2382.930468,0.000000,-888.247130,9178.553681
2382.930797,-689.485948,-740.205942,9178.553681
2382.931126,0.000000,-518.144159,9400.615463
2382.931455,306.438199,-740.205942,9178.553681
2382.931784,153.219100,-592.164754,8290.306550
2382.932113,689.485948,-518.144159,8586.388927
2382.932442,842.705048,-740.205942,8068.244768
2382.932771,229.828649,-518.144159,8142.265362
2382.933100,1149.143247,-518.144159,8216.285956
2382.933429,306.438199,-740.205942,7698.141797
2382.933758,459.657299,-222.061783,8216.285956
2382.934087,612.876398,-444.123565,8734.430116
2382.934416,-153.219100,-592.164754,7994.224174
2382.934745,0.000000,-518.144159,8660.409521
2382.935074,-612.876398,-962.267725,8734.430116
2382.935403,-612.876398,-592.164754,8364.327145
2382.935732,-153.219100,-296.082377,9326.594869
2382.936061,-612.876398,-592.164754,8956.491898
2382.936390,-306.438199,-0.000000,8512.368333
2382.936719,0.000000,-0.000000,8882.471304
2382.937048,-306.438199,148.041188,8364.327145
2382.937377,229.828649,740.205942,8142.265362
2382.937706,919.314598,222.061783,8512.368333
2382.938035,0.000000,518.144159,8512.368333
2382.938364,0.000000,592.164754,8882.471304
2382.938693,-153.219100,-0.000000,9104.533087
2382.939022,-919.314598,-0.000000,9104.533087
2382.939351,-383.047749,-222.061783,9992.780217
2382.939680,-689.485948,-666.185348,10066.800811
2382.940009,-689.485948,-74.020594,10140.821405
2382.940338,-153.219100,-666.185348,10362.883188
2382.940667,-383.047749,-370.102971,10214.842000
2382.940995,536.266849,-444.123565,10732.986159
2382.941324,1072.533697,-592.164754,10658.965565
2382.941653,1455.581446,370.102971,9918.759623
2382.941982,2451.505594,666.185348,9770.718434
2382.942311,2834.553343,1184.329507,9030.512492
2382.942640,3064.381992,1702.473667,8512.368333
2382.942969,3447.429741,1628.453072,8808.450710
2382.943298,2757.943793,1184.329507,8290.306550
2382.943627,2145.067394,1554.432478,8882.471304
2382.943956,1915.238745,666.185348,9326.594869
2382.944285,689.485948,-0.000000,9030.512492
2382.944614,153.219100,-370.102971,9622.677246
2382.944943,-153.219100,-888.247130,9844.739029
2382.945272,-1225.752797,-888.247130,9474.636058
2382.945601,306.438199,-1184.329507,9992.780217
2382.945930,-995.924147,-666.185348,9844.739029
2382.946259,-1072.533697,-888.247130,9474.636058
2382.946588,-612.876398,-740.205942,9844.739029
2382.946917,-536.266849,-740.205942,9326.594869
2382.947246,76.609550,-444.123565,9252.574275
2382.947575,306.438199,-740.205942,9326.594869
2382.947904,459.657299,-222.061783,8660.409521
2382.948233,766.095498,-1036.288319,8734.430116
2382.948562,536.266849,-888.247130,8438.347739
2382.948892,689.485948,-592.164754,8290.306550
2382.949221,1072.533697,-518.144159,8734.430116
2382.949550,229.828649,-592.164754,7994.224174
2382.949879,229.828649,-518.144159,8512.368333
2382.950208,0.000000,-592.164754,8808.450710
2382.950537,-306.438199,-1184.329507,8142.265362
2382.950866,0.000000,-592.164754,8586.388927
2382.951195,-229.828649,-814.226536,8364.327145
2382.951525,-536.266849,-222.061783,8290.306550
2382.951854,0.000000,-370.102971,8586.388927
2382.952183,-306.438199,-74.020594,8438.347739
2382.952512,229.828649,-0.000000,7994.224174
2382.952841,459.657299,-148.041188,8734.430116
2382.953170,76.609550,-0.000000,7920.203579
2382.953499,383.047749,518.144159,8290.306550
2382.953829,459.657299,296.082377,8290.306550
2382.954158,76.609550,518.144159,8068.244768
2382.954487,766.095498,148.041188,8808.450710
2382.954816,0.000000,-0.000000,8586.388927
2382.955145,-383.047749,370.102971,8660.409521
2382.955474,0.000000,-0.000000,9696.697840
2382.955803,-612.876398,-0.000000,9400.615463
2382.956132,-383.047749,-148.041188,9622.677246
2382.956462,-306.438199,-666.185348,10288.862594
2382.956791,-459.657299,-518.144159,9770.718434
2382.957120,229.828649,-814.226536,10140.821405
2382.957449,229.828649,-666.185348,10658.965565
2382.957778,0.000000,-222.061783,9918.759623
2382.958107,1149.143247,-0.000000,10436.903782
2382.958436,1532.190996,-0.000000,9918.759623
2382.958765,1685.410096,370.102971,9696.697840
2382.959095,2528.115143,592.164754,9992.780217
2382.959424,2068.457845,740.205942,9474.636058
2382.959753,2221.676944,1110.308913,9326.594869
2382.960082,2374.896044,370.102971,9104.533087
2382.960411,1455.581446,888.247130,8808.450710
2382.960740,1685.410096,666.185348,9400.615463
2382.961069,842.705048,222.061783,9178.553681
2382.961398,383.047749,-0.000000,9104.533087
2382.961728,306.438199,-0.000000,9474.636058
2382.962057,-689.485948,-740.205942,9030.512492
2382.962386,-612.876398,-592.164754,9400.615463
2382.962715,-689.485948,-814.226536,9696.697840
2382.963044,-919.314598,-962.267725,9474.636058
2382.963373,-766.095498,-814.226536,9252.574275
2382.963702,-306.438199,-1184.329507,9696.697840
2382.964032,-459.657299,-666.185348,8808.450710
2382.964361,689.485948,-814.226536,9326.594869
2382.964690,383.047749,-740.205942,8734.430116
2382.965019,919.314598,-296.082377,8216.285956
2382.965348,1302.362347,-222.061783,8438.347739
2382.965677,1149.143247,-74.020594,7994.224174
2382.966006,1302.362347,-222.061783,7994.224174
2382.966335,919.314598,-814.226536,8512.368333
2382.966665,842.705048,-518.144159,7698.141797
2382.966994,536.266849,-962.267725,8512.368333
2382.967323,0.000000,-1184.329507,8512.368333
2382.967652,-689.485948,-740.205942,8290.306550
2382.967981,-153.219100,-1110.308913,9104.533087
2382.968310,-1072.533697,-1110.308913,8586.388927
2382.968639,-383.047749,-370.102971,8660.409521
2382.968968,-383.047749,-296.082377,9252.574275
2382.969298,-306.438199,-0.000000,8734.430116
2382.969627,0.000000,-0.000000,8586.388927
2382.969956,459.657299,222.061783,8364.327145
2382.970285,306.438199,888.247130,7994.224174
2382.970614,689.485948,962.267725,8734.430116
2382.970943,459.657299,814.226536,8586.388927
2382.971272,306.438199,1110.308913,8882.471304
2382.971601,229.828649,814.226536,9326.594869
2382.971931,-995.924147,222.061783,9178.553681
2382.972260,-612.876398,-0.000000,9400.615463
2382.972589,-1072.533697,-370.102971,10214.842000
2382.972918,-995.924147,-518.144159,9770.718434
2382.973247,-689.485948,-740.205942,10362.883188
2382.973576,-689.485948,-1036.288319,10214.842000
2382.973905,-383.047749,-222.061783,9844.739029
2382.974235,766.095498,-148.041188,10584.944971
2382.974564,919.314598,-0.000000,9696.697840
2382.974893,1762.019645,962.267725,9770.718434
2382.975222,2451.505594,888.247130,9844.739029
2382.975551,2528.115143,1258.350101,8956.491898
2382.975880,3294.210641,1554.432478,9474.636058
2382.976209,2604.724693,1184.329507,9326.594869
2382.976538,2451.505594,1332.370696,8734.430116
2382.976868,2145.067394,962.267725,9326.594869
2382.977197,1149.143247,370.102971,9178.553681
2382.977526,612.876398,-0.000000,9326.594869
2382.977855,306.438199,-592.164754,9918.759623
2382.978184,-536.266849,-222.061783,9622.677246
2382.978513,-153.219100,-592.164754,9548.656652
2382.978842,-306.438199,-888.247130,9474.636058
2382.979171,-536.266849,-666.185348,9030.512492
2382.979501,0.000000,-296.082377,9400.615463
2382.979830,-153.219100,-814.226536,9104.533087
2382.980159,-229.828649,-444.123565,8882.471304
2382.980488,383.047749,-666.185348,9252.574275
2382.980817,76.609550,-888.247130,8290.306550
2382.981146,76.609550,-814.226536,8882.471304
2382.981475,76.609550,-1184.329507,9252.574275
2382.981804,-459.657299,-1110.308913,8364.327145
2382.982134,306.438199,-1036.288319,8882.471304
2382.982463,153.219100,-1406.391290,8956.491898
2382.982792,-306.438199,-1480.411884,8586.388927
2382.983121,-383.047749,-1184.329507,9104.533087
2382.983450,-229.828649,-962.267725,8290.306550
2382.983779,0.000000,-444.123565,8290.306550
2382.984108,306.438199,-370.102971,8586.388927
2382.984437,0.000000,-296.082377,8438.347739
2382.984767,229.828649,-0.000000,8142.265362
2382.985096,0.000000,-518.144159,8438.347739
2382.985425,0.000000,-148.041188,8142.265362
2382.985754,383.047749,-0.000000,8290.306550
2382.986083,153.219100,-0.000000,8364.327145
2382.986412,0.000000,296.082377,8142.265362
2382.986741,306.438199,-0.000000,8734.430116
2382.987071,383.047749,296.082377,8438.347739
2382.987400,229.828649,592.164754,8068.244768
2382.987729,766.095498,-0.000000,8734.430116
2382.988058,0.000000,518.144159,8512.368333
2382.988387,0.000000,518.144159,9178.553681
2382.988716,0.000000,222.061783,9326.594869
2382.989045,0.000000,444.123565,9252.574275
2382.989374,-153.219100,-74.020594,10362.883188
2382.989704,-306.438199,-592.164754,10288.862594
2382.990033,0.000000,-444.123565,9918.759623
2382.990362,306.438199,-518.144159,10510.924376
2382.990691,0.000000,-222.061783,10288.862594
2382.991020,842.705048,-74.020594,10066.800811
2382.991349,1455.581446,-814.226536,10436.903782
2382.991678,1838.629195,296.082377,9622.677246
2382.992007,2451.505594,370.102971,9252.574275
2382.992337,1608.800546,370.102971,9696.697840
2382.992666,2145.067394,1110.308913,9030.512492
2382.992995,2451.505594,814.226536,9548.656652
2382.993324,1455.581446,666.185348,9178.553681
2382.993653,1149.143247,740.205942,9030.512492
2382.993982,842.705048,148.041188,9918.759623
2382.994311,-689.485948,-0.000000,9178.553681
2382.994640,153.219100,-370.102971,9400.615463
2382.994970,0.000000,-296.082377,9548.656652
2382.995299,-842.705048,-296.082377,9178.553681
2382.995628,-459.657299,-296.082377,9622.677246
2382.995957,-383.047749,-740.205942,9326.594869
2382.996286,-153.219100,-592.164754,8734.430116
2382.996615,-229.828649,-1110.308913,9178.553681
2382.996944,-612.876398,-740.205942,9030.512492
2382.997274,76.609550,-592.164754,8586.388927
2382.997603,306.438199,-518.144159,8808.450710
2382.997932,0.000000,-370.102971,8438.347739
2382.998261,766.095498,-592.164754,8808.450710
2382.998590,0.000000,-888.247130,8216.285956
2382.998919,153.219100,-888.247130,8142.265362
2382.999248,995.924147,-814.226536,8956.491898
2382.999577,0.000000,-1036.288319,8290.306550
2382.999907,0.000000,-666.185348,8364.327145
2383.000236,229.828649,-1036.288319,8734.430116
2383.000565,-306.438199,-888.247130,8364.327145
2383.000894,153.219100,-962.267725,8660.409521
2383.001223,0.000000,-888.247130,8734.430116
2383.001552,0.000000,-444.123565,8142.265362
2383.001881,76.609550,-444.123565,8734.430116
2383.002210,0.000000,-370.102971,8512.368333
2383.002540,-229.828649,-0.000000,7994.224174
2383.002869,76.609550,-148.041188,8512.368333
2383.003198,0.000000,-370.102971,8290.306550
2383.003527,0.000000,-148.041188,8216.285956
2383.003856,153.219100,666.185348,9104.533087
2383.004185,-306.438199,444.123565,8438.347739
2383.004514,0.000000,444.123565,8956.491898
2383.004843,-536.266849,296.082377,9178.553681
2383.005173,-459.657299,444.123565,9104.533087
2383.005502,-306.438199,-296.082377,9474.636058
2383.005831,-766.095498,-296.082377,9400.615463
2383.006160,-383.047749,-0.000000,10288.862594
2383.006489,-229.828649,-148.041188,9992.780217
2383.006818,-459.657299,-74.020594,9844.739029
2383.007147,383.047749,-74.020594,10066.800811
2383.007477,383.047749,-592.164754,10214.842000
2383.007806,919.314598,-222.061783,9844.739029
2383.008135,2068.457845,222.061783,10066.800811
2383.008464,1838.629195,-0.000000,9696.697840
2383.008793,2145.067394,962.267725,9178.553681
2383.009122,3140.991542,888.247130,9400.615463
2383.009451,2528.115143,1332.370696,8808.450710
2383.009780,2911.162892,1258.350101,9104.533087
2383.010110,2298.286494,444.123565,9400.615463
2383.010439,1455.581446,1036.288319,8882.471304
2383.010768,1762.019645,592.164754,9104.533087
2383.011097,766.095498,-0.000000,9474.636058
2383.011426,0.000000,-222.061783,8956.491898
2383.011755,306.438199,-444.123565,9622.677246
2383.012084,-536.266849,-1110.308913,9400.615463
2383.012413,-766.095498,-962.267725,9178.553681
2383.012743,153.219100,-888.247130,10066.800811
2383.013072,-689.485948,-814.226536,9178.553681
2383.013401,-383.047749,-518.144159,9474.636058
2383.013730,0.000000,-814.226536,9326.594869
2383.014059,-459.657299,-518.144159,8512.368333
2383.014388,229.828649,-888.247130,9104.533087
2383.014717,229.828649,-1332.370696,8512.368333
2383.015046,153.219100,-592.164754,8438.347739
2383.015376,306.438199,-1184.329507,8808.450710
2383.015705,0.000000,-1036.288319,8290.306550
2383.016034,306.438199,-666.185348,8438.347739
2383.016363,0.000000,-1036.288319,8660.409521
2383.016692,0.000000,-740.205942,8290.306550
2383.017021,689.485948,-1036.288319,8586.388927
2383.017350,0.000000,-1110.308913,8734.430116
2383.017679,-229.828649,-296.082377,8142.265362
2383.018009,0.000000,-592.164754,8512.368333
2383.018338,-153.219100,-666.185348,8290.306550
2383.018667,229.828649,74.020594,8142.265362
2383.018996,919.314598,-0.000000,8734.430116
2383.019325,536.266849,518.144159,8216.285956
2383.019654,919.314598,444.123565,8512.368333
2383.019983,536.266849,-0.000000,8512.368333
2383.020313,383.047749,1036.288319,7624.121203
2383.020642,919.314598,1036.288319,8364.327145
2383.020971,536.266849,592.164754,8290.306550
2383.021300,0.000000,370.102971,7920.203579
2383.021629,0.000000,-0.000000,9474.636058
2383.021958,-612.876398,-148.041188,8660.409521
2383.022287,0.000000,-222.061783,9548.656652
2383.022616,-536.266849,-592.164754,9918.759623
2383.022946,-1225.752797,-666.185348,9918.759623
2383.023275,-536.266849,-518.144159,10436.903782
2383.023604,-383.047749,-814.226536,10658.965565
2383.023933,0.000000,-222.061783,10288.862594
2383.024262,1149.143247,-370.102971,10436.903782
2383.024591,1149.143247,-296.082377,9474.636058
2383.024920,2068.457845,888.247130,9844.739029
2383.025249,2604.724693,962.267725,9696.697840
2383.025579,2298.286494,888.247130,8734.430116
2383.025908,2911.162892,1702.473667,9104.533087
2383.026237,2757.943793,962.267725,9474.636058
2383.026566,1685.410096,666.185348,8882.471304
2383.026895,1915.238745,296.082377,9696.697840
2383.027224,536.266849,-74.020594,9326.594869
2383.027553,0.000000,-0.000000,9474.636058
2383.027882,0.000000,-518.144159,9918.759623
2383.028212,-689.485948,-888.247130,9474.636058
2383.028541,-766.095498,-222.061783,9696.697840
2383.028870,-536.266849,-1036.288319,9696.697840
2383.029199,-383.047749,-666.185348,9030.512492
2383.029528,76.609550,-296.082377,9030.512492
2383.029857,-153.219100,-518.144159,9030.512492
2383.030186,0.000000,-0.000000,8660.409521
2383.030516,536.266849,-296.082377,8882.471304
2383.030845,459.657299,-296.082377,8660.409521
2383.031174,0.000000,-370.102971,8512.368333
2383.031503,766.095498,-740.205942,8882.471304
2383.031832,76.609550,-888.247130,7920.203579
2383.032161,229.828649,-814.226536,8512.368333
2383.032490,76.609550,-1332.370696,8734.430116
2383.032819,-383.047749,-962.267725,8586.388927
2383.033149,-153.219100,-1258.350101,8660.409521
2383.033478,-383.047749,-1406.391290,7846.182985
2383.033807,-383.047749,-1110.308913,8142.265362
2383.034136,0.000000,-444.123565,8882.471304
2383.034465,-153.219100,-296.082377,8290.306550
2383.034794,153.219100,-444.123565,8142.265362
2383.035123,383.047749,-370.102971,8586.388927
2383.035452,-153.219100,-222.061783,8216.285956
2383.035782,153.219100,-148.041188,8142.265362
2383.036111,0.000000,148.041188,8734.430116
2383.036440,-383.047749,-0.000000,8364.327145
2383.036769,76.609550,296.082377,8734.430116
2383.037098,0.000000,370.102971,8364.327145
2383.037427,-536.266849,370.102971,8586.388927
2383.037756,0.000000,370.102971,8882.471304
2383.038085,-612.876398,296.082377,9030.512492
2383.038415,-459.657299,148.041188,9252.574275
2383.038744,-612.876398,-0.000000,9548.656652
2383.039073,-1072.533697,148.041188,9474.636058
2383.039402,-383.047749,-222.061783,10066.800811
2383.039731,-383.047749,-592.164754,9844.739029
2383.040060,-612.876398,-148.041188,9918.759623
2383.040389,1149.143247,-222.061783,10658.965565
2383.040718,229.828649,-444.123565,10140.821405
2383.041048,1532.190996,-0.000000,9844.739029
2383.041377,2068.457845,370.102971,10140.821405
2383.041706,2145.067394,444.123565,9252.574275
2383.042035,2987.772442,1332.370696,9474.636058
2383.042364,3370.820191,888.247130,9326.594869
2383.042693,2681.334243,2146.597232,8808.450710
2383.043022,3370.820191,1184.329507,9178.553681
2383.043352,2451.505594,962.267725,9030.512492
2383.043681,1838.629195,1036.288319,8808.450710
2383.044010,1532.190996,296.082377,9548.656652
2383.044339,536.266849,-0.000000,9104.533087
2383.044668,0.000000,-0.000000,9400.615463
2383.044997,0.000000,-1110.308913,10214.842000
2383.045326,-842.705048,-1110.308913,8956.491898
2383.045655,-306.438199,-814.226536,10140.821405
2383.045985,-689.485948,-1258.350101,9474.636058
2383.046314,-536.266849,-518.144159,8956.491898
2383.046643,0.000000,-666.185348,9474.636058
2383.046972,0.000000,-592.164754,8660.409521
2383.047301,76.609550,-370.102971,9030.512492
2383.047630,229.828649,-1184.329507,9178.553681
2383.047959,229.828649,-666.185348,8512.368333
2383.048288,612.876398,-592.164754,8808.450710
2383.048618,536.266849,-592.164754,8734.430116
2383.048947,-153.219100,-888.247130,8364.327145
2383.049276,383.047749,-814.226536,8734.430116
2383.049605,0.000000,-1628.453072,8734.430116
2383.049934,-459.657299,-1110.308913,8438.347739
2383.050263,0.000000,-1258.350101,8882.471304
2383.050592,-689.485948,-962.267725,8290.306550
2383.050921,0.000000,-666.185348,8512.368333
2383.051251,0.000000,-962.267725,8364.327145
2383.051580,-536.266849,-592.164754,8068.244768
2383.051909,459.657299,148.041188,8660.409521
2383.052238,459.657299,-74.020594,8290.306550
2383.052567,229.828649,222.061783,8290.306550
2383.052896,919.314598,296.082377,8364.327145
2383.053225,229.828649,592.164754,8068.244768
2383.053555,306.438199,962.267725,7920.203579
2383.053884,612.876398,370.102971,8512.368333
2383.054213,0.000000,740.205942,8364.327145
2383.054542,306.438199,-0.000000,8660.409521
2383.054871,-612.876398,-0.000000,9400.615463
2383.055200,-1072.533697,-0.000000,9104.533087
2383.055529,-536.266849,-148.041188,9548.656652
2383.055858,-995.924147,-518.144159,9548.656652
2383.056188,-766.095498,-740.205942,10140.821405
2383.056517,0.000000,-888.247130,10584.944971
2383.056846,-689.485948,-444.123565,9992.780217
2383.057175,0.000000,-0.000000,10510.924376
2383.057504,689.485948,-222.061783,10362.883188
2383.057833,842.705048,148.041188,9696.697840
2383.058162,2298.286494,740.205942,10066.800811
2383.058491,2451.505594,518.144159,9548.656652
2383.058821,2451.505594,962.267725,9178.553681
2383.059150,3524.039291,962.267725,9696.697840
2383.059479,1991.848295,1036.288319,9178.553681
2383.059808,2068.457845,814.226536,8956.491898
2383.060137,1762.019645,148.041188,9548.656652
2383.060466,689.485948,370.102971,9326.594869
2383.060795,1072.533697,222.061783,9770.718434
2383.061124,842.705048,-222.061783,10066.800811
2383.061454,0.000000,-666.185348,9474.636058
2383.061783,229.828649,-592.164754,9696.697840
2383.062112,-383.047749,-222.061783,9252.574275
2383.062441,0.000000,-74.020594,8808.450710
2383.062770,76.609550,-222.061783,9400.615463
2383.063099,0.000000,-296.082377,8586.388927
2383.063428,229.828649,-296.082377,8586.388927
2383.063758,76.609550,-740.205942,9104.533087
2383.064087,0.000000,-592.164754,8512.368333
2383.064416,153.219100,-592.164754,8586.388927
2383.064745,76.609550,-814.226536,8586.388927
2383.065074,0.000000,-888.247130,8290.306550
2383.065403,383.047749,-1110.308913,9030.512492
2383.065732,0.000000,-1480.411884,8586.388927
2383.066061,153.219100,-962.267725,8808.450710
2383.066391,229.828649,-1258.350101,8808.450710
2383.066720,0.000000,-814.226536,8142.265362
2383.067049,153.219100,-740.205942,8512.368333
2383.067378,153.219100,-888.247130,8438.347739
2383.067707,0.000000,-592.164754,8142.265362
2383.068036,612.876398,-666.185348,8660.409521
2383.068365,-919.314598,-666.185348,8512.368333
2383.068694,-459.657299,-148.041188,8512.368333
2383.069024,76.609550,-370.102971,8808.450710
2383.069353,-536.266849,-296.082377,8216.285956
2383.069682,0.000000,-296.082377,8586.388927
2383.070011,76.609550,-74.020594,9030.512492
2383.070340,-766.095498,-0.000000,8142.265362
2383.070669,0.000000,518.144159,9178.553681
2383.070998,0.000000,296.082377,9104.533087
2383.071327,-306.438199,592.164754,8364.327145
2383.071657,153.219100,518.144159,9178.553681
2383.071986,-383.047749,518.144159,9104.533087
2383.072315,-383.047749,444.123565,9030.512492
2383.072644,-153.219100,296.082377,9918.759623
2383.072973,-1149.143247,-0.000000,9770.718434
2383.073302,-1072.533697,-222.061783,9918.759623
2383.073631,-536.266849,-666.185348,10066.800811
2383.073960,-383.047749,-74.020594,9844.739029
2383.074290,536.266849,-444.123565,10510.924376
2383.074619,1072.533697,-444.123565,9770.718434
2383.074948,1532.190996,-0.000000,9474.636058
2383.075277,2604.724693,148.041188,9622.677246
2383.075606,2528.115143,814.226536,9400.615463
2383.075935,2528.115143,1406.391290,9030.512492
2383.076264,2757.943793,1332.370696,8956.491898
2383.076594,2221.676944,1702.473667,8734.430116
2383.076923,2298.286494,1258.350101,8956.491898
2383.077252,2068.457845,518.144159,8956.491898
2383.077581,995.924147,962.267725,9030.512492
2383.077910,995.924147,-666.185348,9474.636058
2383.078239,-306.438199,-888.247130,9474.636058
2383.078568,-689.485948,-962.267725,9474.636058
2383.078897,-459.657299,-1184.329507,9770.718434
2383.079227,-1378.971896,-1258.350101,9474.636058
2383.079556,-612.876398,-814.226536,9548.656652
2383.079885,-459.657299,-666.185348,9622.677246
2383.080214,-383.047749,-518.144159,9030.512492
2383.080543,689.485948,-666.185348,9474.636058
2383.080872,153.219100,-370.102971,9030.512492
2383.081201,766.095498,-0.000000,8216.285956
2383.081530,612.876398,-518.144159,8956.491898
2383.081860,459.657299,-518.144159,8438.347739
2383.082189,459.657299,-518.144159,8512.368333
2383.082518,612.876398,-1036.288319,9030.512492
2383.082847,-76.609550,-740.205942,8586.388927
2383.083176,0.000000,-666.185348,9104.533087
2383.083505,-766.095498,-1406.391290,8808.450710
2383.083834,-612.876398,-814.226536,8512.368333
2383.084163,0.000000,-962.267725,8808.450710
2383.084493,-229.828649,-888.247130,8438.347739
2383.084822,76.609550,-518.144159,8438.347739
2383.085151,153.219100,-518.144159,8512.368333
2383.085480,0.000000,222.061783,8068.244768
2383.085809,842.705048,296.082377,8142.265362
2383.086138,689.485948,444.123565,7920.203579
2383.086467,153.219100,666.185348,7772.162391
2383.086797,766.095498,740.205942,8438.347739
2383.087126,536.266849,370.102971,8216.285956
2383.087455,76.609550,888.247130,8438.347739
2383.087784,995.924147,148.041188,8882.471304
2383.088113,-459.657299,-0.000000,8808.450710
2383.088442,-383.047749,148.041188,8956.491898
2383.088771,-153.219100,-222.061783,9400.615463
2383.089100,-919.314598,-148.041188,9104.533087
2383.089430,-459.657299,-296.082377,9992.780217
2383.089759,766.095498,-296.082377,10288.862594
2383.090088,0.000000,-444.123565,9918.759623
2383.090417,612.876398,-518.144159,10288.862594
2383.090746,306.438199,-296.082377,9992.780217
2383.091075,842.705048,-0.000000,9696.697840
2383.091404,1685.410096,-0.000000,10066.800811
2383.091733,1838.629195,-0.000000,9474.636058
2383.092063,2298.286494,444.123565,9326.594869
2383.092392,2298.286494,222.061783,9696.697840
2383.092721,1991.848295,666.185348,9104.533087
2383.093050,2298.286494,740.205942,9474.636058
2383.093379,1838.629195,592.164754,9252.574275
2383.093708,1455.581446,666.185348,8882.471304
2383.094037,1225.752797,740.205942,9548.656652
2383.094366,766.095498,-0.000000,9474.636058
2383.094696,459.657299,-0.000000,9400.615463
2383.095025,229.828649,-148.041188,9474.636058
2383.095354,-612.876398,-74.020594,9104.533087
2383.095683,0.000000,-370.102971,9474.636058
2383.096012,-689.485948,-740.205942,9400.615463
2383.096341,-536.266849,-370.102971,8882.471304
2383.096670,-229.828649,-962.267725,9622.677246
2383.096999,-919.314598,-1406.391290,9030.512492
2383.097329,-536.266849,-814.226536,8956.491898
2383.097658,0.000000,-888.247130,9030.512492
2383.097987,0.000000,-814.226536,8438.347739
2383.098316,612.876398,-814.226536,8586.388927
2383.098645,1072.533697,-592.164754,8290.306550
2383.098974,842.705048,-444.123565,8068.244768
2383.099303,1072.533697,-740.205942,8364.327145
2383.099633,536.266849,-592.164754,8290.306550
2383.099962,459.657299,-148.041188,7920.203579
2383.100291,536.266849,-814.226536,8586.388927
2383.100620,0.000000,-962.267725,8142.265362
2383.100949,-306.438199,-740.205942,8660.409521
2383.101278,-229.828649,-1258.350101,8882.471304
2383.101607,-842.705048,-888.247130,8586.388927
2383.101936,-229.828649,-444.123565,9400.615463
2383.102266,-459.657299,-814.226536,8734.430116
2383.102595,-612.876398,-148.041188,8660.409521
2383.102924,229.828649,-74.020594,8882.471304
2383.103253,0.000000,-148.041188,8438.347739
2383.103582,0.000000,518.144159,8438.347739
2383.103911,995.924147,518.144159,8438.347739
2383.104240,76.609550,666.185348,8216.285956
2383.104569,459.657299,1184.329507,8438.347739
2383.104899,0.000000,370.102971,8956.491898
2383.105228,-459.657299,370.102971,8734.430116
2383.105557,0.000000,-0.000000,9400.615463
2383.105886,-1072.533697,-592.164754,9622.677246
2383.106215,-995.924147,-518.144159,9696.697840
2383.106544,-383.047749,-1036.288319,9992.780217
2383.106873,-536.266849,-518.144159,9918.759623
2383.107202,0.000000,-74.020594,10214.842000
2383.107532,689.485948,-296.082377,10510.924376
2383.107861,995.924147,-370.102971,9992.780217
2383.108190,2451.505594,518.144159,9770.718434
2383.108519,2911.162892,518.144159,9474.636058
2383.108848,2757.943793,1332.370696,8882.471304
2383.109177,3524.039291,1554.432478,9252.574275
2383.109506,2911.162892,1480.411884,8364.327145
2383.109836,2757.943793,1332.370696,8586.388927
2383.110165,2604.724693,592.164754,9400.615463
2383.110494,1378.971896,296.082377,8882.471304
2383.110823,1378.971896,-592.164754,9400.615463
2383.111152,-229.828649,-962.267725,9770.718434
2383.111481,-995.924147,-666.185348,9474.636058
2383.111810,-536.266849,-888.247130,9992.780217
2383.112139,-689.485948,-962.267725,9400.615463
2383.112469,-995.924147,-592.164754,8734.430116
2383.112798,229.828649,-518.144159,10066.800811
2383.113127,-919.314598,-296.082377,9030.512492
2383.113456,306.438199,-296.082377,9104.533087
2383.113785,383.047749,-518.144159,9178.553681
2383.114114,0.000000,-222.061783,8882.471304
2383.114443,306.438199,-444.123565,9030.512492
2383.114772,612.876398,-1406.391290,8660.409521
2383.115102,229.828649,-1184.329507,8586.388927
2383.115431,459.657299,-1110.308913,8956.491898
2383.115760,-229.828649,-1480.411884,8808.450710
2383.116089,-306.438199,-1110.308913,8586.388927
2383.116418,-153.219100,-1184.329507,9104.533087
2383.116747,-536.266849,-814.226536,8882.471304
2383.117076,0.000000,-740.205942,8586.388927
2383.117405,0.000000,-740.205942,8586.388927
2383.117735,0.000000,-518.144159,7994.224174
2383.118064,766.095498,-296.082377,8734.430116
2383.118393,306.438199,-444.123565,8216.285956
2383.118722,0.000000,222.061783,7846.182985
2383.119051,459.657299,-0.000000,8364.327145
2383.119380,0.000000,222.061783,7994.224174
2383.119709,689.485948,-0.000000,7920.203579
2383.120038,842.705048,296.082377,8364.327145
2383.120368,76.609550,-74.020594,7920.203579
2383.120697,383.047749,370.102971,8438.347739
2383.121026,76.609550,-0.000000,8808.450710
2383.121355,-229.828649,370.102971,8290.306550
2383.121684,0.000000,-0.000000,9252.574275
2383.122013,-766.095498,-0.000000,9474.636058
2383.122342,76.609550,-0.000000,9622.677246
2383.122672,-153.219100,-222.061783,9992.780217
2383.123001,-536.266849,-518.144159,9622.677246
2383.123330,0.000000,-296.082377,9992.780217
2383.123659,766.095498,-296.082377,10288.862594
2383.123988,76.609550,-222.061783,9918.759623
2383.124317,1149.143247,-148.041188,10362.883188
2383.124646,1225.752797,-222.061783,9844.739029
2383.124975,1608.800546,148.041188,9844.739029
2383.125305,2681.334243,-0.000000,9992.780217
2383.125634,1915.238745,962.267725,9400.615463
2383.125963,2374.896044,1110.308913,9178.553681
2383.126292,2451.505594,888.247130,9622.677246
2383.126621,1762.019645,962.267725,9030.512492
2383.126950,1915.238745,962.267725,9474.636058
2383.127279,1378.971896,444.123565,9326.594869
2383.127608,689.485948,518.144159,9252.574275
2383.127938,995.924147,-222.061783,9696.697840
2383.128267,0.000000,-74.020594,9400.615463
2383.128596,-459.657299,-0.000000,9326.594869
2383.128925,-229.828649,-666.185348,9622.677246
2383.129254,-766.095498,-592.164754,8956.491898
2383.129583,-689.485948,-740.205942,9400.615463
2383.129912,-153.219100,-1110.308913,9326.594869
2383.130241,-459.657299,-814.226536,9400.615463
2383.130571,153.219100,-888.247130,8882.471304
2383.130900,0.000000,-666.185348,8808.450710
2383.131229,229.828649,-592.164754,8586.388927
2383.131558,842.705048,-518.144159,8882.471304
2383.131887,306.438199,-222.061783,8290.306550
2383.132216,459.657299,-296.082377,8290.306550
2383.132545,919.314598,-1036.288319,8734.430116
2383.132875,0.000000,-666.185348,8216.285956
2383.133204,383.047749,-222.061783,8660.409521
2383.133533,383.047749,-1258.350101,8438.347739
2383.133862,-229.828649,-962.267725,8290.306550
2383.134191,0.000000,-1110.308913,8882.471304
2383.134520,-306.438199,-2072.576638,8364.327145
2383.134849,-689.485948,-1036.288319,8290.306550
2383.135178,0.000000,-1110.308913,8882.471304
2383.135508,-459.657299,-444.123565,8290.306550
2383.135837,0.000000,-148.041188,8734.430116
2383.136166,153.219100,-148.041188,8586.388927
2383.136495,153.219100,296.082377,8216.285956
2383.136824,842.705048,518.144159,8882.471304
2383.137153,536.266849,814.226536,8290.306550
2383.137482,0.000000,962.267725,7772.162391
2383.137811,0.000000,814.226536,8956.491898
2383.138141,-689.485948,740.205942,8586.388927
2383.138470,-536.266849,666.185348,9104.533087
2383.138799,-459.657299,-74.020594,9400.615463
2383.139128,-1225.752797,-222.061783,9474.636058
2383.139457,-153.219100,-518.144159,9696.697840
2383.139786,-689.485948,-888.247130,10140.821405
2383.140115,-842.705048,-296.082377,9622.677246
2383.140444,0.000000,-222.061783,10510.924376
2383.140774,-306.438199,-370.102971,10066.800811
2383.141103,612.876398,-444.123565,10362.883188
2383.141432,1991.848295,-0.000000,10436.903782
2383.141761,2068.457845,370.102971,9696.697840
2383.142090,2528.115143,888.247130,9326.594869
2383.142419,3140.991542,1184.329507,9326.594869
2383.142748,2911.162892,1776.494261,8512.368333
2383.143078,3370.820191,1702.473667,8882.471304
2383.143407,3064.381992,962.267725,8956.491898
2383.143736,2068.457845,1554.432478,8438.347739
2383.144065,1608.800546,666.185348,9622.677246
2383.144394,689.485948,-0.000000,9252.574275
2383.144723,0.000000,-222.061783,9326.594869
2383.145052,0.000000,-888.247130,9992.780217
2383.145381,-689.485948,-962.267725,9400.615463
2383.145711,-306.438199,-666.185348,10066.800811
2383.146040,-842.705048,-814.226536,9918.759623
2383.146369,-842.705048,-888.247130,9326.594869
2383.146698,0.000000,-814.226536,10066.800811
2383.147027,-306.438199,-444.123565,9252.574275
2383.147356,0.000000,-518.144159,8660.409521
2383.147685,536.266849,-814.226536,9326.594869
2383.148014,0.000000,-962.267725,8290.306550
2383.148344,919.314598,-1110.308913,8438.347739
2383.148673,995.924147,-1184.329507,8512.368333
2383.149002,306.438199,-592.164754,8290.306550
2383.149331,766.095498,-814.226536,8734.430116
2383.149660,0.000000,-1184.329507,8216.285956
2383.149989,0.000000,-814.226536,8216.285956
2383.150318,306.438199,-1332.370696,8660.409521
2383.150647,-842.705048,-1332.370696,8438.347739
2383.150976,153.219100,-1332.370696,8290.306550
2383.151305,0.000000,-888.247130,8956.491898
2383.151635,-459.657299,-444.123565,8216.285956
2383.151964,0.000000,-222.061783,8364.327145
2383.152293,0.000000,-74.020594,8438.347739
2383.152622,0.000000,-0.000000,7994.224174
2383.152951,919.314598,-0.000000,8586.388927
2383.153280,153.219100,74.020594,8068.244768
2383.153609,0.000000,888.247130,8290.306550
2383.153938,459.657299,370.102971,8290.306550
2383.154267,0.000000,592.164754,8142.265362
2383.154596,459.657299,592.164754,8586.388927
2383.154925,459.657299,-0.000000,8660.409521
2383.155255,-229.828649,666.185348,8586.388927
2383.155584,0.000000,-74.020594,9548.656652
2383.155913,-689.485948,-148.041188,9326.594869
2383.156242,-612.876398,-370.102971,9474.636058
2383.156571,0.000000,-444.123565,10436.903782
2383.156900,-536.266849,-592.164754,9992.780217
2383.157229,0.000000,-518.144159,10288.862594
2383.157558,-766.095498,-666.185348,10732.986159
2383.157887,0.000000,-444.123565,9918.759623
2383.158216,1302.362347,-74.020594,9992.780217
2383.158546,1532.190996,-0.000000,10066.800811
2383.158875,1608.800546,592.164754,9548.656652
2383.159204,2528.115143,962.267725,9844.739029
2383.159533,2221.676944,740.205942,9400.615463
2383.159862,2374.896044,1110.308913,8956.491898
2383.160191,2451.505594,666.185348,9474.636058
2383.160520,1302.362347,962.267725,9326.594869
2383.160849,1455.581446,962.267725,9252.574275
2383.161178,766.095498,-0.000000,9548.656652
2383.161507,0.000000,-0.000000,9178.553681
2383.161836,0.000000,-222.061783,9696.697840
2383.162166,-459.657299,-740.205942,10066.800811
2383.162495,-995.924147,-666.185348,9474.636058
2383.162824,-383.047749,-1036.288319,9474.636058
2383.163153,-995.924147,-1036.288319,9178.553681
2383.163482,-536.266849,-666.185348,9400.615463
2383.163811,-153.219100,-1184.329507,9326.594869
2383.164140,153.219100,-666.185348,8882.471304
2383.164469,459.657299,-814.226536,9104.533087
2383.164798,689.485948,-1184.329507,8882.471304
2383.165127,919.314598,-518.144159,7994.224174
2383.165457,1225.752797,-518.144159,8364.327145
2383.165786,919.314598,-666.185348,7846.182985
2383.166115,842.705048,-518.144159,8142.265362
2383.166444,612.876398,-666.185348,8734.430116
2383.166773,76.609550,-592.164754,8068.244768
2383.167102,153.219100,-1036.288319,8364.327145
2383.167431,-459.657299,-1406.391290,8734.430116
2383.167760,-689.485948,-962.267725,8364.327145
2383.168089,-306.438199,-1110.308913,8734.430116
2383.168418,-383.047749,-1184.329507,8512.368333
2383.168747,-612.876398,-444.123565,8808.450710
2383.169077,-919.314598,-444.123565,9104.533087
2383.169406,0.000000,-222.061783,8290.306550
2383.169735,306.438199,-0.000000,8512.368333
2383.170064,383.047749,222.061783,8882.471304
2383.170393,0.000000,518.144159,8142.265362
2383.170722,229.828649,888.247130,8660.409521
2383.171051,153.219100,222.061783,8438.347739
2383.171380,0.000000,592.164754,8438.347739
2383.171709,153.219100,814.226536,9474.636058
2383.172038,-1149.143247,222.061783,9326.594869
2383.172368,-766.095498,222.061783,9104.533087
2383.172697,-612.876398,-222.061783,9918.759623
2383.173026,-1072.533697,-370.102971,9622.677246
2383.173355,-689.485948,-370.102971,10510.924376
2383.173684,0.000000,-592.164754,10288.862594
2383.174013,229.828649,-74.020594,9918.759623
2383.174342,536.266849,-296.082377,10362.883188
2383.174671,995.924147,-0.000000,10066.800811
2383.175000,1838.629195,666.185348,9548.656652
2383.175329,2911.162892,888.247130,9770.718434
2383.175658,2221.676944,1184.329507,8882.471304
2383.175988,2987.772442,1406.391290,9030.512492
2383.176317,3217.601092,1480.411884,9474.636058
2383.176646,2298.286494,1184.329507,8956.491898
2383.176975,2298.286494,962.267725,8882.471304
2383.177304,1455.581446,592.164754,9326.594869
2383.177633,459.657299,444.123565,8882.471304
2383.177962,612.876398,-518.144159,9622.677246
2383.178291,-536.266849,-740.205942,9696.697840
2383.178620,-995.924147,-1036.288319,9622.677246
2383.178949,-995.924147,-1406.391290,10140.821405
2383.179279,-1302.362347,-1332.370696,9622.677246
2383.179608,-689.485948,-740.205942,9474.636058
2383.179937,-459.657299,-888.247130,9474.636058
2383.180266,-229.828649,-592.164754,9326.594869
2383.180595,536.266849,-518.144159,9326.594869
2383.180924,306.438199,-888.247130,8808.450710
2383.181253,229.828649,-296.082377,8586.388927
2383.181582,1225.752797,-592.164754,9030.512492
2383.181911,766.095498,-740.205942,8290.306550
2383.182240,842.705048,-296.082377,8290.306550
2383.182569,919.314598,-592.164754,8660.409521
2383.182899,0.000000,-888.247130,8290.306550
2383.183228,229.828649,-888.247130,8586.388927
2383.183557,0.000000,-1480.411884,8438.347739
2383.183886,-919.314598,-888.247130,8290.306550
2383.184215,-383.047749,-1184.329507,8808.450710
2383.184544,-612.876398,-1036.288319,8438.347739
2383.184873,-689.485948,-888.247130,8734.430116
2383.185202,383.047749,-740.205942,8808.450710
2383.185531,153.219100,-444.123565,8290.306550
2383.185860,383.047749,370.102971,8512.368333
2383.186190,842.705048,370.102971,8216.285956
2383.186519,459.657299,962.267725,7920.203579
2383.186848,1302.362347,1110.308913,8216.285956
2383.187177,919.314598,814.226536,7846.182985
2383.187506,995.924147,888.247130,7994.224174
2383.187835,842.705048,592.164754,8734.430116
2383.188164,0.000000,296.082377,8364.327145
2383.188493,-153.219100,148.041188,8808.450710
2383.188822,-306.438199,-370.102971,9474.636058
2383.189151,-1225.752797,-444.123565,9474.636058
2383.189480,-842.705048,-740.205942,10140.821405
2383.189810,-1149.143247,-1332.370696,10584.944971
2383.190139,-1149.143247,-444.123565,9992.780217
2383.190468,153.219100,-444.123565,10881.027347
2383.190797,229.828649,-370.102971,10288.862594
2383.191126,689.485948,-0.000000,10288.862594
2383.191455,1608.800546,148.041188,10214.842000
2383.191784,1378.971896,592.164754,9474.636058
2383.192113,2528.115143,1110.308913,9474.636058
2383.192442,2681.334243,1184.329507,9622.677246
2383.192771,2374.896044,1406.391290,8956.491898
2383.193101,2681.334243,1110.308913,9400.615463
2383.193430,2068.457845,592.164754,9178.553681
2383.193759,1378.971896,666.185348,9030.512492
2383.194088,1225.752797,-0.000000,9326.594869
2383.194417,383.047749,-296.082377,9474.636058
2383.194746,229.828649,-74.020594,9326.594869
2383.195075,0.000000,-370.102971,9474.636058
2383.195404,-1149.143247,-444.123565,9400.615463
2383.195733,-459.657299,-296.082377,9622.677246
2383.196062,-536.266849,-666.185348,9548.656652
2383.196392,-842.705048,-592.164754,9178.553681
2383.196721,76.609550,-666.185348,9696.697840
2383.197050,-229.828649,-888.247130,9178.553681
2383.197379,-229.828649,-888.247130,8882.471304
2383.197708,536.266849,-814.226536,9104.533087
2383.198037,229.828649,-666.185348,8290.306550
2383.198366,612.876398,-592.164754,8364.327145
2383.198695,689.485948,-592.164754,8808.450710
2383.199024,536.266849,-740.205942,8142.265362
2383.199353,1378.971896,-1258.350101,8364.327145
2383.199682,612.876398,-1110.308913,8512.368333
2383.200012,0.000000,-814.226536,7920.203579
2383.200341,383.047749,-1036.288319,8660.409521
2383.200670,-612.876398,-962.267725,8438.347739
2383.200999,0.000000,-666.185348,8364.327145
2383.201328,-383.047749,-666.185348,9400.615463
2383.201657,-459.657299,-518.144159,8364.327145
2383.201986,-306.438199,-888.247130,8586.388927
2383.202315,0.000000,-296.082377,8734.430116
2383.202644,0.000000,-222.061783,8068.244768
2383.202973,689.485948,-74.020594,8734.430116
2383.203303,153.219100,-0.000000,8364.327145
2383.203632,383.047749,592.164754,8142.265362
2383.203961,1225.752797,666.185348,8808.450710
2383.204290,612.876398,370.102971,8364.327145
2383.204619,153.219100,962.267725,8290.306550
2383.204948,-229.828649,444.123565,9400.615463
2383.205277,-536.266849,222.061783,9030.512492
2383.205606,-536.266849,-0.000000,9326.594869
2383.205935,-612.876398,-666.185348,9696.697840
2383.206264,-1302.362347,-296.082377,9918.759623
2383.206593,-995.924147,-888.247130,10658.965565
2383.206923,-459.657299,-666.185348,9992.780217
2383.207252,0.000000,-148.041188,9918.759623
2383.207581,689.485948,-74.020594,10362.883188
2383.207910,842.705048,296.082377,9770.718434
2383.208239,1915.238745,370.102971,10066.800811
2383.208568,2757.943793,740.205942,9622.677246
2383.208897,2911.162892,1554.432478,9326.594869
2383.209226,3600.648841,1332.370696,9474.636058
2383.209555,3064.381992,1332.370696,8734.430116
2383.209884,2911.162892,1702.473667,8734.430116
2383.210214,2681.334243,814.226536,9252.574275
2383.210543,1455.581446,370.102971,8956.491898
2383.210872,1072.533697,-0.000000,9104.533087
2383.211201,383.047749,-222.061783,9696.697840
2383.211530,-306.438199,-592.164754,9326.594869
2383.211859,-459.657299,-666.185348,9696.697840
2383.212188,-995.924147,-1406.391290,9622.677246
2383.212517,-1302.362347,-740.205942,9474.636058
2383.212846,-459.657299,-1110.308913,9918.759623
2383.213175,-612.876398,-1480.411884,9252.574275
2383.213504,-306.438199,-814.226536,9326.594869
2383.213834,76.609550,-962.267725,9474.636058
