#time,accel_x,accel_y,accel_z
2650.621043,536.266849,-296.082377,9104.533087
2650.621372,459.657299,-74.020594,9178.553681
2650.621701,536.266849,-74.020594,9104.533087
2650.622030,229.828649,-148.041188,9030.512492
2650.622359,76.609550,-74.020594,9030.512492
2650.622688,459.657299,-370.102971,8956.491898
2650.623017,153.219100,-296.082377,8808.450710
2650.623346,229.828649,-296.082377,9104.533087
2650.623675,306.438199,-370.102971,8956.491898
2650.624004,383.047749,-0.000000,8956.491898
2650.624333,306.438199,-74.020594,8808.450710
2650.624662,229.828649,-74.020594,8586.388927
2650.624991,536.266849,-148.041188,9104.533087
2650.625320,459.657299,-74.020594,8882.471304
2650.625648,306.438199,-370.102971,8882.471304
2650.625977,76.609550,-222.061783,9030.512492
2650.626306,383.047749,-74.020594,8808.450710
2650.626635,76.609550,-0.000000,8956.491898
2650.626964,76.609550,-74.020594,8956.491898
2650.627293,306.438199,-222.061783,9104.533087
2650.627622,459.657299,-518.144159,9178.553681
2650.627951,306.438199,-222.061783,9326.594869
2650.628280,383.047749,-444.123565,9030.512492
2650.628609,383.047749,-148.041188,8956.491898
2650.628938,229.828649,-222.061783,9252.574275
2650.629267,306.438199,-74.020594,9178.553681
2650.629596,229.828649,-296.082377,9326.594869
2650.629925,383.047749,-518.144159,9178.553681
2650.630254,689.485948,-222.061783,9474.636058
2650.630583,0.000000,-74.020594,9474.636058
2650.630912,306.438199,-222.061783,9326.594869
2650.631241,153.219100,-0.000000,9178.553681
2650.631570,306.438199,-0.000000,9400.615463
2650.631899,0.000000,-296.082377,9104.533087
2650.632228,76.609550,-222.061783,9252.574275
2650.632557,536.266849,-0.000000,9252.574275
2650.632886,689.485948,-444.123565,9030.512492
2650.633215,612.876398,-222.061783,9104.533087
2650.633544,306.438199,-74.020594,8956.491898
2650.633873,459.657299,-74.020594,9104.533087
2650.634202,536.266849,-0.000000,8808.450710
2650.634531,612.876398,-444.123565,8882.471304
2650.634860,766.095498,-592.164754,8734.430116
2650.635189,459.657299,-296.082377,8808.450710
2650.635518,306.438199,-148.041188,8956.491898
2650.635847,459.657299,-296.082377,8882.471304
2650.636176,76.609550,-0.000000,9104.533087
2650.636505,306.438199,-296.082377,9030.512492
2650.636834,612.876398,-0.000000,9104.533087
2650.637163,536.266849,-0.000000,9178.553681
2650.637492,459.657299,-0.000000,9030.512492
2650.637821,536.266849,-0.000000,8882.471304
2650.638150,536.266849,-0.000000,8660.409521
2650.638479,306.438199,-0.000000,8734.430116
2650.638808,459.657299,-74.020594,8956.491898
2650.639137,306.438199,-0.000000,9030.512492
2650.639466,612.876398,-518.144159,9178.553681
2650.639795,689.485948,-518.144159,9104.533087
2650.640124,229.828649,-222.061783,9104.533087
2650.640453,153.219100,-296.082377,9400.615463
2650.640782,306.438199,-148.041188,9400.615463
2650.641111,306.438199,-666.185348,9104.533087
2650.641440,153.219100,-296.082377,9400.615463
2650.641769,766.095498,-0.000000,9326.594869
2650.642098,536.266849,-296.082377,9474.636058
2650.642427,459.657299,-0.000000,9178.553681
2650.642756,536.266849,-0.000000,9030.512492
2650.643085,459.657299,-148.041188,9104.533087
2650.643414,306.438199,-148.041188,9104.533087
2650.643743,383.047749,-0.000000,9252.574275
2650.644072,459.657299,-740.205942,9178.553681
2650.644401,306.438199,-740.205942,9178.553681
2650.644730,383.047749,-222.061783,9104.533087
2650.645059,76.609550,-148.041188,9030.512492
2650.645388,306.438199,-0.000000,8956.491898
2650.645717,536.266849,-0.000000,9030.512492
2650.646046,612.876398,-0.000000,8956.491898
2650.646375,459.657299,-0.000000,8808.450710
2650.646704,766.095498,-296.082377,8882.471304
2650.647033,383.047749,-148.041188,8512.368333
2650.647362,229.828649,-148.041188,8882.471304
2650.647691,229.828649,-0.000000,8956.491898
2650.648020,459.657299,-296.082377,8882.471304
2650.648348,153.219100,-518.144159,8956.491898
2650.648677,76.609550,-296.082377,9400.615463
2650.649006,0.000000,-222.061783,9104.533087
2650.649335,153.219100,-296.082377,9104.533087
2650.649664,383.047749,-0.000000,9030.512492
2650.649993,229.828649,-296.082377,9030.512492
2650.650322,383.047749,-148.041188,9030.512492
2650.650651,536.266849,-592.164754,9326.594869
2650.650980,1378.971896,-1036.288319,9770.718434
2650.651309,1302.362347,-962.267725,9474.636058
2650.651638,1685.410096,-666.185348,9474.636058
2650.651967,1991.848295,-592.164754,9474.636058
2650.652296,2604.724693,-0.000000,9030.512492
2650.652625,3064.381992,370.102971,9104.533087
2650.652954,4366.744339,-592.164754,9326.594869
2650.653283,3524.039291,-74.020594,8734.430116
2650.653612,2987.772442,444.123565,9252.574275
2650.653941,3140.991542,-0.000000,8438.347739
2650.654270,2834.553343,-0.000000,9474.636058
2650.654599,2757.943793,-74.020594,9178.553681
2650.654928,1838.629195,-518.144159,9326.594869
2650.655257,2068.457845,-1480.411884,10214.842000
2650.655586,2451.505594,-1702.473667,9474.636058
2650.655915,2834.553343,222.061783,9252.574275
2650.656244,2451.505594,-1184.329507,9696.697840
2650.656573,3140.991542,-296.082377,8734.430116
2650.656902,3830.477490,814.226536,9622.677246
2650.657231,5132.839837,888.247130,7550.100608
2650.657560,4749.792088,888.247130,7994.224174
2650.657889,4673.182538,962.267725,9104.533087
2650.658218,4519.963438,740.205942,7031.956449
2650.658547,3600.648841,518.144159,8808.450710
2650.658876,3294.210641,222.061783,8734.430116
2650.659205,2451.505594,-74.020594,8660.409521
2650.659534,1685.410096,-518.144159,9770.718434
2650.659863,689.485948,-814.226536,9770.718434
2650.660192,1532.190996,-1036.288319,10214.842000
2650.660521,842.705048,-1554.432478,9992.780217
2650.660850,2068.457845,-296.082377,9548.656652
2650.661179,1915.238745,-444.123565,10140.821405
2650.661508,3217.601092,740.205942,8142.265362
2650.661837,3677.258390,-0.000000,9252.574275
2650.662166,4826.401637,1850.514855,8882.471304
2650.662495,4519.963438,222.061783,8216.285956
2650.662824,4060.306139,1110.308913,8290.306550
2650.663153,4826.401637,-0.000000,9326.594869
2650.663482,3370.820191,-74.020594,8734.430116
2650.663811,2911.162892,-962.267725,9474.636058
2650.664140,2221.676944,-1258.350101,9844.739029
2650.664469,2298.286494,-1628.453072,10510.924376
2650.664798,1762.019645,-2590.720797,9918.759623
2650.665127,2145.067394,-1850.514855,9844.739029
2650.665456,2451.505594,-1258.350101,9844.739029
2650.665785,3524.039291,-0.000000,9104.533087
2650.666114,3830.477490,666.185348,8438.347739
2650.666443,4443.353888,1628.453072,8586.388927
2650.666772,4749.792088,2368.659014,7920.203579
2650.667101,4903.011187,2664.741391,7328.038826
2650.667430,4903.011187,2590.720797,7624.121203
2650.667759,3677.258390,1776.494261,7772.162391
2650.668088,3064.381992,666.185348,7846.182985
2650.668417,2451.505594,-666.185348,9104.533087
2650.668746,2145.067394,-1776.494261,9918.759623
2650.669075,2068.457845,-2738.761985,10288.862594
2650.669404,1378.971896,-3404.947333,11103.089130
2650.669733,2528.115143,-2516.700203,11251.130318
2650.670062,3294.210641,-1998.556043,10214.842000
2650.670391,4366.744339,-222.061783,9474.636058
2650.670720,5592.497135,666.185348,9252.574275
2650.671048,6205.373534,1776.494261,8364.327145
2650.671377,5669.106685,2516.700203,7550.100608
2650.671706,5209.449386,3182.885551,7846.182985
2650.672035,4290.134789,3701.029710,6661.853478
2650.672364,4213.525239,2368.659014,7031.956449
2650.672693,3064.381992,962.267725,7328.038826
2650.673022,1225.752797,-1406.391290,9400.615463
2650.673351,-306.438199,-4441.235652,10658.965565
2650.673680,-1225.752797,-4293.194464,11251.130318
2650.674009,-689.485948,-5921.647536,11991.336260
2650.674338,-1072.533697,-3182.885551,10510.924376
2650.674667,0.000000,-1998.556043,11695.253884
2650.674996,612.876398,-370.102971,9918.759623
2650.675325,3294.210641,666.185348,11103.089130
2650.675654,5822.325785,1628.453072,8586.388927
2650.675983,7584.345430,1628.453072,8438.347739
2650.676312,5439.278036,592.164754,8956.491898
2650.676641,6741.640382,1924.535449,7105.977043
2650.676970,6052.154434,2294.638420,7698.141797
2650.677299,5286.058936,1850.514855,6809.894666
2650.677628,5132.839837,3478.967927,5255.462188
2650.677957,4826.401637,2516.700203,6809.894666
2650.678286,4749.792088,1702.473667,6069.688724
2650.678615,4519.963438,-1036.288319,7920.203579
2650.678944,612.876398,-5995.668130,11473.192101
2650.679273,-919.314598,-5699.585753,12065.356855
2650.679602,-1532.190996,-3182.885551,12731.542202
2650.679931,-1378.971896,-7328.038826,14063.912898
2650.680260,-1302.362347,-518.144159,10066.800811
2650.680589,2451.505594,-0.000000,12361.439231
2650.680918,3524.039291,666.185348,10066.800811
2650.681247,6281.983084,2146.597232,9104.533087
2650.681576,7584.345430,1258.350101,9474.636058
2650.681905,7814.174080,3256.906145,7402.059420
2650.682234,8197.221829,4663.297435,5329.482782
2650.682563,7967.393179,1702.473667,5107.421000
2650.682892,7890.783629,2220.617826,4663.297435
2650.683221,7354.516781,2220.617826,7254.018232
2650.683550,6205.373534,148.041188,6883.915261
2650.683879,3524.039291,2146.597232,5921.647536
2650.684208,4443.353888,-1110.308913,8290.306550
2650.684537,0.000000,-3997.112087,12879.583391
2650.684866,-2834.553343,-5255.462188,12953.603985
2650.685195,-2374.896044,-1036.288319,12583.501014
2650.685524,-919.314598,-7179.997637,12509.480420
2650.685853,-1378.971896,1184.329507,11177.109724
2650.686182,2298.286494,296.082377,12435.459826
2650.686511,0.000000,1554.432478,9770.718434
2650.686840,2374.896044,-444.123565,14063.912898
2650.687169,7048.078582,-222.061783,5921.647536
2650.687498,10112.460574,1776.494261,9104.533087
2650.687827,6205.373534,1406.391290,5847.626942
2650.688156,7660.954980,1406.391290,4811.338623
2650.688485,5822.325785,814.226536,8586.388927
2650.688814,6052.154434,1332.370696,6587.832884
2650.689143,5132.839837,2664.741391,6217.729913
2650.689472,3140.991542,2072.576638,8512.368333
2650.689801,2451.505594,814.226536,8142.265362
2650.690130,3294.210641,962.267725,9770.718434
2650.690459,1608.800546,-2220.617826,10510.924376
2650.690788,306.438199,-2294.638420,11029.068536
2650.691117,306.438199,-3108.864956,12361.439231
2650.691446,-383.047749,-3775.050304,11177.109724
2650.691775,-229.828649,-222.061783,9696.697840
2650.692104,2451.505594,370.102971,9992.780217
2650.692433,2374.896044,1036.288319,8142.265362
2650.692762,3217.601092,740.205942,7920.203579
2650.693091,3830.477490,296.082377,8364.327145
2650.693419,4136.915689,1924.535449,7402.059420
2650.693748,3217.601092,740.205942,7772.162391
2650.694077,3294.210641,-1406.391290,7624.121203
2650.694406,2298.286494,-2590.720797,8512.368333
2650.694735,1608.800546,-2368.659014,10658.965565
2650.695064,2298.286494,-1406.391290,9770.718434
2650.695393,995.924147,296.082377,10214.842000
2650.695722,2374.896044,296.082377,10288.862594
2650.696051,2145.067394,1776.494261,8216.285956
2650.696379,2145.067394,1332.370696,9104.533087
2650.696708,2298.286494,1184.329507,8290.306550
2650.697037,2987.772442,1702.473667,8216.285956
2650.697366,1991.848295,592.164754,8882.471304
2650.697695,1302.362347,-518.144159,8808.450710
2650.698024,76.609550,-1924.535449,9474.636058
2650.698353,-1225.752797,-2368.659014,9474.636058
2650.698682,-1225.752797,-962.267725,9548.656652
2650.699010,-1302.362347,-1480.411884,10807.006753
2650.699339,-1455.581446,-888.247130,9252.574275
2650.699668,-689.485948,-1554.432478,10658.965565
2650.699997,-536.266849,-962.267725,10066.800811
2650.700326,-306.438199,518.144159,8734.430116
2650.700655,0.000000,-666.185348,10436.903782
2650.700984,383.047749,-148.041188,9918.759623
2650.701313,2068.457845,1332.370696,8142.265362
2650.701642,3753.867940,2516.700203,7772.162391
2650.701970,3753.867940,2590.720797,7105.977043
2650.702299,2374.896044,1702.473667,9104.533087
2650.702628,2298.286494,740.205942,7772.162391
2650.702957,1762.019645,222.061783,7254.018232
2650.703286,1685.410096,-296.082377,8882.471304
2650.703615,919.314598,-814.226536,8882.471304
2650.703944,-995.924147,-2812.782580,10362.883188
2650.704273,-1532.190996,-3182.885551,10362.883188
2650.704601,229.828649,-2072.576638,9918.759623
2650.704930,383.047749,-1036.288319,9770.718434
2650.705259,612.876398,370.102971,9770.718434
2650.705588,612.876398,1258.350101,9474.636058
2650.705917,1532.190996,1184.329507,8808.450710
2650.706246,2987.772442,1924.535449,7105.977043
2650.706575,3370.820191,1480.411884,7105.977043
2650.706904,1915.238745,1110.308913,7624.121203
2650.707233,612.876398,814.226536,7402.059420
2650.707561,459.657299,-296.082377,8512.368333
2650.707890,0.000000,-1258.350101,9030.512492
2650.708219,-1072.533697,-2220.617826,9844.739029
2650.708548,-2374.896044,-2146.597232,10658.965565
2650.708877,-2374.896044,-592.164754,8882.471304
2650.709206,-1149.143247,-814.226536,9400.615463
2650.709535,-383.047749,-962.267725,10510.924376
2650.709864,-995.924147,-518.144159,9474.636058
2650.710192,-2451.505594,-1702.473667,10140.821405
2650.710521,-2298.286494,-518.144159,9696.697840
2650.710850,-459.657299,-74.020594,10140.821405
2650.711179,306.438199,-0.000000,9474.636058
2650.711508,-306.438199,296.082377,8734.430116
2650.711837,-612.876398,1110.308913,8956.491898
2650.712166,842.705048,1184.329507,7772.162391
2650.712495,2298.286494,-0.000000,8216.285956
2650.712824,1072.533697,-518.144159,7624.121203
2650.713152,229.828649,-518.144159,8660.409521
2650.713481,536.266849,-888.247130,8956.491898
2650.713810,1072.533697,-222.061783,8734.430116
2650.714139,1072.533697,-1110.308913,9030.512492
2650.714468,-306.438199,-888.247130,9696.697840
2650.714797,-766.095498,296.082377,9104.533087
2650.715126,536.266849,740.205942,8734.430116
2650.715455,1532.190996,-222.061783,8438.347739
2650.715783,995.924147,-1258.350101,9696.697840
2650.716112,-153.219100,-222.061783,9252.574275
2650.716441,76.609550,666.185348,8586.388927
2650.716770,842.705048,-0.000000,8438.347739
2650.717099,842.705048,296.082377,8882.471304
2650.717428,153.219100,-0.000000,9400.615463
2650.717757,-459.657299,-74.020594,8364.327145
2650.718086,383.047749,-0.000000,9104.533087
2650.718415,995.924147,-1110.308913,9030.512492
2650.718743,766.095498,-666.185348,8438.347739
2650.719072,76.609550,-1628.453072,9844.739029
2650.719401,0.000000,-814.226536,9178.553681
2650.719730,612.876398,-370.102971,9622.677246
2650.720059,1149.143247,-296.082377,9844.739029
2650.720388,842.705048,-74.020594,9326.594869
2650.720717,-153.219100,740.205942,9030.512492
2650.721046,919.314598,1850.514855,8438.347739
2650.721374,1455.581446,592.164754,9030.512492
2650.721703,919.314598,-0.000000,9548.656652
2650.722032,0.000000,-148.041188,9178.553681
2650.722361,-766.095498,-0.000000,8956.491898
2650.722690,536.266849,296.082377,9178.553681
2650.723019,459.657299,-444.123565,9548.656652
2650.723348,-612.876398,-666.185348,9474.636058
2650.723677,-1149.143247,666.185348,8882.471304
2650.724006,-306.438199,-222.061783,8956.491898
2650.724334,689.485948,-814.226536,9252.574275
2650.724663,612.876398,-888.247130,9474.636058
2650.724992,-459.657299,-1258.350101,9770.718434
2650.725321,-766.095498,-1036.288319,9844.739029
2650.725650,536.266849,-222.061783,8956.491898
2650.725979,1915.238745,740.205942,8956.491898
2650.726308,995.924147,370.102971,9030.512492
2650.726637,536.266849,1258.350101,8808.450710
2650.726965,1302.362347,1702.473667,8068.244768
2650.727294,2145.067394,666.185348,7772.162391
2650.727623,1608.800546,-370.102971,8956.491898
2650.727952,0.000000,-666.185348,8956.491898
2650.728281,-306.438199,-962.267725,9104.533087
2650.728610,229.828649,-888.247130,8660.409521
2650.728939,689.485948,-1110.308913,9104.533087
2650.729268,-383.047749,-962.267725,9696.697840
2650.729597,-1378.971896,-370.102971,9474.636058
2650.729925,-766.095498,-0.000000,8660.409521
2650.730254,536.266849,-666.185348,9400.615463
2650.730583,1072.533697,-1258.350101,9622.677246
2650.730912,459.657299,-740.205942,9252.574275
2650.731241,0.000000,-148.041188,8660.409521
2650.731570,1302.362347,-740.205942,8808.450710
2650.731899,1378.971896,-296.082377,8808.450710
2650.732228,1532.190996,592.164754,8660.409521
2650.732556,536.266849,-0.000000,8364.327145
2650.732885,536.266849,592.164754,8068.244768
2650.733214,1685.410096,148.041188,8364.327145
2650.733543,1225.752797,-1036.288319,8512.368333
2650.733872,-1149.143247,-1258.350101,9622.677246
2650.734201,-1532.190996,-1406.391290,9696.697840
2650.734530,-766.095498,-74.020594,9030.512492
2650.734859,-153.219100,518.144159,9400.615463
2650.735188,-229.828649,-296.082377,9252.574275
2650.735516,-919.314598,1110.308913,9918.759623
2650.735845,-459.657299,1184.329507,8512.368333
2650.736174,536.266849,444.123565,8734.430116
2650.736503,1302.362347,-370.102971,9252.574275
2650.736832,383.047749,-0.000000,8290.306550
2650.737161,153.219100,-222.061783,9178.553681
2650.737490,1225.752797,-222.061783,9030.512492
2650.737819,995.924147,-740.205942,8882.471304
2650.738147,766.095498,370.102971,9252.574275
2650.738476,306.438199,888.247130,8956.491898
2650.738805,-459.657299,518.144159,8808.450710
2650.739134,0.000000,296.082377,8808.450710
2650.739463,459.657299,-814.226536,9844.739029
2650.739792,-689.485948,-1036.288319,10140.821405
2650.740121,-1072.533697,-814.226536,9104.533087
2650.740450,-536.266849,-222.061783,9252.574275
2650.740779,229.828649,-592.164754,9918.759623
2650.741107,-153.219100,-370.102971,9622.677246
2650.741436,-689.485948,-74.020594,9326.594869
2650.741765,-459.657299,-0.000000,9326.594869
2650.742094,689.485948,-0.000000,9104.533087
2650.742423,1302.362347,-740.205942,9104.533087
2650.742752,766.095498,-814.226536,9104.533087
2650.743081,536.266849,-148.041188,8660.409521
2650.743410,1378.971896,-74.020594,8660.409521
2650.743738,2068.457845,148.041188,8808.450710
2650.744067,2298.286494,370.102971,9178.553681
2650.744396,1302.362347,1332.370696,9030.512492
2650.744725,1455.581446,1554.432478,8734.430116
2650.745054,1378.971896,888.247130,8734.430116
2650.745383,1608.800546,-0.000000,8956.491898
2650.745712,536.266849,-222.061783,9400.615463
2650.746041,0.000000,-444.123565,9178.553681
2650.746370,-383.047749,-222.061783,8216.285956
2650.746698,1072.533697,-1332.370696,9992.780217
2650.747027,-383.047749,-1110.308913,10140.821405
2650.747356,-766.095498,-592.164754,9918.759623
2650.747685,-766.095498,-296.082377,8586.388927
2650.748014,0.000000,1036.288319,8290.306550
2650.748343,1455.581446,-888.247130,9178.553681
2650.748672,919.314598,-74.020594,8734.430116
2650.749001,995.924147,-296.082377,9030.512492
2650.749329,1685.410096,-148.041188,8068.244768
2650.749658,2834.553343,666.185348,8586.388927
2650.749987,2145.067394,888.247130,8734.430116
2650.750316,1225.752797,740.205942,8734.430116
2650.750645,383.047749,888.247130,8142.265362
2650.750974,842.705048,444.123565,7550.100608
2650.751303,383.047749,-370.102971,8734.430116
2650.751632,-1072.533697,-1554.432478,9770.718434
2650.751961,-2145.067394,-2146.597232,9770.718434
2650.752289,-2451.505594,-1998.556043,9918.759623
2650.752618,-919.314598,-1850.514855,9252.574275
2650.752947,-1149.143247,-1036.288319,9474.636058
2650.753276,-1685.410096,-370.102971,9474.636058
2650.753605,-1838.629195,296.082377,9474.636058
2650.753934,-459.657299,-296.082377,9474.636058
2650.754263,459.657299,-814.226536,9474.636058
2650.754592,-306.438199,-1036.288319,9252.574275
2650.754920,-1532.190996,-888.247130,10510.924376
2650.755249,-766.095498,-814.226536,9918.759623
2650.755578,1302.362347,-222.061783,8586.388927
2650.755907,2374.896044,370.102971,9178.553681
2650.756236,1072.533697,592.164754,7994.224174
2650.756565,1762.019645,1110.308913,7994.224174
2650.756894,1915.238745,1776.494261,6661.853478
2650.757223,2221.676944,-0.000000,7772.162391
2650.757552,1302.362347,-1110.308913,9178.553681
2650.757880,-612.876398,-740.205942,8956.491898
2650.758209,-1072.533697,-962.267725,8882.471304
2650.758538,0.000000,-1480.411884,10140.821405
2650.758867,0.000000,-1480.411884,10436.903782
2650.759196,-689.485948,-222.061783,9992.780217
2650.759525,-612.876398,518.144159,9548.656652
2650.759854,-306.438199,1184.329507,8882.471304
2650.760183,1225.752797,-296.082377,9400.615463
2650.760511,2145.067394,-0.000000,9770.718434
2650.760840,1532.190996,-518.144159,9474.636058
2650.761169,1991.848295,666.185348,8142.265362
2650.761498,2987.772442,222.061783,8734.430116
2650.761827,3524.039291,370.102971,8660.409521
2650.762156,2451.505594,962.267725,8068.244768
2650.762485,1532.190996,1110.308913,8290.306550
2650.762814,306.438199,740.205942,7994.224174
2650.763143,995.924147,-0.000000,9252.574275
2650.763471,76.609550,-666.185348,10066.800811
2650.763800,-1608.800546,-1850.514855,10510.924376
2650.764129,-2298.286494,-1332.370696,10807.006753
2650.764458,-1302.362347,-888.247130,9992.780217
2650.764787,0.000000,-1332.370696,10584.944971
2650.765116,-383.047749,-0.000000,9992.780217
2650.765445,-689.485948,148.041188,9770.718434
2650.765774,-459.657299,1702.473667,8586.388927
2650.766102,842.705048,592.164754,9252.574275
2650.766431,1762.019645,-222.061783,8586.388927
2650.766760,919.314598,148.041188,8882.471304
2650.767089,919.314598,-74.020594,8734.430116
2650.767418,2068.457845,148.041188,7846.182985
2650.767747,2374.896044,-0.000000,8438.347739
2650.768076,459.657299,740.205942,8956.491898
2650.768405,306.438199,1184.329507,8438.347739
2650.768734,-306.438199,296.082377,7846.182985
2650.769062,76.609550,-0.000000,8364.327145
2650.769391,-919.314598,-1332.370696,10140.821405
2650.769720,-2834.553343,-2220.617826,9992.780217
2650.770049,-2757.943793,-1258.350101,9844.739029
2650.770378,-1685.410096,-1628.453072,9992.780217
2650.770707,-1225.752797,-592.164754,8882.471304
2650.771036,-689.485948,-740.205942,9400.615463
2650.771365,-1608.800546,-0.000000,9030.512492
2650.771693,-536.266849,592.164754,8660.409521
2650.772022,919.314598,-592.164754,9400.615463
2650.772351,1838.629195,-888.247130,8586.388927
2650.772680,1532.190996,296.082377,8586.388927
2650.773009,1532.190996,-74.020594,7624.121203
2650.773338,2451.505594,-74.020594,7476.080014
2650.773667,2987.772442,814.226536,8068.244768
2650.773996,1991.848295,296.082377,8882.471304
2650.774325,536.266849,888.247130,8512.368333
2650.774653,76.609550,222.061783,8142.265362
2650.774982,383.047749,-444.123565,9104.533087
2650.775311,-459.657299,-1628.453072,10436.903782
2650.775640,-1685.410096,-2072.576638,10510.924376
2650.775969,-2451.505594,-1702.473667,10362.883188
2650.776298,-1378.971896,-1184.329507,10066.800811
2650.776627,-536.266849,-1110.308913,9474.636058
2650.776956,-612.876398,-1036.288319,9844.739029
2650.777284,-766.095498,-222.061783,9696.697840
2650.777613,229.828649,1036.288319,8290.306550
2650.777942,1915.238745,814.226536,8364.327145
2650.778271,2681.334243,370.102971,8734.430116
2650.778600,1915.238745,296.082377,8586.388927
2650.778929,1685.410096,296.082377,8438.347739
2650.779258,2451.505594,370.102971,8586.388927
2650.779587,2068.457845,592.164754,8290.306550
2650.779916,1685.410096,888.247130,9474.636058
2650.780244,0.000000,1850.514855,9770.718434
2650.780573,-459.657299,1480.411884,8882.471304
2650.780902,306.438199,296.082377,9104.533087
2650.781231,0.000000,-370.102971,10066.800811
2650.781560,-1455.581446,-1628.453072,10214.842000
2650.781889,-1762.019645,-1480.411884,9992.780217
2650.782218,-1608.800546,-888.247130,9474.636058
2650.782547,153.219100,-1036.288319,9548.656652
2650.782875,-536.266849,-518.144159,9400.615463
2650.783204,-689.485948,222.061783,9326.594869
2650.783533,-306.438199,592.164754,9030.512492
2650.783862,1532.190996,666.185348,8734.430116
2650.784191,2221.676944,666.185348,7994.224174
2650.784520,2145.067394,222.061783,8216.285956
2650.784849,306.438199,-592.164754,9400.615463
2650.785178,1608.800546,1036.288319,9178.553681
2650.785506,1838.629195,-296.082377,7920.203579
2650.785835,919.314598,-74.020594,8586.388927
2650.786164,0.000000,518.144159,10881.027347
2650.786493,-766.095498,666.185348,9474.636058
2650.786822,306.438199,-518.144159,7476.080014
2650.787151,1072.533697,-1998.556043,9474.636058
2650.787480,-919.314598,-1332.370696,9030.512492
2650.787809,-842.705048,-1110.308913,9400.615463
2650.788138,-766.095498,-1110.308913,8734.430116
2650.788466,229.828649,-518.144159,8734.430116
2650.788795,153.219100,-1036.288319,9844.739029
2650.789124,-383.047749,740.205942,9178.553681
2650.789453,-1378.971896,666.185348,9030.512492
2650.789782,842.705048,592.164754,8512.368333
2650.790111,1455.581446,-0.000000,8882.471304
2650.790440,689.485948,-370.102971,9030.512492
2650.790769,229.828649,-296.082377,8882.471304
2650.791097,689.485948,-814.226536,7994.224174
2650.791426,1991.848295,-666.185348,8216.285956
2650.791755,1838.629195,-148.041188,8364.327145
2650.792084,766.095498,222.061783,8438.347739
2650.792413,0.000000,814.226536,7994.224174
2650.792742,842.705048,592.164754,7994.224174
2650.793071,1302.362347,-222.061783,8882.471304
2650.793400,0.000000,-962.267725,9770.718434
2650.793729,-842.705048,-962.267725,9992.780217
2650.794057,-1915.238745,-222.061783,9326.594869
2650.794386,0.000000,-592.164754,9844.739029
2650.794715,-383.047749,-1184.329507,9622.677246
2650.795044,-1915.238745,222.061783,10066.800811
2650.795373,-1608.800546,-518.144159,10584.944971
2650.795702,-689.485948,296.082377,8808.450710
2650.796031,0.000000,-518.144159,9178.553681
2650.796360,766.095498,-370.102971,9474.636058
2650.796689,229.828649,-592.164754,8808.450710
2650.797018,766.095498,296.082377,9400.615463
2650.797347,2374.896044,296.082377,8660.409521
2650.797676,2681.334243,1110.308913,7994.224174
2650.798004,1302.362347,740.205942,8734.430116
2650.798333,919.314598,1406.391290,8586.388927
2650.798662,689.485948,592.164754,8660.409521
2650.798991,1149.143247,-74.020594,9178.553681
2650.799320,0.000000,-1258.350101,9474.636058
2650.799649,-1685.410096,-1258.350101,10140.821405
2650.799978,-1685.410096,-962.267725,9770.718434
2650.800307,-612.876398,-1554.432478,9474.636058
2650.800636,-689.485948,-1554.432478,10288.862594
2650.800965,-1149.143247,-444.123565,9844.739029
2650.801294,-1225.752797,666.185348,9474.636058
2650.801623,-383.047749,666.185348,8660.409521
2650.801952,995.924147,-148.041188,9326.594869
2650.802281,766.095498,-592.164754,8882.471304
2650.802610,919.314598,-148.041188,9252.574275
2650.802939,1532.190996,296.082377,7772.162391
2650.803267,3140.991542,-0.000000,7846.182985
2650.803596,3370.820191,962.267725,7846.182985
2650.803925,2068.457845,1110.308913,8142.265362
2650.804254,1378.971896,1110.308913,8142.265362
2650.804583,995.924147,1258.350101,7698.141797
2650.804912,1915.238745,-0.000000,8216.285956
2650.805241,229.828649,-1110.308913,8734.430116
2650.805570,-1991.848295,-2294.638420,9770.718434
2650.805899,-2068.457845,-1776.494261,9918.759623
2650.806228,-842.705048,-2072.576638,9696.697840
2650.806557,-766.095498,-1702.473667,9918.759623
2650.806886,-1072.533697,-666.185348,10362.883188
2650.807215,-1149.143247,222.061783,9178.553681
2650.807544,76.609550,444.123565,8660.409521
2650.807873,1838.629195,888.247130,8808.450710
2650.808202,1915.238745,-0.000000,8734.430116
2650.808530,1762.019645,-222.061783,8438.347739
2650.808859,1991.848295,518.144159,8290.306550
2650.809188,2757.943793,-0.000000,8142.265362
2650.809517,3140.991542,-0.000000,7994.224174
2650.809846,2374.896044,222.061783,9178.553681
2650.810175,1225.752797,888.247130,8216.285956
2650.810504,689.485948,740.205942,7994.224174
2650.810833,383.047749,740.205942,8142.265362
2650.811162,-229.828649,-1110.308913,9992.780217
2650.811491,-1532.190996,-1110.308913,9844.739029
2650.811820,-2145.067394,-740.205942,9400.615463
2650.812149,-1149.143247,-1628.453072,9474.636058
2650.812478,-536.266849,-1776.494261,9548.656652
2650.812807,-1149.143247,-444.123565,9844.739029
2650.813136,-1608.800546,-74.020594,9474.636058
2650.813464,-689.485948,370.102971,8660.409521
2650.813793,766.095498,-0.000000,8438.347739
2650.814122,1838.629195,-518.144159,9326.594869
2650.814451,383.047749,-444.123565,9326.594869
2650.814780,1532.190996,-222.061783,8808.450710
2650.815109,2298.286494,-0.000000,7994.224174
2650.815438,2604.724693,592.164754,8512.368333
2650.815767,1608.800546,962.267725,8734.430116
2650.816096,459.657299,1258.350101,8734.430116
2650.816425,919.314598,1036.288319,8364.327145
2650.816754,1072.533697,-74.020594,7994.224174
2650.817083,689.485948,-1036.288319,9030.512492
2650.817412,-1149.143247,-1850.514855,9474.636058
2650.817741,-1915.238745,-1628.453072,9400.615463
2650.818070,-1302.362347,-1850.514855,9178.553681
2650.818399,-459.657299,-1850.514855,9474.636058
2650.818727,-1149.143247,-2072.576638,9474.636058
2650.819056,-1149.143247,-296.082377,10214.842000
2650.819385,-459.657299,-0.000000,9400.615463
2650.819714,766.095498,-370.102971,9104.533087
2650.820043,1225.752797,-518.144159,9918.759623
2650.820372,842.705048,-0.000000,9770.718434
2650.820701,1225.752797,592.164754,8956.491898
2650.821030,2298.286494,1184.329507,8290.306550
2650.821359,2911.162892,1628.453072,8438.347739
2650.821688,1455.581446,962.267725,8956.491898
2650.822017,1149.143247,888.247130,9030.512492
2650.822346,306.438199,1036.288319,8142.265362
2650.822675,689.485948,-0.000000,7772.162391
2650.823004,919.314598,-1036.288319,8956.491898
2650.823333,-919.314598,-888.247130,9548.656652
2650.823662,-612.876398,-1184.329507,9622.677246
2650.823990,-306.438199,-1184.329507,8956.491898
2650.824319,229.828649,-1406.391290,9622.677246
2650.824648,0.000000,-592.164754,9400.615463
2650.824977,-459.657299,296.082377,9104.533087
2650.825306,-306.438199,740.205942,8734.430116
2650.825635,919.314598,740.205942,8512.368333
2650.825964,1685.410096,222.061783,8956.491898
2650.826293,766.095498,296.082377,9474.636058
2650.826622,306.438199,-222.061783,9326.594869
2650.826951,1149.143247,-0.000000,8438.347739
2650.827280,1608.800546,-0.000000,8882.471304
2650.827609,919.314598,-148.041188,9178.553681
2650.827938,-306.438199,444.123565,9400.615463
2650.828267,-153.219100,1110.308913,8438.347739
2650.828596,766.095498,-0.000000,8438.347739
2650.828925,612.876398,-1036.288319,9252.574275
2650.829253,-919.314598,-1850.514855,9400.615463
2650.829582,-1378.971896,-1110.308913,9770.718434
2650.829911,-1072.533697,-666.185348,9178.553681
2650.830240,-459.657299,-814.226536,9178.553681
2650.830569,-689.485948,-1110.308913,9992.780217
2650.830898,-1378.971896,-444.123565,10658.965565
2650.831227,-766.095498,-0.000000,9622.677246
2650.831556,306.438199,518.144159,8142.265362
2650.831885,1302.362347,-222.061783,8660.409521
2650.832214,459.657299,-518.144159,9474.636058
2650.832543,76.609550,-0.000000,9696.697840
2650.832872,689.485948,148.041188,8512.368333
2650.833201,2374.896044,-74.020594,8438.347739
2650.833530,1455.581446,296.082377,9104.533087
2650.833859,536.266849,592.164754,9178.553681
2650.834188,-229.828649,1036.288319,8364.327145
2650.834516,459.657299,-0.000000,8734.430116
2650.834845,1302.362347,-666.185348,8512.368333
2650.835174,306.438199,-1406.391290,9696.697840
2650.835503,-383.047749,-1332.370696,9326.594869
2650.835832,-229.828649,-222.061783,8882.471304
2650.836161,459.657299,-962.267725,9030.512492
2650.836490,383.047749,-370.102971,9400.615463
2650.836819,153.219100,296.082377,9474.636058
2650.837148,-459.657299,370.102971,8734.430116
2650.837477,919.314598,370.102971,8438.347739
2650.837806,1608.800546,370.102971,8734.430116
2650.838135,1302.362347,-370.102971,8808.450710
2650.838464,0.000000,-0.000000,9178.553681
2650.838793,76.609550,-74.020594,9474.636058
2650.839122,1378.971896,-592.164754,9474.636058
2650.839451,1455.581446,-444.123565,9696.697840
2650.839779,0.000000,-0.000000,8438.347739
2650.840108,-306.438199,518.144159,8512.368333
2650.840437,229.828649,-444.123565,10807.006753
2650.840766,689.485948,-296.082377,8808.450710
2650.841095,0.000000,-888.247130,9400.615463
2650.841424,-995.924147,-1110.308913,9474.636058
2650.841753,0.000000,592.164754,9622.677246
2650.842082,153.219100,-222.061783,9548.656652
2650.842411,-229.828649,-296.082377,8512.368333
2650.842740,-229.828649,-0.000000,9622.677246
2650.843069,-842.705048,444.123565,9178.553681
2650.843398,0.000000,1184.329507,8290.306550
2650.843727,842.705048,-74.020594,8586.388927
2650.844056,0.000000,-814.226536,9104.533087
2650.844385,-383.047749,-814.226536,9622.677246
2650.844714,306.438199,-592.164754,9252.574275
2650.845042,689.485948,-518.144159,8882.471304
2650.845371,1072.533697,-222.061783,9548.656652
2650.845700,153.219100,444.123565,8882.471304
2650.846029,229.828649,296.082377,8216.285956
2650.846358,919.314598,666.185348,7772.162391
2650.846687,1915.238745,-296.082377,8586.388927
2650.847016,1149.143247,-0.000000,9400.615463
2650.847345,0.000000,-592.164754,8512.368333
2650.847674,0.000000,296.082377,8734.430116
2650.848003,306.438199,-148.041188,8512.368333
2650.848332,306.438199,-0.000000,9178.553681
2650.848661,-766.095498,-888.247130,9844.739029
2650.848990,-1302.362347,-0.000000,9326.594869
2650.849319,-306.438199,-222.061783,9622.677246
2650.849648,612.876398,-1406.391290,9474.636058
2650.849977,0.000000,-962.267725,9696.697840
2650.850305,-153.219100,-1628.453072,9844.739029
2650.850634,153.219100,-148.041188,8734.430116
2650.850963,2451.505594,-0.000000,8512.368333
2650.851292,2451.505594,-74.020594,8364.327145
2650.851621,2528.115143,888.247130,9030.512492
2650.851950,1378.971896,962.267725,8068.244768
2650.852279,1915.238745,1554.432478,7994.224174
2650.852608,2374.896044,222.061783,8142.265362
2650.852937,919.314598,-222.061783,8882.471304
2650.853266,-459.657299,-0.000000,9696.697840
2650.853595,-842.705048,-814.226536,10362.883188
2650.853924,-995.924147,-1036.288319,9178.553681
2650.854253,-1072.533697,-888.247130,9178.553681
2650.854582,-1608.800546,-1406.391290,10732.986159
2650.854911,-2374.896044,-666.185348,9844.739029
2650.855239,-1072.533697,592.164754,9178.553681
2650.855568,919.314598,-222.061783,8882.471304
2650.855897,919.314598,-74.020594,8956.491898
2650.856226,536.266849,-518.144159,9548.656652
2650.856555,1378.971896,740.205942,8734.430116
2650.856884,2145.067394,1258.350101,8142.265362
2650.857213,2298.286494,1110.308913,8438.347739
2650.857542,995.924147,1110.308913,9030.512492
2650.857871,229.828649,1184.329507,9030.512492
2650.858200,612.876398,814.226536,7846.182985
2650.858529,76.609550,-444.123565,8734.430116
2650.858858,-689.485948,-1850.514855,9844.739029
2650.859187,-1532.190996,-1036.288319,9474.636058
2650.859516,-2298.286494,-1036.288319,9696.697840
2650.859845,-919.314598,-1628.453072,9178.553681
2650.860174,229.828649,-592.164754,9326.594869
2650.860502,-689.485948,-666.185348,9622.677246
2650.860831,-1072.533697,-370.102971,10214.842000
2650.861160,76.609550,-0.000000,8734.430116
2650.861489,1455.581446,-222.061783,8660.409521
2650.861818,1762.019645,-814.226536,9178.553681
2650.862147,919.314598,-296.082377,9104.533087
2650.862476,995.924147,222.061783,9030.512492
2650.862805,2451.505594,444.123565,8142.265362
2650.863134,3140.991542,222.061783,8364.327145
2650.863463,1762.019645,518.144159,8512.368333
2650.863792,612.876398,-296.082377,9104.533087
2650.864121,76.609550,-0.000000,9030.512492
2650.864450,459.657299,-296.082377,8216.285956
2650.864779,229.828649,-1110.308913,9252.574275
2650.865108,-842.705048,-1110.308913,10066.800811
2650.865437,-1225.752797,-518.144159,9474.636058
2650.865765,-153.219100,-1332.370696,9104.533087
2650.866094,-612.876398,-962.267725,9252.574275
2650.866423,153.219100,-296.082377,9622.677246
2650.866752,-536.266849,-74.020594,9622.677246
2650.867081,-383.047749,592.164754,9030.512492
2650.867410,1455.581446,-0.000000,8586.388927
2650.867739,1838.629195,-0.000000,8512.368333
2650.868068,1378.971896,222.061783,9252.574275
2650.868397,1378.971896,296.082377,8808.450710
2650.868726,2374.896044,296.082377,8216.285956
2650.869055,2221.676944,592.164754,8586.388927
2650.869384,1149.143247,518.144159,9622.677246
2650.869713,229.828649,592.164754,9474.636058
2650.870042,0.000000,1406.391290,8216.285956
2650.870371,919.314598,-0.000000,8364.327145
2650.870700,383.047749,-592.164754,9770.718434
2650.871028,-383.047749,-1036.288319,9770.718434
2650.871357,-1149.143247,-296.082377,9400.615463
2650.871686,-842.705048,-518.144159,9252.574275
2650.872015,0.000000,-888.247130,9400.615463
2650.872344,0.000000,-814.226536,9844.739029
2650.872673,-459.657299,-74.020594,9474.636058
2650.873002,-306.438199,-0.000000,8734.430116
2650.873331,1455.581446,222.061783,8882.471304
2650.873660,1838.629195,-0.000000,8808.450710
2650.873989,1455.581446,-0.000000,9400.615463
2650.874318,919.314598,-148.041188,9104.533087
2650.874647,1302.362347,592.164754,8660.409521
2650.874976,2068.457845,518.144159,8734.430116
2650.875305,689.485948,222.061783,9178.553681
2650.875634,0.000000,-0.000000,9770.718434
2650.875963,-383.047749,296.082377,8734.430116
2650.876291,229.828649,-74.020594,8660.409521
2650.876620,0.000000,-962.267725,9178.553681
2650.876949,-1225.752797,-1554.432478,9992.780217
2650.877278,-1608.800546,-1480.411884,10214.842000
2650.877607,-1225.752797,-1110.308913,9104.533087
2650.877936,-383.047749,-148.041188,8660.409521
2650.878265,-689.485948,-148.041188,9252.574275
2650.878594,-612.876398,-666.185348,10066.800811
2650.878923,-306.438199,444.123565,9770.718434
2650.879252,612.876398,-0.000000,7846.182985
2650.879581,2604.724693,-370.102971,7328.038826
2650.879910,2221.676944,444.123565,9252.574275
2650.880239,1915.238745,-0.000000,8882.471304
2650.880568,2068.457845,592.164754,7550.100608
2650.880897,2068.457845,-0.000000,8142.265362
2650.881226,1608.800546,518.144159,8660.409521
2650.881554,766.095498,444.123565,8882.471304
2650.881883,-766.095498,-0.000000,8882.471304
2650.882212,-153.219100,-814.226536,7624.121203
2650.882541,0.000000,-222.061783,10584.944971
2650.882870,-1302.362347,-2220.617826,9030.512492
2650.883199,-1608.800546,-1850.514855,9252.574275
2650.883528,-536.266849,-74.020594,9548.656652
2650.883857,536.266849,-1332.370696,9474.636058
2650.884186,153.219100,-740.205942,9400.615463
2650.884515,-842.705048,-370.102971,10140.821405
2650.884844,-153.219100,444.123565,8586.388927
2650.885173,1532.190996,1554.432478,7994.224174
2650.885502,2528.115143,296.082377,8142.265362
2650.885831,1915.238745,370.102971,8290.306550
2650.886160,1302.362347,-0.000000,8660.409521
2650.886489,1149.143247,-0.000000,8364.327145
2650.886817,1685.410096,-296.082377,7994.224174
2650.887146,689.485948,296.082377,9770.718434
2650.887475,-612.876398,-518.144159,9844.739029
2650.887804,-1225.752797,814.226536,8956.491898
2650.888133,-995.924147,-74.020594,9030.512492
2650.888462,153.219100,-1036.288319,9474.636058
2650.888791,-689.485948,-1184.329507,9400.615463
2650.889120,-1608.800546,-1628.453072,10288.862594
2650.889449,-1532.190996,-1036.288319,8956.491898
2650.889778,229.828649,-0.000000,9548.656652
2650.890107,76.609550,222.061783,9252.574275
2650.890436,-229.828649,296.082377,9252.574275
2650.890765,306.438199,-0.000000,8808.450710
2650.891094,1149.143247,1332.370696,7402.059420
2650.891423,2451.505594,222.061783,8290.306550
2650.891752,1991.848295,-1036.288319,9104.533087
2650.892080,383.047749,-0.000000,8734.430116
2650.892409,229.828649,-74.020594,8512.368333
2650.892738,919.314598,-296.082377,8734.430116
2650.893067,612.876398,-814.226536,9326.594869
2650.893396,-383.047749,-0.000000,9918.759623
2650.893725,-766.095498,296.082377,9622.677246
2650.894054,-612.876398,-592.164754,8512.368333
2650.894383,383.047749,-888.247130,8882.471304
2650.894712,-153.219100,-592.164754,9844.739029
2650.895041,-766.095498,-888.247130,9474.636058
2650.895370,-536.266849,-518.144159,9030.512492
2650.895699,76.609550,296.082377,8512.368333
2650.896028,153.219100,-74.020594,9252.574275
2650.896357,-536.266849,-370.102971,9548.656652
2650.896686,-536.266849,222.061783,9400.615463
2650.897015,0.000000,370.102971,8882.471304
2650.897343,766.095498,-0.000000,8734.430116
2650.897672,689.485948,-666.185348,8882.471304
2650.898001,306.438199,-1702.473667,10066.800811
2650.898330,0.000000,-666.185348,9252.574275
2650.898660,1225.752797,-666.185348,9252.574275
2650.898989,689.485948,-222.061783,8586.388927
2650.899318,229.828649,518.144159,9548.656652
2650.899647,229.828649,1332.370696,8660.409521
2650.899976,536.266849,1332.370696,7772.162391
2650.900305,1149.143247,666.185348,8142.265362
2650.900634,1302.362347,-296.082377,8808.450710
2650.900963,0.000000,-296.082377,8734.430116
2650.901292,-689.485948,-74.020594,9104.533087
2650.901621,-459.657299,-518.144159,8882.471304
2650.901950,-612.876398,-1110.308913,9474.636058
2650.902279,-1455.581446,-814.226536,10362.883188
2650.902608,-1532.190996,-222.061783,9844.739029
2650.902937,-306.438199,-296.082377,8660.409521
2650.903266,459.657299,-222.061783,8438.347739
2650.903595,1149.143247,-518.144159,9252.574275
2650.903924,1072.533697,-370.102971,8882.471304
2650.904253,1302.362347,296.082377,8364.327145
2650.904582,1915.238745,740.205942,7772.162391
2650.904911,2068.457845,148.041188,8734.430116
2650.905240,2451.505594,666.185348,8956.491898
2650.905569,842.705048,370.102971,8956.491898
2650.905898,229.828649,-0.000000,8956.491898
2650.906227,995.924147,-814.226536,8808.450710
2650.906556,229.828649,-1184.329507,9400.615463
2650.906885,-919.314598,-1628.453072,9770.718434
2650.907214,-1378.971896,-888.247130,10288.862594
2650.907543,-689.485948,-666.185348,9400.615463
2650.907872,-536.266849,-1110.308913,9548.656652
2650.908201,-459.657299,-518.144159,10066.800811
2650.908530,-689.485948,-222.061783,9696.697840
2650.908859,383.047749,370.102971,8512.368333
2650.909188,2145.067394,-0.000000,8660.409521
2650.909517,2145.067394,-444.123565,8734.430116
2650.909846,2068.457845,-814.226536,9030.512492
2650.910175,2145.067394,148.041188,8586.388927
2650.910504,2451.505594,1110.308913,8290.306550
2650.910833,2604.724693,296.082377,8364.327145
2650.911162,1225.752797,148.041188,9104.533087
2650.911491,612.876398,-0.000000,9400.615463
2650.911820,383.047749,222.061783,8660.409521
2650.912149,0.000000,-444.123565,7994.224174
2650.912478,0.000000,-888.247130,9474.636058
2650.912807,-1149.143247,-1184.329507,10214.842000
2650.913136,-1608.800546,-444.123565,9104.533087
2650.913465,-1149.143247,-148.041188,8734.430116
2650.913794,-459.657299,-518.144159,9770.718434
2650.914123,-1378.971896,-0.000000,9844.739029
2650.914452,-612.876398,370.102971,9474.636058
2650.914781,-229.828649,518.144159,8956.491898
2650.915110,1149.143247,1184.329507,8586.388927
2650.915439,1838.629195,-0.000000,8290.306550
2650.915768,1225.752797,-0.000000,9178.553681
2650.916097,1378.971896,444.123565,8882.471304
2650.916426,2145.067394,962.267725,8512.368333
2650.916755,2298.286494,1184.329507,8216.285956
2650.917084,1685.410096,296.082377,8956.491898
2650.917413,459.657299,888.247130,8734.430116
2650.917742,-229.828649,1036.288319,8216.285956
2650.918071,-612.876398,-148.041188,8956.491898
2650.918401,-383.047749,-1184.329507,9326.594869
2650.918730,-1532.190996,-1110.308913,9770.718434
2650.919059,-2374.896044,-1628.453072,10436.903782
2650.919388,-2145.067394,-2220.617826,10955.047942
2650.919717,-1685.410096,-1554.432478,10362.883188
2650.920046,-1532.190996,-740.205942,9770.718434
2650.920375,-1455.581446,-592.164754,9622.677246
2650.920704,-842.705048,-296.082377,9696.697840
2650.921033,689.485948,-0.000000,9844.739029
2650.921362,2145.067394,-888.247130,8956.491898
2650.921691,2221.676944,-148.041188,8512.368333
2650.922020,1838.629195,148.041188,8290.306550
2650.922349,2987.772442,1036.288319,7772.162391
2650.922678,3294.210641,814.226536,7772.162391
2650.923007,2604.724693,1184.329507,7920.203579
2650.923336,1532.190996,962.267725,8660.409521
2650.923665,612.876398,888.247130,7846.182985
2650.923994,0.000000,-370.102971,8364.327145
2650.924323,-229.828649,-1554.432478,9030.512492
2650.924652,-1455.581446,-2294.638420,10584.944971
2650.924981,-1991.848295,-1776.494261,10214.842000
2650.925310,-1915.238745,-1184.329507,8808.450710
2650.925639,-995.924147,-1628.453072,9844.739029
2650.925968,-383.047749,-1036.288319,10140.821405
2650.926297,-229.828649,-0.000000,9474.636058
2650.926626,-306.438199,-0.000000,8734.430116
2650.926955,1072.533697,666.185348,8660.409521
2650.927284,2834.553343,222.061783,8956.491898
2650.927613,2757.943793,148.041188,8216.285956
2650.927942,2987.772442,740.205942,8142.265362
2650.928271,1915.238745,962.267725,7179.997637
2650.928600,3370.820191,814.226536,8364.327145
2650.928929,2604.724693,-0.000000,8438.347739
2650.929258,229.828649,1110.308913,9104.533087
2650.929587,-612.876398,-592.164754,9104.533087
2650.929916,-689.485948,-1110.308913,8512.368333
2650.930245,-459.657299,-592.164754,9696.697840
2650.930574,-1685.410096,-1776.494261,10140.821405
2650.930903,-2298.286494,-1036.288319,10436.903782
2650.931232,-2221.676944,-740.205942,10510.924376
2650.931561,-612.876398,-444.123565,9548.656652
2650.931890,-459.657299,-666.185348,9400.615463
2650.932219,-995.924147,-0.000000,9844.739029
2650.932548,-1072.533697,518.144159,9474.636058
2650.932877,1149.143247,592.164754,9548.656652
2650.933206,1455.581446,222.061783,8438.347739
2650.933535,1685.410096,-0.000000,8660.409521
2650.933864,1149.143247,-148.041188,9400.615463
2650.934193,1072.533697,592.164754,7772.162391
2650.934522,1991.848295,962.267725,7920.203579
2650.934851,1532.190996,592.164754,9030.512492
2650.935180,-306.438199,1036.288319,9178.553681
2650.935509,-383.047749,370.102971,8956.491898
2650.935838,-229.828649,-0.000000,7920.203579
2650.936167,0.000000,-1184.329507,8882.471304
2650.936496,-612.876398,-1332.370696,9326.594869
2650.936825,-1762.019645,-1554.432478,9622.677246
2650.937154,-1225.752797,-518.144159,9474.636058
2650.937483,0.000000,-222.061783,8660.409521
2650.937813,0.000000,-1036.288319,9770.718434
2650.938142,-612.876398,-0.000000,10066.800811
2650.938471,-383.047749,592.164754,8734.430116
2650.938800,229.828649,444.123565,8734.430116
2650.939129,1685.410096,-296.082377,9178.553681
2650.939458,1838.629195,-370.102971,9030.512492
2650.939787,1608.800546,-222.061783,9474.636058
2650.940116,919.314598,222.061783,9400.615463
2650.940445,2221.676944,518.144159,8290.306550
2650.940774,2604.724693,518.144159,8808.450710
2650.941103,1455.581446,888.247130,8956.491898
2650.941432,459.657299,888.247130,9326.594869
2650.941761,612.876398,148.041188,8290.306550
2650.942090,1455.581446,-592.164754,9030.512492
2650.942419,842.705048,-1110.308913,8956.491898
2650.942748,-306.438199,-1406.391290,9696.697840
2650.943077,-1225.752797,-1110.308913,9696.697840
2650.943406,-459.657299,-592.164754,9548.656652
2650.943735,-229.828649,-666.185348,9474.636058
2650.944064,-536.266849,-370.102971,9622.677246
2650.944393,-766.095498,-222.061783,10066.800811
2650.944722,-229.828649,740.205942,8882.471304
2650.945051,1532.190996,222.061783,8734.430116
2650.945380,1302.362347,-222.061783,8586.388927
2650.945709,1455.581446,-0.000000,9326.594869
2650.946038,1302.362347,814.226536,8364.327145
2650.946367,2145.067394,1036.288319,7772.162391
2650.946696,2374.896044,518.144159,7920.203579
2650.947025,1072.533697,518.144159,8586.388927
2650.947354,383.047749,370.102971,9252.574275
2650.947683,-153.219100,222.061783,8290.306550
2650.948012,383.047749,-814.226536,8290.306550
2650.948341,-612.876398,-1554.432478,9326.594869
2650.948670,-2221.676944,-1332.370696,10732.986159
2650.948999,-2145.067394,-1998.556043,10214.842000
2650.949328,-1302.362347,-1036.288319,8808.450710
2650.949657,0.000000,-666.185348,9326.594869
2650.949986,-612.876398,-444.123565,9548.656652
2650.950315,-1072.533697,-148.041188,9474.636058
2650.950644,0.000000,518.144159,8956.491898
2650.950973,1302.362347,-0.000000,8290.306550
2650.951302,2221.676944,-666.185348,9178.553681
2650.951631,1149.143247,-666.185348,8660.409521
2650.951960,689.485948,-148.041188,8808.450710
2650.952289,1685.410096,-74.020594,8290.306550
2650.952618,2451.505594,444.123565,8216.285956
2650.952947,1762.019645,-296.082377,9104.533087
2650.953276,459.657299,740.205942,9474.636058
2650.953605,536.266849,-0.000000,9326.594869
2650.953934,536.266849,-222.061783,8216.285956
2650.954263,459.657299,-888.247130,8956.491898
2650.954592,-1455.581446,-962.267725,10066.800811
2650.954921,-995.924147,-1036.288319,9548.656652
2650.955250,-919.314598,-518.144159,9326.594869
2650.955579,-229.828649,-370.102971,8808.450710
2650.955908,-229.828649,-814.226536,10140.821405
2650.956237,-919.314598,-74.020594,10066.800811
2650.956566,-1225.752797,666.185348,9548.656652
2650.956895,536.266849,-0.000000,9326.594869
2650.957225,1302.362347,-222.061783,8438.347739
2650.957554,1225.752797,518.144159,9400.615463
2650.957883,1072.533697,-74.020594,9474.636058
2650.958212,1762.019645,740.205942,8364.327145
2650.958541,3140.991542,666.185348,8290.306550
2650.958870,2757.943793,1332.370696,8142.265362
2650.959199,1685.410096,1110.308913,8882.471304
2650.959528,995.924147,1406.391290,7920.203579
2650.959857,1532.190996,-0.000000,7994.224174
2650.960186,1455.581446,-222.061783,8808.450710
2650.960515,383.047749,-1332.370696,9326.594869
2650.960844,-1149.143247,-1110.308913,8586.388927
2650.961173,-1149.143247,-888.247130,9400.615463
2650.961502,-689.485948,-444.123565,8956.491898
2650.961831,-766.095498,-814.226536,9696.697840
2650.962160,-1532.190996,-518.144159,9844.739029
2650.962489,-1378.971896,148.041188,9474.636058
2650.962818,76.609550,-0.000000,9400.615463
2650.963147,919.314598,-962.267725,9474.636058
2650.963476,919.314598,-296.082377,9548.656652
2650.963805,383.047749,-0.000000,9548.656652
2650.964134,1532.190996,1184.329507,7994.224174
2650.964463,2068.457845,444.123565,8512.368333
2650.964792,2451.505594,-814.226536,8586.388927
2650.965121,1302.362347,296.082377,8734.430116
2650.965450,995.924147,-0.000000,8364.327145
2650.965779,766.095498,-666.185348,7698.141797
2650.966108,842.705048,-740.205942,9400.615463
2650.966437,-536.266849,-1332.370696,9252.574275
2650.966766,-1149.143247,-962.267725,9252.574275
2650.967095,-1532.190996,-1332.370696,9548.656652
2650.967424,-766.095498,-888.247130,8734.430116
2650.967753,-306.438199,-740.205942,9844.739029
2650.968082,-1762.019645,-666.185348,10288.862594
2650.968411,-1991.848295,-74.020594,9844.739029
2650.968740,-383.047749,370.102971,9104.533087
2650.969069,766.095498,-1184.329507,8882.471304
2650.969398,919.314598,-666.185348,9474.636058
2650.969727,612.876398,-1036.288319,9622.677246
2650.970056,1302.362347,-296.082377,8660.409521
2650.970385,1915.238745,1036.288319,7624.121203
2650.970714,2451.505594,-0.000000,8660.409521
2650.971043,1072.533697,1258.350101,8512.368333
2650.971372,919.314598,1258.350101,7920.203579
2650.971701,1378.971896,888.247130,7476.080014
2650.972030,1378.971896,-148.041188,8734.430116
2650.972359,383.047749,-1480.411884,9918.759623
2650.972688,-919.314598,-1036.288319,9178.553681
2650.973017,-1302.362347,-370.102971,9178.553681
2650.973346,-459.657299,-1184.329507,8660.409521
2650.973675,-842.705048,-0.000000,10066.800811
2650.974004,-1378.971896,-592.164754,10214.842000
2650.974333,-842.705048,-296.082377,9696.697840
2650.974662,0.000000,148.041188,8956.491898
2650.974991,2145.067394,-74.020594,8956.491898
2650.975320,1072.533697,-296.082377,8956.491898
2650.975649,689.485948,296.082377,9400.615463
2650.975978,1685.410096,592.164754,8882.471304
2650.976307,1915.238745,1628.453072,7920.203579
2650.976636,1991.848295,592.164754,8586.388927
2650.976966,995.924147,518.144159,9474.636058
2650.977295,153.219100,518.144159,9104.533087
2650.977624,0.000000,-0.000000,8882.471304
2650.977953,459.657299,-666.185348,8882.471304
2650.978282,-306.438199,-1480.411884,10140.821405
2650.978611,-1225.752797,-1036.288319,9844.739029
2650.978940,-1072.533697,-962.267725,8956.491898
2650.979269,-76.609550,-518.144159,9474.636058
2650.979598,459.657299,-592.164754,9178.553681
2650.979927,-383.047749,-0.000000,9844.739029
2650.980256,-306.438199,-74.020594,9696.697840
2650.980585,689.485948,518.144159,8142.265362
2650.980914,1762.019645,-444.123565,8586.388927
2650.981243,1378.971896,-666.185348,9030.512492
2650.981572,1378.971896,-888.247130,9104.533087
2650.981901,842.705048,-148.041188,8586.388927
2650.982230,1149.143247,296.082377,8882.471304
2650.982559,1991.848295,222.061783,8956.491898
2650.982888,995.924147,-0.000000,9474.636058
2650.983217,0.000000,148.041188,8956.491898
2650.983546,383.047749,370.102971,8882.471304
2650.983875,459.657299,-1036.288319,8956.491898
2650.984204,995.924147,-1332.370696,9474.636058
2650.984533,0.000000,-592.164754,9622.677246
2650.984862,0.000000,-222.061783,9178.553681
2650.985191,919.314598,444.123565,7698.141797
2650.985520,1532.190996,-148.041188,9178.553681
2650.985849,459.657299,-0.000000,9622.677246
2650.986178,-383.047749,-0.000000,9622.677246
2650.986507,0.000000,-296.082377,9178.553681
2650.986836,536.266849,-518.144159,9030.512492
2650.987165,76.609550,-1702.473667,9104.533087
2650.987494,-766.095498,-1110.308913,9622.677246
2650.987823,-536.266849,-370.102971,8956.491898
2650.988152,459.657299,444.123565,8882.471304
2650.988481,1455.581446,-222.061783,9030.512492
2650.988810,1225.752797,592.164754,8808.450710
2650.989139,306.438199,148.041188,9326.594869
2650.989468,383.047749,1110.308913,8364.327145
2650.989797,1378.971896,-0.000000,7846.182985
2650.990126,1149.143247,-296.082377,9326.594869
2650.990455,153.219100,-740.205942,9252.574275
2650.990784,0.000000,-0.000000,8956.491898
2650.991113,0.000000,370.102971,8364.327145
2650.991442,459.657299,-444.123565,8734.430116
2650.991771,-766.095498,-222.061783,9548.656652
2650.992100,-1838.629195,-148.041188,9770.718434
2650.992429,-1378.971896,-296.082377,9326.594869
2650.992758,0.000000,-1110.308913,9252.574275
2650.993087,-536.266849,-1110.308913,9696.697840
2650.993416,-306.438199,-1036.288319,11399.171507
2650.993745,-306.438199,-0.000000,9326.594869
2650.994074,459.657299,-148.041188,8142.265362
2650.994403,1685.410096,-74.020594,10214.842000
2650.994732,1225.752797,1628.453072,8586.388927
2650.995061,842.705048,444.123565,8512.368333
2650.995390,612.876398,1184.329507,9326.594869
2650.995719,1532.190996,-222.061783,9474.636058
2650.996048,1838.629195,-962.267725,9104.533087
2650.996378,0.000000,-518.144159,7920.203579
2650.996707,-919.314598,-518.144159,9474.636058
2650.997036,76.609550,-592.164754,9104.533087
2650.997365,-229.828649,-740.205942,9474.636058
2650.997694,-306.438199,-888.247130,10881.027347
2650.998023,-1302.362347,-962.267725,9548.656652
2650.998352,-1455.581446,-148.041188,9400.615463
2650.998681,1608.800546,-1332.370696,8734.430116
2650.999010,383.047749,-1332.370696,8660.409521
2650.999339,306.438199,-1036.288319,9548.656652
2650.999668,536.266849,-370.102971,9474.636058
2650.999997,1762.019645,-0.000000,8512.368333
2651.000326,2451.505594,592.164754,8438.347739
2651.000655,2451.505594,296.082377,8586.388927
2651.000984,1378.971896,740.205942,8364.327145
2651.001313,1378.971896,888.247130,8068.244768
2651.001642,1838.629195,888.247130,7920.203579
2651.001971,1991.848295,-148.041188,8734.430116
2651.002300,459.657299,-74.020594,8956.491898
2651.002629,-153.219100,-0.000000,8586.388927
2651.002958,-459.657299,-0.000000,9252.574275
2651.003287,-766.095498,-518.144159,8882.471304
2651.003616,-459.657299,222.061783,9252.574275
2651.003945,-1378.971896,-0.000000,9400.615463
2651.004274,-1302.362347,-518.144159,8512.368333
2651.004603,-842.705048,-0.000000,8956.491898
2651.004932,-229.828649,-2072.576638,9992.780217
2651.005261,-919.314598,-2516.700203,10732.986159
2651.005590,-76.609550,-0.000000,11399.171507
2651.005919,76.609550,-0.000000,8956.491898
2651.006248,1608.800546,1110.308913,8808.450710
2651.006577,1915.238745,1036.288319,9400.615463
2651.006906,919.314598,1850.514855,8734.430116
2651.007235,1378.971896,1924.535449,8290.306550
2651.007564,2068.457845,1258.350101,8438.347739
2651.007893,2068.457845,-0.000000,9326.594869
2651.008222,689.485948,-370.102971,9474.636058
2651.008551,-995.924147,-1628.453072,9474.636058
2651.008880,-1838.629195,-814.226536,9548.656652
2651.009209,-1532.190996,-1258.350101,9696.697840
2651.009538,-1532.190996,-1628.453072,10658.965565
2651.009867,-2528.115143,-1332.370696,10288.862594
2651.010196,-766.095498,-962.267725,10140.821405
2651.010525,-459.657299,-666.185348,9474.636058
2651.010854,995.924147,-592.164754,8734.430116
2651.011183,919.314598,-74.020594,9326.594869
2651.011512,1149.143247,518.144159,9400.615463
2651.011841,1838.629195,518.144159,8290.306550
2651.012171,3294.210641,814.226536,7846.182985
2651.012500,2834.553343,1110.308913,7846.182985
2651.012829,1455.581446,740.205942,8438.347739
2651.013158,766.095498,444.123565,8142.265362
2651.013487,1225.752797,444.123565,7920.203579
2651.013816,1149.143247,-888.247130,8438.347739
2651.014145,-306.438199,-1480.411884,9548.656652
2651.014474,-1455.581446,-1776.494261,9474.636058
2651.014803,-1378.971896,-1036.288319,8956.491898
2651.015132,-306.438199,-444.123565,8882.471304
2651.015461,0.000000,-888.247130,9918.759623
2651.015790,-689.485948,-296.082377,9474.636058
2651.016119,-306.438199,888.247130,9030.512492
2651.016448,1072.533697,222.061783,8216.285956
2651.016777,2528.115143,-370.102971,8808.450710
2651.017106,1991.848295,-296.082377,8512.368333
2651.017435,1838.629195,-74.020594,9104.533087
2651.017764,1685.410096,370.102971,8512.368333
2651.018093,2528.115143,888.247130,8808.450710
2651.018422,2221.676944,-0.000000,9030.512492
2651.018751,689.485948,296.082377,9400.615463
2651.019080,76.609550,296.082377,9252.574275
2651.019409,0.000000,222.061783,9622.677246
2651.019738,1225.752797,-740.205942,8882.471304
2651.020067,459.657299,-1036.288319,9474.636058
2651.020396,-612.876398,-518.144159,9918.759623
2651.020725,-612.876398,-0.000000,9252.574275
2651.021054,76.609550,814.226536,8586.388927
2651.021383,-459.657299,-0.000000,9252.574275
2651.021712,0.000000,-0.000000,9992.780217
2651.022041,-919.314598,-296.082377,9474.636058
2651.022370,-612.876398,-296.082377,9474.636058
2651.022699,995.924147,-740.205942,8808.450710
2651.023028,0.000000,-1036.288319,9326.594869
2651.023357,-766.095498,-1332.370696,10214.842000
2651.023686,306.438199,-370.102971,9178.553681
2651.024015,1072.533697,-0.000000,8512.368333
2651.024344,1685.410096,-222.061783,8438.347739
2651.024673,842.705048,370.102971,8956.491898
2651.025002,-306.438199,592.164754,8734.430116
2651.025331,153.219100,518.144159,8290.306550
2651.025660,842.705048,-444.123565,8586.388927
2651.025989,-612.876398,-962.267725,8586.388927
2651.026318,-1225.752797,-1480.411884,9474.636058
2651.026647,-1225.752797,-814.226536,9030.512492
2651.026976,-1225.752797,-1036.288319,8364.327145
2651.027305,-766.095498,-1184.329507,9474.636058
2651.027634,-1838.629195,-888.247130,9474.636058
2651.027964,-1991.848295,-592.164754,9474.636058
2651.028293,-383.047749,-370.102971,9326.594869
2651.028622,1608.800546,-1184.329507,8734.430116
2651.028951,689.485948,-592.164754,8660.409521
2651.029280,1302.362347,-296.082377,9252.574275
2651.029609,1532.190996,148.041188,7994.224174
2651.029938,2374.896044,1776.494261,7698.141797
2651.030267,2145.067394,1036.288319,7772.162391
2651.030596,1225.752797,444.123565,9400.615463
2651.030925,383.047749,518.144159,9252.574275
2651.031254,612.876398,592.164754,8068.244768
2651.031583,1532.190996,-1110.308913,9104.533087
2651.031912,-229.828649,-1258.350101,9696.697840
2651.032241,-995.924147,-1184.329507,10362.883188
2651.032570,-1532.190996,-814.226536,10658.965565
2651.032899,-766.095498,-296.082377,9030.512492
2651.033228,536.266849,-222.061783,9474.636058
2651.033557,383.047749,-370.102971,10066.800811
2651.033886,459.657299,518.144159,9622.677246
2651.034215,995.924147,888.247130,7476.080014
2651.034544,2528.115143,592.164754,8364.327145
2651.034873,2681.334243,962.267725,8216.285956
2651.035202,2068.457845,370.102971,8808.450710
2651.035531,1532.190996,518.144159,9178.553681
2651.035860,1838.629195,370.102971,8290.306550
2651.036189,2528.115143,370.102971,8290.306550
2651.036518,842.705048,222.061783,8660.409521
2651.036847,-229.828649,-0.000000,9918.759623
2651.037176,-459.657299,-148.041188,9030.512492
2651.037505,0.000000,-370.102971,8882.471304
2651.037834,0.000000,-1036.288319,9104.533087
2651.038163,-1225.752797,-1258.350101,10066.800811
2651.038492,-1455.581446,-888.247130,9770.718434
2651.038821,0.000000,-296.082377,9178.553681
2651.039150,229.828649,-592.164754,9030.512492
2651.039479,0.000000,-666.185348,9104.533087
2651.039808,-995.924147,444.123565,9178.553681
2651.040137,536.266849,148.041188,9474.636058
2651.040466,1225.752797,-444.123565,7994.224174
2651.040795,1072.533697,-444.123565,9104.533087
2651.041124,383.047749,-814.226536,10732.986159
2651.041453,0.000000,-0.000000,9030.512492
2651.041782,383.047749,-0.000000,8808.450710
2651.042111,1455.581446,296.082377,8808.450710
2651.042440,306.438199,-74.020594,8882.471304
2651.042769,0.000000,814.226536,9104.533087
2651.043098,229.828649,370.102971,8734.430116
2651.043427,842.705048,-0.000000,8512.368333
2651.043757,689.485948,-1036.288319,9030.512492
2651.044086,-229.828649,-962.267725,9178.553681
2651.044415,-459.657299,-740.205942,9696.697840
2651.044744,0.000000,592.164754,8808.450710
2651.045073,153.219100,-148.041188,9104.533087
2651.045402,612.876398,-518.144159,9992.780217
2651.045731,-766.095498,-296.082377,9992.780217
2651.046060,0.000000,740.205942,8512.368333
2651.046389,689.485948,444.123565,8734.430116
2651.046718,1072.533697,-296.082377,8882.471304
2651.047047,766.095498,-0.000000,9252.574275
2651.047376,689.485948,-0.000000,9104.533087
2651.047705,1072.533697,740.205942,8142.265362
2651.048034,2451.505594,962.267725,8216.285956
2651.048363,1302.362347,-0.000000,8808.450710
2651.048692,229.828649,1184.329507,9770.718434
2651.049021,612.876398,-0.000000,7920.203579
2651.049350,459.657299,-444.123565,8734.430116
2651.049679,536.266849,-1406.391290,9252.574275
2651.050008,-383.047749,-1258.350101,9326.594869
2651.050337,-1225.752797,-1184.329507,9770.718434
2651.050666,-459.657299,-444.123565,9326.594869
2651.050995,-229.828649,-0.000000,8882.471304
2651.051324,-766.095498,-740.205942,9844.739029
2651.051653,-995.924147,-74.020594,9696.697840
2651.051982,-612.876398,148.041188,9104.533087
2651.052311,689.485948,-0.000000,8512.368333
2651.052640,1225.752797,-888.247130,8734.430116
2651.052969,1072.533697,-740.205942,9474.636058
2651.053298,536.266849,-74.020594,9252.574275
2651.053627,1225.752797,-74.020594,8290.306550
2651.053956,1608.800546,-370.102971,8364.327145
2651.054285,1225.752797,-0.000000,8808.450710
2651.054614,76.609550,-148.041188,9548.656652
2651.054943,0.000000,-296.082377,9622.677246
2651.055272,306.438199,-962.267725,8660.409521
2651.055601,842.705048,-1110.308913,8438.347739
2651.055930,0.000000,-1184.329507,9548.656652
2651.056259,-536.266849,-370.102971,9178.553681
2651.056588,536.266849,-0.000000,8290.306550
2651.056917,842.705048,-0.000000,8364.327145
2651.057246,0.000000,-74.020594,9104.533087
2651.057575,0.000000,-74.020594,9474.636058
2651.057904,-612.876398,-0.000000,8956.491898
2651.058233,383.047749,370.102971,7994.224174
2651.058562,1302.362347,-888.247130,8142.265362
2651.058891,612.876398,-814.226536,9400.615463
2651.059220,1072.533697,-222.061783,9474.636058
2651.059550,1762.019645,-148.041188,8512.368333
2651.059879,1608.800546,296.082377,8216.285956
2651.060208,1838.629195,-0.000000,9474.636058
2651.060537,842.705048,518.144159,9400.615463
2651.060866,229.828649,888.247130,8956.491898
2651.061195,919.314598,370.102971,8290.306550
2651.061524,995.924147,-222.061783,8512.368333
2651.061853,-383.047749,-1110.308913,9696.697840
2651.062182,-536.266849,-518.144159,9696.697840
2651.062511,-1378.971896,-666.185348,9326.594869
2651.062840,-1149.143247,-296.082377,9252.574275
2651.063169,-612.876398,-888.247130,10140.821405
2651.063498,-1532.190996,-222.061783,9918.759623
2651.063827,-1072.533697,-0.000000,9770.718434
2651.064156,76.609550,370.102971,8956.491898
2651.064485,1532.190996,-888.247130,9326.594869
2651.064814,1378.971896,-222.061783,9252.574275
2651.065143,1378.971896,-0.000000,9474.636058
2651.065472,1991.848295,1036.288319,8734.430116
2651.065801,1915.238745,1406.391290,8438.347739
2651.066130,2298.286494,1184.329507,9178.553681
2651.066459,1072.533697,962.267725,9622.677246
2651.066788,612.876398,888.247130,9252.574275
2651.067117,306.438199,370.102971,8216.285956
2651.067446,306.438199,-666.185348,8882.471304
2651.067775,-689.485948,-1480.411884,9622.677246
2651.068104,-1685.410096,-962.267725,9844.739029
2651.068433,-1608.800546,-1332.370696,9178.553681
2651.068762,-766.095498,-888.247130,8808.450710
2651.069091,-766.095498,-592.164754,9030.512492
2651.069420,-919.314598,-444.123565,9622.677246
2651.069749,-612.876398,-222.061783,9326.594869
2651.070078,-153.219100,-222.061783,8364.327145
2651.070407,766.095498,-1036.288319,9474.636058
2651.070736,1762.019645,-666.185348,9696.697840
2651.071065,1302.362347,-222.061783,8290.306550
2651.071394,2298.286494,518.144159,8216.285956
2651.071723,2298.286494,370.102971,8290.306550
2651.072052,2451.505594,1110.308913,8216.285956
2651.072381,1838.629195,296.082377,9326.594869
2651.072710,459.657299,148.041188,8512.368333
2651.073039,-383.047749,-222.061783,8216.285956
2651.073368,0.000000,-1110.308913,9030.512492
2651.073697,0.000000,-2146.597232,9622.677246
2651.074026,-1762.019645,-1776.494261,9992.780217
2651.074355,-1378.971896,-1480.411884,9178.553681
2651.074684,-766.095498,-1036.288319,9326.594869
2651.075014,-153.219100,-1110.308913,9474.636058
2651.075343,-459.657299,-444.123565,9474.636058
2651.075672,-612.876398,-370.102971,10066.800811
2651.076001,0.000000,-222.061783,8734.430116
2651.076330,1762.019645,148.041188,8808.450710
2651.076659,2298.286494,-74.020594,8808.450710
2651.076988,1762.019645,222.061783,9178.553681
2651.077317,1838.629195,962.267725,8660.409521
2651.077646,2681.334243,1850.514855,7846.182985
2651.077975,2604.724693,1554.432478,7846.182985
2651.078304,536.266849,1628.453072,8216.285956
2651.078633,689.485948,1036.288319,9548.656652
2651.078962,0.000000,-74.020594,8660.409521
2651.079291,-689.485948,-74.020594,8808.450710
2651.079620,0.000000,-2072.576638,10066.800811
2651.079949,-2451.505594,-1702.473667,9696.697840
2651.080278,-1991.848295,-222.061783,10140.821405
2651.080607,-1072.533697,-222.061783,9474.636058
2651.080936,-459.657299,-592.164754,9696.697840
2651.081265,-842.705048,222.061783,10881.027347
2651.081594,-612.876398,-0.000000,9400.615463
2651.081923,0.000000,1184.329507,9104.533087
2651.082252,1685.410096,444.123565,8734.430116
2651.082581,1608.800546,592.164754,8438.347739
2651.082910,1302.362347,-370.102971,9918.759623
2651.083239,229.828649,-370.102971,9030.512492
2651.083568,1072.533697,444.123565,8142.265362
2651.083897,1225.752797,-0.000000,9104.533087
2651.084226,153.219100,-370.102971,9104.533087
2651.084555,0.000000,-370.102971,9918.759623
2651.084884,-536.266849,-666.185348,8586.388927
2651.085213,-536.266849,-1628.453072,9104.533087
2651.085542,0.000000,-2072.576638,9474.636058
2651.085871,-689.485948,-1998.556043,9178.553681
2651.086200,-612.876398,-0.000000,9400.615463
2651.086529,76.609550,296.082377,8808.450710
2651.086858,689.485948,-74.020594,8882.471304
2651.087187,153.219100,-222.061783,9770.718434
2651.087516,0.000000,-370.102971,9178.553681
2651.087845,76.609550,666.185348,8586.388927
2651.088174,536.266849,296.082377,8512.368333
2651.088503,995.924147,-1036.288319,8364.327145
2651.088832,612.876398,-444.123565,9548.656652
2651.089161,612.876398,-444.123565,9030.512492
2651.089490,1072.533697,370.102971,7624.121203
2651.089819,1915.238745,444.123565,8512.368333
2651.090148,1838.629195,-0.000000,9104.533087
2651.090477,842.705048,518.144159,8882.471304
2651.090807,842.705048,888.247130,8142.265362
2651.091136,1378.971896,-222.061783,7994.224174
2651.091465,1149.143247,-296.082377,8512.368333
2651.091794,689.485948,-296.082377,8882.471304
2651.092123,306.438199,-148.041188,9326.594869
2651.092452,0.000000,-222.061783,8808.450710
2651.092781,0.000000,-518.144159,8808.450710
2651.093110,0.000000,-1258.350101,10362.883188
2651.093439,-1302.362347,-444.123565,10066.800811
2651.093768,-1149.143247,-0.000000,9252.574275
2651.094097,-153.219100,-0.000000,8956.491898
2651.094426,229.828649,-222.061783,9622.677246
2651.094755,306.438199,-1110.308913,10066.800811
2651.095084,612.876398,-148.041188,9178.553681
2651.095413,1225.752797,370.102971,8882.471304
2651.095742,1915.238745,1110.308913,8438.347739
2651.096071,1685.410096,888.247130,8512.368333
2651.096400,229.828649,592.164754,9474.636058
2651.096729,0.000000,592.164754,9104.533087
2651.097058,229.828649,-0.000000,8438.347739
2651.097387,0.000000,-1184.329507,9400.615463
2651.097716,-1455.581446,-740.205942,10658.965565
2651.098045,-2451.505594,-1258.350101,10066.800811
2651.098374,-2451.505594,-888.247130,9622.677246
2651.098703,-1991.848295,-666.185348,9696.697840
2651.099032,-2374.896044,-740.205942,9252.574275
2651.099361,-3064.381992,-74.020594,10362.883188
2651.099690,-2528.115143,296.082377,8882.471304
2651.100019,-2374.896044,-0.000000,8290.306550
2651.100348,-1378.971896,-370.102971,8290.306550
2651.100677,-1991.848295,-888.247130,9104.533087
2651.101006,-2834.553343,-222.061783,9178.553681
2651.101336,-2374.896044,-518.144159,8142.265362
2651.101665,-1762.019645,-0.000000,8216.285956
2651.101994,-1532.190996,-74.020594,8734.430116
2651.102323,-1685.410096,296.082377,9326.594869
2651.102652,-2834.553343,-814.226536,9326.594869
2651.102981,-2451.505594,-518.144159,8512.368333
2651.103310,-1991.848295,-296.082377,8364.327145
2651.103639,-1915.238745,-0.000000,7772.162391
2651.103968,-2451.505594,-370.102971,8290.306550
2651.104297,-2604.724693,-888.247130,9326.594869
2651.104626,-1991.848295,-1036.288319,8068.244768
2651.104955,-1685.410096,-0.000000,8734.430116
2651.105284,-1915.238745,888.247130,8438.347739
2651.105613,-2374.896044,-0.000000,8734.430116
2651.105942,-2987.772442,-592.164754,8734.430116
2651.106271,-2298.286494,-592.164754,9178.553681
2651.106600,-1838.629195,-0.000000,9474.636058
2651.106929,-2374.896044,-0.000000,8290.306550
2651.107259,-1991.848295,-1036.288319,9400.615463
2651.107588,-1838.629195,-1406.391290,10510.924376
2651.107917,-1302.362347,-1036.288319,10214.842000
2651.108246,-612.876398,296.082377,8882.471304
2651.108575,-383.047749,1702.473667,8364.327145
2651.108904,-1302.362347,1554.432478,8512.368333
2651.109233,-612.876398,370.102971,9622.677246
2651.109562,-842.705048,962.267725,9252.574275
2651.109891,-995.924147,1850.514855,8068.244768
2651.110220,-1915.238745,1776.494261,7698.141797
2651.110549,-2528.115143,-0.000000,9178.553681
2651.110878,-2834.553343,-1998.556043,10510.924376
2651.111207,-3524.039291,-2442.679609,9770.718434
2651.111536,-4060.306139,-1406.391290,9474.636058
2651.111865,-4290.134789,-814.226536,8808.450710
2651.112194,-4366.744339,-0.000000,8808.450710
2651.112523,-4903.011187,-370.102971,9770.718434
2651.112853,-4903.011187,-1480.411884,10807.006753
2651.113182,-4366.744339,-1628.453072,10288.862594
2651.113511,-4366.744339,-1258.350101,10362.883188
2651.113840,-3830.477490,-592.164754,9622.677246
2651.114169,-3217.601092,-740.205942,9474.636058
2651.114498,-2757.943793,-222.061783,9030.512492
2651.114827,-2068.457845,-0.000000,8438.347739
2651.115156,-1455.581446,-222.061783,7920.203579
2651.115485,-2298.286494,666.185348,7920.203579
2651.115814,-2298.286494,592.164754,7624.121203
2651.116143,-2374.896044,444.123565,7698.141797
2651.116472,-2528.115143,-0.000000,7476.080014
2651.116801,-2987.772442,-0.000000,8586.388927
2651.117130,-2987.772442,-0.000000,8956.491898
2651.117459,-2834.553343,-0.000000,8808.450710
2651.117788,-1762.019645,-222.061783,8882.471304
2651.118117,-2221.676944,-0.000000,8734.430116
2651.118446,-2681.334243,-74.020594,9474.636058
2651.118776,-3064.381992,-0.000000,9548.656652
2651.119105,-2604.724693,-0.000000,8882.471304
2651.119434,-2298.286494,-74.020594,8956.491898
2651.119763,-2451.505594,-740.205942,9104.533087
2651.120092,-3600.648841,-1628.453072,9622.677246
2651.120421,-3217.601092,-1702.473667,9030.512492
2651.120750,-3677.258390,-814.226536,9326.594869
2651.121079,-3370.820191,-666.185348,9252.574275
2651.121408,-3600.648841,148.041188,9252.574275
2651.121737,-3677.258390,444.123565,9252.574275
2651.122066,-3907.087040,-222.061783,9548.656652
2651.122395,-3140.991542,-740.205942,9474.636058
2651.122724,-2604.724693,-1480.411884,9474.636058
2651.123053,-1378.971896,-1406.391290,9770.718434
2651.123382,-1302.362347,-444.123565,8808.450710
2651.123711,-1455.581446,296.082377,8956.491898
2651.124040,-995.924147,222.061783,9696.697840
2651.124369,76.609550,1332.370696,8068.244768
2651.124699,1378.971896,2294.638420,6365.771101
2651.125028,1378.971896,1924.535449,7105.977043
2651.125357,0.000000,1110.308913,7179.997637
2651.125686,-1532.190996,518.144159,8660.409521
2651.126015,-2834.553343,-370.102971,8882.471304
2651.126344,-3524.039291,-2368.659014,10362.883188
2651.126673,-4826.401637,-2368.659014,9696.697840
2651.127002,-4903.011187,-2368.659014,9474.636058
2651.127331,-6128.763984,-3034.844362,11695.253884
2651.127660,-6281.983084,-1850.514855,11103.089130
2651.127989,-4519.963438,-1332.370696,11621.233289
2651.128318,-3294.210641,-296.082377,9992.780217
2651.128647,-1455.581446,888.247130,8808.450710
2651.128976,-689.485948,1184.329507,7698.141797
2651.129305,-1149.143247,1924.535449,7031.956449
2651.129634,689.485948,-222.061783,11917.315666
2651.129963,1225.752797,1702.473667,5773.606348
2651.130292,3753.867940,1702.473667,7254.018232
2651.130622,995.924147,1036.288319,4959.379811
2651.130951,153.219100,1184.329507,7179.997637
2651.131280,-2298.286494,-888.247130,10066.800811
2651.131609,-3217.601092,-740.205942,9622.677246
2651.131938,-2221.676944,-1998.556043,12287.418637
2651.132267,-3983.696590,-370.102971,8808.450710
2651.132596,-4749.792088,-1628.453072,10214.842000
2651.132925,-6588.421283,-1406.391290,10955.047942
2651.133254,-4903.011187,296.082377,9622.677246
2651.133583,-4826.401637,-888.247130,9696.697840
2651.133912,-3830.477490,-444.123565,8882.471304
2651.134241,-3370.820191,-0.000000,8808.450710
2651.134570,-3983.696590,-1776.494261,8290.306550
2651.134899,-3294.210641,-888.247130,8438.347739
2651.135228,-2757.943793,-666.185348,8882.471304
2651.135557,-2068.457845,-740.205942,8586.388927
2651.135886,-2757.943793,-518.144159,9178.553681
2651.136216,-3140.991542,-0.000000,9696.697840
2651.136545,-3447.429741,-666.185348,9178.553681
2651.136874,-4366.744339,-666.185348,9400.615463
2651.137203,-3447.429741,518.144159,9696.697840
2651.137532,-3217.601092,962.267725,9474.636058
2651.137861,-3064.381992,1184.329507,8734.430116
2651.138190,-2221.676944,1184.329507,7846.182985
2651.138519,-2451.505594,1702.473667,8364.327145
2651.138848,-2145.067394,1036.288319,7846.182985
2651.139177,-1225.752797,1554.432478,6735.874072
2651.139506,-1838.629195,666.185348,7994.224174
2651.139835,-2604.724693,148.041188,8290.306550
2651.140164,-3140.991542,-0.000000,8808.450710
2651.140493,-3294.210641,666.185348,8438.347739
2651.140822,-2681.334243,814.226536,9104.533087
2651.141151,-2757.943793,666.185348,9474.636058
2651.141480,-3064.381992,1702.473667,9992.780217
2651.141809,-3524.039291,1258.350101,10436.903782
2651.142139,-4213.525239,370.102971,11029.068536
2651.142468,-3217.601092,518.144159,11103.089130
2651.142797,-2068.457845,370.102971,10288.862594
2651.143126,-1455.581446,296.082377,10288.862594
2651.143455,-689.485948,1406.391290,8660.409521
2651.143784,-1072.533697,592.164754,9844.739029
2651.144113,0.000000,296.082377,11547.212695
2651.144442,2221.676944,2368.659014,7105.977043
2651.144771,4136.915689,3330.926739,7105.977043
2651.145100,3447.429741,3330.926739,5329.482782
2651.145429,3370.820191,4589.276840,6957.935855
2651.145758,3217.601092,4071.132681,8956.491898
2651.146087,2681.334243,5107.421000,6883.915261
2651.146416,2911.162892,3108.864956,9252.574275
2651.146745,766.095498,2886.803174,9770.718434
2651.147074,-1302.362347,2072.576638,10362.883188
2651.147403,-1532.190996,1110.308913,11473.192101
2651.147732,-842.705048,1184.329507,10584.944971
2651.148062,-842.705048,1554.432478,11843.295072
2651.148391,0.000000,1924.535449,10140.821405
2651.148720,459.657299,3701.029710,7994.224174
2651.149049,1149.143247,2072.576638,8364.327145
2651.149378,2528.115143,3849.070898,7179.997637
2651.149707,2298.286494,4441.235652,6143.709319
2651.150036,2298.286494,4071.132681,7920.203579
2651.150365,1072.533697,4219.173869,7179.997637
2651.150694,0.000000,2886.803174,9178.553681
2651.151023,-1915.238745,2368.659014,8956.491898
2651.151352,-3217.601092,1184.329507,10214.842000
2651.151681,-3140.991542,370.102971,12287.418637
2651.152010,-2528.115143,2220.617826,9844.739029
2651.152339,-2451.505594,2368.659014,10140.821405
2651.152668,-2911.162892,1998.556043,10362.883188
2651.152997,-2528.115143,2516.700203,10140.821405
2651.153326,-1915.238745,2368.659014,10658.965565
2651.153655,-1225.752797,3034.844362,8586.388927
2651.153985,-842.705048,2738.761985,8808.450710
2651.154314,-1378.971896,2368.659014,9992.780217
2651.154643,-995.924147,1480.411884,10955.047942
2651.154972,1225.752797,2738.761985,8660.409521
2651.155301,3600.648841,3775.050304,7105.977043
2651.155630,3294.210641,4737.318029,6217.729913
2651.155959,2298.286494,5329.482782,7698.141797
2651.156288,2451.505594,7179.997637,7994.224174
2651.156617,1225.752797,6217.729913,7328.038826
2651.156946,1608.800546,5255.462188,7994.224174
2651.157275,229.828649,6365.771101,8660.409521
2651.157604,76.609550,5921.647536,7994.224174
2651.157933,-689.485948,2664.741391,10214.842000
2651.158262,-1532.190996,-0.000000,10955.047942
2651.158591,-1225.752797,1332.370696,10066.800811
2651.158920,-1225.752797,592.164754,10658.965565
2651.159249,-1225.752797,1184.329507,10066.800811
2651.159579,-689.485948,3701.029710,10584.944971
2651.159908,1685.410096,3404.947333,7994.224174
2651.160237,1762.019645,5477.523971,7624.121203
2651.160566,3140.991542,4293.194464,7772.162391
2651.160895,3294.210641,5033.400406,7624.121203
2651.161224,2604.724693,4737.318029,7402.059420
2651.161553,1838.629195,3404.947333,7846.182985
2651.161882,-1149.143247,1554.432478,9622.677246
2651.162211,-1608.800546,74.020594,12139.377449
2651.162540,-2374.896044,1036.288319,10881.027347
2651.162869,-1991.848295,518.144159,12361.439231
2651.163198,-2757.943793,1110.308913,8882.471304
2651.163527,-1072.533697,1998.556043,10214.842000
2651.163856,-1072.533697,2590.720797,8956.491898
2651.164185,-842.705048,2220.617826,9548.656652
2651.164514,1915.238745,1628.453072,11769.274478
2651.164843,2834.553343,2664.741391,6069.688724
2651.165172,5056.230287,2072.576638,9474.636058
2651.165502,2987.772442,3256.906145,6217.729913
2651.165831,3753.867940,3849.070898,6291.750507
2651.166160,2374.896044,4293.194464,7994.224174
2651.166489,2604.724693,4589.276840,6957.935855
2651.166818,1685.410096,4959.379811,7550.100608
2651.167147,842.705048,2886.803174,8364.327145
2651.167476,-3140.991542,-296.082377,12361.439231
2651.167805,-4060.306139,-4515.256246,13323.706956
2651.168134,-2681.334243,-74.020594,11769.274478
2651.168463,-2681.334243,-3256.906145,12065.356855
2651.168792,-3753.867940,1480.411884,9400.615463
2651.169121,-1455.581446,2220.617826,10510.924376
2651.169450,-153.219100,2960.823768,8512.368333
2651.169779,229.828649,5107.421000,7254.018232
2651.170108,4596.572988,2368.659014,11769.274478
2651.170437,2681.334243,2960.823768,5477.523971
2651.170766,4673.182538,4219.173869,9104.533087
2651.171095,3294.210641,5773.606348,3034.844362
2651.171425,4826.401637,3627.009116,6957.935855
2651.171754,2681.334243,4737.318029,6069.688724
2651.172083,3294.210641,5181.441594,7328.038826
2651.172412,1915.238745,4441.235652,7179.997637
2651.172741,-383.047749,6735.874072,5699.585753
2651.173070,-1302.362347,666.185348,12657.521608
2651.173399,-6741.640382,-3330.926739,16432.571912
2651.173728,-4290.134789,-518.144159,9474.636058
2651.174057,-2681.334243,740.205942,12065.356855
2651.174386,-3370.820191,-5181.441594,13989.892304
2651.174715,-4213.525239,2590.720797,10288.862594
2651.175044,-536.266849,370.102971,9178.553681
2651.175373,-3140.991542,4737.318029,6735.874072
2651.175702,-1838.629195,3330.926739,11103.089130
2651.176031,4060.306139,2886.803174,11621.233289
2651.176360,2221.676944,6513.812290,3627.009116
2651.176689,4443.353888,4293.194464,11325.150913
2651.177019,2757.943793,3849.070898,4959.379811
2651.177348,3907.087040,5329.482782,7624.121203
2651.177677,-536.266849,4441.235652,8364.327145
2651.178006,-306.438199,7698.141797,8512.368333
2651.178335,-306.438199,4219.173869,9178.553681
2651.178664,-536.266849,4589.276840,7402.059420
2651.178993,-1608.800546,3034.844362,11325.150913
2651.179322,-3907.087040,-962.267725,14211.954086
2651.179651,-1762.019645,-1406.391290,9326.594869
2651.179980,-1762.019645,-74.020594,12065.356855
2651.180309,-1302.362347,-1702.473667,11843.295072
2651.180638,-2221.676944,3330.926739,9326.594869
2651.180967,383.047749,1776.494261,10066.800811
2651.181296,1532.190996,5847.626942,6365.771101
2651.181625,2604.724693,7031.956449,8512.368333
2651.181954,2757.943793,4811.338623,8882.471304
2651.182283,842.705048,4885.359217,9918.759623
2651.182612,1378.971896,5625.565159,9104.533087
2651.182942,1225.752797,3775.050304,6735.874072
2651.183271,2374.896044,592.164754,10362.883188
2651.183600,1225.752797,-518.144159,12361.439231
2651.183929,612.876398,-148.041188,11399.171507
2651.184258,-612.876398,2072.576638,8438.347739
2651.184587,766.095498,-0.000000,10140.821405
2651.184916,1378.971896,3849.070898,8290.306550
2651.185245,1225.752797,3997.112087,9548.656652
2651.185574,0.000000,2960.823768,8290.306550
2651.185903,1762.019645,1850.514855,7994.224174
2651.186232,3140.991542,1628.453072,7624.121203
2651.186561,3217.601092,1554.432478,9548.656652
2651.186890,995.924147,-74.020594,9548.656652
2651.187219,-766.095498,-2072.576638,9622.677246
2651.187548,-1608.800546,-888.247130,10288.862594
2651.187877,-1378.971896,1406.391290,9548.656652
2651.188206,-383.047749,1628.453072,9696.697840
2651.188535,-1378.971896,2368.659014,8512.368333
2651.188865,-1838.629195,592.164754,9400.615463
2651.189194,-1378.971896,-592.164754,9918.759623
2651.189523,0.000000,-1776.494261,9326.594869
2651.189852,76.609550,-1554.432478,8660.409521
2651.190181,306.438199,-444.123565,7698.141797
2651.190510,919.314598,-1110.308913,8290.306550
2651.190839,2221.676944,-814.226536,7550.100608
2651.191168,2451.505594,296.082377,7624.121203
2651.191497,1072.533697,1406.391290,7846.182985
2651.191826,306.438199,740.205942,8290.306550
2651.192155,766.095498,444.123565,9400.615463
2651.192484,1378.971896,-370.102971,9104.533087
2651.192813,612.876398,-1332.370696,9844.739029
2651.193142,-995.924147,-2368.659014,10658.965565
2651.193471,-2374.896044,-2516.700203,10658.965565
2651.193800,-1838.629195,-1998.556043,10510.924376
2651.194129,-766.095498,-1258.350101,9548.656652
2651.194458,-766.095498,-814.226536,8734.430116
2651.194788,-1532.190996,-0.000000,8216.285956
2651.195117,-1378.971896,-0.000000,7994.224174
2651.195446,919.314598,-74.020594,7698.141797
2651.195775,1991.848295,-888.247130,7179.997637
2651.196104,1072.533697,-1406.391290,7772.162391
2651.196433,-536.266849,-2590.720797,9696.697840
2651.196762,-919.314598,-2738.761985,10732.986159
2651.197091,459.657299,-2220.617826,10214.842000
2651.197420,612.876398,-1110.308913,9770.718434
2651.197749,0.000000,740.205942,9474.636058
2651.198078,0.000000,1036.288319,10362.883188
2651.198407,1378.971896,1554.432478,9326.594869
2651.198736,1838.629195,1036.288319,8142.265362
2651.199065,1149.143247,-0.000000,8364.327145
2651.199394,0.000000,-888.247130,9030.512492
2651.199723,76.609550,-888.247130,9770.718434
2651.200052,995.924147,-1480.411884,8660.409521
2651.200382,919.314598,-1036.288319,7624.121203
2651.200711,-306.438199,-222.061783,7698.141797
2651.201040,-1685.410096,666.185348,8586.388927
2651.201369,0.000000,-0.000000,8660.409521
2651.201699,1532.190996,222.061783,8068.244768
2651.202028,1455.581446,148.041188,8290.306550
2651.202357,459.657299,-740.205942,9844.739029
2651.202686,383.047749,-518.144159,10362.883188
2651.203015,1915.238745,-518.144159,9696.697840
2651.203345,2374.896044,592.164754,8808.450710
2651.203674,1302.362347,1776.494261,8660.409521
2651.204003,766.095498,1628.453072,9474.636058
2651.204332,1455.581446,1332.370696,8956.491898
2651.204662,2451.505594,1184.329507,7772.162391
2651.204991,1302.362347,296.082377,7550.100608
2651.205320,-229.828649,-0.000000,8882.471304
2651.205649,-919.314598,-1628.453072,10214.842000
2651.205978,-153.219100,-2590.720797,9770.718434
2651.206308,-229.828649,-2294.638420,8660.409521
2651.206637,-995.924147,-1332.370696,9104.533087
2651.206966,-1302.362347,148.041188,9992.780217
2651.207295,-612.876398,888.247130,9548.656652
2651.207625,1302.362347,1258.350101,8660.409521
2651.207954,1378.971896,1406.391290,8216.285956
2651.208283,306.438199,1406.391290,10362.883188
2651.208612,459.657299,1184.329507,10732.986159
2651.208941,1302.362347,222.061783,9030.512492
2651.209271,1149.143247,-0.000000,8808.450710
2651.209600,0.000000,-0.000000,9030.512492
2651.209929,-919.314598,-370.102971,10288.862594
2651.210258,-459.657299,-296.082377,9400.615463
2651.210588,536.266849,-222.061783,7624.121203
2651.210917,153.219100,296.082377,7105.977043
2651.211246,-766.095498,-0.000000,9104.533087
2651.211575,-766.095498,-962.267725,9918.759623
2651.211904,76.609550,-1406.391290,9104.533087
2651.212234,919.314598,-296.082377,8142.265362
2651.212563,153.219100,-222.061783,8586.388927
2651.212892,-919.314598,814.226536,9918.759623
2651.213221,76.609550,-148.041188,9770.718434
2651.213551,2374.896044,-222.061783,8512.368333
2651.213880,2221.676944,814.226536,8142.265362
2651.214209,536.266849,370.102971,8660.409521
2651.214538,-306.438199,222.061783,9992.780217
2651.214867,842.705048,-148.041188,9400.615463
2651.215197,919.314598,-0.000000,7772.162391
2651.215526,76.609550,-222.061783,8586.388927
2651.215855,-612.876398,-296.082377,9622.677246
2651.216184,0.000000,-1554.432478,9844.739029
2651.216514,1072.533697,-814.226536,8142.265362
2651.216843,842.705048,-1480.411884,7920.203579
2651.217172,0.000000,-222.061783,9104.533087
2651.217501,-383.047749,-0.000000,9992.780217
2651.217831,612.876398,-444.123565,9474.636058
2651.218160,995.924147,-0.000000,8882.471304
2651.218489,306.438199,814.226536,8734.430116
2651.218818,-536.266849,518.144159,10140.821405
2651.219147,0.000000,-222.061783,10140.821405
2651.219477,1378.971896,-1554.432478,9400.615463
2651.219806,1455.581446,-1406.391290,8734.430116
2651.220135,536.266849,-1110.308913,9400.615463
2651.220464,229.828649,-814.226536,9844.739029
2651.220794,612.876398,-666.185348,9474.636058
2651.221123,1915.238745,-444.123565,7994.224174
2651.221452,1302.362347,148.041188,8068.244768
2651.221781,0.000000,296.082377,8882.471304
2651.222110,0.000000,-666.185348,9474.636058
2651.222440,1225.752797,-962.267725,8956.491898
2651.222769,2145.067394,-666.185348,7772.162391
2651.223098,306.438199,-1258.350101,8882.471304
2651.223427,-689.485948,-1110.308913,10362.883188
2651.223757,76.609550,-1036.288319,9770.718434
2651.224086,919.314598,-444.123565,8512.368333
2651.224415,459.657299,148.041188,7920.203579
2651.224744,-306.438199,-0.000000,9252.574275
2651.225073,153.219100,444.123565,9326.594869
2651.225403,842.705048,-0.000000,7994.224174
2651.225732,1532.190996,-518.144159,7254.018232
2651.226061,536.266849,-1258.350101,8586.388927
2651.226390,-459.657299,-1628.453072,9474.636058
2651.226720,383.047749,-1702.473667,9030.512492
2651.227049,1378.971896,-296.082377,7846.182985
2651.227378,0.000000,-0.000000,7105.977043
2651.227707,-1225.752797,740.205942,9252.574275
2651.228036,-1225.752797,74.020594,9696.697840
2651.228366,383.047749,-296.082377,8808.450710
2651.228695,612.876398,-148.041188,7328.038826
2651.229024,-612.876398,-666.185348,9030.512492
2651.229353,-1532.190996,-1184.329507,11029.068536
2651.229683,-383.047749,-1628.453072,9696.697840
2651.230012,229.828649,-1036.288319,9104.533087
2651.230341,153.219100,-0.000000,8438.347739
2651.230670,-766.095498,740.205942,9252.574275
2651.230999,0.000000,888.247130,9474.636058
2651.231329,1532.190996,592.164754,8068.244768
2651.231658,2451.505594,370.102971,7328.038826
2651.231987,1149.143247,370.102971,8586.388927
2651.232316,842.705048,-518.144159,10288.862594
2651.232646,306.438199,-74.020594,9548.656652
2651.232975,1072.533697,-148.041188,8734.430116
2651.233304,689.485948,370.102971,8364.327145
2651.233633,-459.657299,888.247130,9622.677246
2651.233962,-1378.971896,592.164754,10510.924376
2651.234292,612.876398,-518.144159,9474.636058
2651.234621,612.876398,444.123565,8216.285956
2651.234950,536.266849,-0.000000,8956.491898
2651.235279,-766.095498,-962.267725,10066.800811
2651.235609,-612.876398,-1628.453072,10288.862594
2651.235938,1072.533697,-1258.350101,9326.594869
2651.236267,1225.752797,-222.061783,7846.182985
2651.236596,229.828649,444.123565,9178.553681
2651.236925,383.047749,1776.494261,9548.656652
2651.237255,1762.019645,-0.000000,8438.347739
2651.237584,2451.505594,1258.350101,7105.977043
2651.237913,1762.019645,1332.370696,8290.306550
2651.238242,306.438199,222.061783,9696.697840
2651.238572,306.438199,-0.000000,9696.697840
2651.238901,1378.971896,-592.164754,9252.574275
2651.239230,536.266849,-962.267725,7994.224174
2651.239559,-995.924147,-444.123565,9474.636058
2651.239888,-1225.752797,-370.102971,10140.821405
2651.240218,-536.266849,-518.144159,9400.615463
2651.240547,306.438199,-296.082377,8808.450710
2651.240876,-459.657299,-1110.308913,8364.327145
2651.241205,-1302.362347,-814.226536,9770.718434
2651.241535,-383.047749,-592.164754,10288.862594
2651.241864,383.047749,-1258.350101,9030.512492
2651.242193,459.657299,-0.000000,8290.306550
2651.242522,0.000000,-0.000000,8956.491898
2651.242851,0.000000,444.123565,9548.656652
2651.243181,1225.752797,962.267725,9178.553681
2651.243510,2068.457845,518.144159,7550.100608
2651.243839,1225.752797,1702.473667,7846.182985
2651.244168,-383.047749,592.164754,10214.842000
2651.244498,229.828649,-740.205942,10214.842000
2651.244827,995.924147,-814.226536,9252.574275
2651.245156,995.924147,-592.164754,8438.347739
2651.245485,-306.438199,-444.123565,8512.368333
2651.245814,-1225.752797,-74.020594,10288.862594
2651.246144,-306.438199,-296.082377,9696.697840
2651.246473,689.485948,-444.123565,8660.409521
2651.246802,153.219100,222.061783,8512.368333
2651.247131,-383.047749,-444.123565,9252.574275
2651.247461,-229.828649,-222.061783,10436.903782
2651.247790,842.705048,-518.144159,9326.594869
2651.248119,1378.971896,-592.164754,8290.306550
2651.248448,0.000000,-74.020594,8956.491898
2651.248777,459.657299,740.205942,9178.553681
2651.249107,1072.533697,296.082377,9030.512492
2651.249436,1915.238745,-0.000000,7920.203579
2651.249765,1762.019645,296.082377,7402.059420
2651.250094,536.266849,-222.061783,9104.533087
2651.250424,0.000000,-592.164754,9992.780217
2651.250753,1149.143247,-1258.350101,9474.636058
2651.251082,1149.143247,-1110.308913,8660.409521
2651.251411,-766.095498,-1258.350101,8438.347739
2651.251740,-842.705048,-666.185348,9696.697840
2651.252070,-229.828649,-962.267725,9474.636058
2651.252399,919.314598,-962.267725,8734.430116
2651.252728,689.485948,-296.082377,7920.203579
2651.253057,-306.438199,-296.082377,9178.553681
2651.253387,-842.705048,-1036.288319,10214.842000
2651.253716,536.266849,-1258.350101,9622.677246
2651.254045,1225.752797,-1184.329507,7920.203579
2651.254374,229.828649,-296.082377,8586.388927
2651.254703,-383.047749,370.102971,9696.697840
2651.255033,0.000000,-74.020594,9474.636058
2651.255362,1378.971896,-74.020594,8216.285956
2651.255691,1838.629195,296.082377,7476.080014
2651.256020,459.657299,518.144159,8364.327145
2651.256350,0.000000,-296.082377,9918.759623
2651.256679,689.485948,-740.205942,9622.677246
2651.257008,842.705048,-0.000000,8438.347739
2651.257337,153.219100,444.123565,8216.285956
2651.257667,-766.095498,296.082377,8956.491898
2651.257996,-536.266849,-148.041188,9622.677246
2651.258325,1072.533697,-296.082377,8808.450710
2651.258654,0.000000,-888.247130,7698.141797
2651.258983,-842.705048,-0.000000,9326.594869
2651.259313,-1149.143247,-814.226536,10214.842000
2651.259642,-536.266849,-740.205942,9696.697840
2651.259971,153.219100,-0.000000,8956.491898
2651.260300,76.609550,-370.102971,9178.553681
2651.260630,0.000000,592.164754,9326.594869
2651.260959,383.047749,518.144159,9548.656652
2651.261288,2298.286494,444.123565,8290.306550
2651.261617,2528.115143,1554.432478,7328.038826
2651.261946,1762.019645,1702.473667,8512.368333
2651.262276,1149.143247,740.205942,9992.780217
2651.262605,1378.971896,814.226536,9252.574275
2651.262934,2068.457845,-0.000000,8216.285956
2651.263263,1225.752797,666.185348,8438.347739
2651.263593,-536.266849,1036.288319,10140.821405
2651.263922,-536.266849,-74.020594,10066.800811
2651.264251,-153.219100,-592.164754,9696.697840
2651.264580,76.609550,-148.041188,9178.553681
2651.264909,-1072.533697,-666.185348,9474.636058
2651.265239,-995.924147,-1110.308913,11769.274478
2651.265568,-766.095498,-1480.411884,10732.986159
2651.265897,459.657299,-1036.288319,9104.533087
2651.266226,306.438199,888.247130,8660.409521
2651.266556,0.000000,962.267725,9548.656652
2651.266885,229.828649,962.267725,9474.636058
2651.267214,2374.896044,814.226536,8364.327145
2651.267543,3140.991542,962.267725,7476.080014
2651.267872,1455.581446,962.267725,8438.347739
2651.268202,306.438199,888.247130,10066.800811
2651.268531,766.095498,-740.205942,9696.697840
2651.268860,1072.533697,-0.000000,8882.471304
2651.269189,229.828649,-0.000000,8660.409521
2651.269519,-1225.752797,-740.205942,8882.471304
2651.269848,-1225.752797,-518.144159,10066.800811
2651.270177,-612.876398,-518.144159,9622.677246
2651.270506,306.438199,-1184.329507,7920.203579
2651.270835,-1149.143247,-592.164754,8734.430116
2651.271165,-1532.190996,-740.205942,9918.759623
2651.271494,-689.485948,-740.205942,10066.800811
2651.271823,459.657299,-1258.350101,8808.450710
2651.272152,1991.848295,-148.041188,7624.121203
2651.272482,229.828649,444.123565,9474.636058
2651.272811,536.266849,518.144159,9474.636058
2651.273140,2374.896044,-0.000000,8512.368333
2651.273469,2451.505594,444.123565,7846.182985
2651.273798,1915.238745,1036.288319,7624.121203
2651.274128,1149.143247,-148.041188,9992.780217
2651.274457,766.095498,148.041188,9474.636058
2651.274786,1149.143247,-74.020594,8512.368333
2651.275115,689.485948,-0.000000,8586.388927
2651.275445,-383.047749,-0.000000,8734.430116
2651.275774,-1072.533697,-814.226536,9622.677246
2651.276103,-153.219100,-518.144159,8808.450710
2651.276432,383.047749,-740.205942,8216.285956
2651.276761,0.000000,-1628.453072,9030.512492
2651.277091,-995.924147,-740.205942,9844.739029
2651.277420,-383.047749,-1480.411884,9918.759623
2651.277749,306.438199,-1184.329507,9104.533087
2651.278078,306.438199,-296.082377,8882.471304
2651.278408,0.000000,-0.000000,9400.615463
2651.278737,153.219100,370.102971,9696.697840
2651.279066,1378.971896,-444.123565,9030.512492
2651.279395,2145.067394,-74.020594,8142.265362
2651.279724,1838.629195,-296.082377,8142.265362
2651.280054,842.705048,-370.102971,9474.636058
2651.280383,842.705048,-888.247130,9696.697840
2651.280712,1302.362347,-814.226536,8734.430116
2651.281041,1072.533697,-0.000000,7994.224174
2651.281371,0.000000,-0.000000,9178.553681
2651.281700,-995.924147,740.205942,9104.533087
2651.282029,-383.047749,-962.267725,9548.656652
2651.282358,689.485948,-666.185348,8586.388927
2651.282687,-306.438199,-1332.370696,8882.471304
2651.283017,-1378.971896,-1110.308913,10288.862594
2651.283346,-1225.752797,-1332.370696,10140.821405
2651.283675,0.000000,-1110.308913,9844.739029
2651.284004,689.485948,-814.226536,9252.574275
2651.284334,153.219100,-0.000000,9400.615463
2651.284663,0.000000,666.185348,9918.759623
2651.284992,1225.752797,666.185348,8956.491898
2651.285321,2757.943793,888.247130,7624.121203
2651.285650,2374.896044,1258.350101,8142.265362
2651.285980,995.924147,296.082377,9326.594869
2651.286309,919.314598,-0.000000,9696.697840
2651.286638,1838.629195,-0.000000,8956.491898
2651.286967,1378.971896,296.082377,7698.141797
2651.287297,-153.219100,888.247130,8364.327145
2651.287626,-1532.190996,370.102971,10066.800811
2651.287955,-1072.533697,-296.082377,9696.697840
2651.288284,-229.828649,-370.102971,8660.409521
2651.288613,-536.266849,-518.144159,8586.388927
2651.288943,-1608.800546,-814.226536,9992.780217
2651.289272,-995.924147,-1406.391290,11177.109724
2651.289601,-383.047749,-1110.308913,9400.615463
2651.289930,612.876398,-296.082377,8512.368333
2651.290260,0.000000,814.226536,8882.471304
2651.290589,76.609550,962.267725,9548.656652
2651.290918,2068.457845,814.226536,9178.553681
2651.291247,3294.210641,888.247130,7179.997637
2651.291576,2451.505594,1406.391290,7179.997637
2651.291906,919.314598,962.267725,8660.409521
2651.292235,612.876398,296.082377,9770.718434
2651.292564,1072.533697,-518.144159,9252.574275
2651.292893,842.705048,-518.144159,8068.244768
2651.293223,-306.438199,296.082377,8364.327145
2651.293552,-1072.533697,296.082377,9622.677246
2651.293881,-612.876398,-444.123565,10288.862594
2651.294210,76.609550,-518.144159,9474.636058
2651.294539,0.000000,-592.164754,8512.368333
2651.294869,-919.314598,-1332.370696,10140.821405
2651.295198,-919.314598,-740.205942,10214.842000
2651.295527,76.609550,-1332.370696,9992.780217
2651.295856,1072.533697,-740.205942,9178.553681
2651.296186,1149.143247,-0.000000,8142.265362
2651.296515,0.000000,1184.329507,9770.718434
2651.296844,689.485948,1110.308913,9252.574275
2651.297173,2298.286494,592.164754,7846.182985
2651.297503,2145.067394,962.267725,7402.059420
2651.297832,612.876398,-0.000000,9030.512492
2651.298161,-153.219100,-1110.308913,10881.027347
2651.298490,1608.800546,-1998.556043,9918.759623
2651.298819,1149.143247,-1480.411884,8438.347739
2651.299149,306.438199,-0.000000,8586.388927
2651.299478,-612.876398,592.164754,9326.594869
2651.299807,-153.219100,740.205942,9252.574275
2651.300136,1072.533697,592.164754,8734.430116
2651.300465,1149.143247,-74.020594,8142.265362
2651.300794,-229.828649,-0.000000,9474.636058
2651.301124,-1149.143247,-1110.308913,10510.924376
2651.301453,-306.438199,-1628.453072,9326.594869
2651.301782,0.000000,-814.226536,8956.491898
2651.302111,-536.266849,-148.041188,8734.430116
2651.302440,-1532.190996,-222.061783,9548.656652
2651.302770,-383.047749,-74.020594,9622.677246
2651.303099,1378.971896,-888.247130,7476.080014
2651.303428,1608.800546,-148.041188,7328.038826
2651.303757,0.000000,-296.082377,8808.450710
2651.304086,229.828649,-1258.350101,9696.697840
2651.304415,766.095498,-1776.494261,9474.636058
2651.304745,1455.581446,-1036.288319,8438.347739
2651.305074,1378.971896,-518.144159,8068.244768
2651.305403,153.219100,296.082377,8512.368333
2651.305732,536.266849,-0.000000,9030.512492
2651.306061,1532.190996,-296.082377,8142.265362
2651.306391,1225.752797,-0.000000,8290.306550
2651.306720,0.000000,-296.082377,8216.285956
2651.307049,-995.924147,-1110.308913,9844.739029
2651.307378,-459.657299,-1406.391290,9918.759623
2651.307707,153.219100,-2368.659014,9400.615463
2651.308036,-153.219100,-592.164754,9400.615463
2651.308366,-1762.019645,-370.102971,9770.718434
2651.308695,-995.924147,370.102971,9844.739029
2651.309024,536.266849,222.061783,8956.491898
2651.309353,1455.581446,962.267725,7550.100608
2651.309682,1608.800546,-0.000000,8734.430116
2651.310012,766.095498,-148.041188,10584.944971
2651.310341,1302.362347,-370.102971,9770.718434
2651.310670,2451.505594,-0.000000,8808.450710
2651.310999,1608.800546,888.247130,7772.162391
2651.311328,383.047749,592.164754,9474.636058
2651.311657,229.828649,1406.391290,9326.594869
2651.311987,1685.410096,370.102971,8734.430116
2651.312316,1455.581446,592.164754,7846.182985
2651.312645,229.828649,370.102971,8438.347739
2651.312974,-1225.752797,-666.185348,10510.924376
2651.313303,-1302.362347,-1554.432478,9992.780217
2651.313633,-612.876398,-1850.514855,9178.553681
2651.313962,-919.314598,-1110.308913,8808.450710
2651.314291,-1608.800546,-148.041188,9770.718434
2651.314620,-1608.800546,-148.041188,10288.862594
2651.314949,995.924147,-518.144159,8882.471304
2651.315278,1302.362347,888.247130,7698.141797
2651.315608,995.924147,1332.370696,7920.203579
2651.315937,229.828649,592.164754,9400.615463
2651.316266,612.876398,-222.061783,9992.780217
2651.316595,2221.676944,-888.247130,9178.553681
2651.316924,1532.190996,-518.144159,8068.244768
2651.317254,536.266849,148.041188,8882.471304
2651.317583,0.000000,-0.000000,9474.636058
2651.317912,689.485948,148.041188,8882.471304
2651.318241,536.266849,148.041188,8142.265362
2651.318570,-229.828649,444.123565,8364.327145
2651.318899,-1225.752797,518.144159,9548.656652
2651.319229,-842.705048,-1184.329507,10584.944971
2651.319558,0.000000,-1258.350101,9474.636058
2651.319887,-306.438199,-1406.391290,9252.574275
2651.320216,-1149.143247,-518.144159,9474.636058
2651.320545,-612.876398,296.082377,10362.883188
2651.320875,612.876398,-148.041188,9696.697840
2651.321204,1608.800546,444.123565,8068.244768
2651.321533,1762.019645,1110.308913,8290.306550
2651.321862,1072.533697,740.205942,9622.677246
2651.322191,1378.971896,888.247130,9178.553681
2651.322520,2221.676944,666.185348,8808.450710
2651.322850,1991.848295,962.267725,7994.224174
2651.323179,536.266849,814.226536,8586.388927
2651.323508,76.609550,962.267725,9696.697840
2651.323837,1225.752797,-592.164754,9030.512492
2651.324166,1302.362347,-0.000000,8438.347739
2651.324496,229.828649,-296.082377,8808.450710
2651.324825,-1302.362347,-370.102971,9474.636058
2651.325154,-1378.971896,-1036.288319,10214.842000
2651.325483,-153.219100,-1332.370696,9548.656652
2651.325812,229.828649,-1036.288319,8808.450710
2651.326141,-536.266849,-518.144159,8956.491898
2651.326471,-919.314598,-296.082377,9622.677246
2651.326800,536.266849,-222.061783,9178.553681
2651.327129,1532.190996,148.041188,8142.265362
2651.327458,1378.971896,-148.041188,8290.306550
2651.327787,459.657299,296.082377,9400.615463
2651.328117,766.095498,-370.102971,9918.759623
2651.328446,1302.362347,-740.205942,9178.553681
2651.328775,1455.581446,-0.000000,8142.265362
2651.329104,536.266849,-0.000000,8290.306550
2651.329433,-689.485948,-0.000000,9252.574275
2651.329762,306.438199,-296.082377,9326.594869
2651.330092,612.876398,-962.267725,8364.327145
2651.330421,459.657299,-740.205942,8438.347739
2651.330750,-842.705048,-1702.473667,10066.800811
2651.331079,-1225.752797,-2220.617826,10807.006753
2651.331408,0.000000,-1776.494261,9622.677246
2651.331738,689.485948,-740.205942,8882.471304
2651.332067,-459.657299,-0.000000,8882.471304
2651.332396,-612.876398,888.247130,9548.656652
2651.332725,383.047749,518.144159,9178.553681
2651.333054,2145.067394,370.102971,8216.285956
2651.333383,1991.848295,-0.000000,8068.244768
2651.333713,306.438199,-0.000000,9178.553681
2651.334042,153.219100,-370.102971,9992.780217
2651.334371,842.705048,-0.000000,8882.471304
2651.334700,1225.752797,444.123565,8290.306550
2651.335029,766.095498,666.185348,8438.347739
2651.335359,0.000000,1184.329507,9326.594869
2651.335688,76.609550,-0.000000,9474.636058
2651.336017,1302.362347,-296.082377,8364.327145
2651.336346,842.705048,-0.000000,8290.306550
2651.336675,-229.828649,-222.061783,9326.594869
2651.337004,-766.095498,-740.205942,10362.883188
2651.337334,306.438199,-1480.411884,9992.780217
2651.337663,842.705048,-814.226536,8586.388927
2651.337992,383.047749,-0.000000,9030.512492
2651.338321,-536.266849,592.164754,9474.636058
2651.338650,459.657299,296.082377,9474.636058
2651.338980,1302.362347,444.123565,8586.388927
2651.339309,1532.190996,-0.000000,7624.121203
2651.339638,536.266849,-148.041188,8882.471304
2651.339967,0.000000,-740.205942,10881.027347
2651.340296,612.876398,-1110.308913,9400.615463
2651.340625,1302.362347,-814.226536,8512.368333
2651.340955,153.219100,-148.041188,8660.409521
2651.341284,-842.705048,-222.061783,9474.636058
2651.341613,-229.828649,-74.020594,9696.697840
2651.341942,919.314598,-666.185348,8734.430116
2651.342271,2145.067394,-0.000000,8438.347739
2651.342601,229.828649,-592.164754,9252.574275
2651.342930,-153.219100,-1110.308913,10288.862594
2651.343259,383.047749,-888.247130,9622.677246
2651.343588,689.485948,-962.267725,9252.574275
2651.343917,0.000000,740.205942,8808.450710
2651.344246,-383.047749,740.205942,9104.533087
2651.344576,0.000000,296.082377,9770.718434
2651.344905,919.314598,-148.041188,8586.388927
2651.345234,1072.533697,-222.061783,8142.265362
2651.345563,0.000000,-296.082377,9400.615463
2651.345892,-459.657299,-296.082377,10362.883188
2651.346222,76.609550,-74.020594,9326.594869
2651.346551,612.876398,-0.000000,8068.244768
2651.346880,153.219100,740.205942,8586.388927
2651.347209,0.000000,592.164754,9622.677246
2651.347538,842.705048,666.185348,9030.512492
2651.347867,1532.190996,666.185348,8142.265362
2651.348197,2145.067394,740.205942,8068.244768
2651.348526,689.485948,-0.000000,8734.430116
2651.348855,229.828649,-0.000000,10140.821405
2651.349184,229.828649,-370.102971,9918.759623
2651.349513,919.314598,148.041188,8290.306550
2651.349843,-229.828649,148.041188,8882.471304
2651.350172,-766.095498,666.185348,9474.636058
2651.350501,-536.266849,740.205942,9548.656652
2651.350830,153.219100,296.082377,9030.512492
2651.351159,536.266849,222.061783,7920.203579
2651.351488,76.609550,-0.000000,9474.636058
2651.351818,-1302.362347,-888.247130,9844.739029
2651.352147,383.047749,-1258.350101,10288.862594
2651.352476,1302.362347,-592.164754,8512.368333
2651.352805,842.705048,370.102971,8216.285956
2651.353134,229.828649,1036.288319,9104.533087
2651.353464,536.266849,592.164754,10362.883188
2651.353793,1762.019645,296.082377,8512.368333
2651.354122,1991.848295,-148.041188,7328.038826
2651.354451,842.705048,-0.000000,7920.203579
2651.354780,-689.485948,-666.185348,10140.821405
2651.355109,-612.876398,-1628.453072,10584.944971
2651.355439,76.609550,-1702.473667,9030.512492
2651.355768,-612.876398,-814.226536,8956.491898
2651.356097,-1455.581446,-0.000000,9104.533087
2651.356426,-2298.286494,-148.041188,9622.677246
2651.356755,76.609550,-740.205942,9326.594869
2651.357085,1225.752797,-0.000000,8068.244768
2651.357414,459.657299,-0.000000,8216.285956
2651.357743,-306.438199,-814.226536,9770.718434
2651.358072,229.828649,-888.247130,9918.759623
2651.358401,1762.019645,-1036.288319,8586.388927
2651.358730,1532.190996,74.020594,8142.265362
2651.359060,383.047749,888.247130,8808.450710
2651.359389,0.000000,962.267725,9474.636058
2651.359718,1225.752797,814.226536,9030.512492
2651.360047,1455.581446,222.061783,7846.182985
2651.360376,76.609550,296.082377,8364.327145
2651.360706,-1838.629195,-962.267725,9918.759623
2651.361035,-842.705048,-1924.535449,10658.965565
2651.361364,153.219100,-1554.432478,9104.533087
2651.361693,0.000000,-1184.329507,8290.306550
2651.362022,-1225.752797,-592.164754,9252.574275
2651.362351,-689.485948,-0.000000,10066.800811
2651.362681,229.828649,-296.082377,8216.285956
2651.363010,1608.800546,370.102971,7476.080014
2651.363339,1225.752797,592.164754,8290.306550
2651.363668,689.485948,-296.082377,9844.739029
2651.363997,766.095498,-0.000000,9844.739029
2651.364327,1685.410096,-1110.308913,9474.636058
2651.364656,1225.752797,-74.020594,8068.244768
2651.364985,-153.219100,-1110.308913,9844.739029
2651.365314,153.219100,-74.020594,9770.718434
2651.365643,689.485948,-592.164754,8586.388927
2651.365972,919.314598,666.185348,8364.327145
2651.366302,229.828649,-0.000000,7994.224174
2651.366631,-766.095498,-222.061783,9400.615463
2651.366960,-459.657299,-888.247130,9770.718434
2651.367289,612.876398,-1924.535449,9030.512492
2651.367618,229.828649,-962.267725,8808.450710
2651.367948,-536.266849,-888.247130,9474.636058
2651.368277,-229.828649,-888.247130,9844.739029
2651.368606,536.266849,-296.082377,9030.512492
2651.368935,1455.581446,296.082377,7772.162391
2651.369264,1072.533697,296.082377,7698.141797
2651.369593,612.876398,666.185348,9104.533087
2651.369923,842.705048,-0.000000,9992.780217
2651.370252,1455.581446,-74.020594,9030.512492
2651.370581,919.314598,296.082377,7624.121203
2651.370910,76.609550,370.102971,8882.471304
2651.371239,-612.876398,444.123565,9918.759623
2651.371569,0.000000,-888.247130,9770.718434
2651.371898,612.876398,-666.185348,8364.327145
2651.372227,229.828649,-0.000000,8512.368333
2651.372556,-153.219100,592.164754,9548.656652
2651.372885,-612.876398,-814.226536,9992.780217
2651.373214,153.219100,-740.205942,9326.594869
2651.373544,1149.143247,-0.000000,8734.430116
2651.373873,0.000000,666.185348,8956.491898
2651.374202,-383.047749,740.205942,9622.677246
2651.374531,1072.533697,592.164754,8956.491898
2651.374860,1838.629195,666.185348,8364.327145
2651.375190,1838.629195,666.185348,7698.141797
2651.375519,766.095498,518.144159,9548.656652
2651.375848,0.000000,296.082377,10362.883188
2651.376177,612.876398,592.164754,8660.409521
2651.376506,689.485948,222.061783,8660.409521
2651.376835,-383.047749,-0.000000,8882.471304
2651.377165,-1149.143247,-518.144159,10362.883188
2651.377494,-536.266849,-0.000000,9252.574275
2651.377823,612.876398,-740.205942,9252.574275
2651.378152,0.000000,-222.061783,8808.450710
2651.378481,-1149.143247,-888.247130,9770.718434
2651.378811,-1072.533697,-1184.329507,10881.027347
2651.379140,76.609550,-1480.411884,9474.636058
2651.379469,919.314598,-148.041188,8512.368333
2651.379798,536.266849,-0.000000,8512.368333
2651.380127,459.657299,592.164754,9474.636058
2651.380456,536.266849,296.082377,8882.471304
2651.380786,1762.019645,592.164754,7772.162391
2651.381115,1685.410096,740.205942,7698.141797
2651.381444,612.876398,-444.123565,8364.327145
2651.381773,153.219100,-740.205942,10362.883188
2651.382102,689.485948,-1406.391290,9252.574275
2651.382432,689.485948,-1184.329507,8586.388927
2651.382761,-229.828649,-0.000000,8956.491898
2651.383090,-1378.971896,-0.000000,9992.780217
2651.383419,-842.705048,-0.000000,10214.842000
2651.383748,995.924147,-148.041188,8216.285956
2651.384077,1225.752797,518.144159,7550.100608
2651.384407,689.485948,-0.000000,9622.677246
2651.384736,306.438199,296.082377,10732.986159
2651.385065,842.705048,-1776.494261,10140.821405
2651.385394,1991.848295,-740.205942,8660.409521
2651.385723,1302.362347,-0.000000,8142.265362
2651.386053,0.000000,370.102971,9400.615463
2651.386382,766.095498,370.102971,9178.553681
2651.386711,2221.676944,148.041188,7994.224174
2651.387040,2374.896044,296.082377,7624.121203
2651.387369,919.314598,-0.000000,9178.553681
2651.387698,-306.438199,-592.164754,9400.615463
2651.388028,0.000000,-1776.494261,9548.656652
2651.388357,689.485948,-1110.308913,8734.430116
2651.388686,0.000000,-1110.308913,8660.409521
2651.389015,-1455.581446,-296.082377,9474.636058
2651.389344,-306.438199,-740.205942,9844.739029
2651.389674,306.438199,-962.267725,8882.471304
2651.390003,536.266849,-148.041188,7402.059420
2651.390332,0.000000,-296.082377,8512.368333
2651.390661,-1225.752797,-1184.329507,9696.697840
2651.390990,-306.438199,-1184.329507,9992.780217
2651.391319,766.095498,-1406.391290,8956.491898
2651.391649,-229.828649,-962.267725,8364.327145
2651.391978,-536.266849,-0.000000,9696.697840
2651.392307,0.000000,-222.061783,9252.574275
2651.392636,1225.752797,222.061783,8068.244768
2651.392965,1762.019645,296.082377,7402.059420
2651.393295,1225.752797,296.082377,7698.141797
2651.393624,0.000000,222.061783,9548.656652
2651.393953,766.095498,-666.185348,9252.574275
2651.394282,1225.752797,-74.020594,8216.285956
2651.394611,153.219100,-296.082377,8364.327145
2651.394940,-689.485948,-0.000000,9474.636058
2651.395270,-612.876398,-740.205942,10658.965565
2651.395599,229.828649,-740.205942,9918.759623
2651.395928,919.314598,-592.164754,8216.285956
2651.396257,229.828649,-370.102971,9252.574275
2651.396586,0.000000,-222.061783,10807.006753
2651.396916,0.000000,-74.020594,10436.903782
2651.397245,842.705048,518.144159,8586.388927
2651.397574,1072.533697,1702.473667,8364.327145
2651.397902,229.828649,2072.576638,9400.615463
2651.398231,383.047749,814.226536,10214.842000
2651.398561,1991.848295,444.123565,8068.244768
2651.398890,2145.067394,592.164754,8142.265362
2651.399219,1072.533697,962.267725,8290.306550
2651.399548,0.000000,-0.000000,9844.739029
2651.399878,153.219100,-74.020594,9770.718434
2651.400207,766.095498,296.082377,8586.388927
2651.400536,536.266849,518.144159,8438.347739
2651.400865,-1072.533697,370.102971,9400.615463
2651.401194,-919.314598,-370.102971,10140.821405
2651.401524,0.000000,-814.226536,9548.656652
2651.401853,766.095498,-444.123565,8216.285956
2651.402182,76.609550,-296.082377,8364.327145
2651.402511,-766.095498,-814.226536,9918.759623
2651.402841,0.000000,-370.102971,10362.883188
2651.403170,229.828649,-1036.288319,8808.450710
2651.403499,766.095498,148.041188,7846.182985
2651.403828,-229.828649,962.267725,8882.471304
2651.404157,-383.047749,962.267725,9548.656652
2651.404487,919.314598,-0.000000,8882.471304
2651.404816,1225.752797,-0.000000,7624.121203
2651.405145,919.314598,-296.082377,8290.306550
2651.405474,229.828649,-666.185348,10140.821405
2651.405804,76.609550,-2072.576638,10288.862594
2651.406133,689.485948,-1406.391290,9178.553681
2651.406462,842.705048,-296.082377,8586.388927
2651.406791,-306.438199,370.102971,8956.491898
2651.407120,-689.485948,666.185348,9992.780217
2651.407450,153.219100,-74.020594,9474.636058
2651.407779,1072.533697,-0.000000,8142.265362
2651.408108,612.876398,-0.000000,8068.244768
2651.408437,0.000000,-296.082377,9548.656652
2651.408767,0.000000,-1036.288319,9992.780217
2651.409096,536.266849,-1036.288319,9474.636058
2651.409425,689.485948,-148.041188,8586.388927
2651.409754,0.000000,-0.000000,9178.553681
2651.410084,0.000000,962.267725,9400.615463
2651.410413,1072.533697,370.102971,9326.594869
2651.410742,1838.629195,1184.329507,8512.368333
2651.411071,1302.362347,296.082377,8216.285956
2651.411400,612.876398,444.123565,9400.615463
2651.411730,536.266849,-592.164754,10362.883188
2651.412059,1149.143247,-740.205942,9252.574275
2651.412388,1225.752797,-0.000000,7846.182985
2651.412717,766.095498,222.061783,8660.409521
2651.413047,0.000000,444.123565,9622.677246
2651.413376,383.047749,-74.020594,9252.574275
2651.413705,1302.362347,148.041188,7772.162391
2651.414034,689.485948,-222.061783,7772.162391
2651.414363,-766.095498,-740.205942,9178.553681
2651.414693,-1149.143247,-1776.494261,10436.903782
2651.415022,76.609550,-1628.453072,9992.780217
2651.415351,76.609550,-1258.350101,8438.347739
2651.415680,-229.828649,-740.205942,8808.450710
2651.416010,-842.705048,-1110.308913,9474.636058
2651.416339,76.609550,-444.123565,9474.636058
2651.416668,1762.019645,-518.144159,8290.306550
2651.416997,2145.067394,-0.000000,7254.018232
2651.417326,0.000000,-74.020594,9622.677246
2651.417656,536.266849,-888.247130,9770.718434
2651.417985,1455.581446,-1184.329507,9030.512492
2651.418314,1838.629195,-296.082377,7994.224174
2651.418643,689.485948,-296.082377,8142.265362
2651.418973,-536.266849,-444.123565,10066.800811
2651.419302,153.219100,-814.226536,10288.862594
2651.419631,536.266849,-1110.308913,8956.491898
2651.419960,-689.485948,-888.247130,8142.265362
2651.420289,-1378.971896,-74.020594,9252.574275
2651.420619,-1532.190996,-962.267725,10584.944971
2651.420948,-842.705048,-888.247130,9918.759623
2651.421277,383.047749,-592.164754,8808.450710
2651.421606,-229.828649,-370.102971,9400.615463
2651.421936,-1225.752797,296.082377,9622.677246
2651.422265,153.219100,148.041188,9474.636058
2651.422594,1685.410096,74.020594,8512.368333
2651.422923,2374.896044,1406.391290,7994.224174
2651.423252,1302.362347,1036.288319,8808.450710
2651.423582,1455.581446,1110.308913,9548.656652
2651.423911,2068.457845,1480.411884,8142.265362
2651.424240,2451.505594,1258.350101,8364.327145
2651.424569,612.876398,1628.453072,7772.162391
2651.424899,-229.828649,1110.308913,9178.553681
2651.425228,0.000000,518.144159,9474.636058
2651.425557,306.438199,-888.247130,9104.533087
2651.425886,-383.047749,222.061783,8882.471304
2651.426215,-1149.143247,-1110.308913,8734.430116
2651.426545,-1302.362347,-592.164754,10288.862594
2651.426874,-1225.752797,-1036.288319,9918.759623
2651.427203,0.000000,-518.144159,9252.574275
2651.427532,0.000000,-0.000000,8882.471304
2651.427862,0.000000,962.267725,9104.533087
2651.428191,612.876398,666.185348,9178.553681
2651.428520,1838.629195,740.205942,8364.327145
2651.428849,2451.505594,-0.000000,7994.224174
2651.429178,1608.800546,-0.000000,9178.553681
2651.429508,1225.752797,-0.000000,9548.656652
2651.429837,1762.019645,-740.205942,8882.471304
2651.430166,1762.019645,-0.000000,8734.430116
2651.430495,76.609550,592.164754,8808.450710
2651.430825,-995.924147,-222.061783,9474.636058
2651.431154,-766.095498,-592.164754,9992.780217
2651.431483,76.609550,-740.205942,9548.656652
2651.431812,-306.438199,-740.205942,8438.347739
2651.432141,-1302.362347,-888.247130,9326.594869
2651.432471,-1991.848295,-1924.535449,10436.903782
2651.432800,-1378.971896,-1998.556043,10807.006753
2651.433129,383.047749,-1850.514855,9400.615463
2651.433458,306.438199,-740.205942,8438.347739
2651.433788,0.000000,518.144159,9770.718434
2651.434117,229.828649,814.226536,9326.594869
2651.434446,1838.629195,370.102971,8216.285956
2651.434775,2451.505594,666.185348,7402.059420
2651.435105,2221.676944,444.123565,8068.244768
2651.435434,1685.410096,-74.020594,9474.636058
2651.435763,919.314598,-592.164754,9252.574275
2651.436092,1762.019645,-592.164754,8142.265362
2651.436421,689.485948,296.082377,7846.182985
2651.436751,-612.876398,592.164754,8734.430116
2651.437080,-842.705048,296.082377,9474.636058
2651.437409,153.219100,-74.020594,8882.471304
2651.437738,383.047749,-592.164754,8068.244768
2651.438068,-612.876398,-518.144159,9326.594869
2651.438397,-1455.581446,-1258.350101,9770.718434
2651.438726,-919.314598,-1998.556043,9992.780217
2651.439055,229.828649,-814.226536,9104.533087
2651.439384,459.657299,-666.185348,8882.471304
2651.439714,0.000000,296.082377,9400.615463
2651.440043,0.000000,518.144159,9178.553681
2651.440372,2451.505594,370.102971,8882.471304
2651.440701,2604.724693,740.205942,7920.203579
2651.441031,2068.457845,814.226536,8216.285956
2651.441360,1072.533697,370.102971,9326.594869
2651.441689,766.095498,-74.020594,9474.636058
2651.442018,1455.581446,-222.061783,9030.512492
2651.442347,306.438199,-444.123565,8068.244768
2651.442677,-536.266849,-296.082377,9326.594869
2651.443006,-689.485948,-888.247130,10066.800811
2651.443335,0.000000,-1406.391290,9844.739029
2651.443664,229.828649,-1110.308913,8512.368333
2651.443994,0.000000,-740.205942,9030.512492
2651.444323,-1378.971896,-1258.350101,10066.800811
2651.444652,-689.485948,-1998.556043,10732.986159
2651.444981,459.657299,-1554.432478,9400.615463
2651.445310,842.705048,-592.164754,8586.388927
2651.445640,0.000000,370.102971,9326.594869
2651.445969,-153.219100,518.144159,9696.697840
2651.446298,919.314598,592.164754,8882.471304
2651.446627,2145.067394,-0.000000,8068.244768
2651.446957,1838.629195,296.082377,8216.285956
2651.447286,536.266849,-444.123565,9474.636058
2651.447615,536.266849,-592.164754,9992.780217
2651.447944,1608.800546,-740.205942,8660.409521
2651.448273,1225.752797,-74.020594,7624.121203
2651.448603,-153.219100,296.082377,8660.409521
2651.448932,76.609550,222.061783,9548.656652
2651.449261,229.828649,-296.082377,8216.285956
2651.449590,1225.752797,-0.000000,8512.368333
2651.449920,0.000000,-296.082377,9104.533087
2651.450249,-919.314598,-370.102971,9918.759623
2651.450578,-766.095498,-740.205942,9992.780217
2651.450907,-383.047749,-666.185348,9326.594869
2651.451236,153.219100,-0.000000,8956.491898
2651.451566,-229.828649,-0.000000,8290.306550
2651.451895,-766.095498,666.185348,9474.636058
2651.452224,306.438199,370.102971,9252.574275
2651.452553,1608.800546,518.144159,7476.080014
2651.452883,1149.143247,740.205942,8216.285956
2651.453212,612.876398,814.226536,9326.594869
2651.453541,612.876398,-0.000000,9326.594869
