#time,accel_x,accel_y,accel_z
2574.526481,229.828649,-222.061783,9104.533087
2574.526810,229.828649,-0.000000,9178.553681
2574.527139,536.266849,-296.082377,9178.553681
2574.527467,76.609550,592.164754,9474.636058
2574.527796,76.609550,-296.082377,9474.636058
2574.528125,306.438199,-148.041188,9326.594869
2574.528454,536.266849,-0.000000,9178.553681
2574.528782,612.876398,-0.000000,9030.512492
2574.529111,383.047749,-0.000000,9104.533087
2574.529440,459.657299,-0.000000,8882.471304
2574.529769,383.047749,-444.123565,8290.306550
2574.530097,153.219100,-74.020594,9104.533087
2574.530426,0.000000,-74.020594,8956.491898
2574.530755,383.047749,-148.041188,8882.471304
2574.531084,76.609550,-222.061783,8808.450710
2574.531413,306.438199,-74.020594,8808.450710
2574.531741,536.266849,-74.020594,8586.388927
2574.532070,536.266849,-0.000000,9178.553681
2574.532399,383.047749,-444.123565,8956.491898
2574.532728,229.828649,-222.061783,8808.450710
2574.533056,76.609550,-0.000000,8956.491898
2574.533385,306.438199,-148.041188,8956.491898
2574.533714,229.828649,-222.061783,9030.512492
2574.534043,306.438199,-148.041188,8956.491898
2574.534371,612.876398,-592.164754,9252.574275
2574.534700,459.657299,-740.205942,9326.594869
2574.535029,306.438199,-296.082377,8882.471304
2574.535358,536.266849,-222.061783,9252.574275
2574.535687,383.047749,-222.061783,9104.533087
2574.536015,229.828649,-74.020594,9104.533087
2574.536344,689.485948,-222.061783,9178.553681
2574.536673,459.657299,-444.123565,8660.409521
2574.537002,76.609550,-0.000000,9400.615463
2574.537330,0.000000,-74.020594,9178.553681
2574.537659,229.828649,-74.020594,9400.615463
2574.537988,153.219100,-0.000000,9326.594869
2574.538317,306.438199,-296.082377,9252.574275
2574.538645,689.485948,-222.061783,8956.491898
2574.538974,689.485948,-296.082377,9030.512492
2574.539303,612.876398,-222.061783,9178.553681
2574.539632,459.657299,-0.000000,9178.553681
2574.539960,306.438199,-74.020594,8882.471304
2574.540289,383.047749,-0.000000,9030.512492
2574.540618,536.266849,-0.000000,8882.471304
2574.540947,76.609550,-0.000000,9030.512492
2574.541276,1149.143247,-296.082377,9252.574275
2574.541604,383.047749,-0.000000,9030.512492
2574.541933,229.828649,-370.102971,8882.471304
2574.542262,306.438199,-222.061783,8956.491898
2574.542591,229.828649,-74.020594,8808.450710
2574.542919,229.828649,-0.000000,9030.512492
2574.543248,536.266849,-222.061783,8956.491898
2574.543577,153.219100,-0.000000,9104.533087
2574.543906,229.828649,-0.000000,9178.553681
2574.544234,229.828649,-0.000000,9104.533087
2574.544563,459.657299,-0.000000,8882.471304
2574.544892,306.438199,-0.000000,9178.553681
2574.545221,459.657299,-296.082377,8882.471304
2574.545550,383.047749,-148.041188,9030.512492
2574.545878,153.219100,-592.164754,9326.594869
2574.546207,536.266849,-444.123565,9400.615463
2574.546536,153.219100,-296.082377,9252.574275
2574.546865,229.828649,-0.000000,9400.615463
2574.547193,229.828649,-222.061783,9104.533087
2574.547522,306.438199,-148.041188,8956.491898
2574.547851,689.485948,-148.041188,9326.594869
2574.548180,459.657299,-666.185348,8882.471304
2574.548508,229.828649,222.061783,9104.533087
2574.548837,383.047749,-222.061783,9326.594869
2574.549166,536.266849,-222.061783,9104.533087
2574.549495,459.657299,-148.041188,9104.533087
2574.549824,306.438199,-74.020594,9178.553681
2574.550152,0.000000,-370.102971,9252.574275
2574.550481,459.657299,-222.061783,9474.636058
2574.550810,919.314598,-222.061783,9030.512492
2574.551139,459.657299,-0.000000,8882.471304
2574.551467,306.438199,-148.041188,9030.512492
2574.551796,689.485948,-222.061783,9474.636058
2574.552125,1225.752797,-1036.288319,9548.656652
2574.552454,919.314598,-222.061783,9474.636058
2574.552782,1838.629195,-518.144159,9474.636058
2574.553111,2374.896044,-370.102971,9104.533087
2574.553440,2451.505594,-0.000000,8512.368333
2574.553769,3447.429741,370.102971,8882.471304
2574.554098,4060.306139,-74.020594,8512.368333
2574.554426,3524.039291,296.082377,8512.368333
2574.554755,3524.039291,592.164754,8586.388927
2574.555084,3294.210641,296.082377,8512.368333
2574.555413,3830.477490,-148.041188,9252.574275
2574.555741,2604.724693,-740.205942,8882.471304
2574.556070,1455.581446,-592.164754,9622.677246
2574.556399,1838.629195,-1850.514855,9844.739029
2574.556728,2451.505594,-1258.350101,9474.636058
2574.557056,2451.505594,-0.000000,9474.636058
2574.557385,2834.553343,-1850.514855,9696.697840
2574.557714,3447.429741,-814.226536,9178.553681
2574.558043,4673.182538,666.185348,9622.677246
2574.558371,5362.668486,666.185348,7402.059420
2574.558700,4749.792088,1110.308913,8290.306550
2574.559029,5209.449386,962.267725,9178.553681
2574.559358,4366.744339,1258.350101,7476.080014
2574.559687,3907.087040,814.226536,8660.409521
2574.560015,3447.429741,-0.000000,9104.533087
2574.560344,2681.334243,222.061783,8660.409521
2574.560673,1455.581446,-592.164754,9696.697840
2574.561002,1225.752797,-888.247130,9622.677246
2574.561330,1532.190996,-962.267725,10066.800811
2574.561659,612.876398,-1110.308913,9918.759623
2574.561988,1608.800546,-0.000000,9918.759623
2574.562317,919.314598,-592.164754,10362.883188
2574.562645,3064.381992,592.164754,7846.182985
2574.562974,3677.258390,222.061783,9474.636058
2574.563303,4213.525239,1480.411884,8660.409521
2574.563632,4443.353888,962.267725,7994.224174
2574.563961,4903.011187,1036.288319,7994.224174
2574.564289,4290.134789,1110.308913,8882.471304
2574.564618,3907.087040,-0.000000,8808.450710
2574.564947,3370.820191,-1110.308913,9178.553681
2574.565276,2604.724693,-1184.329507,9400.615463
2574.565604,2451.505594,-1628.453072,10214.842000
2574.565933,1838.629195,-1776.494261,9844.739029
2574.566262,2068.457845,-1850.514855,10066.800811
2574.566591,2221.676944,-1036.288319,9622.677246
2574.566919,2911.162892,-370.102971,9400.615463
2574.567248,3524.039291,370.102971,8290.306550
2574.567577,4136.915689,1332.370696,8586.388927
2574.567906,4596.572988,2146.597232,8068.244768
2574.568235,4673.182538,2590.720797,7402.059420
2574.568563,4596.572988,2368.659014,7402.059420
2574.568892,3907.087040,2220.617826,8068.244768
2574.569221,3064.381992,666.185348,8216.285956
2574.569550,2221.676944,-740.205942,9400.615463
2574.569878,2145.067394,-1924.535449,9918.759623
2574.570207,1838.629195,-2812.782580,10584.944971
2574.570536,1838.629195,-2960.823768,11177.109724
2574.570865,2834.553343,-2812.782580,10955.047942
2574.571193,3370.820191,-1628.453072,10510.924376
2574.571522,4673.182538,-444.123565,9918.759623
2574.571851,5592.497135,666.185348,9030.512492
2574.572180,6052.154434,2368.659014,7920.203579
2574.572509,5515.887586,3182.885551,7624.121203
2574.572837,5209.449386,3404.947333,7328.038826
2574.573166,4673.182538,3923.091493,6883.915261
2574.573495,3907.087040,1924.535449,7550.100608
2574.573824,2374.896044,-222.061783,7846.182985
2574.574152,689.485948,-2738.761985,10288.862594
2574.574481,-842.705048,-3775.050304,10584.944971
2574.574810,-919.314598,-5551.544565,11843.295072
2574.575139,-1225.752797,-4145.153275,10362.883188
2574.575467,76.609550,-2516.700203,10807.006753
2574.575796,612.876398,-1332.370696,9992.780217
2574.576125,1532.190996,-0.000000,10658.965565
2574.576454,4826.401637,666.185348,10140.821405
2574.576782,6741.640382,2220.617826,7328.038826
2574.577111,7048.078582,1480.411884,7994.224174
2574.577440,5669.106685,1258.350101,7105.977043
2574.577769,5975.544884,2220.617826,6883.915261
2574.578098,5515.887586,2442.679609,7402.059420
2574.578426,4596.572988,2146.597232,5995.668130
2574.578755,4290.134789,2516.700203,7179.997637
2574.579084,4596.572988,1850.514855,5995.668130
2574.579413,4826.401637,444.123565,6143.709319
2574.579741,1685.410096,-3923.091493,9030.512492
2574.580070,0.000000,-7105.977043,11843.295072
2574.580399,-1991.848295,-2812.782580,11473.192101
2574.580728,-1685.410096,-6661.853478,14508.036463
2574.581056,-2145.067394,-3330.926739,11103.089130
2574.581385,153.219100,814.226536,11843.295072
2574.581714,995.924147,888.247130,10584.944971
2574.582043,2298.286494,2516.700203,10066.800811
2574.582372,4903.011187,1702.473667,8512.368333
2574.582700,6894.859482,2442.679609,8660.409521
2574.583029,4979.620737,2590.720797,7179.997637
2574.583358,4826.401637,2072.576638,5995.668130
2574.583687,4443.353888,2516.700203,5181.441594
2574.584015,4903.011187,1776.494261,6513.812290
2574.584344,4519.963438,2368.659014,4959.379811
2574.584673,2987.772442,-148.041188,7846.182985
2574.585002,-1838.629195,-4293.194464,9918.759623
2574.585330,-2604.724693,-3997.112087,12287.418637
2574.585659,-2451.505594,-4071.132681,10658.965565
2574.585988,-3524.039291,-3478.967927,10732.986159
2574.586317,-5209.449386,-0.000000,10510.924376
2574.586646,-4136.915689,-1258.350101,13027.624579
2574.586974,-2604.724693,-0.000000,12287.418637
2574.587303,-383.047749,1184.329507,10732.986159
2574.587632,842.705048,518.144159,8808.450710
2574.587961,229.828649,1258.350101,7550.100608
2574.588289,383.047749,-148.041188,12583.501014
2574.588618,2451.505594,-0.000000,6587.832884
2574.588947,6358.592633,2590.720797,5477.523971
2574.589276,6665.030833,444.123565,5181.441594
2574.589604,4443.353888,1702.473667,4293.194464
2574.589933,3447.429741,222.061783,9178.553681
2574.590262,536.266849,-222.061783,7402.059420
2574.590591,0.000000,-2072.576638,9548.656652
2574.590920,-2298.286494,-2220.617826,12731.542202
2574.591248,-2221.676944,370.102971,8512.368333
2574.591577,-2681.334243,-1554.432478,11843.295072
2574.591906,-1762.019645,-592.164754,10362.883188
2574.592235,-919.314598,-148.041188,10881.027347
2574.592563,-995.924147,-148.041188,11325.150913
2574.592892,-919.314598,1850.514855,9178.553681
2574.593221,0.000000,740.205942,9252.574275
2574.593550,0.000000,-814.226536,9252.574275
2574.593878,-689.485948,-0.000000,8808.450710
2574.594207,689.485948,-2442.679609,9474.636058
2574.594536,1532.190996,-1184.329507,6513.812290
2574.594865,1991.848295,-222.061783,7179.997637
2574.595194,459.657299,518.144159,6735.874072
2574.595522,-306.438199,148.041188,8808.450710
2574.595851,-1762.019645,-1332.370696,9770.718434
2574.596180,-612.876398,-740.205942,9918.759623
2574.596509,-919.314598,222.061783,9030.512492
2574.596838,-1149.143247,-0.000000,9622.677246
2574.597167,-1608.800546,-0.000000,9992.780217
2574.597496,-1532.190996,962.267725,10362.883188
2574.597825,-383.047749,888.247130,9252.574275
2574.598155,306.438199,-0.000000,9252.574275
2574.598484,1378.971896,-888.247130,10362.883188
2574.598813,1072.533697,148.041188,7920.203579
2574.599142,1532.190996,-296.082377,7550.100608
2574.599471,689.485948,-518.144159,7624.121203
2574.599800,1149.143247,-148.041188,7550.100608
2574.600129,76.609550,-0.000000,8808.450710
2574.600458,-383.047749,-962.267725,8808.450710
2574.600788,-383.047749,-1850.514855,9918.759623
2574.601117,-306.438199,-1776.494261,9548.656652
2574.601446,76.609550,-518.144159,9622.677246
2574.601775,-689.485948,-370.102971,10510.924376
2574.602104,766.095498,592.164754,10881.027347
2574.602433,2451.505594,1332.370696,9474.636058
2574.602762,3064.381992,1332.370696,8068.244768
2574.603091,3983.696590,740.205942,7920.203579
2574.603421,4290.134789,370.102971,7179.997637
2574.603750,3600.648841,1554.432478,7846.182985
2574.604079,2528.115143,666.185348,7994.224174
2574.604408,919.314598,-74.020594,8216.285956
2574.604737,-612.876398,-518.144159,9844.739029
2574.605066,-1072.533697,-1998.556043,10807.006753
2574.605395,-1455.581446,-2146.597232,9252.574275
2574.605724,-536.266849,-1628.453072,9622.677246
2574.606054,-306.438199,-2960.823768,10807.006753
2574.606383,-919.314598,-666.185348,10732.986159
2574.606712,-459.657299,592.164754,11103.089130
2574.607041,0.000000,962.267725,9030.512492
2574.607370,689.485948,962.267725,9622.677246
2574.607699,536.266849,-444.123565,10881.027347
2574.608028,1838.629195,-0.000000,7772.162391
2574.608357,3600.648841,962.267725,7328.038826
2574.608687,3600.648841,1184.329507,5773.606348
2574.609016,2604.724693,2146.597232,6291.750507
2574.609345,1225.752797,-0.000000,8586.388927
2574.609674,0.000000,-222.061783,7476.080014
2574.610003,-766.095498,-1998.556043,9400.615463
2574.610332,-306.438199,-2146.597232,9992.780217
2574.610661,-766.095498,-296.082377,7920.203579
2574.610990,-995.924147,-1480.411884,11177.109724
2574.611320,-536.266849,-148.041188,9474.636058
2574.611649,459.657299,-0.000000,9696.697840
2574.611978,0.000000,-148.041188,9918.759623
2574.612307,-766.095498,592.164754,9178.553681
2574.612636,-1838.629195,-666.185348,10362.883188
2574.612965,-1072.533697,148.041188,9770.718434
2574.613294,-459.657299,814.226536,8512.368333
2574.613623,0.000000,592.164754,7846.182985
2574.613953,0.000000,296.082377,7994.224174
2574.614282,-536.266849,-222.061783,8512.368333
2574.614611,-842.705048,-814.226536,8290.306550
2574.614940,-536.266849,-1776.494261,8586.388927
2574.615269,-153.219100,-2294.638420,9474.636058
2574.615598,0.000000,-740.205942,9178.553681
2574.615927,-536.266849,-0.000000,9474.636058
2574.616256,0.000000,-222.061783,9622.677246
2574.616586,0.000000,222.061783,9992.780217
2574.616915,153.219100,-0.000000,10140.821405
2574.617244,0.000000,-74.020594,9178.553681
2574.617573,383.047749,1184.329507,8512.368333
2574.617902,306.438199,1184.329507,7920.203579
2574.618231,0.000000,1776.494261,7402.059420
2574.618560,-612.876398,296.082377,9178.553681
2574.618889,-536.266849,-1110.308913,9252.574275
2574.619219,0.000000,-1036.288319,8438.347739
2574.619548,-536.266849,-1702.473667,8512.368333
2574.619877,-459.657299,-2072.576638,9104.533087
2574.620206,-383.047749,-1406.391290,9696.697840
2574.620535,689.485948,-0.000000,9178.553681
2574.620864,536.266849,-222.061783,9252.574275
2574.621193,919.314598,-740.205942,10584.944971
2574.621522,229.828649,148.041188,9400.615463
2574.621852,536.266849,-0.000000,9104.533087
2574.622181,459.657299,1184.329507,8290.306550
2574.622510,2528.115143,2368.659014,8586.388927
2574.622839,1225.752797,2072.576638,7698.141797
2574.623168,1149.143247,1184.329507,8734.430116
2574.623497,-306.438199,-666.185348,8734.430116
2574.623826,0.000000,-1184.329507,8586.388927
2574.624155,306.438199,-2368.659014,9622.677246
2574.624484,-153.219100,-1924.535449,8734.430116
2574.624814,76.609550,-2072.576638,9696.697840
2574.625143,766.095498,-740.205942,9770.718434
2574.625472,1915.238745,-592.164754,9918.759623
2574.625801,2757.943793,-74.020594,9400.615463
2574.626130,2987.772442,1110.308913,8290.306550
2574.626459,3140.991542,1258.350101,8586.388927
2574.626788,3370.820191,1924.535449,8068.244768
2574.627117,2298.286494,2664.741391,8142.265362
2574.627447,842.705048,1480.411884,9178.553681
2574.627776,229.828649,370.102971,9400.615463
2574.628105,-536.266849,-1332.370696,9992.780217
2574.628434,-612.876398,-1998.556043,10140.821405
2574.628763,-1302.362347,-2442.679609,8956.491898
2574.629092,-383.047749,-2368.659014,10362.883188
2574.629421,-229.828649,-814.226536,9252.574275
2574.629750,919.314598,-74.020594,8956.491898
2574.630080,842.705048,-444.123565,8734.430116
2574.630409,689.485948,-444.123565,9474.636058
2574.630738,919.314598,-222.061783,9548.656652
2574.631067,766.095498,962.267725,7550.100608
2574.631396,1455.581446,1480.411884,7846.182985
2574.631725,1149.143247,1998.556043,7476.080014
2574.632054,689.485948,1850.514855,8364.327145
2574.632383,-919.314598,-0.000000,9178.553681
2574.632713,-612.876398,-370.102971,8956.491898
2574.633042,-459.657299,-1406.391290,8660.409521
2574.633371,-919.314598,-2072.576638,8290.306550
2574.633700,-1915.238745,-1628.453072,9770.718434
2574.634029,-1302.362347,-1406.391290,9696.697840
2574.634358,229.828649,-1406.391290,9030.512492
2574.634687,76.609550,-1110.308913,9400.615463
2574.635016,-229.828649,-740.205942,8808.450710
2574.635346,-1072.533697,-1110.308913,9622.677246
2574.635675,-1225.752797,-740.205942,10288.862594
2574.636004,-306.438199,444.123565,9548.656652
2574.636333,0.000000,1332.370696,8882.471304
2574.636662,-306.438199,962.267725,8956.491898
2574.636991,-459.657299,518.144159,9400.615463
2574.637320,0.000000,222.061783,8660.409521
2574.637649,-229.828649,-370.102971,8142.265362
2574.637979,229.828649,-814.226536,9474.636058
2574.638308,229.828649,-666.185348,9104.533087
2574.638637,536.266849,-222.061783,9030.512492
2574.638966,842.705048,-518.144159,8438.347739
2574.639295,995.924147,-592.164754,8364.327145
2574.639624,766.095498,-296.082377,9030.512492
2574.639953,459.657299,-74.020594,8586.388927
2574.640282,766.095498,592.164754,8808.450710
2574.640612,0.000000,296.082377,8882.471304
2574.640941,-306.438199,740.205942,9030.512492
2574.641270,-689.485948,-0.000000,9992.780217
2574.641599,-842.705048,-148.041188,9844.739029
2574.641928,-689.485948,-444.123565,8882.471304
2574.642257,-229.828649,-1036.288319,9474.636058
2574.642586,-459.657299,-1554.432478,9770.718434
2574.642915,-612.876398,-1258.350101,9918.759623
2574.643245,1149.143247,-1184.329507,9400.615463
2574.643574,1455.581446,-370.102971,9104.533087
2574.643903,1685.410096,-814.226536,9770.718434
2574.644232,1991.848295,-0.000000,8586.388927
2574.644561,2757.943793,592.164754,7994.224174
2574.644890,2911.162892,1110.308913,7624.121203
2574.645219,3370.820191,1998.556043,7550.100608
2574.645548,2451.505594,2146.597232,8512.368333
2574.645878,689.485948,444.123565,8734.430116
2574.646207,0.000000,-444.123565,9474.636058
2574.646536,-689.485948,-1554.432478,9992.780217
2574.646865,-689.485948,-1776.494261,10288.862594
2574.647194,-229.828649,-1924.535449,10140.821405
2574.647523,536.266849,-1554.432478,10066.800811
2574.647852,1378.971896,-888.247130,9548.656652
2574.648181,1302.362347,-444.123565,9474.636058
2574.648511,2374.896044,-148.041188,9474.636058
2574.648840,2451.505594,592.164754,8216.285956
2574.649169,2911.162892,1258.350101,7476.080014
2574.649498,2451.505594,1998.556043,7402.059420
2574.649827,2911.162892,2072.576638,7920.203579
2574.650156,1072.533697,1332.370696,8734.430116
2574.650485,459.657299,-0.000000,8734.430116
2574.650814,-689.485948,-888.247130,9548.656652
2574.651144,-919.314598,-2146.597232,10214.842000
2574.651473,-1225.752797,-1702.473667,9474.636058
2574.651802,-766.095498,-2146.597232,9918.759623
2574.652131,-612.876398,-296.082377,9770.718434
2574.652460,306.438199,-370.102971,8956.491898
2574.652789,536.266849,-518.144159,9548.656652
2574.653118,0.000000,-0.000000,8882.471304
2574.653447,306.438199,-444.123565,9770.718434
2574.653777,766.095498,592.164754,7994.224174
2574.654106,1302.362347,1776.494261,7846.182985
2574.654435,1225.752797,1554.432478,7772.162391
2574.654764,229.828649,1406.391290,8216.285956
2574.655093,0.000000,-148.041188,9400.615463
2574.655422,-689.485948,-814.226536,9400.615463
2574.655751,-459.657299,-1258.350101,8586.388927
2574.656080,-919.314598,-1776.494261,9400.615463
2574.656410,-612.876398,-814.226536,9474.636058
2574.656739,-536.266849,-666.185348,9770.718434
2574.657068,536.266849,-444.123565,9696.697840
2574.657397,-229.828649,-1036.288319,9030.512492
2574.657726,153.219100,-370.102971,9400.615463
2574.658055,-766.095498,-1184.329507,9918.759623
2574.658384,-995.924147,-222.061783,8956.491898
2574.658713,0.000000,296.082377,9104.533087
2574.659043,-612.876398,1406.391290,8586.388927
2574.659372,-459.657299,740.205942,8290.306550
2574.659701,-536.266849,-222.061783,9326.594869
2574.660030,-306.438199,-74.020594,8882.471304
2574.660359,-306.438199,-888.247130,8882.471304
2574.660688,-306.438199,-1406.391290,9474.636058
2574.661017,-383.047749,-1332.370696,10140.821405
2574.661346,-459.657299,-666.185348,9770.718434
2574.661676,919.314598,-0.000000,9030.512492
2574.662005,1225.752797,-0.000000,9918.759623
2574.662334,1532.190996,-296.082377,9474.636058
2574.662663,1455.581446,1480.411884,8068.244768
2574.662992,1608.800546,1110.308913,8068.244768
2574.663321,1378.971896,2072.576638,7920.203579
2574.663650,1455.581446,1998.556043,8216.285956
2574.663979,0.000000,592.164754,8956.491898
2574.664309,-766.095498,-444.123565,9474.636058
2574.664638,-306.438199,-1480.411884,9770.718434
2574.664967,-689.485948,-1332.370696,8734.430116
2574.665296,-766.095498,-1628.453072,9918.759623
2574.665625,-612.876398,-2146.597232,9622.677246
2574.665954,0.000000,-1184.329507,9474.636058
2574.666283,689.485948,-0.000000,9844.739029
2574.666612,76.609550,-148.041188,9400.615463
2574.666942,459.657299,-444.123565,10510.924376
2574.667271,689.485948,148.041188,9030.512492
2574.667600,2221.676944,2072.576638,7550.100608
2574.667929,2451.505594,1924.535449,7550.100608
2574.668258,2374.896044,2146.597232,7846.182985
2574.668587,1532.190996,1480.411884,8956.491898
2574.668916,459.657299,-0.000000,9178.553681
2574.669245,-459.657299,-1110.308913,9030.512492
2574.669575,-689.485948,-2442.679609,10140.821405
2574.669904,-1532.190996,-1850.514855,10214.842000
2574.670233,-1532.190996,-1702.473667,10066.800811
2574.670562,0.000000,-1480.411884,9326.594869
2574.670891,995.924147,-814.226536,10214.842000
2574.671220,2374.896044,-74.020594,9474.636058
2574.671549,2757.943793,1110.308913,7846.182985
2574.671878,2834.553343,1184.329507,7402.059420
2574.672208,2834.553343,1702.473667,7624.121203
2574.672537,2374.896044,2664.741391,7772.162391
2574.672866,766.095498,1258.350101,8512.368333
2574.673195,0.000000,-0.000000,9696.697840
2574.673524,-766.095498,-962.267725,9548.656652
2574.673853,-1455.581446,-2072.576638,9770.718434
2574.674182,-1378.971896,-2294.638420,9622.677246
2574.674511,-1225.752797,-1628.453072,9548.656652
2574.674841,-459.657299,-370.102971,9474.636058
2574.675170,0.000000,-148.041188,8956.491898
2574.675499,-459.657299,-444.123565,9252.574275
2574.675828,1302.362347,-740.205942,9844.739029
2574.676157,1685.410096,370.102971,8290.306550
2574.676486,2298.286494,1110.308913,7772.162391
2574.676815,1762.019645,1628.453072,7105.977043
2574.677144,1532.190996,2368.659014,7550.100608
2574.677474,306.438199,1850.514855,8586.388927
2574.677803,-383.047749,370.102971,9104.533087
2574.678132,-1378.971896,-1406.391290,9770.718434
2574.678461,-1608.800546,-1998.556043,9770.718434
2574.678790,-1532.190996,-1702.473667,9326.594869
2574.679119,-1991.848295,-2368.659014,10658.965565
2574.679448,-1455.581446,-1258.350101,9622.677246
2574.679777,0.000000,-1036.288319,9696.697840
2574.680107,76.609550,-888.247130,9178.553681
2574.680436,0.000000,-518.144159,9474.636058
2574.680765,459.657299,-592.164754,9400.615463
2574.681094,1762.019645,814.226536,7402.059420
2574.681423,2068.457845,1998.556043,7698.141797
2574.681752,995.924147,2220.617826,7846.182985
2574.682081,1072.533697,1702.473667,9548.656652
2574.682410,-229.828649,296.082377,9326.594869
2574.682739,-612.876398,-888.247130,8142.265362
2574.683069,-1608.800546,-2072.576638,10436.903782
2574.683398,-1378.971896,-2368.659014,9918.759623
2574.683727,-1149.143247,-962.267725,10140.821405
2574.684056,-766.095498,-1110.308913,9474.636058
2574.684385,0.000000,-814.226536,8734.430116
2574.684714,229.828649,-1184.329507,9474.636058
2574.685043,919.314598,-518.144159,9696.697840
2574.685372,689.485948,814.226536,7328.038826
2574.685702,1608.800546,-0.000000,8290.306550
2574.686031,766.095498,1554.432478,7624.121203
2574.686360,229.828649,1480.411884,8142.265362
2574.686689,-766.095498,296.082377,9178.553681
2574.687018,-459.657299,-666.185348,9474.636058
2574.687347,-919.314598,-1036.288319,9104.533087
2574.687676,0.000000,-1628.453072,8808.450710
2574.688005,-1149.143247,-1924.535449,9252.574275
2574.688335,-612.876398,-1406.391290,9696.697840
2574.688664,0.000000,-518.144159,9178.553681
2574.688993,689.485948,-518.144159,9326.594869
2574.689322,1838.629195,-888.247130,9178.553681
2574.689651,2451.505594,296.082377,7328.038826
2574.689980,3064.381992,518.144159,7476.080014
2574.690309,2681.334243,1258.350101,7031.956449
2574.690638,2834.553343,1554.432478,8216.285956
2574.690968,1608.800546,1554.432478,8586.388927
2574.691297,612.876398,296.082377,9178.553681
2574.691626,-766.095498,-1110.308913,9918.759623
2574.691955,-995.924147,-2368.659014,10510.924376
2574.692284,-1378.971896,-2146.597232,10807.006753
2574.692613,-459.657299,-1702.473667,10288.862594
2574.692942,-383.047749,-518.144159,9918.759623
2574.693271,612.876398,-0.000000,9622.677246
2574.693601,1302.362347,-222.061783,9918.759623
2574.693930,2145.067394,-0.000000,9252.574275
2574.694259,3294.210641,666.185348,7624.121203
2574.694588,2834.553343,1332.370696,7328.038826
2574.694917,2528.115143,2220.617826,8068.244768
2574.695246,1915.238745,2146.597232,8512.368333
2574.695575,459.657299,962.267725,8882.471304
2574.695904,0.000000,-0.000000,9104.533087
2574.696234,-1149.143247,-1332.370696,10214.842000
2574.696563,-306.438199,-1480.411884,9252.574275
2574.696892,-766.095498,-1702.473667,9548.656652
2574.697221,-612.876398,-1628.453072,10658.965565
2574.697550,-612.876398,-592.164754,9918.759623
2574.697879,536.266849,-148.041188,9770.718434
2574.698208,536.266849,-444.123565,9178.553681
2574.698537,1149.143247,-518.144159,9844.739029
2574.698867,1149.143247,-518.144159,8808.450710
2574.699196,2528.115143,1776.494261,7846.182985
2574.699525,2604.724693,1258.350101,7698.141797
2574.699854,1685.410096,2368.659014,7254.018232
2574.700183,1532.190996,1406.391290,8512.368333
2574.700512,-153.219100,296.082377,8882.471304
2574.700841,-689.485948,-1258.350101,9178.553681
2574.701171,-766.095498,-2664.741391,9696.697840
2574.701500,-1685.410096,-2516.700203,9918.759623
2574.701829,-1532.190996,-1480.411884,10362.883188
2574.702158,-995.924147,-888.247130,9326.594869
2574.702487,0.000000,-740.205942,9178.553681
2574.702816,306.438199,-222.061783,9474.636058
2574.703145,153.219100,-222.061783,9326.594869
2574.703474,229.828649,-592.164754,9030.512492
2574.703804,612.876398,222.061783,7994.224174
2574.704133,842.705048,1332.370696,7328.038826
2574.704462,689.485948,1480.411884,7476.080014
2574.704791,-306.438199,814.226536,8808.450710
2574.705120,-1072.533697,-370.102971,9326.594869
2574.705449,-919.314598,-1184.329507,9178.553681
2574.705778,-995.924147,-2368.659014,9178.553681
2574.706108,-1225.752797,-2072.576638,9400.615463
2574.706437,-1149.143247,-1406.391290,10510.924376
2574.706766,-1072.533697,-370.102971,9622.677246
2574.707095,153.219100,-222.061783,9696.697840
2574.707424,459.657299,-148.041188,9548.656652
2574.707753,459.657299,-0.000000,10066.800811
2574.708082,689.485948,518.144159,9474.636058
2574.708411,1608.800546,1628.453072,7698.141797
2574.708741,1302.362347,2072.576638,7994.224174
2574.709070,1532.190996,2590.720797,7846.182985
2574.709399,1532.190996,1184.329507,8808.450710
2574.709728,-153.219100,-74.020594,8882.471304
2574.710057,-459.657299,-1036.288319,8808.450710
2574.710386,-536.266849,-2294.638420,9622.677246
2574.710715,-995.924147,-2442.679609,9400.615463
2574.711045,-1608.800546,-1702.473667,9918.759623
2574.711374,-383.047749,-740.205942,9770.718434
2574.711703,612.876398,-1184.329507,9178.553681
2574.712032,842.705048,-518.144159,9844.739029
2574.712361,1685.410096,-370.102971,9548.656652
2574.712690,1915.238745,666.185348,7920.203579
2574.713019,1762.019645,814.226536,8216.285956
2574.713348,1991.848295,2146.597232,7624.121203
2574.713678,1608.800546,2220.617826,8364.327145
2574.714007,306.438199,814.226536,8956.491898
2574.714336,0.000000,-370.102971,9474.636058
2574.714665,-689.485948,-1628.453072,9992.780217
2574.714994,-459.657299,-2368.659014,10066.800811
2574.715323,-842.705048,-2516.700203,10288.862594
2574.715652,-766.095498,-2368.659014,10732.986159
2574.715982,536.266849,-888.247130,8956.491898
2574.716311,1072.533697,-296.082377,9400.615463
2574.716640,1991.848295,-740.205942,10362.883188
2574.716969,2145.067394,296.082377,8438.347739
2574.717298,3064.381992,1110.308913,7772.162391
2574.717627,3064.381992,2072.576638,7031.956449
2574.717956,2911.162892,2738.761985,7550.100608
2574.718285,1991.848295,2072.576638,7994.224174
2574.718615,919.314598,1184.329507,8660.409521
2574.718944,0.000000,-666.185348,9474.636058
2574.719273,-1072.533697,-1628.453072,9696.697840
2574.719602,-1838.629195,-2590.720797,9548.656652
2574.719931,-2221.676944,-2294.638420,10066.800811
2574.720260,-995.924147,-888.247130,9178.553681
2574.720589,229.828649,-1036.288319,9548.656652
2574.720919,612.876398,-444.123565,8956.491898
2574.721248,76.609550,370.102971,8808.450710
2574.721577,-459.657299,-148.041188,9622.677246
2574.721906,383.047749,-148.041188,9400.615463
2574.722235,689.485948,1554.432478,7550.100608
2574.722564,1838.629195,1850.514855,8660.409521
2574.722893,689.485948,1924.535449,7846.182985
2574.723222,306.438199,592.164754,9252.574275
2574.723552,-383.047749,-0.000000,9178.553681
2574.723881,-842.705048,-740.205942,8882.471304
2574.724210,-842.705048,-1998.556043,9918.759623
2574.724539,-1838.629195,-2146.597232,9400.615463
2574.724868,-1149.143247,-1702.473667,10362.883188
2574.725197,-536.266849,-1036.288319,9474.636058
2574.725526,536.266849,-1406.391290,9326.594869
2574.725856,842.705048,-666.185348,10362.883188
2574.726185,842.705048,592.164754,8364.327145
2574.726514,1149.143247,592.164754,8512.368333
2574.726843,1762.019645,962.267725,8438.347739
2574.727172,1225.752797,2294.638420,7772.162391
2574.727501,229.828649,1184.329507,9474.636058
2574.727830,-153.219100,-74.020594,9326.594869
2574.728159,-766.095498,-518.144159,9400.615463
2574.728489,-1072.533697,-1332.370696,9622.677246
2574.728818,-1225.752797,-1554.432478,8956.491898
2574.729147,-995.924147,-2072.576638,9918.759623
2574.729476,-306.438199,-1110.308913,9548.656652
2574.729805,383.047749,-666.185348,9104.533087
2574.730134,0.000000,-592.164754,9104.533087
2574.730463,995.924147,-370.102971,9696.697840
2574.730793,1072.533697,-0.000000,8586.388927
2574.731122,1532.190996,814.226536,7920.203579
2574.731451,1838.629195,1554.432478,7550.100608
2574.731780,1302.362347,1480.411884,8068.244768
2574.732109,-766.095498,1184.329507,9104.533087
2574.732438,-1072.533697,-0.000000,8956.491898
2574.732767,-995.924147,-888.247130,9474.636058
2574.733096,-842.705048,-1850.514855,9030.512492
2574.733426,-1608.800546,-2146.597232,9030.512492
2574.733755,-1149.143247,-1998.556043,10066.800811
2574.734084,-153.219100,-1036.288319,9844.739029
2574.734413,536.266849,-1332.370696,9474.636058
2574.734742,536.266849,-888.247130,9770.718434
2574.735071,1378.971896,-148.041188,9992.780217
2574.735400,1608.800546,370.102971,7846.182985
2574.735730,2528.115143,1036.288319,8290.306550
2574.736059,2221.676944,2146.597232,7105.977043
2574.736388,2451.505594,2368.659014,7772.162391
2574.736717,1072.533697,1258.350101,9104.533087
2574.737046,459.657299,296.082377,9252.574275
2574.737375,0.000000,-1184.329507,9992.780217
2574.737704,-995.924147,-1702.473667,9474.636058
2574.738033,-1302.362347,-2220.617826,10510.924376
2574.738363,-1072.533697,-1184.329507,9844.739029
2574.738692,0.000000,-814.226536,9474.636058
2574.739021,536.266849,-518.144159,9992.780217
2574.739350,1762.019645,-592.164754,9770.718434
2574.739679,2145.067394,666.185348,7772.162391
2574.740008,2374.896044,518.144159,8068.244768
2574.740337,2145.067394,1628.453072,7698.141797
2574.740666,1762.019645,2072.576638,8216.285956
2574.740996,919.314598,1406.391290,8512.368333
2574.741325,-306.438199,222.061783,8882.471304
2574.741654,-1302.362347,-814.226536,10214.842000
2574.741983,-1302.362347,-888.247130,9622.677246
2574.742312,0.000000,-592.164754,7550.100608
2574.742641,-1225.752797,-1110.308913,8882.471304
2574.742970,-995.924147,-1110.308913,10881.027347
2574.743300,1225.752797,-296.082377,9844.739029
2574.743629,0.000000,-740.205942,8882.471304
2574.743958,0.000000,-1110.308913,8216.285956
2574.744287,1149.143247,-666.185348,10732.986159
2574.744616,689.485948,-0.000000,7994.224174
2574.744945,2451.505594,1850.514855,7772.162391
2574.745274,2604.724693,1258.350101,7402.059420
2574.745603,1685.410096,3034.844362,7624.121203
2574.745933,459.657299,296.082377,9400.615463
2574.746262,-383.047749,-222.061783,9400.615463
2574.746591,-995.924147,-1850.514855,9326.594869
2574.746920,-995.924147,-2220.617826,10658.965565
2574.747249,-1532.190996,-1184.329507,9178.553681
2574.747578,-995.924147,-1184.329507,9992.780217
2574.747907,306.438199,-1628.453072,8956.491898
2574.748237,536.266849,-1036.288319,9770.718434
2574.748566,612.876398,-1110.308913,10732.986159
2574.748895,1225.752797,-0.000000,8068.244768
2574.749224,1762.019645,222.061783,8586.388927
2574.749553,1455.581446,1702.473667,7698.141797
2574.749882,1072.533697,2516.700203,7624.121203
2574.750211,-995.924147,962.267725,9326.594869
2574.750540,-689.485948,222.061783,9400.615463
2574.750870,0.000000,-518.144159,9844.739029
2574.751199,-1149.143247,-1184.329507,9622.677246
2574.751528,-1302.362347,-1480.411884,8364.327145
2574.751857,-1225.752797,-2220.617826,10881.027347
2574.752186,-689.485948,-1184.329507,9474.636058
2574.752515,153.219100,-148.041188,8956.491898
2574.752844,0.000000,-666.185348,9326.594869
2574.753174,229.828649,-370.102971,9918.759623
2574.753503,612.876398,-148.041188,8882.471304
2574.753832,1532.190996,814.226536,7254.018232
2574.754161,1838.629195,1332.370696,7254.018232
2574.754490,1915.238745,1998.556043,7550.100608
2574.754819,995.924147,2220.617826,8364.327145
2574.755148,-383.047749,444.123565,9622.677246
2574.755477,-612.876398,-1036.288319,9548.656652
2574.755807,-995.924147,-1924.535449,10362.883188
2574.756136,-1072.533697,-1406.391290,9696.697840
2574.756465,-919.314598,-962.267725,9992.780217
2574.756794,-766.095498,-666.185348,9770.718434
2574.757123,153.219100,-740.205942,9844.739029
2574.757452,306.438199,-1332.370696,10510.924376
2574.757781,1455.581446,-518.144159,9178.553681
2574.758111,1685.410096,740.205942,7105.977043
2574.758440,1608.800546,740.205942,8290.306550
2574.758769,1838.629195,1628.453072,7105.977043
2574.759098,1378.971896,1924.535449,8512.368333
2574.759427,459.657299,370.102971,9104.533087
2574.759756,-459.657299,-518.144159,9400.615463
2574.760085,-689.485948,-1110.308913,10510.924376
2574.760414,-1915.238745,-1850.514855,9400.615463
2574.760744,-1225.752797,-2294.638420,10140.821405
2574.761073,-995.924147,-1924.535449,10584.944971
2574.761402,76.609550,-0.000000,9400.615463
2574.761731,995.924147,-814.226536,9992.780217
2574.762060,1685.410096,-296.082377,9696.697840
2574.762389,2374.896044,370.102971,8216.285956
2574.762718,3600.648841,1406.391290,7994.224174
2574.763048,3064.381992,1924.535449,6809.894666
2574.763377,3677.258390,2590.720797,7328.038826
2574.763706,2374.896044,2146.597232,7994.224174
2574.764035,612.876398,888.247130,8586.388927
2574.764364,153.219100,-1110.308913,9474.636058
2574.764693,-1149.143247,-1850.514855,9622.677246
2574.765022,-1762.019645,-1850.514855,10140.821405
2574.765351,-1915.238745,-2146.597232,10362.883188
2574.765681,-766.095498,-666.185348,10732.986159
2574.766010,0.000000,-370.102971,9252.574275
2574.766339,1072.533697,-148.041188,9104.533087
2574.766668,1072.533697,-740.205942,9992.780217
2574.766997,1762.019645,-0.000000,7920.203579
2574.767326,3217.601092,370.102971,7179.997637
2574.767655,2451.505594,1258.350101,7254.018232
2574.767985,2068.457845,1850.514855,7550.100608
2574.768314,1072.533697,1480.411884,8586.388927
2574.768643,0.000000,148.041188,8586.388927
2574.768972,-842.705048,-962.267725,9770.718434
2574.769301,-1532.190996,-2146.597232,10288.862594
2574.769630,-1762.019645,-2072.576638,9696.697840
2574.769959,-1915.238745,-2220.617826,10955.047942
2574.770288,-1072.533697,-1036.288319,9992.780217
2574.770618,-229.828649,-444.123565,9252.574275
2574.770947,229.828649,-518.144159,9696.697840
2574.771276,306.438199,-74.020594,9918.759623
2574.771605,1149.143247,-666.185348,9622.677246
2574.771934,2145.067394,814.226536,7624.121203
2574.772263,2068.457845,1332.370696,7624.121203
2574.772592,1608.800546,1702.473667,7105.977043
2574.772922,1302.362347,2146.597232,8290.306550
2574.773251,0.000000,222.061783,9178.553681
2574.773580,-536.266849,-148.041188,8586.388927
2574.773909,-1455.581446,-1776.494261,9992.780217
2574.774238,-1608.800546,-2146.597232,10288.862594
2574.774567,-1532.190996,-1998.556043,10436.903782
2574.774896,-1378.971896,-888.247130,10140.821405
2574.775225,-536.266849,-370.102971,9252.574275
2574.775555,153.219100,-370.102971,9474.636058
2574.775884,459.657299,222.061783,9696.697840
2574.776213,612.876398,518.144159,7550.100608
2574.776542,1302.362347,-0.000000,7994.224174
2574.776871,1072.533697,1036.288319,7624.121203
2574.777200,383.047749,2220.617826,7846.182985
2574.777529,-383.047749,1110.308913,8734.430116
2574.777859,-1149.143247,-0.000000,9326.594869
2574.778188,-1532.190996,-1110.308913,9400.615463
2574.778517,-1455.581446,-1998.556043,9474.636058
2574.778846,-1302.362347,-2368.659014,9400.615463
2574.779175,-1149.143247,-2368.659014,10066.800811
2574.779504,-612.876398,-962.267725,9992.780217
2574.779833,76.609550,-370.102971,9252.574275
2574.780162,536.266849,-888.247130,9992.780217
2574.780492,1532.190996,-518.144159,9474.636058
2574.780821,1915.238745,444.123565,7920.203579
2574.781150,2604.724693,592.164754,7624.121203
2574.781479,2681.334243,1850.514855,7105.977043
2574.781808,2528.115143,1998.556043,8364.327145
2574.782137,1378.971896,1258.350101,8438.347739
2574.782466,306.438199,-74.020594,9326.594869
2574.782796,-689.485948,-1332.370696,10140.821405
2574.783125,-1302.362347,-2146.597232,9770.718434
2574.783454,-1302.362347,-2664.741391,10658.965565
2574.783783,-1532.190996,-1258.350101,10214.842000
2574.784112,306.438199,-740.205942,9770.718434
2574.784441,1225.752797,-666.185348,9474.636058
2574.784770,2451.505594,-0.000000,9178.553681
2574.785099,2911.162892,740.205942,7994.224174
2574.785429,2987.772442,814.226536,6957.935855
2574.785758,3600.648841,2072.576638,7105.977043
2574.786087,2834.553343,2516.700203,7994.224174
2574.786416,1532.190996,1776.494261,8216.285956
2574.786745,229.828649,444.123565,9104.533087
2574.787074,-919.314598,-592.164754,9918.759623
2574.787403,-1685.410096,-1702.473667,10214.842000
2574.787733,-1838.629195,-2294.638420,10288.862594
2574.788062,-1685.410096,-1776.494261,9992.780217
2574.788391,-995.924147,-1184.329507,10732.986159
2574.788720,-306.438199,-814.226536,9400.615463
2574.789049,306.438199,-74.020594,9104.533087
2574.789378,1302.362347,-592.164754,10362.883188
2574.789707,1915.238745,-74.020594,8216.285956
2574.790036,2528.115143,1110.308913,8142.265362
2574.790366,2374.896044,1406.391290,7105.977043
2574.790695,2451.505594,1924.535449,7698.141797
2574.791024,2145.067394,1850.514855,8290.306550
2574.791353,689.485948,296.082377,9030.512492
2574.791682,-459.657299,-888.247130,9474.636058
2574.792011,-1378.971896,-1554.432478,10140.821405
2574.792340,-1838.629195,-1702.473667,10288.862594
2574.792670,-1455.581446,-1998.556043,10214.842000
2574.792999,-995.924147,-962.267725,10066.800811
2574.793328,0.000000,-1184.329507,9252.574275
2574.793657,383.047749,-1036.288319,9474.636058
2574.793986,153.219100,-740.205942,9696.697840
2574.794315,766.095498,-518.144159,8364.327145
2574.794644,1838.629195,296.082377,7402.059420
2574.794973,1225.752797,1480.411884,6957.935855
2574.795303,536.266849,1480.411884,7698.141797
2574.795632,-153.219100,1332.370696,8734.430116
2574.795961,-995.924147,666.185348,9326.594869
2574.796290,-1072.533697,-518.144159,9474.636058
2574.796619,-1072.533697,-1258.350101,9474.636058
2574.796948,-1838.629195,-1702.473667,9104.533087
2574.797277,-1455.581446,-1554.432478,10140.821405
2574.797607,-1072.533697,-1036.288319,9104.533087
2574.797936,0.000000,-296.082377,8956.491898
2574.798265,0.000000,-296.082377,9400.615463
2574.798594,-229.828649,-518.144159,9326.594869
2574.798923,-536.266849,-1184.329507,9474.636058
2574.799252,383.047749,-74.020594,8142.265362
2574.799581,1532.190996,814.226536,8290.306550
2574.799910,1149.143247,1406.391290,7550.100608
2574.800240,766.095498,1554.432478,8660.409521
2574.800569,0.000000,370.102971,9696.697840
2574.800898,0.000000,-0.000000,9178.553681
2574.801227,-383.047749,-888.247130,9548.656652
2574.801556,-1532.190996,-1110.308913,10214.842000
2574.801885,-842.705048,-740.205942,10140.821405
2574.802214,0.000000,-888.247130,10362.883188
2574.802543,1149.143247,-1110.308913,9992.780217
2574.802872,1608.800546,-740.205942,9622.677246
2574.803201,2145.067394,222.061783,8808.450710
2574.803530,2145.067394,740.205942,7624.121203
2574.803859,2298.286494,888.247130,8290.306550
2574.804188,1685.410096,1184.329507,8290.306550
2574.804517,766.095498,1332.370696,8734.430116
2574.804846,76.609550,-74.020594,9548.656652
2574.805176,-1072.533697,-666.185348,9770.718434
2574.805505,-1149.143247,-1776.494261,9992.780217
2574.805834,-995.924147,-2146.597232,9992.780217
2574.806163,-1072.533697,-2368.659014,9992.780217
2574.806492,-306.438199,-1628.453072,10436.903782
2574.806821,0.000000,-518.144159,9326.594869
2574.807150,995.924147,-74.020594,9474.636058
2574.807479,2298.286494,-0.000000,8882.471304
2574.807808,3064.381992,592.164754,7624.121203
2574.808137,3064.381992,1184.329507,7105.977043
2574.808466,3753.867940,1850.514855,7254.018232
2574.808795,3217.601092,1850.514855,7328.038826
2574.809124,1915.238745,1406.391290,7328.038826
2574.809453,995.924147,-0.000000,8808.450710
2574.809782,-689.485948,-1036.288319,9252.574275
2574.810112,-1072.533697,-1924.535449,9918.759623
2574.810441,-1302.362347,-2072.576638,9474.636058
2574.810770,-1072.533697,-1258.350101,9474.636058
2574.811099,-612.876398,-1184.329507,9696.697840
2574.811428,0.000000,-296.082377,9326.594869
2574.811757,153.219100,-740.205942,9178.553681
2574.812086,766.095498,-1184.329507,9992.780217
2574.812415,1455.581446,-74.020594,8290.306550
2574.812744,2145.067394,962.267725,7994.224174
2574.813073,2068.457845,1110.308913,7254.018232
2574.813402,1915.238745,1850.514855,7698.141797
2574.813731,1762.019645,1554.432478,8290.306550
2574.814060,0.000000,518.144159,8068.244768
2574.814389,-612.876398,-592.164754,9474.636058
2574.814718,-1302.362347,-1924.535449,10214.842000
2574.815048,-1838.629195,-1850.514855,9474.636058
2574.815377,-1838.629195,-2294.638420,10955.047942
2574.815706,-995.924147,-1110.308913,10288.862594
2574.816035,0.000000,-1036.288319,9770.718434
2574.816364,76.609550,-888.247130,9696.697840
2574.816693,-229.828649,-296.082377,9474.636058
2574.817022,229.828649,-444.123565,9474.636058
2574.817351,153.219100,-0.000000,9178.553681
2574.817680,1225.752797,740.205942,9992.780217
2574.818009,1378.971896,814.226536,7994.224174
2574.818338,536.266849,1480.411884,7846.182985
2574.818667,-229.828649,-0.000000,9178.553681
2574.818996,0.000000,-222.061783,9474.636058
2574.819325,-689.485948,-1184.329507,10066.800811
2574.819654,-1149.143247,-1406.391290,8882.471304
2574.819983,-1072.533697,-1110.308913,9622.677246
2574.820313,-612.876398,-518.144159,9918.759623
2574.820642,306.438199,-370.102971,8882.471304
2574.820971,766.095498,-814.226536,9474.636058
2574.821300,1225.752797,-222.061783,9400.615463
2574.821629,1532.190996,814.226536,7698.141797
2574.821958,1608.800546,-0.000000,7328.038826
2574.822287,1225.752797,1036.288319,7254.018232
2574.822616,1991.848295,1924.535449,8512.368333
2574.822945,153.219100,1406.391290,8364.327145
2574.823274,-766.095498,-0.000000,9178.553681
2574.823603,-1225.752797,-1184.329507,10288.862594
2574.823932,-1225.752797,-2368.659014,9104.533087
2574.824261,-1225.752797,-2294.638420,9548.656652
2574.824590,-995.924147,-2072.576638,10066.800811
2574.824919,0.000000,-1110.308913,9696.697840
2574.825249,766.095498,-666.185348,9326.594869
2574.825578,766.095498,-888.247130,9548.656652
2574.825907,919.314598,-888.247130,10214.842000
2574.826236,1762.019645,296.082377,8068.244768
2574.826565,2681.334243,1406.391290,7476.080014
2574.826894,2757.943793,1850.514855,7179.997637
2574.827223,2834.553343,1924.535449,7624.121203
2574.827552,1608.800546,592.164754,8808.450710
2574.827881,-842.705048,-444.123565,9104.533087
2574.828210,-536.266849,-1850.514855,9548.656652
2574.828539,-1149.143247,-2368.659014,9622.677246
2574.828868,-1455.581446,-2442.679609,10066.800811
2574.829197,-1302.362347,-1554.432478,9918.759623
2574.829526,-153.219100,-1036.288319,9992.780217
2574.829855,1455.581446,-962.267725,9400.615463
2574.830185,3064.381992,222.061783,8660.409521
2574.830514,3294.210641,1258.350101,7920.203579
2574.830843,3294.210641,1184.329507,6957.935855
2574.831172,3217.601092,2368.659014,7476.080014
2574.831501,2757.943793,2590.720797,7476.080014
2574.831830,1455.581446,1628.453072,7994.224174
2574.832159,-689.485948,888.247130,8882.471304
2574.832488,-766.095498,-888.247130,10362.883188
2574.832817,-1608.800546,-2368.659014,10288.862594
2574.833146,-2374.896044,-2442.679609,10436.903782
2574.833475,-2145.067394,-2960.823768,10584.944971
2574.833804,-1608.800546,-1998.556043,9992.780217
2574.834133,-306.438199,-370.102971,9326.594869
2574.834462,459.657299,-444.123565,9326.594869
2574.834791,1455.581446,-888.247130,10510.924376
2574.835121,2221.676944,-0.000000,8734.430116
2574.835450,3447.429741,1776.494261,7105.977043
2574.835779,3064.381992,1924.535449,7031.956449
2574.836108,2757.943793,2368.659014,7328.038826
2574.836437,2068.457845,2072.576638,8882.471304
2574.836766,536.266849,518.144159,9178.553681
2574.837095,-536.266849,-814.226536,9770.718434
2574.837424,-1838.629195,-2072.576638,10955.047942
2574.837753,-2298.286494,-2294.638420,10436.903782
2574.838082,-2374.896044,-1998.556043,9992.780217
2574.838411,-1762.019645,-1258.350101,10066.800811
2574.838740,-306.438199,-1406.391290,9474.636058
2574.839069,842.705048,-222.061783,9252.574275
2574.839398,153.219100,-74.020594,9474.636058
2574.839727,995.924147,-888.247130,9474.636058
2574.840056,1532.190996,370.102971,7328.038826
2574.840386,1455.581446,2072.576638,7624.121203
2574.840715,995.924147,2072.576638,7476.080014
2574.841044,689.485948,1998.556043,8660.409521
2574.841373,0.000000,1184.329507,8734.430116
2574.841702,-306.438199,-296.082377,9252.574275
2574.842031,-1302.362347,-1776.494261,9548.656652
2574.842360,-1838.629195,-1776.494261,9474.636058
2574.842689,-1685.410096,-1702.473667,9622.677246
2574.843018,-1378.971896,-814.226536,9696.697840
2574.843347,-459.657299,-666.185348,8586.388927
2574.843676,612.876398,-444.123565,9770.718434
2574.844005,1455.581446,-666.185348,10214.842000
2574.844334,1378.971896,518.144159,7031.956449
2574.844663,1991.848295,148.041188,8216.285956
2574.844992,1838.629195,1554.432478,7402.059420
2574.845322,1991.848295,2590.720797,7994.224174
2574.845651,76.609550,1554.432478,8808.450710
2574.845980,-612.876398,-444.123565,9326.594869
2574.846309,-919.314598,-1184.329507,10214.842000
2574.846638,-1455.581446,-2294.638420,9992.780217
2574.846967,-1225.752797,-2442.679609,10140.821405
2574.847296,-1302.362347,-2294.638420,10436.903782
2574.847625,-766.095498,-814.226536,9918.759623
2574.847954,0.000000,-518.144159,9474.636058
2574.848283,919.314598,-1110.308913,10362.883188
2574.848612,1838.629195,-296.082377,8882.471304
2574.848941,2834.553343,296.082377,7328.038826
2574.849270,2681.334243,1036.288319,7105.977043
2574.849599,2145.067394,2220.617826,7031.956449
2574.849928,1915.238745,2072.576638,8586.388927
2574.850258,229.828649,1332.370696,9326.594869
2574.850587,0.000000,-222.061783,9252.574275
2574.850916,-1072.533697,-1776.494261,9844.739029
2574.851245,-612.876398,-2590.720797,10288.862594
2574.851574,-1225.752797,-2146.597232,9548.656652
2574.851903,-766.095498,-2072.576638,10362.883188
2574.852232,0.000000,-740.205942,9326.594869
2574.852561,919.314598,-296.082377,9326.594869
2574.852890,2221.676944,-74.020594,9474.636058
2574.853219,2757.943793,222.061783,7476.080014
2574.853548,3447.429741,222.061783,8068.244768
2574.853877,3294.210641,1776.494261,7105.977043
2574.854206,2911.162892,2590.720797,7994.224174
2574.854535,2145.067394,2442.679609,8142.265362
2574.854864,842.705048,1184.329507,8660.409521
2574.855194,-459.657299,-592.164754,9992.780217
2574.855523,-1225.752797,-1776.494261,9770.718434
2574.855852,-1532.190996,-2146.597232,10732.986159
2574.856181,-1762.019645,-2294.638420,10436.903782
2574.856510,-689.485948,-1332.370696,9918.759623
2574.856839,-612.876398,-814.226536,9548.656652
2574.857168,0.000000,-814.226536,9326.594869
2574.857497,612.876398,-1332.370696,10066.800811
2574.857826,1149.143247,-444.123565,8438.347739
2574.858155,2681.334243,740.205942,8142.265362
2574.858484,2298.286494,1628.453072,7772.162391
2574.858813,2145.067394,2368.659014,7624.121203
2574.859142,1378.971896,2220.617826,8438.347739
2574.859471,306.438199,1332.370696,8660.409521
2574.859800,-383.047749,-222.061783,9474.636058
2574.860129,-919.314598,-1776.494261,10288.862594
2574.860459,-1608.800546,-1998.556043,10214.842000
2574.860788,-1991.848295,-2072.576638,9992.780217
2574.861117,-1302.362347,-1554.432478,10658.965565
2574.861446,-536.266849,-592.164754,9252.574275
2574.861775,76.609550,-222.061783,9030.512492
2574.862104,153.219100,-370.102971,9992.780217
2574.862433,919.314598,-1406.391290,8808.450710
2574.862762,1532.190996,444.123565,7550.100608
2574.863091,1991.848295,1036.288319,7402.059420
2574.863420,995.924147,2072.576638,7328.038826
2574.863749,995.924147,1998.556043,8512.368333
2574.864078,0.000000,888.247130,8956.491898
2574.864407,-536.266849,-296.082377,9178.553681
2574.864736,-919.314598,-1776.494261,9696.697840
2574.865065,-1149.143247,-2072.576638,9252.574275
2574.865395,-1532.190996,-1998.556043,9548.656652
2574.865724,-1838.629195,-740.205942,9622.677246
2574.866053,-536.266849,-444.123565,8956.491898
2574.866382,76.609550,-740.205942,9252.574275
2574.866711,689.485948,-666.185348,9844.739029
2574.867040,995.924147,222.061783,7328.038826
2574.867369,1991.848295,-0.000000,7994.224174
2574.867698,1455.581446,1184.329507,7179.997637
2574.868027,1072.533697,2146.597232,7698.141797
2574.868356,0.000000,1406.391290,8882.471304
2574.868685,-995.924147,-74.020594,9252.574275
2574.869014,-1149.143247,-814.226536,9918.759623
2574.869343,-1455.581446,-2294.638420,10066.800811
2574.869672,-1225.752797,-2590.720797,9844.739029
2574.870001,-1378.971896,-2220.617826,11029.068536
2574.870331,-689.485948,-1258.350101,10362.883188
2574.870660,153.219100,-296.082377,9770.718434
2574.870989,766.095498,-888.247130,10066.800811
2574.871318,1532.190996,-0.000000,9252.574275
2574.871647,3370.820191,814.226536,7994.224174
2574.871976,3600.648841,1332.370696,6809.894666
2574.872305,2451.505594,2072.576638,7624.121203
2574.872634,2451.505594,2516.700203,8290.306550
2574.872963,612.876398,1628.453072,8808.450710
2574.873292,-459.657299,-0.000000,9622.677246
2574.873621,-919.314598,-1554.432478,10510.924376
2574.873950,-1072.533697,-2072.576638,10362.883188
2574.874279,-1762.019645,-2368.659014,10658.965565
2574.874608,-459.657299,-1332.370696,10732.986159
2574.874937,229.828649,-1702.473667,9696.697840
2574.875266,766.095498,-0.000000,9548.656652
2574.875596,2145.067394,-74.020594,9696.697840
2574.875925,2757.943793,740.205942,7772.162391
2574.876254,3907.087040,814.226536,7105.977043
2574.876583,3600.648841,2072.576638,7031.956449
2574.876912,2911.162892,2072.576638,7105.977043
2574.877241,2298.286494,1924.535449,8216.285956
2574.877570,459.657299,666.185348,8438.347739
2574.877899,-459.657299,-444.123565,9918.759623
2574.878228,-1302.362347,-1406.391290,9252.574275
2574.878557,-1608.800546,-3404.947333,10807.006753
2574.878886,-1915.238745,-3404.947333,11029.068536
2574.879215,-1072.533697,-1036.288319,9992.780217
2574.879544,-153.219100,-1850.514855,8956.491898
2574.879873,0.000000,-148.041188,8956.491898
2574.880202,1149.143247,-74.020594,11029.068536
2574.880532,1455.581446,-444.123565,9326.594869
2574.880861,2528.115143,1036.288319,7031.956449
2574.881190,2757.943793,1258.350101,7328.038826
2574.881519,3217.601092,2442.679609,6513.812290
2574.881848,2145.067394,1332.370696,7920.203579
2574.882177,459.657299,370.102971,8660.409521
2574.882506,-1149.143247,-888.247130,9400.615463
2574.882835,-1378.971896,-2072.576638,10362.883188
2574.883164,-2221.676944,-2442.679609,9844.739029
2574.883493,-2451.505594,-2146.597232,10066.800811
2574.883822,-1225.752797,-1332.370696,10658.965565
2574.884151,-995.924147,-814.226536,9474.636058
2574.884480,153.219100,-74.020594,9030.512492
2574.884809,76.609550,-444.123565,9474.636058
2574.885138,919.314598,-74.020594,9030.512492
2574.885468,1608.800546,296.082377,7328.038826
2574.885797,1302.362347,1776.494261,7328.038826
2574.886126,1378.971896,1924.535449,7179.997637
2574.886455,1072.533697,2146.597232,7698.141797
2574.886784,0.000000,814.226536,8734.430116
2574.887113,-766.095498,-444.123565,9030.512492
2574.887442,-1225.752797,-1628.453072,9844.739029
2574.887771,-1915.238745,-2220.617826,9770.718434
2574.888100,-1915.238745,-2516.700203,9992.780217
2574.888429,-1608.800546,-1110.308913,9992.780217
2574.888758,0.000000,-666.185348,9474.636058
2574.889087,536.266849,-518.144159,9992.780217
2574.889416,1378.971896,-0.000000,9474.636058
2574.889745,2374.896044,962.267725,7402.059420
2574.890074,2757.943793,814.226536,7476.080014
2574.890404,1915.238745,1628.453072,7550.100608
2574.890733,2451.505594,2072.576638,8068.244768
2574.891062,229.828649,1702.473667,8808.450710
2574.891391,-689.485948,-0.000000,9992.780217
2574.891720,-1762.019645,-1258.350101,10510.924376
2574.892049,-2068.457845,-2368.659014,10584.944971
2574.892378,-2145.067394,-2442.679609,10510.924376
2574.892707,-1762.019645,-2220.617826,10214.842000
2574.893036,-536.266849,-1406.391290,10510.924376
2574.893365,-153.219100,-296.082377,9474.636058
2574.893694,995.924147,-370.102971,10658.965565
2574.894023,1685.410096,-148.041188,9104.533087
2574.894352,2681.334243,740.205942,7105.977043
2574.894681,2911.162892,1998.556043,6883.915261
2574.895010,3370.820191,2146.597232,6957.935855
2574.895339,2451.505594,1998.556043,8290.306550
2574.895669,689.485948,2072.576638,9252.574275
2574.895998,153.219100,-666.185348,9696.697840
2574.896327,-1378.971896,-1406.391290,9474.636058
2574.896656,-1302.362347,-1776.494261,10214.842000
2574.896985,-1915.238745,-2220.617826,10066.800811
2574.897314,-1072.533697,-2220.617826,9992.780217
2574.897643,0.000000,-1184.329507,9326.594869
2574.897972,766.095498,-592.164754,9178.553681
2574.898301,1915.238745,222.061783,9030.512492
2574.898630,2757.943793,370.102971,7254.018232
2574.898959,3370.820191,1184.329507,7328.038826
2574.899288,2911.162892,1776.494261,7031.956449
2574.899617,3294.210641,2072.576638,7402.059420
2574.899946,1991.848295,2368.659014,7476.080014
2574.900276,1149.143247,1480.411884,9030.512492
2574.900605,0.000000,-666.185348,9844.739029
2574.900934,-1532.190996,-1776.494261,10140.821405
2574.901263,-2068.457845,-2590.720797,10732.986159
2574.901592,-2068.457845,-2294.638420,10436.903782
2574.901921,-1762.019645,-1776.494261,10362.883188
2574.902250,-536.266849,-888.247130,9474.636058
2574.902579,229.828649,-740.205942,9178.553681
2574.902908,1149.143247,-666.185348,9844.739029
2574.903237,1762.019645,296.082377,7624.121203
2574.903566,2528.115143,1036.288319,7328.038826
2574.903896,1915.238745,1480.411884,6957.935855
2574.904225,1685.410096,1480.411884,7846.182985
2574.904554,459.657299,1332.370696,9474.636058
2574.904883,-766.095498,592.164754,8882.471304
2574.905212,-1302.362347,-592.164754,10140.821405
2574.905541,-1608.800546,-2072.576638,10658.965565
2574.905870,-1915.238745,-2294.638420,9992.780217
2574.906199,-1915.238745,-2072.576638,10510.924376
2574.906528,-766.095498,-1480.411884,10066.800811
2574.906857,-383.047749,-370.102971,9474.636058
2574.907186,383.047749,-444.123565,9326.594869
2574.907516,1072.533697,-370.102971,9770.718434
2574.907845,1991.848295,-74.020594,7698.141797
2574.908174,2604.724693,1258.350101,7846.182985
2574.908503,2298.286494,1924.535449,6661.853478
2574.908832,1762.019645,2220.617826,7105.977043
2574.909161,919.314598,1480.411884,8512.368333
2574.909490,459.657299,-0.000000,8808.450710
2574.909819,-689.485948,-814.226536,9030.512492
2574.910148,-1532.190996,-1628.453072,10214.842000
2574.910477,-1762.019645,-2294.638420,9696.697840
2574.910806,-1532.190996,-1480.411884,9992.780217
2574.911136,-1072.533697,-1036.288319,9622.677246
2574.911465,-689.485948,-962.267725,9326.594869
2574.911794,306.438199,-888.247130,9918.759623
2574.912123,919.314598,-148.041188,9696.697840
2574.912452,1378.971896,-148.041188,7772.162391
2574.912781,1685.410096,740.205942,7698.141797
2574.913110,1225.752797,1998.556043,7105.977043
2574.913439,1149.143247,1628.453072,8734.430116
2574.913768,0.000000,1628.453072,8734.430116
2574.914097,-383.047749,-0.000000,9178.553681
2574.914427,-995.924147,-1776.494261,10066.800811
2574.914756,-1608.800546,-2220.617826,10066.800811
2574.915085,-1991.848295,-2516.700203,9770.718434
2574.915414,-1685.410096,-2368.659014,10955.047942
2574.915743,-1072.533697,-1184.329507,10066.800811
2574.916072,0.000000,-962.267725,9474.636058
2574.916401,995.924147,-592.164754,10288.862594
2574.916730,1991.848295,-222.061783,8956.491898
2574.917059,2757.943793,888.247130,7550.100608
2574.917388,2911.162892,1554.432478,6957.935855
2574.917717,2911.162892,2368.659014,6883.915261
2574.918047,2528.115143,3256.906145,7698.141797
2574.918376,1149.143247,1554.432478,8068.244768
2574.918705,612.876398,-444.123565,9400.615463
2574.919034,-842.705048,-1628.453072,9548.656652
2574.919363,-1455.581446,-2146.597232,10066.800811
2574.919692,-1762.019645,-3108.864956,10732.986159
2574.920021,-1455.581446,-1776.494261,10140.821405
2574.920350,-306.438199,-1258.350101,10288.862594
2574.920679,76.609550,-0.000000,9770.718434
2574.921008,1608.800546,-444.123565,10214.842000
2574.921337,1991.848295,-0.000000,8512.368333
2574.921667,3447.429741,814.226536,7105.977043
2574.921996,3447.429741,2072.576638,6513.812290
2574.922325,3140.991542,2442.679609,6735.874072
2574.922654,2681.334243,2590.720797,7994.224174
2574.922983,766.095498,888.247130,8586.388927
2574.923312,-459.657299,-740.205942,9326.594869
2574.923641,-1608.800546,-1850.514855,10436.903782
2574.923970,-1608.800546,-2886.803174,10658.965565
2574.924299,-1915.238745,-2664.741391,10510.924376
2574.924628,-1302.362347,-2146.597232,10658.965565
2574.924957,0.000000,-1110.308913,10066.800811
2574.925287,306.438199,-370.102971,9696.697840
2574.925616,1302.362347,-444.123565,10732.986159
2574.925945,1838.629195,370.102971,8956.491898
2574.926274,3830.477490,1184.329507,7846.182985
2574.926603,3294.210641,1850.514855,6735.874072
2574.926932,3064.381992,2738.761985,7328.038826
2574.927261,3064.381992,2146.597232,8364.327145
2574.927590,689.485948,1332.370696,8512.368333
2574.927919,-612.876398,-370.102971,9992.780217
2574.928248,-1072.533697,-2072.576638,10288.862594
2574.928577,-1762.019645,-3108.864956,10658.965565
2574.928907,-2068.457845,-2146.597232,9992.780217
2574.929236,-1378.971896,-1554.432478,10140.821405
2574.929565,-1225.752797,-740.205942,9474.636058
2574.929894,153.219100,-444.123565,9474.636058
2574.930223,-383.047749,-148.041188,9770.718434
2574.930552,995.924147,-814.226536,9400.615463
2574.930881,1455.581446,592.164754,7402.059420
2574.931210,1915.238745,1480.411884,7772.162391
2574.931539,1455.581446,1924.535449,7031.956449
2574.931868,1302.362347,2516.700203,7920.203579
2574.932197,0.000000,1184.329507,8808.450710
2574.932527,-1072.533697,-148.041188,9030.512492
2574.932856,-995.924147,-1924.535449,9844.739029
2574.933185,-1455.581446,-2072.576638,9622.677246
2574.933514,-2221.676944,-2368.659014,9696.697840
2574.933843,-1991.848295,-1702.473667,10436.903782
2574.934172,-689.485948,-814.226536,9178.553681
2574.934501,0.000000,-296.082377,9474.636058
2574.934830,306.438199,-74.020594,10807.006753
2574.935159,306.438199,222.061783,8882.471304
2574.935488,1608.800546,518.144159,7994.224174
2574.935817,1762.019645,1406.391290,7550.100608
2574.936147,1072.533697,1924.535449,7846.182985
2574.936476,536.266849,1628.453072,9030.512492
2574.936805,-612.876398,148.041188,9252.574275
2574.937134,-766.095498,-1258.350101,9770.718434
2574.937463,-1302.362347,-1998.556043,10362.883188
2574.937792,-2221.676944,-1998.556043,9770.718434
2574.938121,-1532.190996,-2294.638420,10288.862594
2574.938450,-1302.362347,-1258.350101,9696.697840
2574.938779,-306.438199,-740.205942,9696.697840
2574.939108,1608.800546,-518.144159,9622.677246
2574.939437,1838.629195,444.123565,7698.141797
2574.939767,2298.286494,1332.370696,6735.874072
2574.940096,2451.505594,1480.411884,7772.162391
2574.940425,1991.848295,2146.597232,7846.182985
2574.940754,1685.410096,2516.700203,8364.327145
2574.941083,306.438199,1184.329507,8808.450710
2574.941412,-1608.800546,-370.102971,10066.800811
2574.941741,-1838.629195,-2294.638420,10658.965565
2574.942070,-1532.190996,-3108.864956,10584.944971
2574.942399,-2374.896044,-3330.926739,9918.759623
2574.942728,-1302.362347,-2368.659014,10362.883188
2574.943057,-306.438199,-1332.370696,10288.862594
2574.943387,1915.238745,-592.164754,9326.594869
2574.943716,3524.039291,-0.000000,7624.121203
2574.944045,4903.011187,1258.350101,7328.038826
2574.944374,4979.620737,2146.597232,5995.668130
2574.944703,4903.011187,2738.761985,6587.832884
2574.945032,3677.258390,2960.823768,7550.100608
2574.945361,2528.115143,2294.638420,7624.121203
2574.945690,766.095498,666.185348,8882.471304
2574.946019,-919.314598,-1036.288319,10362.883188
2574.946348,-2221.676944,-2664.741391,11251.130318
2574.946677,-2834.553343,-3627.009116,11251.130318
2574.947007,-2298.286494,-3108.864956,11103.089130
2574.947336,-1685.410096,-1998.556043,10584.944971
2574.947665,-995.924147,-962.267725,9474.636058
2574.947994,306.438199,-370.102971,9400.615463
2574.948323,2374.896044,-666.185348,9918.759623
2574.948652,3447.429741,1036.288319,6809.894666
2574.948981,3830.477490,1924.535449,6365.771101
2574.949310,3140.991542,2442.679609,6587.832884
2574.949639,2681.334243,2664.741391,7846.182985
2574.949968,1378.971896,2072.576638,8068.244768
2574.950297,-306.438199,666.185348,8882.471304
2574.950627,-1762.019645,-1554.432478,10955.047942
2574.950956,-2451.505594,-2590.720797,11177.109724
2574.951285,-2604.724693,-2812.782580,10436.903782
2574.951614,-3447.429741,-2442.679609,11029.068536
2574.951943,-1378.971896,-1998.556043,10436.903782
2574.952272,-1455.581446,-444.123565,9696.697840
2574.952601,0.000000,-0.000000,9178.553681
2574.952930,0.000000,148.041188,8734.430116
2574.953259,1991.848295,-888.247130,9696.697840
2574.953588,1838.629195,2072.576638,5921.647536
2574.953917,2374.896044,1628.453072,7698.141797
2574.954247,2068.457845,1998.556043,6809.894666
2574.954576,1838.629195,3108.864956,7550.100608
2574.954905,-153.219100,740.205942,9326.594869
2574.955234,-995.924147,-444.123565,8586.388927
2574.955563,-1455.581446,-1480.411884,10584.944971
2574.955892,-1915.238745,-2368.659014,9992.780217
2574.956221,-1532.190996,-1702.473667,9622.677246
2574.956550,-2221.676944,-1480.411884,10807.006753
2574.956879,-612.876398,-814.226536,9178.553681
2574.957208,0.000000,-222.061783,9104.533087
2574.957537,383.047749,-518.144159,10584.944971
2574.957867,766.095498,370.102971,7402.059420
2574.958196,2221.676944,-0.000000,8512.368333
2574.958525,1072.533697,1776.494261,6809.894666
2574.958854,766.095498,2590.720797,7846.182985
2574.959183,-383.047749,1332.370696,9326.594869
2574.959512,-1225.752797,370.102971,8808.450710
2574.959841,-1149.143247,-1036.288319,10362.883188
2574.960170,-1991.848295,-2368.659014,10140.821405
2574.960499,-2298.286494,-2664.741391,9770.718434
2574.960828,-842.705048,-2368.659014,11029.068536
2574.961157,-1072.533697,-1332.370696,10436.903782
2574.961487,-536.266849,-666.185348,9474.636058
2574.961816,153.219100,-814.226536,10362.883188
2574.962145,1838.629195,-222.061783,9474.636058
2574.962474,2451.505594,740.205942,6957.935855
2574.962803,4366.744339,962.267725,7031.956449
2574.963132,3294.210641,2664.741391,6365.771101
2574.963461,3600.648841,2294.638420,7624.121203
2574.963790,1762.019645,2220.617826,7550.100608
2574.964119,919.314598,592.164754,8512.368333
2574.964448,-383.047749,-1036.288319,9992.780217
2574.964777,-1225.752797,-1702.473667,9696.697840
2574.965107,-1532.190996,-3108.864956,10955.047942
2574.965436,-1915.238745,-2960.823768,10881.027347
2574.965765,-306.438199,-1184.329507,10288.862594
2574.966094,153.219100,-1184.329507,10362.883188
2574.966423,1685.410096,-222.061783,9326.594869
2574.966752,3064.381992,888.247130,8290.306550
2574.967081,4290.134789,814.226536,7254.018232
2574.967410,4136.915689,2072.576638,6513.812290
2574.967739,4136.915689,2442.679609,7254.018232
2574.968068,2834.553343,2442.679609,7402.059420
2574.968397,1072.533697,1776.494261,8068.244768
2574.968727,-306.438199,-222.061783,9474.636058
2574.969056,-1455.581446,-1924.535449,10362.883188
2574.969385,-2221.676944,-3701.029710,10807.006753
2574.969714,-2145.067394,-2812.782580,10584.944971
2574.970043,-1455.581446,-2590.720797,10362.883188
2574.970372,-1532.190996,-1702.473667,10584.944971
2574.970701,-536.266849,-444.123565,9252.574275
2574.971030,0.000000,-222.061783,10288.862594
2574.971359,1685.410096,-814.226536,9992.780217
2574.971688,2451.505594,1036.288319,6735.874072
2574.972017,2374.896044,1554.432478,7476.080014
2574.972347,2528.115143,2146.597232,6587.832884
2574.972676,2451.505594,2960.823768,7624.121203
2574.973005,919.314598,1850.514855,9030.512492
2574.973334,153.219100,518.144159,8660.409521
2574.973663,-995.924147,-1480.411884,9992.780217
2574.973992,-1991.848295,-1702.473667,9918.759623
2574.974321,-2068.457845,-2368.659014,10288.862594
2574.974650,-1991.848295,-1776.494261,10140.821405
2574.974979,-919.314598,-888.247130,9622.677246
2574.975308,-612.876398,-444.123565,9326.594869
2574.975637,0.000000,-592.164754,9622.677246
2574.975967,536.266849,-148.041188,9622.677246
2574.976296,842.705048,-0.000000,6883.915261
2574.976625,2145.067394,1036.288319,8068.244768
2574.976954,1302.362347,1332.370696,7105.977043
2574.977283,1378.971896,1924.535449,7920.203579
2574.977612,-383.047749,1258.350101,9178.553681
2574.977941,-612.876398,-0.000000,8956.491898
2574.978270,-1532.190996,-1332.370696,9474.636058
2574.978599,-1685.410096,-2220.617826,10288.862594
2574.978928,-2298.286494,-2220.617826,10066.800811
2574.979257,-2298.286494,-2146.597232,10881.027347
2574.979587,-842.705048,-222.061783,9400.615463
2574.979916,0.000000,-222.061783,10214.842000
2574.980245,383.047749,-666.185348,10288.862594
2574.980574,306.438199,-0.000000,9030.512492
2574.980903,2145.067394,222.061783,8142.265362
2574.981232,2528.115143,1036.288319,7105.977043
2574.981561,2298.286494,2146.597232,7402.059420
2574.981890,2145.067394,1998.556043,8882.471304
2574.982219,0.000000,888.247130,8956.491898
2574.982548,-383.047749,-740.205942,9622.677246
2574.982877,-1072.533697,-1480.411884,10288.862594
2574.983207,-1991.848295,-2516.700203,10066.800811
2574.983536,-2068.457845,-2516.700203,10807.006753
2574.983865,-1149.143247,-1480.411884,10436.903782
2574.984194,153.219100,-296.082377,9992.780217
2574.984523,1455.581446,-740.205942,9474.636058
2574.984852,2221.676944,444.123565,8956.491898
2574.985181,2604.724693,592.164754,7698.141797
2574.985510,2987.772442,1406.391290,6661.853478
2574.985839,2911.162892,2294.638420,6809.894666
2574.986168,2374.896044,2368.659014,7920.203579
2574.986498,842.705048,1850.514855,8512.368333
2574.986827,-689.485948,814.226536,9696.697840
2574.987156,-1302.362347,-1480.411884,10362.883188
2574.987485,-1915.238745,-2590.720797,10288.862594
2574.987814,-1838.629195,-2664.741391,10288.862594
2574.988143,-1532.190996,-2590.720797,10510.924376
2574.988472,-612.876398,-1332.370696,10214.842000
2574.988801,0.000000,-444.123565,9252.574275
2574.989130,1838.629195,-296.082377,10362.883188
2574.989459,3064.381992,-0.000000,8216.285956
2574.989788,3677.258390,1480.411884,6957.935855
2574.990118,4213.525239,1702.473667,6957.935855
2574.990447,3907.087040,2220.617826,6883.915261
2574.990776,3830.477490,2664.741391,7698.141797
2574.991105,2298.286494,1480.411884,7624.121203
2574.991434,383.047749,-148.041188,9400.615463
2574.991763,-1378.971896,-1776.494261,10510.924376
2574.992092,-1915.238745,-2590.720797,10510.924376
2574.992421,-2757.943793,-3330.926739,11177.109724
2574.992750,-2374.896044,-2664.741391,11177.109724
2574.993079,-1072.533697,-1480.411884,9770.718434
2574.993408,-995.924147,-814.226536,9474.636058
2574.993738,1378.971896,-518.144159,9622.677246
2574.994067,2451.505594,370.102971,7994.224174
2574.994396,3294.210641,1480.411884,6883.915261
2574.994725,2834.553343,2368.659014,6735.874072
2574.995054,2145.067394,2368.659014,7328.038826
2574.995383,1072.533697,2368.659014,8438.347739
2574.995712,-536.266849,1554.432478,8882.471304
2574.996041,-1608.800546,-666.185348,10140.821405
2574.996370,-2451.505594,-2294.638420,11177.109724
2574.996699,-2681.334243,-2664.741391,10510.924376
2574.997028,-2451.505594,-2442.679609,10658.965565
2574.997358,-1915.238745,-1850.514855,9918.759623
2574.997687,-1378.971896,-962.267725,9770.718434
2574.998016,-76.609550,-148.041188,9400.615463
2574.998345,459.657299,-296.082377,9030.512492
2574.998674,2221.676944,-888.247130,8734.430116
2574.999003,2987.772442,1258.350101,5921.647536
2574.999332,3064.381992,1776.494261,6957.935855
2574.999661,2298.286494,2220.617826,6439.791695
2574.999990,2604.724693,2368.659014,7920.203579
2575.000319,383.047749,1406.391290,8660.409521
2575.000648,0.000000,-666.185348,9252.574275
2575.000978,-1378.971896,-1850.514855,10584.944971
2575.001307,-2374.896044,-2886.803174,10510.924376
2575.001636,-2221.676944,-2442.679609,11251.130318
2575.001965,-2221.676944,-1554.432478,10362.883188
2575.002294,-689.485948,-1110.308913,9696.697840
2575.002623,-383.047749,-962.267725,10066.800811
2575.002952,2068.457845,296.082377,9696.697840
2575.003281,2068.457845,814.226536,6809.894666
2575.003610,3140.991542,666.185348,7105.977043
2575.003939,2451.505594,2368.659014,6217.729913
2575.004268,1915.238745,2368.659014,7328.038826
2575.004597,229.828649,1554.432478,8364.327145
2575.004926,-1072.533697,-0.000000,9474.636058
2575.005255,-1455.581446,-1776.494261,10362.883188
2575.005584,-2451.505594,-2368.659014,10288.862594
2575.005913,-2221.676944,-3034.844362,10510.924376
2575.006242,-2221.676944,-2294.638420,10510.924376
2575.006571,-1455.581446,-1184.329507,10436.903782
2575.006900,-1225.752797,-666.185348,9400.615463
2575.007229,383.047749,148.041188,9770.718434
2575.007558,1072.533697,-592.164754,11103.089130
2575.007887,2298.286494,-0.000000,7994.224174
2575.008216,3447.429741,1850.514855,6661.853478
2575.008545,3140.991542,1702.473667,6217.729913
2575.008874,3753.867940,1554.432478,7179.997637
2575.009203,2298.286494,2738.761985,7772.162391
2575.009532,842.705048,222.061783,8512.368333
2575.009861,0.000000,-1110.308913,9474.636058
2575.010190,-1072.533697,-1702.473667,10732.986159
2575.010519,-2068.457845,-2960.823768,10362.883188
2575.010848,-1762.019645,-2516.700203,10807.006753
2575.011177,-1302.362347,-1554.432478,9844.739029
2575.011506,383.047749,-666.185348,9770.718434
2575.011835,2145.067394,-814.226536,9474.636058
2575.012164,2604.724693,1258.350101,8290.306550
2575.012493,3753.867940,1036.288319,7105.977043
2575.012822,3370.820191,1850.514855,6809.894666
2575.013151,2911.162892,2146.597232,7550.100608
2575.013480,1915.238745,2368.659014,7772.162391
2575.013809,-229.828649,962.267725,9474.636058
2575.014138,-995.924147,-814.226536,9918.759623
2575.014467,-1302.362347,-1998.556043,10881.027347
2575.014796,-2221.676944,-3182.885551,10584.944971
2575.015125,-1915.238745,-2294.638420,9918.759623
2575.015454,-1532.190996,-2442.679609,10584.944971
2575.015783,-1149.143247,-444.123565,9844.739029
2575.016112,0.000000,-0.000000,9548.656652
2575.016441,919.314598,-222.061783,10807.006753
2575.016770,1532.190996,-370.102971,9326.594869
2575.017099,2681.334243,1480.411884,7179.997637
2575.017428,3064.381992,1480.411884,6661.853478
2575.017757,2681.334243,2294.638420,7031.956449
2575.018086,2834.553343,2664.741391,7994.224174
2575.018415,1378.971896,1628.453072,7994.224174
2575.018744,-153.219100,222.061783,9178.553681
2575.019073,-766.095498,-1702.473667,10214.842000
2575.019402,-2068.457845,-2294.638420,10140.821405
2575.019731,-2068.457845,-2812.782580,10584.944971
2575.020060,-1762.019645,-1332.370696,9770.718434
2575.020389,-612.876398,-1036.288319,9400.615463
2575.020718,0.000000,-518.144159,9400.615463
2575.021047,1149.143247,-0.000000,10066.800811
2575.021376,1991.848295,370.102971,7402.059420
2575.021705,2987.772442,518.144159,7476.080014
2575.022034,2528.115143,2220.617826,6661.853478
2575.022363,1991.848295,2664.741391,7105.977043
2575.022692,1838.629195,2368.659014,8586.388927
2575.023021,0.000000,1110.308913,8290.306550
2575.023350,-383.047749,-592.164754,9474.636058
2575.023679,-1991.848295,-2442.679609,10658.965565
2575.024009,-2221.676944,-2960.823768,10584.944971
2575.024338,-2451.505594,-1776.494261,10436.903782
2575.024667,-1685.410096,-2072.576638,10658.965565
2575.024996,-1608.800546,-518.144159,9326.594869
2575.025325,-383.047749,-296.082377,9400.615463
2575.025654,383.047749,-296.082377,10140.821405
2575.025983,842.705048,-444.123565,8290.306550
2575.026312,2451.505594,370.102971,7624.121203
2575.026641,1838.629195,1036.288319,7031.956449
2575.026970,1378.971896,1924.535449,7179.997637
2575.027299,1072.533697,1850.514855,8290.306550
2575.027628,-229.828649,592.164754,8586.388927
2575.027957,-1072.533697,-1036.288319,9770.718434
2575.028286,-1608.800546,-1554.432478,10807.006753
2575.028615,-1838.629195,-2368.659014,10140.821405
2575.028944,-1762.019645,-2590.720797,10214.842000
2575.029273,-1378.971896,-1406.391290,9844.739029
2575.029602,-383.047749,-814.226536,9400.615463
2575.029931,536.266849,-814.226536,9918.759623
2575.030260,1532.190996,518.144159,8290.306550
2575.030589,2757.943793,296.082377,7179.997637
2575.030918,2604.724693,518.144159,6809.894666
2575.031247,2604.724693,1776.494261,6809.894666
2575.031576,1838.629195,1702.473667,7698.141797
2575.031905,383.047749,1702.473667,8142.265362
2575.032234,-306.438199,370.102971,9178.553681
2575.032563,-1762.019645,-1776.494261,10732.986159
2575.032892,-1762.019645,-2664.741391,9992.780217
2575.033221,-2068.457845,-2960.823768,10066.800811
2575.033550,-1685.410096,-2516.700203,10881.027347
2575.033879,-766.095498,-1406.391290,9992.780217
2575.034208,-229.828649,-370.102971,9992.780217
2575.034537,1762.019645,-222.061783,9844.739029
2575.034866,3064.381992,296.082377,7920.203579
2575.035195,4366.744339,1332.370696,7179.997637
2575.035524,3907.087040,2220.617826,6513.812290
2575.035853,3447.429741,2590.720797,7105.977043
2575.036182,2604.724693,2294.638420,8216.285956
2575.036511,1532.190996,2146.597232,8142.265362
2575.036840,76.609550,-370.102971,9696.697840
2575.037169,-1762.019645,-1702.473667,10881.027347
2575.037498,-1608.800546,-3330.926739,11547.212695
2575.037827,-1915.238745,-3923.091493,11103.089130
2575.038156,-1532.190996,-2442.679609,10436.903782
2575.038485,-842.705048,-1258.350101,10436.903782
2575.038814,0.000000,-592.164754,9992.780217
2575.039143,1915.238745,148.041188,10066.800811
2575.039472,2451.505594,592.164754,7846.182985
2575.039801,4519.963438,1480.411884,7328.038826
2575.040130,3370.820191,2960.823768,6069.688724
2575.040459,3294.210641,3034.844362,7105.977043
2575.040788,2145.067394,2664.741391,7920.203579
2575.041117,383.047749,1628.453072,7994.224174
2575.041446,-689.485948,-74.020594,9622.677246
2575.041775,-1838.629195,-1776.494261,10510.924376
2575.042104,-2145.067394,-3701.029710,11177.109724
2575.042433,-2451.505594,-2886.803174,9918.759623
2575.042762,-1532.190996,-2516.700203,11029.068536
2575.043091,-1838.629195,-1406.391290,9548.656652
2575.043420,-306.438199,-0.000000,9400.615463
2575.043749,-689.485948,148.041188,9104.533087
2575.044078,0.000000,-1332.370696,10362.883188
2575.044407,1762.019645,-0.000000,8290.306550
2575.044736,2068.457845,1332.370696,7254.018232
2575.045065,1838.629195,1702.473667,6809.894666
2575.045394,1378.971896,2294.638420,6883.915261
2575.045723,919.314598,1702.473667,8734.430116
2575.046052,-536.266849,592.164754,8734.430116
2575.046381,-459.657299,-1480.411884,9474.636058
2575.046710,-1608.800546,-2220.617826,10510.924376
2575.047040,-2451.505594,-3108.864956,10214.842000
2575.047369,-2451.505594,-2146.597232,10955.047942
2575.047698,-1302.362347,-814.226536,10140.821405
2575.048027,153.219100,-962.267725,9178.553681
2575.048356,1455.581446,-222.061783,9030.512492
2575.048685,2451.505594,1332.370696,7254.018232
2575.049014,2374.896044,518.144159,7105.977043
2575.049343,1762.019645,1480.411884,7105.977043
2575.049672,766.095498,2664.741391,7994.224174
2575.050001,-536.266849,1554.432478,8734.430116
2575.050330,-2221.676944,296.082377,9548.656652
2575.050659,-2757.943793,-1628.453072,11103.089130
2575.050988,-2604.724693,-2812.782580,11769.274478
2575.051317,-2911.162892,-3552.988522,10140.821405
2575.051646,-2298.286494,-3552.988522,10510.924376
2575.051975,-1915.238745,-1702.473667,10436.903782
2575.052304,-383.047749,296.082377,9474.636058
2575.052633,306.438199,-0.000000,10066.800811
2575.052962,2604.724693,-0.000000,9474.636058
2575.053291,3524.039291,888.247130,6661.853478
2575.053620,3370.820191,2294.638420,6957.935855
2575.053949,3983.696590,2146.597232,6069.688724
2575.054278,3677.258390,1850.514855,6587.832884
2575.054607,1838.629195,2664.741391,7772.162391
2575.054936,229.828649,888.247130,9178.553681
2575.055265,-1685.410096,-1850.514855,10584.944971
2575.055594,-2145.067394,-2368.659014,10807.006753
2575.055923,-2681.334243,-4441.235652,11621.233289
2575.056252,-2757.943793,-3034.844362,11325.150913
2575.056581,-766.095498,-2294.638420,10807.006753
2575.056910,0.000000,-1258.350101,9992.780217
2575.057239,2451.505594,-222.061783,9696.697840
2575.057568,3907.087040,666.185348,7550.100608
2575.057897,5439.278036,1258.350101,6513.812290
2575.058226,4519.963438,2738.761985,5921.647536
2575.058555,4826.401637,3182.885551,6587.832884
2575.058884,3753.867940,3182.885551,7254.018232
2575.059213,1455.581446,2220.617826,7624.121203
2575.059542,-153.219100,-0.000000,9918.759623
2575.059871,-2221.676944,-1776.494261,11103.089130
2575.060200,-2834.553343,-4145.153275,11547.212695
2575.060529,-2911.162892,-3775.050304,11695.253884
2575.060858,-2528.115143,-3552.988522,10584.944971
2575.061187,-1915.238745,-2072.576638,10658.965565
2575.061516,-995.924147,-518.144159,9178.553681
2575.061845,766.095498,-148.041188,9844.739029
2575.062174,2681.334243,-0.000000,9104.533087
2575.062503,3830.477490,1850.514855,6069.688724
2575.062832,4596.572988,2368.659014,6143.709319
2575.063161,3524.039291,2664.741391,5773.606348
2575.063490,3140.991542,2960.823768,7402.059420
2575.063819,612.876398,2294.638420,8290.306550
2575.064148,0.000000,-0.000000,8882.471304
2575.064477,-1608.800546,-1998.556043,10510.924376
2575.064806,-2757.943793,-3034.844362,11251.130318
2575.065135,-2451.505594,-3478.967927,10732.986159
2575.065464,-2911.162892,-2812.782580,10881.027347
2575.065793,-1991.848295,-1480.411884,9844.739029
2575.066122,-919.314598,-518.144159,9178.553681
2575.066451,-229.828649,-0.000000,9400.615463
2575.066780,766.095498,-518.144159,9992.780217
2575.067109,1302.362347,-0.000000,7624.121203
2575.067438,3217.601092,1924.535449,7179.997637
2575.067767,2374.896044,2516.700203,5477.523971
2575.068096,1608.800546,2590.720797,7402.059420
2575.068425,612.876398,2072.576638,9030.512492
2575.068754,-306.438199,444.123565,8734.430116
2575.069083,-1685.410096,-1850.514855,10658.965565
2575.069412,-1762.019645,-2738.761985,11473.192101
2575.069741,-3064.381992,-2960.823768,9844.739029
2575.070070,-2757.943793,-2368.659014,11843.295072
2575.070400,-1915.238745,-444.123565,10140.821405
2575.070729,-612.876398,-1110.308913,10140.821405
2575.071058,0.000000,-0.000000,10140.821405
2575.071387,1838.629195,444.123565,9474.636058
2575.071716,1608.800546,888.247130,6957.935855
2575.072045,2681.334243,1332.370696,7402.059420
2575.072374,2145.067394,2294.638420,6587.832884
2575.072703,1838.629195,2516.700203,8290.306550
2575.073032,383.047749,1628.453072,8808.450710
2575.073361,0.000000,-666.185348,9474.636058
2575.073690,-1072.533697,-1924.535449,10288.862594
2575.074019,-2068.457845,-3330.926739,10066.800811
2575.074348,-1838.629195,-3256.906145,10881.027347
2575.074677,-2068.457845,-2220.617826,10732.986159
2575.075006,-459.657299,-222.061783,9474.636058
2575.075335,766.095498,-592.164754,9400.615463
2575.075664,1991.848295,-0.000000,9474.636058
2575.075993,2374.896044,1628.453072,7698.141797
2575.076322,3600.648841,1184.329507,6883.915261
2575.076651,2911.162892,2368.659014,6513.812290
2575.076980,3370.820191,2442.679609,6957.935855
2575.077309,1762.019645,2516.700203,8142.265362
2575.077638,153.219100,666.185348,8660.409521
2575.077967,0.000000,-1554.432478,10140.821405
2575.078296,-1378.971896,-3108.864956,10214.842000
2575.078625,-2451.505594,-3256.906145,11103.089130
2575.078954,-1991.848295,-3627.009116,10807.006753
2575.079283,-1608.800546,-2442.679609,10732.986159
2575.079612,-383.047749,-1036.288319,9918.759623
2575.079941,919.314598,222.061783,10066.800811
2575.080270,2681.334243,444.123565,9030.512492
2575.080599,4443.353888,444.123565,7698.141797
2575.080928,4673.182538,2220.617826,6439.791695
2575.081257,4290.134789,2442.679609,7031.956449
2575.081586,3830.477490,2738.761985,6957.935855
2575.081915,2451.505594,2516.700203,7550.100608
2575.082244,383.047749,518.144159,8438.347739
2575.082573,-995.924147,-1480.411884,9992.780217
2575.082902,-1915.238745,-3627.009116,11103.089130
2575.083231,-2528.115143,-3775.050304,11769.274478
2575.083560,-2298.286494,-3034.844362,10732.986159
2575.083889,-1532.190996,-2368.659014,10510.924376
2575.084218,-689.485948,-518.144159,9326.594869
2575.084547,689.485948,-370.102971,9696.697840
2575.084876,1762.019645,-0.000000,9474.636058
2575.085205,2757.943793,1554.432478,7328.038826
2575.085534,3524.039291,1924.535449,7550.100608
2575.085863,2528.115143,2738.761985,5995.668130
2575.086192,2451.505594,3108.864956,7328.038826
2575.086521,842.705048,2146.597232,8142.265362
2575.086850,-306.438199,888.247130,8216.285956
2575.087179,-536.266849,-1110.308913,10362.883188
2575.087508,-2068.457845,-2590.720797,10955.047942
2575.087837,-2451.505594,-3182.885551,10658.965565
2575.088166,-2528.115143,-2738.761985,10807.006753
2575.088495,-1532.190996,-1776.494261,9918.759623
2575.088824,-1149.143247,-814.226536,9326.594869
2575.089153,-153.219100,518.144159,9918.759623
2575.089482,229.828649,-888.247130,10510.924376
2575.089811,1838.629195,-222.061783,8882.471304
2575.090140,2604.724693,1850.514855,7105.977043
2575.090469,2528.115143,2368.659014,6439.791695
2575.090798,1838.629195,2664.741391,7254.018232
2575.091127,1455.581446,2294.638420,8512.368333
2575.091456,0.000000,518.144159,9030.512492
2575.091785,-766.095498,-1258.350101,9326.594869
2575.092114,-1378.971896,-2146.597232,11103.089130
2575.092443,-2451.505594,-2738.761985,10288.862594
2575.092772,-2298.286494,-2886.803174,10584.944971
2575.093101,-1762.019645,-888.247130,9918.759623
2575.093431,-383.047749,-1332.370696,9770.718434
2575.093760,0.000000,-1332.370696,10288.862594
2575.094089,1149.143247,518.144159,8512.368333
2575.094418,1225.752797,962.267725,6809.894666
2575.094747,2221.676944,1406.391290,7994.224174
2575.095076,1991.848295,2516.700203,7031.956449
2575.095405,1072.533697,2886.803174,8290.306550
2575.095734,-306.438199,1184.329507,9178.553681
2575.096063,-689.485948,-370.102971,9326.594869
2575.096392,-1225.752797,-1776.494261,9844.739029
2575.096721,-2068.457845,-2442.679609,10066.800811
2575.097050,-1685.410096,-3108.864956,10584.944971
2575.097379,-1762.019645,-2294.638420,10214.842000
2575.097708,-383.047749,-740.205942,9696.697840
2575.098037,383.047749,-592.164754,9178.553681
2575.098366,1762.019645,-0.000000,8882.471304
2575.098695,2834.553343,592.164754,7476.080014
2575.099024,3753.867940,1406.391290,7550.100608
2575.099353,2834.553343,2516.700203,7105.977043
2575.099682,2451.505594,1998.556043,7254.018232
2575.100011,1455.581446,2072.576638,8586.388927
2575.100340,-612.876398,370.102971,9104.533087
2575.100669,-842.705048,-1702.473667,9992.780217
2575.100998,-1915.238745,-3256.906145,10584.944971
2575.101327,-1762.019645,-3034.844362,11473.192101
2575.101656,-1838.629195,-3182.885551,10584.944971
2575.101985,-1225.752797,-2442.679609,9992.780217
2575.102314,536.266849,-740.205942,9178.553681
2575.102643,2298.286494,-0.000000,8512.368333
2575.102972,4213.525239,518.144159,7846.182985
2575.103301,3600.648841,1406.391290,7031.956449
2575.103630,4596.572988,2146.597232,6883.915261
2575.103959,3907.087040,2886.803174,6513.812290
2575.104288,2681.334243,2738.761985,7179.997637
2575.104617,1378.971896,1332.370696,8586.388927
2575.104946,-459.657299,-74.020594,9696.697840
2575.105275,-2221.676944,-1628.453072,10658.965565
2575.105604,-2221.676944,-3775.050304,11917.315666
2575.105933,-2987.772442,-3627.009116,10807.006753
2575.106262,-2221.676944,-2664.741391,11473.192101
2575.106591,-1532.190996,-1036.288319,9474.636058
2575.106920,-229.828649,-148.041188,8808.450710
2575.107249,766.095498,-814.226536,9844.739029
2575.107578,2298.286494,222.061783,9252.574275
2575.107907,3983.696590,814.226536,7105.977043
2575.108236,4060.306139,1628.453072,5995.668130
2575.108565,2528.115143,2738.761985,6217.729913
2575.108894,3370.820191,2516.700203,7920.203579
2575.109223,1072.533697,2516.700203,7624.121203
2575.109552,76.609550,148.041188,9104.533087
2575.109881,-1455.581446,-1702.473667,10881.027347
2575.110210,-2987.772442,-2442.679609,10955.047942
2575.110540,-3064.381992,-3034.844362,11029.068536
2575.110869,-2834.553343,-1850.514855,10955.047942
2575.111198,-1915.238745,-1258.350101,10436.903782
2575.111527,-995.924147,-592.164754,9770.718434
2575.111856,0.000000,666.185348,9474.636058
2575.112185,919.314598,-296.082377,9992.780217
2575.112514,1685.410096,444.123565,6809.894666
2575.112843,3217.601092,1776.494261,7920.203579
2575.113172,2221.676944,1850.514855,6957.935855
2575.113501,2145.067394,2664.741391,7624.121203
2575.113830,306.438199,1702.473667,8660.409521
2575.114159,-306.438199,370.102971,8882.471304
2575.114488,-1302.362347,-1332.370696,9622.677246
2575.114817,-1762.019645,-2220.617826,10584.944971
2575.115146,-2451.505594,-3256.906145,11325.150913
2575.115475,-2911.162892,-2590.720797,11029.068536
2575.115804,-1225.752797,-1036.288319,9918.759623
2575.116133,-766.095498,-518.144159,9326.594869
2575.116462,383.047749,-74.020594,10066.800811
2575.116791,1608.800546,444.123565,8142.265362
2575.117120,2604.724693,518.144159,7254.018232
2575.117449,2987.772442,1258.350101,6735.874072
2575.117778,2911.162892,2368.659014,6809.894666
2575.118107,1685.410096,2220.617826,8142.265362
2575.118436,-229.828649,1332.370696,8734.430116
2575.118765,-766.095498,-296.082377,9178.553681
2575.119094,-1532.190996,-1850.514855,10362.883188
2575.119423,-1991.848295,-3256.906145,10436.903782
2575.119752,-1838.629195,-2516.700203,10288.862594
2575.120081,-1532.190996,-2072.576638,10066.800811
2575.120410,-919.314598,-888.247130,9252.574275
2575.120739,-306.438199,-740.205942,9326.594869
2575.121068,1149.143247,-296.082377,9622.677246
2575.121397,2681.334243,222.061783,7476.080014
2575.121726,3447.429741,1332.370696,7105.977043
2575.122055,2757.943793,2294.638420,6143.709319
2575.122384,2604.724693,1776.494261,7624.121203
2575.122713,1532.190996,1850.514855,8216.285956
2575.123042,0.000000,814.226536,8586.388927
2575.123371,-612.876398,-1036.288319,10140.821405
2575.123701,-1915.238745,-1998.556043,10658.965565
2575.124030,-1608.800546,-3552.988522,11843.295072
2575.124359,-1685.410096,-3478.967927,10436.903782
2575.124688,-919.314598,-1776.494261,10584.944971
2575.125017,-766.095498,-1332.370696,10066.800811
2575.125346,919.314598,-444.123565,10362.883188
2575.125675,2374.896044,518.144159,9252.574275
2575.126004,3753.867940,962.267725,7254.018232
2575.126333,4826.401637,1554.432478,6957.935855
2575.126662,3217.601092,2738.761985,7105.977043
2575.126991,3217.601092,2590.720797,7772.162391
2575.127320,1455.581446,2368.659014,8512.368333
2575.127649,536.266849,296.082377,9104.533087
2575.127978,-995.924147,-1258.350101,10510.924376
2575.128307,-1915.238745,-2886.803174,11325.150913
2575.128636,-2145.067394,-3330.926739,11547.212695
2575.128965,-1762.019645,-2442.679609,10658.965565
2575.129294,-1072.533697,-1628.453072,10288.862594
2575.129623,-459.657299,-0.000000,9252.574275
2575.129952,1072.533697,-0.000000,10066.800811
2575.130281,2221.676944,444.123565,8438.347739
2575.130610,2987.772442,1258.350101,6883.915261
2575.130939,3447.429741,2146.597232,6439.791695
2575.131268,2911.162892,3256.906145,7624.121203
2575.131597,2374.896044,2738.761985,7920.203579
2575.131926,689.485948,2220.617826,7846.182985
2575.132255,-153.219100,-0.000000,8956.491898
2575.132584,-1762.019645,-1332.370696,10362.883188
2575.132913,-1915.238745,-2664.741391,11177.109724
2575.133242,-2374.896044,-2886.803174,10066.800811
2575.133571,-2068.457845,-2590.720797,10288.862594
2575.133900,-995.924147,-1554.432478,10362.883188
2575.134229,-1149.143247,-518.144159,9474.636058
2575.134558,-612.876398,370.102971,9326.594869
2575.134887,153.219100,-1036.288319,10362.883188
2575.135216,1532.190996,148.041188,7772.162391
2575.135545,3370.820191,1554.432478,7254.018232
2575.135874,2911.162892,1776.494261,6513.812290
2575.136203,2221.676944,2738.761985,6883.915261
2575.136533,1532.190996,2368.659014,8586.388927
2575.136862,0.000000,962.267725,8438.347739
2575.137191,0.000000,-888.247130,9400.615463
2575.137520,-995.924147,-2146.597232,10362.883188
2575.137849,-2221.676944,-2960.823768,10732.986159
2575.138178,-2145.067394,-3552.988522,11325.150913
2575.138507,-1378.971896,-888.247130,10288.862594
2575.138836,-766.095498,-962.267725,9770.718434
2575.139165,-536.266849,-518.144159,9696.697840
2575.139494,842.705048,518.144159,9400.615463
2575.139823,1072.533697,222.061783,7476.080014
2575.140152,2374.896044,296.082377,7772.162391
2575.140481,1915.238745,2220.617826,7328.038826
2575.140810,995.924147,2220.617826,7698.141797
2575.141139,-306.438199,2072.576638,9178.553681
2575.141468,-689.485948,-0.000000,9030.512492
2575.141797,-1072.533697,-1554.432478,9770.718434
2575.142126,-1532.190996,-2220.617826,9548.656652
2575.142455,-1149.143247,-2812.782580,9844.739029
2575.142784,-1302.362347,-2960.823768,10288.862594
2575.143113,-842.705048,-1110.308913,9474.636058
2575.143442,-153.219100,-1184.329507,9474.636058
2575.143771,842.705048,-518.144159,9696.697840
2575.144100,1685.410096,296.082377,8068.244768
2575.144429,2604.724693,740.205942,7402.059420
2575.144758,3677.258390,1776.494261,6661.853478
2575.145087,3677.258390,2368.659014,7031.956449
2575.145416,2528.115143,1998.556043,7624.121203
2575.145745,919.314598,1332.370696,8734.430116
2575.146074,153.219100,-962.267725,9696.697840
2575.146403,-689.485948,-2072.576638,9770.718434
2575.146732,-1455.581446,-2590.720797,10658.965565
2575.147061,-1532.190996,-3182.885551,11029.068536
2575.147390,-1149.143247,-2516.700203,10214.842000
2575.147719,-459.657299,-1554.432478,9844.739029
2575.148048,766.095498,-888.247130,9178.553681
2575.148377,1532.190996,-0.000000,8956.491898
2575.148706,2987.772442,518.144159,8438.347739
2575.149035,3370.820191,1702.473667,6883.915261
2575.149364,2834.553343,2072.576638,7624.121203
2575.149694,2834.553343,2294.638420,7328.038826
2575.150023,1685.410096,1998.556043,8142.265362
2575.150352,-459.657299,814.226536,9844.739029
2575.150681,-689.485948,-518.144159,9770.718434
2575.151010,-1608.800546,-2220.617826,10288.862594
2575.151339,-1991.848295,-2442.679609,11103.089130
2575.151668,-1608.800546,-2442.679609,10436.903782
2575.151997,-995.924147,-1628.453072,10362.883188
2575.152326,-383.047749,-814.226536,8882.471304
2575.152655,842.705048,-296.082377,9770.718434
2575.152984,1915.238745,296.082377,8808.450710
2575.153313,2987.772442,1332.370696,7254.018232
2575.153642,3370.820191,1998.556043,7179.997637
2575.153971,3064.381992,3034.844362,7179.997637
2575.154300,2757.943793,3404.947333,7772.162391
2575.154629,1455.581446,2146.597232,8142.265362
2575.154958,0.000000,666.185348,9622.677246
2575.155287,-995.924147,-1406.391290,10510.924376
2575.155616,-2298.286494,-2294.638420,10362.883188
2575.155945,-2221.676944,-2664.741391,10955.047942
2575.156274,-1915.238745,-2664.741391,9770.718434
2575.156603,-919.314598,-1628.453072,9992.780217
2575.156932,-1302.362347,-666.185348,9696.697840
2575.157261,-306.438199,-888.247130,9474.636058
2575.157590,76.609550,-962.267725,10140.821405
2575.157919,1225.752797,-0.000000,7772.162391
2575.158248,2298.286494,1332.370696,7328.038826
2575.158577,2145.067394,2072.576638,6587.832884
2575.158906,1838.629195,2072.576638,7846.182985
2575.159235,306.438199,2220.617826,8438.347739
2575.159564,-766.095498,-0.000000,8956.491898
2575.159893,-1302.362347,-1406.391290,10140.821405
2575.160222,-2221.676944,-2664.741391,11029.068536
2575.160551,-3064.381992,-2590.720797,10288.862594
2575.160880,-2681.334243,-3256.906145,10436.903782
2575.161209,-1838.629195,-1998.556043,10066.800811
2575.161538,-536.266849,-1110.308913,9696.697840
2575.161867,689.485948,-222.061783,9918.759623
2575.162196,1838.629195,-148.041188,8586.388927
2575.162526,3294.210641,740.205942,6513.812290
2575.162855,3600.648841,1924.535449,6365.771101
2575.163184,2757.943793,2960.823768,6513.812290
2575.163513,2911.162892,3478.967927,7772.162391
2575.163842,919.314598,1850.514855,8512.368333
2575.164171,919.314598,370.102971,8734.430116
2575.164500,-919.314598,-1702.473667,10362.883188
2575.164829,-2298.286494,-2220.617826,10214.842000
2575.165158,-2451.505594,-3478.967927,11103.089130
2575.165487,-2451.505594,-2590.720797,10807.006753
2575.165816,-1302.362347,-1702.473667,10214.842000
2575.166145,0.000000,-814.226536,9770.718434
2575.166474,995.924147,-814.226536,9178.553681
2575.166803,2451.505594,1184.329507,8808.450710
2575.167132,3677.258390,666.185348,7105.977043
2575.167461,2681.334243,2220.617826,5847.626942
2575.167790,3140.991542,2146.597232,7772.162391
2575.168119,2451.505594,2516.700203,8364.327145
2575.168448,153.219100,1332.370696,8956.491898
2575.168777,-229.828649,-370.102971,10510.924376
2575.169106,-1685.410096,-2368.659014,10362.883188
2575.169435,-2298.286494,-2738.761985,11177.109724
2575.169764,-1991.848295,-3330.926739,10955.047942
2575.170093,-2068.457845,-2590.720797,10584.944971
2575.170422,-995.924147,-1998.556043,10140.821405
2575.170751,1302.362347,-518.144159,9104.533087
2575.171080,2451.505594,-0.000000,8660.409521
2575.171409,3677.258390,518.144159,7846.182985
2575.171738,4060.306139,1702.473667,6735.874072
2575.172067,3907.087040,2368.659014,7031.956449
2575.172396,2757.943793,2294.638420,7328.038826
2575.172725,2145.067394,2294.638420,8068.244768
2575.173054,536.266849,962.267725,9326.594869
2575.173383,-306.438199,-666.185348,9918.759623
2575.173712,-1838.629195,-2368.659014,11103.089130
2575.174041,-2451.505594,-2664.741391,10732.986159
2575.174370,-2221.676944,-2590.720797,10732.986159
2575.174699,-1838.629195,-1850.514855,9770.718434
2575.175028,-689.485948,-592.164754,9548.656652
2575.175357,612.876398,-444.123565,9400.615463
2575.175687,1762.019645,-148.041188,7846.182985
2575.176016,2757.943793,1110.308913,7105.977043
2575.176345,2757.943793,1702.473667,6439.791695
2575.176674,2681.334243,2072.576638,6513.812290
2575.177003,2221.676944,2146.597232,7402.059420
2575.177332,995.924147,1628.453072,8142.265362
2575.177661,-995.924147,-148.041188,9400.615463
2575.177990,-1608.800546,-1406.391290,9844.739029
2575.178319,-2451.505594,-2442.679609,10658.965565
2575.178648,-2604.724693,-2886.803174,11251.130318
2575.178977,-2681.334243,-2368.659014,10066.800811
2575.179306,-1762.019645,-1998.556043,9992.780217
2575.179635,-919.314598,-888.247130,9474.636058
2575.179964,612.876398,-148.041188,9474.636058
2575.180293,1915.238745,888.247130,8438.347739
2575.180622,2911.162892,1406.391290,7402.059420
2575.180951,2681.334243,2442.679609,7031.956449
2575.181280,2987.772442,2368.659014,7476.080014
2575.181609,2221.676944,2368.659014,7328.038826
2575.181938,0.000000,962.267725,8808.450710
2575.182267,-612.876398,-1110.308913,10362.883188
2575.182596,-2221.676944,-1776.494261,10584.944971
2575.182925,-3064.381992,-2738.761985,11621.233289
2575.183254,-2911.162892,-2960.823768,11251.130318
2575.183583,-2145.067394,-2072.576638,10362.883188
2575.183912,-1455.581446,-592.164754,10140.821405
2575.184241,459.657299,740.205942,10288.862594
2575.184570,1225.752797,-0.000000,9474.636058
2575.184899,3217.601092,962.267725,7994.224174
2575.185228,3830.477490,1702.473667,6587.832884
2575.185557,2451.505594,2590.720797,6883.915261
2575.185886,2374.896044,2664.741391,7550.100608
2575.186215,1685.410096,2220.617826,8216.285956
2575.186544,0.000000,1258.350101,8882.471304
2575.186873,-995.924147,-592.164754,9844.739029
2575.187202,-1991.848295,-2368.659014,10658.965565
2575.187531,-2451.505594,-3182.885551,11399.171507
2575.187860,-2757.943793,-2590.720797,10362.883188
2575.188189,-2221.676944,-2738.761985,10436.903782
2575.188519,-1302.362347,-1184.329507,10066.800811
2575.188848,306.438199,-222.061783,9622.677246
2575.189177,1532.190996,-518.144159,9474.636058
2575.189506,2834.553343,518.144159,6809.894666
2575.189835,3983.696590,1184.329507,6735.874072
2575.190164,3217.601092,2294.638420,6439.791695
2575.190493,3217.601092,2368.659014,7105.977043
2575.190822,1455.581446,2220.617826,7550.100608
2575.191151,1072.533697,1184.329507,8290.306550
2575.191480,0.000000,-1332.370696,10066.800811
2575.191809,-1225.752797,-2368.659014,10066.800811
2575.192138,-2145.067394,-3404.947333,11029.068536
2575.192467,-2298.286494,-2960.823768,11103.089130
2575.192796,-1455.581446,-2220.617826,10288.862594
2575.193125,0.000000,-1332.370696,10584.944971
2575.193454,1455.581446,-370.102971,8882.471304
2575.193783,3370.820191,-0.000000,8438.347739
2575.194112,3600.648841,-0.000000,6957.935855
2575.194441,3907.087040,1924.535449,6513.812290
2575.194770,3140.991542,2220.617826,7105.977043
2575.195099,2298.286494,2442.679609,7328.038826
2575.195428,306.438199,1628.453072,9104.533087
2575.195757,-842.705048,148.041188,9326.594869
2575.196086,-2145.067394,-1554.432478,10658.965565
2575.196415,-2068.457845,-2738.761985,11547.212695
2575.196744,-2221.676944,-2812.782580,10362.883188
2575.197073,-1915.238745,-2368.659014,10510.924376
2575.197402,-1455.581446,-1406.391290,10066.800811
2575.197731,-612.876398,-222.061783,9326.594869
2575.198060,1302.362347,-0.000000,10214.842000
2575.198389,2987.772442,296.082377,7846.182985
2575.198718,4366.744339,1480.411884,7105.977043
2575.199047,3907.087040,2368.659014,6291.750507
2575.199376,3753.867940,2960.823768,6439.791695
2575.199705,2528.115143,2738.761985,7698.141797
2575.200034,842.705048,1924.535449,8660.409521
2575.200363,0.000000,-148.041188,9992.780217
2575.200692,-2451.505594,-2220.617826,11103.089130
2575.201021,-2528.115143,-3256.906145,11843.295072
2575.201351,-2528.115143,-3034.844362,10510.924376
2575.201680,-2298.286494,-2368.659014,10510.924376
2575.202009,-1608.800546,-1036.288319,10214.842000
2575.202338,-459.657299,-0.000000,9622.677246
2575.202667,766.095498,-296.082377,10436.903782
2575.202996,1991.848295,-666.185348,8512.368333
2575.203325,3600.648841,814.226536,7179.997637
2575.203654,3064.381992,2220.617826,6809.894666
2575.203983,2604.724693,2738.761985,6661.853478
2575.204312,1991.848295,2368.659014,8364.327145
2575.204641,0.000000,2368.659014,8216.285956
2575.204970,-383.047749,370.102971,9548.656652
2575.205299,-1762.019645,-2146.597232,10807.006753
2575.205628,-2068.457845,-2812.782580,10881.027347
2575.205957,-2528.115143,-2960.823768,9918.759623
2575.206286,-2451.505594,-2960.823768,10881.027347
2575.206615,-1838.629195,-1406.391290,10066.800811
2575.206944,-689.485948,-666.185348,9400.615463
2575.207273,0.000000,148.041188,9178.553681
2575.207602,689.485948,-518.144159,10066.800811
2575.207931,1991.848295,-222.061783,7328.038826
2575.208260,2834.553343,2220.617826,6957.935855
2575.208589,2451.505594,2220.617826,6365.771101
2575.208918,2451.505594,2812.782580,7328.038826
2575.209247,1072.533697,2220.617826,7994.224174
2575.209576,0.000000,592.164754,9030.512492
2575.209905,-153.219100,-1036.288319,9770.718434
2575.210234,-1378.971896,-2368.659014,10140.821405
2575.210563,-2451.505594,-3108.864956,10732.986159
2575.210892,-2221.676944,-1998.556043,10510.924376
2575.211221,-1225.752797,-1184.329507,9992.780217
2575.211550,-536.266849,-1480.411884,9400.615463
2575.211879,536.266849,-962.267725,10066.800811
2575.212208,1762.019645,-222.061783,8290.306550
2575.212537,1762.019645,592.164754,7328.038826
2575.212866,2451.505594,1184.329507,7105.977043
2575.213195,1838.629195,2738.761985,7031.956449
2575.213524,689.485948,2368.659014,8290.306550
2575.213853,0.000000,888.247130,9030.512492
2575.214182,-612.876398,-962.267725,10436.903782
2575.214511,-1378.971896,-2368.659014,10807.006753
2575.214840,-2068.457845,-3478.967927,10807.006753
2575.215169,-2221.676944,-3404.947333,10732.986159
2575.215498,-1915.238745,-2294.638420,10807.006753
2575.215827,-536.266849,-1036.288319,10584.944971
2575.216156,1072.533697,-0.000000,9178.553681
2575.216485,2681.334243,-0.000000,8734.430116
2575.216814,4290.134789,888.247130,7698.141797
2575.217143,4519.963438,1628.453072,6883.915261
2575.217472,4290.134789,2442.679609,7105.977043
2575.217801,4290.134789,3034.844362,7031.956449
2575.218130,2987.772442,3034.844362,7624.121203
2575.218459,1149.143247,1406.391290,8734.430116
2575.218788,-229.828649,-814.226536,9696.697840
2575.219117,-1225.752797,-2664.741391,10955.047942
2575.219446,-1991.848295,-2886.803174,10732.986159
2575.219775,-2221.676944,-3330.926739,11621.233289
2575.220104,-1455.581446,-1998.556043,10362.883188
2575.220433,-383.047749,-814.226536,10214.842000
2575.220762,1608.800546,-222.061783,9622.677246
2575.221091,2604.724693,814.226536,7698.141797
2575.221420,4290.134789,666.185348,7105.977043
2575.221749,4519.963438,2368.659014,7254.018232
2575.222078,4213.525239,2442.679609,6883.915261
2575.222407,2528.115143,2442.679609,7031.956449
2575.222736,1762.019645,2220.617826,7846.182985
2575.223065,-306.438199,148.041188,8586.388927
2575.223394,-995.924147,-592.164754,9474.636058
2575.223723,-1378.971896,-2812.782580,10881.027347
2575.224052,-2834.553343,-4071.132681,11103.089130
2575.224381,-3064.381992,-3182.885551,10362.883188
2575.224710,-2298.286494,-2294.638420,10955.047942
2575.225039,-1762.019645,-1110.308913,9178.553681
2575.225368,-459.657299,-74.020594,9178.553681
2575.225697,689.485948,-222.061783,10658.965565
2575.226026,2374.896044,1036.288319,7105.977043
2575.226355,3294.210641,1480.411884,7550.100608
2575.226684,2681.334243,2516.700203,6587.832884
2575.227013,2834.553343,2664.741391,7328.038826
2575.227342,995.924147,2220.617826,8216.285956
2575.227671,0.000000,1258.350101,8734.430116
2575.228000,-919.314598,-1924.535449,10658.965565
2575.228329,-2451.505594,-1554.432478,10436.903782
2575.228658,-2451.505594,-3034.844362,11103.089130
2575.228987,-2911.162892,-3256.906145,10807.006753
2575.229316,-1915.238745,-1406.391290,9918.759623
2575.229645,-1072.533697,-888.247130,9474.636058
2575.229974,-229.828649,-592.164754,9104.533087
2575.230303,459.657299,518.144159,9548.656652
2575.230632,1685.410096,962.267725,7328.038826
2575.230961,2528.115143,1036.288319,7031.956449
2575.231290,1762.019645,1924.535449,6809.894666
2575.231619,1455.581446,2368.659014,7402.059420
2575.231948,-383.047749,1924.535449,8734.430116
2575.232277,-995.924147,444.123565,9400.615463
2575.232606,-1838.629195,-1332.370696,9844.739029
2575.232935,-2221.676944,-2590.720797,10584.944971
2575.233264,-2451.505594,-3108.864956,9622.677246
2575.233593,-3140.991542,-2590.720797,10584.944971
2575.233922,-2451.505594,-1258.350101,9474.636058
2575.234251,-1378.971896,-666.185348,8808.450710
2575.234580,-1225.752797,-74.020594,8734.430116
2575.234909,-689.485948,-0.000000,9252.574275
2575.235238,-383.047749,-148.041188,7179.997637
2575.235567,-383.047749,1258.350101,7105.977043
2575.235896,-612.876398,1480.411884,7476.080014
2575.236225,-1532.190996,1702.473667,7772.162391
2575.236554,-3217.601092,1184.329507,9474.636058
2575.236883,-3370.820191,-740.205942,10140.821405
2575.237212,-2834.553343,-1924.535449,10066.800811
2575.237541,-2451.505594,-2072.576638,9326.594869
2575.237870,-3753.867940,-2590.720797,9770.718434
2575.238199,-3600.648841,-2442.679609,10807.006753
2575.238528,-2604.724693,-592.164754,10066.800811
2575.238857,-1532.190996,-222.061783,9400.615463
2575.239186,-766.095498,518.144159,8216.285956
2575.239515,-842.705048,666.185348,8438.347739
2575.239844,-1991.848295,-962.267725,9622.677246
2575.240173,-229.828649,-666.185348,9622.677246
2575.240502,-612.876398,1554.432478,7031.956449
2575.240831,-536.266849,962.267725,7920.203579
2575.241160,-1685.410096,1924.535449,8216.285956
2575.241489,-2451.505594,1110.308913,9474.636058
2575.241818,-3064.381992,1184.329507,9474.636058
2575.242147,-1532.190996,-148.041188,9474.636058
2575.242476,-1991.848295,-0.000000,8586.388927
2575.242805,-1762.019645,-1036.288319,9622.677246
2575.243134,-2068.457845,-1406.391290,10066.800811
2575.243463,-1915.238745,-1036.288319,9696.697840
2575.243792,-1455.581446,-222.061783,8956.491898
2575.244121,-1532.190996,-0.000000,9474.636058
2575.244450,-1991.848295,370.102971,9696.697840
2575.244779,-766.095498,1554.432478,7105.977043
2575.245108,-766.095498,1110.308913,8068.244768
2575.245437,-1455.581446,1110.308913,7402.059420
2575.245766,-2604.724693,814.226536,8290.306550
2575.246095,-4136.915689,-1036.288319,10066.800811
2575.246424,-4826.401637,-1554.432478,9992.780217
2575.246753,-4213.525239,-1702.473667,8956.491898
2575.247082,-5745.716235,-2664.741391,10066.800811
2575.247411,-6511.811733,-2812.782580,11473.192101
2575.247740,-6588.421283,-2368.659014,11843.295072
2575.248069,-4979.620737,-1258.350101,10955.047942
2575.248398,-3753.867940,-518.144159,9326.594869
2575.248727,-2221.676944,444.123565,8808.450710
2575.249056,-1532.190996,2294.638420,6809.894666
2575.249385,-1532.190996,2146.597232,7476.080014
2575.249714,0.000000,-222.061783,11177.109724
2575.250043,919.314598,1850.514855,5995.668130
2575.250372,2145.067394,1998.556043,6661.853478
2575.250701,-766.095498,1184.329507,5921.647536
2575.251030,-1915.238745,666.185348,7994.224174
2575.251359,-3064.381992,-1110.308913,10362.883188
2575.251688,-2911.162892,-1184.329507,9622.677246
2575.252017,-2068.457845,-1702.473667,9844.739029
2575.252346,-3753.867940,-296.082377,9252.574275
2575.252675,-4903.011187,-814.226536,9548.656652
2575.253004,-6128.763984,-814.226536,10807.006753
2575.253333,-4903.011187,-444.123565,10584.944971
2575.253662,-3983.696590,-888.247130,9474.636058
2575.253991,-2987.772442,-444.123565,9252.574275
2575.254320,-2911.162892,666.185348,8290.306550
2575.254649,-2681.334243,-1184.329507,7624.121203
2575.254978,-1991.848295,-1110.308913,8364.327145
2575.255307,-2068.457845,444.123565,8512.368333
2575.255636,-1225.752797,-1480.411884,9178.553681
2575.255965,-2681.334243,-518.144159,9400.615463
2575.256294,-2221.676944,-148.041188,9844.739029
2575.256623,-2911.162892,-1110.308913,9178.553681
2575.256952,-2604.724693,-962.267725,9622.677246
2575.257281,-2528.115143,518.144159,9548.656652
2575.257610,-2298.286494,148.041188,9918.759623
2575.257939,-1762.019645,1554.432478,8882.471304
2575.258268,-2145.067394,1776.494261,8438.347739
2575.258597,-1608.800546,962.267725,8216.285956
2575.258926,-1762.019645,962.267725,7624.121203
2575.259255,-1915.238745,592.164754,8142.265362
2575.259584,-2451.505594,148.041188,7846.182985
2575.259913,-2681.334243,518.144159,8438.347739
2575.260242,-2987.772442,-0.000000,8142.265362
2575.260571,-2987.772442,1110.308913,8438.347739
2575.260900,-2528.115143,962.267725,8956.491898
2575.261229,-2528.115143,814.226536,9548.656652
2575.261558,-2298.286494,1998.556043,9178.553681
2575.261887,-2757.943793,1628.453072,9474.636058
2575.262216,-3524.039291,1332.370696,10732.986159
2575.262545,-2757.943793,444.123565,11251.130318
2575.262874,-2221.676944,370.102971,10436.903782
2575.263203,-1225.752797,-296.082377,10584.944971
2575.263532,-1072.533697,962.267725,9474.636058
2575.263861,-1225.752797,1110.308913,9474.636058
2575.264190,-1072.533697,2368.659014,10066.800811
2575.264519,689.485948,962.267725,9918.759623
2575.264848,2528.115143,3256.906145,7031.956449
2575.265177,3217.601092,3775.050304,6513.812290
2575.265506,2374.896044,4515.256246,6143.709319
2575.265836,2604.724693,4515.256246,6439.791695
2575.266165,2528.115143,4959.379811,7846.182985
2575.266494,1915.238745,2812.782580,8586.388927
2575.266823,1225.752797,3034.844362,9696.697840
2575.267152,-536.266849,1702.473667,10658.965565
2575.267481,-1608.800546,1702.473667,9918.759623
2575.267810,-1455.581446,1554.432478,11547.212695
2575.268139,-995.924147,1850.514855,10362.883188
2575.268468,-229.828649,2146.597232,10066.800811
2575.268797,0.000000,2738.761985,9474.636058
2575.269126,229.828649,3330.926739,8290.306550
2575.269455,1608.800546,3182.885551,7105.977043
2575.269784,536.266849,4219.173869,6883.915261
2575.270113,1685.410096,4811.338623,7328.038826
2575.270442,612.876398,3701.029710,7624.121203
2575.270771,-766.095498,3108.864956,8808.450710
2575.271100,-2221.676944,2738.761985,9400.615463
2575.271429,-3140.991542,1554.432478,9992.780217
2575.271758,-2987.772442,1258.350101,10732.986159
2575.272087,-2298.286494,2738.761985,10140.821405
2575.272416,-2757.943793,2664.741391,11177.109724
2575.272745,-2604.724693,2738.761985,9622.677246
2575.273074,-2221.676944,2516.700203,10955.047942
2575.273403,-2068.457845,2664.741391,10584.944971
2575.273732,-1072.533697,3330.926739,9326.594869
2575.274061,-536.266849,2960.823768,8512.368333
2575.274390,-536.266849,2886.803174,9696.697840
2575.274719,-612.876398,1702.473667,10436.903782
2575.275048,2298.286494,3478.967927,8586.388927
2575.275377,3140.991542,4885.359217,5625.565159
2575.275706,3294.210641,4071.132681,7846.182985
2575.276035,2145.067394,5403.503377,7476.080014
2575.276364,2528.115143,6587.832884,8438.347739
2575.276693,2145.067394,4737.318029,7994.224174
2575.277022,1915.238745,5477.523971,7179.997637
2575.277351,689.485948,5773.606348,8660.409521
2575.277680,766.095498,5995.668130,7402.059420
2575.278009,842.705048,2442.679609,10584.944971
2575.278338,-1149.143247,592.164754,11917.315666
2575.278667,-383.047749,-1702.473667,10807.006753
2575.278996,-1225.752797,1850.514855,10362.883188
2575.279325,-229.828649,-592.164754,11547.212695
2575.279654,-995.924147,3034.844362,7698.141797
2575.279983,1685.410096,3034.844362,9400.615463
2575.280312,1838.629195,4811.338623,7476.080014
2575.280641,2221.676944,4367.215058,7994.224174
2575.280970,2834.553343,4145.153275,7179.997637
2575.281299,2374.896044,4145.153275,7550.100608
2575.281628,-383.047749,2812.782580,8956.491898
2575.281957,-1608.800546,296.082377,9178.553681
2575.282286,-2374.896044,-740.205942,11843.295072
2575.282615,-2757.943793,370.102971,11843.295072
2575.282944,-1915.238745,962.267725,10881.027347
2575.283273,-1915.238745,1998.556043,9400.615463
2575.283602,-1225.752797,1924.535449,10288.862594
2575.283931,-689.485948,2812.782580,9548.656652
2575.284260,459.657299,1628.453072,9844.739029
2575.284589,2298.286494,1850.514855,9104.533087
2575.284918,3830.477490,3034.844362,6513.812290
2575.285247,4366.744339,2220.617826,7402.059420
2575.285576,2911.162892,2886.803174,7105.977043
2575.285905,3370.820191,2960.823768,7994.224174
2575.286234,2528.115143,3701.029710,7550.100608
2575.286563,3600.648841,3330.926739,6513.812290
2575.286892,1838.629195,3256.906145,7920.203579
2575.287221,-1378.971896,1406.391290,9548.656652
2575.287550,-3064.381992,-2738.761985,12953.603985
2575.287879,-3983.696590,-1332.370696,12287.418637
2575.288208,-1991.848295,-4071.132681,11991.336260
2575.288537,-3830.477490,-814.226536,9844.739029
2575.288866,-2374.896044,370.102971,11473.192101
2575.289195,-1762.019645,1258.350101,9696.697840
2575.289524,0.000000,1850.514855,8660.409521
2575.289853,1072.533697,2960.823768,7031.956449
2575.290182,2068.457845,-0.000000,11029.068536
2575.290511,3370.820191,-0.000000,9104.533087
2575.290840,4519.963438,1850.514855,5033.400406
2575.291169,4213.525239,740.205942,6217.729913
2575.291498,3907.087040,2886.803174,5551.544565
2575.291827,5439.278036,2220.617826,9030.512492
2575.292156,2451.505594,4219.173869,5625.565159
2575.292485,2987.772442,4515.256246,5477.523971
2575.292814,842.705048,814.226536,11251.130318
2575.293143,-4979.620737,-888.247130,12509.480420
2575.293472,-4366.744339,-4885.359217,15174.221811
2575.293801,-4979.620737,-0.000000,10436.903782
2575.294130,-3983.696590,-4959.379811,11547.212695
2575.294459,-6358.592633,-2516.700203,10955.047942
2575.294788,-3524.039291,-2294.638420,11917.315666
2575.295117,-2528.115143,-1184.329507,11843.295072
2575.295446,-536.266849,-814.226536,7920.203579
2575.295775,1149.143247,3256.906145,6143.709319
2575.296104,536.266849,-518.144159,13619.789333
2575.296433,3524.039291,2146.597232,6735.874072
2575.296762,6358.592633,1850.514855,5773.606348
2575.297091,5515.887586,2294.638420,4145.153275
2575.297420,4290.134789,2516.700203,4589.276840
2575.297749,4136.915689,2368.659014,12583.501014
2575.298078,-153.219100,3552.988522,7994.224174
2575.298407,-995.924147,-370.102971,10436.903782
2575.298736,-3907.087040,-2368.659014,13323.706956
2575.299065,-3370.820191,1924.535449,8438.347739
2575.299394,-2298.286494,-4441.235652,13545.768739
2575.299723,-3447.429741,-1184.329507,9474.636058
2575.300052,-919.314598,-3701.029710,11843.295072
2575.300381,-1302.362347,-2146.597232,9400.615463
2575.300710,-2145.067394,-0.000000,8734.430116
2575.301039,612.876398,-4441.235652,14656.077652
2575.301368,3677.258390,-814.226536,7105.977043
2575.301697,6818.249932,5847.626942,6809.894666
2575.302026,5056.230287,1480.411884,3478.967927
2575.302355,4596.572988,3256.906145,7624.121203
2575.302684,4290.134789,4737.318029,9770.718434
2575.303013,1378.971896,3627.009116,5995.668130
2575.303342,689.485948,4885.359217,7476.080014
2575.303671,76.609550,-518.144159,11991.336260
2575.303999,-3370.820191,-3108.864956,12879.583391
2575.304328,-2528.115143,-4441.235652,13545.768739
2575.304657,-2068.457845,-962.267725,9844.739029
2575.304986,-1762.019645,-7254.018232,11695.253884
2575.305315,-3600.648841,-1406.391290,9770.718434
2575.305645,-1455.581446,-888.247130,9030.512492
2575.305974,-306.438199,-2442.679609,9400.615463
2575.306303,2451.505594,-74.020594,5995.668130
2575.306632,5745.716235,2442.679609,7772.162391
2575.306961,4673.182538,3997.112087,7031.956449
2575.307290,3677.258390,2886.803174,8734.430116
2575.307619,1685.410096,1332.370696,7476.080014
2575.307948,612.876398,2368.659014,8808.450710
2575.308277,-612.876398,-0.000000,10510.924376
2575.308606,-1302.362347,-1776.494261,11695.253884
2575.308935,-2221.676944,-2072.576638,11991.336260
2575.309264,-2068.457845,-3182.885551,10732.986159
2575.309593,-1915.238745,-666.185348,8734.430116
2575.309922,-2451.505594,-2664.741391,9918.759623
2575.310251,306.438199,-1258.350101,10288.862594
2575.310580,1838.629195,592.164754,5255.462188
2575.310909,4903.011187,-1258.350101,7402.059420
2575.311238,4519.963438,-370.102971,5921.647536
2575.311567,4366.744339,518.144159,6661.853478
2575.311897,2298.286494,740.205942,8290.306550
2575.312226,612.876398,444.123565,8808.450710
2575.312555,-612.876398,-0.000000,10510.924376
2575.312884,-1838.629195,592.164754,10362.883188
2575.313213,-2068.457845,-1702.473667,11843.295072
2575.313542,-1915.238745,-2220.617826,12879.583391
2575.313871,-1915.238745,-1184.329507,9474.636058
2575.314200,-1991.848295,-1998.556043,10955.047942
2575.314529,-2757.943793,-1406.391290,9770.718434
2575.314858,-1608.800546,-2442.679609,10881.027347
2575.315187,919.314598,-2812.782580,9030.512492
2575.315516,3524.039291,-296.082377,5255.462188
2575.315845,5209.449386,-444.123565,5551.544565
2575.316174,3753.867940,296.082377,5255.462188
2575.316503,2911.162892,1036.288319,7550.100608
2575.316832,1378.971896,2516.700203,7624.121203
2575.317161,459.657299,1258.350101,8512.368333
2575.317490,-1378.971896,-1184.329507,11177.109724
2575.317819,-1991.848295,-1554.432478,10584.944971
2575.318149,-1838.629195,-2960.823768,12805.562797
2575.318478,-2528.115143,-1776.494261,11103.089130
2575.318807,-2298.286494,-740.205942,10066.800811
2575.319136,-2374.896044,-74.020594,9770.718434
2575.319465,-1378.971896,148.041188,9474.636058
2575.319794,1225.752797,-888.247130,8734.430116
2575.320123,3064.381992,-740.205942,5625.565159
2575.320452,4903.011187,740.205942,5477.523971
2575.320781,3600.648841,1332.370696,5477.523971
2575.321110,2528.115143,1702.473667,6735.874072
2575.321439,1225.752797,1850.514855,6439.791695
2575.321768,153.219100,1184.329507,7624.121203
2575.322097,-919.314598,-1480.411884,10214.842000
2575.322426,-1532.190996,-2146.597232,10881.027347
2575.322755,-1915.238745,-2368.659014,12805.562797
2575.323084,-2068.457845,-2368.659014,11547.212695
2575.323413,-2221.676944,-666.185348,10881.027347
2575.323742,-2374.896044,296.082377,10807.006753
2575.324071,-842.705048,814.226536,11473.192101
2575.324401,612.876398,962.267725,8068.244768
2575.324730,3600.648841,-222.061783,8216.285956
2575.325059,4519.963438,962.267725,6809.894666
2575.325388,3983.696590,1480.411884,5551.544565
2575.325717,1915.238745,1406.391290,7105.977043
2575.326046,536.266849,1924.535449,7105.977043
2575.326375,-306.438199,592.164754,9104.533087
2575.326704,-1302.362347,-296.082377,9844.739029
2575.327033,-919.314598,-2368.659014,11029.068536
2575.327362,-1915.238745,-3256.906145,12657.521608
2575.327691,-2221.676944,-2072.576638,10658.965565
2575.328020,-1838.629195,-592.164754,11325.150913
2575.328349,-1685.410096,-74.020594,12435.459826
2575.328678,153.219100,1406.391290,10362.883188
2575.329007,2987.772442,1184.329507,8956.491898
2575.329336,4136.915689,2220.617826,6809.894666
2575.329665,4519.963438,2442.679609,6587.832884
2575.329994,3753.867940,2664.741391,6809.894666
2575.330323,1302.362347,2368.659014,6365.771101
2575.330653,1149.143247,2738.761985,7031.956449
2575.330982,-536.266849,666.185348,8142.265362
2575.331311,-1378.971896,-1702.473667,9548.656652
2575.331640,-1762.019645,-2886.803174,11029.068536
2575.331969,-1532.190996,-3849.070898,11325.150913
2575.332298,-2221.676944,-3034.844362,10140.821405
2575.332627,-2145.067394,-1332.370696,11473.192101
2575.332956,-1302.362347,-962.267725,11177.109724
2575.333285,383.047749,666.185348,9474.636058
2575.333614,2987.772442,1258.350101,8290.306550
2575.333943,4290.134789,1998.556043,6735.874072
2575.334272,5209.449386,2146.597232,6957.935855
2575.334601,4213.525239,2812.782580,6957.935855
2575.334930,1149.143247,2368.659014,7031.956449
2575.335259,459.657299,518.144159,8068.244768
2575.335588,-1149.143247,-1628.453072,8956.491898
2575.335917,-1762.019645,-3182.885551,9918.759623
2575.336246,-1838.629195,-4663.297435,11177.109724
2575.336576,-1455.581446,-4737.318029,10436.903782
2575.336905,-2604.724693,-3552.988522,9400.615463
2575.337234,-2528.115143,-2368.659014,10140.821405
2575.337563,-459.657299,-1110.308913,10584.944971
2575.337892,1072.533697,-0.000000,8290.306550
2575.338221,3753.867940,444.123565,8734.430116
2575.338550,3753.867940,1480.411884,6735.874072
2575.338879,4826.401637,1702.473667,7402.059420
2575.339208,2681.334243,2368.659014,7476.080014
2575.339537,1302.362347,962.267725,7476.080014
2575.339866,-842.705048,-0.000000,9030.512492
2575.340195,-1991.848295,-518.144159,9474.636058
2575.340524,-2221.676944,-2960.823768,10658.965565
2575.340853,-1991.848295,-3404.947333,10807.006753
2575.341182,-2221.676944,-2146.597232,8290.306550
2575.341511,-2451.505594,-3256.906145,9844.739029
2575.341840,-2604.724693,-1776.494261,9548.656652
2575.342169,-1762.019645,-1110.308913,9474.636058
2575.342498,0.000000,-2294.638420,11769.274478
2575.342828,1685.410096,518.144159,7031.956449
2575.343157,4060.306139,666.185348,8586.388927
2575.343486,3677.258390,2368.659014,5921.647536
2575.343815,3217.601092,3034.844362,7031.956449
2575.344144,1302.362347,2368.659014,8364.327145
2575.344473,-153.219100,2812.782580,8068.244768
