#time,accel_x,accel_y,accel_z
2707.924060,689.485948,-444.123565,9326.594869
2707.924389,229.828649,-370.102971,9326.594869
2707.924719,306.438199,-370.102971,9178.553681
2707.925048,536.266849,-222.061783,8956.491898
2707.925377,383.047749,-0.000000,8882.471304
2707.925706,229.828649,-74.020594,9178.553681
2707.926036,383.047749,-0.000000,9104.533087
2707.926365,536.266849,-148.041188,9030.512492
2707.926694,459.657299,-370.102971,8734.430116
2707.927023,153.219100,370.102971,9252.574275
2707.927352,306.438199,-74.020594,9030.512492
2707.927682,76.609550,-0.000000,8882.471304
2707.928011,0.000000,-0.000000,8882.471304
2707.928340,229.828649,-0.000000,8808.450710
2707.928669,306.438199,74.020594,9030.512492
2707.928999,689.485948,-814.226536,8512.368333
2707.929328,0.000000,-0.000000,9104.533087
2707.929657,229.828649,-0.000000,8956.491898
2707.929986,306.438199,-74.020594,8882.471304
2707.930316,383.047749,-74.020594,8956.491898
2707.930645,306.438199,-0.000000,9030.512492
2707.930974,459.657299,-518.144159,9178.553681
2707.931303,383.047749,-222.061783,9326.594869
2707.931632,459.657299,-296.082377,8882.471304
2707.931962,383.047749,-74.020594,8956.491898
2707.932291,306.438199,-222.061783,9178.553681
2707.932620,306.438199,-370.102971,9178.553681
2707.932949,383.047749,-296.082377,9104.533087
2707.933279,459.657299,-74.020594,9400.615463
2707.933608,612.876398,-370.102971,9252.574275
2707.933937,919.314598,-370.102971,9326.594869
2707.934266,612.876398,-74.020594,9178.553681
2707.934596,383.047749,-0.000000,9326.594869
2707.934925,383.047749,-222.061783,9104.533087
2707.935254,306.438199,-74.020594,9178.553681
2707.935583,306.438199,-0.000000,9030.512492
2707.935912,612.876398,-0.000000,9178.553681
2707.936242,383.047749,-0.000000,9178.553681
2707.936571,229.828649,-0.000000,9326.594869
2707.936900,459.657299,-0.000000,8956.491898
2707.937229,306.438199,-0.000000,9104.533087
2707.937559,306.438199,-0.000000,9030.512492
2707.937888,383.047749,-148.041188,9178.553681
2707.938217,536.266849,-0.000000,9400.615463
2707.938546,383.047749,148.041188,9030.512492
2707.938876,459.657299,-74.020594,8808.450710
2707.939205,383.047749,-0.000000,9104.533087
2707.939534,76.609550,-0.000000,8882.471304
2707.939863,0.000000,-0.000000,8956.491898
2707.940192,383.047749,-148.041188,9178.553681
2707.940522,383.047749,-296.082377,9030.512492
2707.940851,459.657299,-592.164754,8512.368333
2707.941180,306.438199,-74.020594,8882.471304
2707.941509,306.438199,-0.000000,8956.491898
2707.941839,229.828649,-74.020594,9178.553681
2707.942168,76.609550,-74.020594,8956.491898
2707.942497,612.876398,-74.020594,9178.553681
2707.942826,-229.828649,-222.061783,9326.594869
2707.943155,842.705048,-740.205942,9326.594869
2707.943485,76.609550,-296.082377,9252.574275
2707.943814,76.609550,-222.061783,9178.553681
2707.944143,153.219100,-296.082377,9252.574275
2707.944472,229.828649,-296.082377,9252.574275
2707.944802,459.657299,-222.061783,8808.450710
2707.945131,383.047749,-814.226536,9030.512492
2707.945460,153.219100,-222.061783,9326.594869
2707.945789,689.485948,-222.061783,8808.450710
2707.946119,383.047749,-148.041188,9178.553681
2707.946448,536.266849,-74.020594,9030.512492
2707.946777,536.266849,-222.061783,9178.553681
2707.947106,383.047749,-74.020594,9400.615463
2707.947435,919.314598,-74.020594,9252.574275
2707.947765,689.485948,-148.041188,8660.409521
2707.948094,383.047749,-74.020594,9030.512492
2707.948423,306.438199,-0.000000,9178.553681
2707.948752,383.047749,-0.000000,9030.512492
2707.949082,229.828649,-0.000000,8808.450710
2707.949411,306.438199,-0.000000,8882.471304
2707.949740,-306.438199,-0.000000,9400.615463
2707.950069,76.609550,-74.020594,8808.450710
2707.950399,76.609550,-74.020594,9030.512492
2707.950728,229.828649,-74.020594,8882.471304
2707.951057,229.828649,-74.020594,9030.512492
2707.951386,153.219100,-0.000000,8808.450710
2707.951715,76.609550,-370.102971,9030.512492
2707.952045,-766.095498,-148.041188,9178.553681
2707.952374,612.876398,-0.000000,8808.450710
2707.952703,229.828649,-148.041188,8734.430116
2707.953032,76.609550,-296.082377,9104.533087
2707.953362,153.219100,-444.123565,9178.553681
2707.953691,76.609550,-296.082377,9030.512492
2707.954020,0.000000,-814.226536,9474.636058
2707.954349,459.657299,-518.144159,9178.553681
2707.954679,689.485948,-740.205942,9918.759623
2707.955008,1225.752797,-888.247130,9696.697840
2707.955337,1532.190996,-518.144159,9474.636058
2707.955666,2145.067394,-296.082377,9400.615463
2707.955995,2221.676944,-0.000000,8882.471304
2707.956325,3140.991542,518.144159,9030.512492
2707.956654,3907.087040,-74.020594,9030.512492
2707.956983,4136.915689,-74.020594,8290.306550
2707.957312,3140.991542,148.041188,8660.409521
2707.957642,2681.334243,592.164754,8586.388927
2707.957971,2451.505594,-148.041188,9400.615463
2707.958300,2911.162892,-518.144159,9548.656652
2707.958629,1072.533697,-1036.288319,9474.636058
2707.958959,919.314598,-1628.453072,9844.739029
2707.959288,2374.896044,-1924.535449,9844.739029
2707.959617,2911.162892,-370.102971,9326.594869
2707.959946,2757.943793,-444.123565,9622.677246
2707.960275,3677.258390,-814.226536,9326.594869
2707.960605,3830.477490,444.123565,8660.409521
2707.960934,5209.449386,1406.391290,8438.347739
2707.961263,5209.449386,1406.391290,7402.059420
2707.961592,4903.011187,1554.432478,8808.450710
2707.961922,5056.230287,888.247130,8216.285956
2707.962251,3907.087040,740.205942,7402.059420
2707.962580,3677.258390,-0.000000,9104.533087
2707.962909,2221.676944,-444.123565,8586.388927
2707.963239,1915.238745,-814.226536,9474.636058
2707.963568,306.438199,-1776.494261,9622.677246
2707.963897,995.924147,-592.164754,9992.780217
2707.964226,76.609550,-1702.473667,9918.759623
2707.964555,1072.533697,-1036.288319,9844.739029
2707.964885,1762.019645,-296.082377,9326.594869
2707.965214,3294.210641,666.185348,9474.636058
2707.965543,3370.820191,444.123565,7550.100608
2707.965872,4749.792088,1406.391290,9696.697840
2707.966202,4826.401637,1776.494261,7772.162391
2707.966531,4826.401637,1184.329507,7550.100608
2707.966860,4673.182538,1110.308913,8882.471304
2707.967189,3983.696590,444.123565,8808.450710
2707.967519,2987.772442,-148.041188,9178.553681
2707.967848,2604.724693,-1702.473667,9992.780217
2707.968177,2145.067394,-1924.535449,10362.883188
2707.968506,1608.800546,-2590.720797,10140.821405
2707.968835,1302.362347,-2146.597232,10955.047942
2707.969165,1838.629195,-1998.556043,10436.903782
2707.969494,2757.943793,-222.061783,9548.656652
2707.969823,3524.039291,666.185348,8808.450710
2707.970152,4290.134789,1480.411884,8586.388927
2707.970482,4596.572988,2738.761985,8364.327145
2707.970811,3753.867940,2442.679609,7624.121203
2707.971140,4519.963438,2590.720797,7254.018232
2707.971469,4366.744339,2368.659014,7402.059420
2707.971799,4366.744339,1850.514855,7550.100608
2707.972128,3294.210641,296.082377,7624.121203
2707.972457,2681.334243,-1184.329507,9326.594869
2707.972786,2298.286494,-2442.679609,9992.780217
2707.973115,1762.019645,-3552.988522,10584.944971
2707.973445,1685.410096,-3849.070898,11547.212695
2707.973774,2145.067394,-2590.720797,11177.109724
2707.974103,3294.210641,-1258.350101,10288.862594
2707.974432,4136.915689,-0.000000,9696.697840
2707.974762,5209.449386,1258.350101,9252.574275
2707.975091,6052.154434,2368.659014,8290.306550
2707.975420,5362.668486,2738.761985,7846.182985
2707.975749,4903.011187,3627.009116,7105.977043
2707.976079,4213.525239,2886.803174,7031.956449
2707.976408,3753.867940,1702.473667,6587.832884
2707.976737,3064.381992,666.185348,7402.059420
2707.977066,1225.752797,-2368.659014,9770.718434
2707.977395,-536.266849,-4737.318029,10658.965565
2707.977725,-919.314598,-4515.256246,11695.253884
2707.978054,-459.657299,-5625.565159,12213.398043
2707.978383,-842.705048,-2294.638420,9992.780217
2707.978712,383.047749,-1628.453072,11399.171507
2707.979042,1685.410096,-74.020594,10362.883188
2707.979371,4519.963438,1554.432478,9770.718434
2707.979700,7277.907231,1554.432478,7920.203579
2707.980029,7277.907231,1480.411884,7328.038826
2707.980358,6281.983084,888.247130,7994.224174
2707.980688,5822.325785,2146.597232,6217.729913
2707.981017,5209.449386,2220.617826,6957.935855
2707.981346,4903.011187,2146.597232,6291.750507
2707.981675,4903.011187,2812.782580,6069.688724
2707.982005,4596.572988,2516.700203,6217.729913
2707.982334,4443.353888,-0.000000,6883.915261
2707.982663,2451.505594,-3849.070898,9400.615463
2707.982992,153.219100,-7476.080014,11843.295072
2707.983322,-1915.238745,-3034.844362,11177.109724
2707.983651,-1378.971896,-6735.874072,14359.995275
2707.983980,-1685.410096,-3330.926739,10881.027347
2707.984309,995.924147,1110.308913,12657.521608
2707.984638,3600.648841,518.144159,10955.047942
2707.984968,5056.230287,2146.597232,8808.450710
2707.985297,7048.078582,296.082377,8882.471304
2707.985626,7507.735880,2738.761985,8586.388927
2707.985955,7967.393179,4515.256246,5699.585753
2707.986285,7814.174080,2812.782580,5107.421000
2707.986614,6971.469032,1850.514855,4885.359217
2707.986943,7354.516781,1998.556043,6365.771101
2707.987272,5975.544884,-0.000000,6513.812290
2707.987602,3677.258390,2368.659014,5921.647536
2707.987931,4673.182538,-296.082377,7402.059420
2707.988260,306.438199,-3701.029710,11547.212695
2707.988589,-2068.457845,-6291.750507,12953.603985
2707.988918,-3140.991542,-444.123565,12879.583391
2707.989248,-1378.971896,-8364.327145,13989.892304
2707.989577,-1455.581446,-444.123565,9474.636058
2707.989906,1915.238745,740.205942,13027.624579
2707.990235,766.095498,1258.350101,10214.842000
2707.990565,919.314598,444.123565,14211.954086
2707.990894,6741.640382,-1406.391290,9104.533087
2707.991223,9959.241474,2146.597232,8216.285956
2707.991552,7048.078582,1480.411884,7105.977043
2707.991882,6052.154434,1110.308913,5033.400406
2707.992211,5822.325785,1924.535449,8290.306550
2707.992540,6435.202183,740.205942,7624.121203
2707.992869,5592.497135,2812.782580,3997.112087
2707.993198,3753.867940,2368.659014,9400.615463
2707.993528,2451.505594,962.267725,7254.018232
2707.993857,4903.011187,1184.329507,9696.697840
2707.994186,1838.629195,-1924.535449,10510.924376
2707.994515,919.314598,-2516.700203,11399.171507
2707.994845,0.000000,-1628.453072,11251.130318
2707.995174,153.219100,-5625.565159,12509.480420
2707.995503,-612.876398,-74.020594,9178.553681
2707.995832,2145.067394,-0.000000,11917.315666
2707.996162,1455.581446,962.267725,8586.388927
2707.996491,3600.648841,1036.288319,8068.244768
2707.996820,4136.915689,296.082377,8142.265362
2707.997149,4366.744339,1776.494261,7624.121203
2707.997478,3447.429741,1258.350101,7550.100608
2707.997808,3600.648841,-1184.329507,7476.080014
2707.998137,2604.724693,-2590.720797,8808.450710
2707.998466,2757.943793,-2220.617826,10066.800811
2707.998795,2298.286494,-2516.700203,10066.800811
2707.999125,1378.971896,-1036.288319,9696.697840
2707.999454,2987.772442,-148.041188,10510.924376
2707.999783,3600.648841,1998.556043,9474.636058
2708.000112,3830.477490,962.267725,9474.636058
2708.000441,4366.744339,962.267725,9622.677246
2708.000770,5132.839837,962.267725,8290.306550
2708.001099,5975.544884,1258.350101,8512.368333
2708.001428,5439.278036,1628.453072,7920.203579
2708.001757,4366.744339,-0.000000,8142.265362
2708.002085,3447.429741,-444.123565,8512.368333
2708.002414,3140.991542,-0.000000,7920.203579
2708.002743,1455.581446,-1110.308913,9844.739029
2708.003072,-383.047749,-2294.638420,11251.130318
2708.003401,-842.705048,-2368.659014,10955.047942
2708.003730,0.000000,-2516.700203,11251.130318
2708.004058,1149.143247,-1776.494261,9844.739029
2708.004387,919.314598,-1702.473667,10510.924376
2708.004716,1762.019645,-444.123565,10955.047942
2708.005045,3753.867940,740.205942,9178.553681
2708.005374,6128.763984,1628.453072,8660.409521
2708.005703,7048.078582,1480.411884,7846.182985
2708.006032,5362.668486,1480.411884,8660.409521
2708.006360,4903.011187,1924.535449,8068.244768
2708.006689,5209.449386,1998.556043,6957.935855
2708.007018,6358.592633,296.082377,7328.038826
2708.007347,5975.544884,1776.494261,7550.100608
2708.007676,5362.668486,814.226536,7698.141797
2708.008005,4443.353888,518.144159,7402.059420
2708.008333,3907.087040,-0.000000,8364.327145
2708.008662,3370.820191,-2072.576638,10658.965565
2708.008991,1762.019645,-3182.885551,10510.924376
2708.009320,-383.047749,148.041188,10807.006753
2708.009649,919.314598,-3478.967927,11621.233289
2708.009978,1149.143247,-1554.432478,9696.697840
2708.010307,2604.724693,-1184.329507,10510.924376
2708.010635,3370.820191,814.226536,8512.368333
2708.010964,3830.477490,1924.535449,7772.162391
2708.011293,4673.182538,1184.329507,8438.347739
2708.011622,5056.230287,2072.576638,7846.182985
2708.011951,4060.306139,-0.000000,7550.100608
2708.012280,3524.039291,518.144159,6883.915261
2708.012609,2681.334243,-296.082377,8586.388927
2708.012937,1685.410096,-1036.288319,9030.512492
2708.013266,1608.800546,-1258.350101,9622.677246
2708.013595,-536.266849,-1110.308913,9770.718434
2708.013924,-1532.190996,-1776.494261,9992.780217
2708.014253,-1378.971896,-1110.308913,9992.780217
2708.014582,-459.657299,-1406.391290,10288.862594
2708.014910,306.438199,-518.144159,9770.718434
2708.015239,766.095498,-1110.308913,10214.842000
2708.015568,2298.286494,-0.000000,9696.697840
2708.015897,2298.286494,962.267725,8216.285956
2708.016226,3217.601092,1332.370696,7920.203579
2708.016555,3677.258390,1406.391290,7105.977043
2708.016884,4596.572988,2146.597232,6513.812290
2708.017212,3370.820191,1332.370696,7920.203579
2708.017541,2221.676944,-0.000000,8734.430116
2708.017870,306.438199,-444.123565,7994.224174
2708.018199,-689.485948,-888.247130,8956.491898
2708.018528,-2068.457845,-592.164754,9030.512492
2708.018857,-2298.286494,-1998.556043,10288.862594
2708.019185,-2068.457845,-1850.514855,9770.718434
2708.019514,-1455.581446,-962.267725,10066.800811
2708.019843,-1991.848295,-148.041188,9400.615463
2708.020172,-1302.362347,-666.185348,9252.574275
2708.020501,-1685.410096,-518.144159,10066.800811
2708.020830,-1608.800546,-0.000000,10288.862594
2708.021159,76.609550,-518.144159,9030.512492
2708.021487,-1685.410096,-518.144159,9474.636058
2708.021816,-919.314598,-1110.308913,11325.150913
2708.022145,0.000000,-296.082377,10066.800811
2708.022474,1455.581446,-222.061783,7698.141797
2708.022803,1838.629195,1406.391290,7994.224174
2708.023132,2145.067394,2146.597232,7846.182985
2708.023460,2145.067394,1702.473667,7402.059420
2708.023789,2145.067394,222.061783,7698.141797
2708.024118,1608.800546,-296.082377,9104.533087
2708.024447,689.485948,-814.226536,9918.759623
2708.024776,0.000000,-1776.494261,9326.594869
2708.025105,-1608.800546,-1628.453072,9844.739029
2708.025434,-1685.410096,-814.226536,11399.171507
2708.025762,-459.657299,-962.267725,9104.533087
2708.026091,229.828649,-1184.329507,9474.636058
2708.026420,76.609550,-814.226536,11399.171507
2708.026749,1302.362347,-222.061783,10807.006753
2708.027078,1378.971896,518.144159,8068.244768
2708.027407,1685.410096,444.123565,9252.574275
2708.027735,1608.800546,1406.391290,8142.265362
2708.028064,2451.505594,2146.597232,7254.018232
2708.028393,2757.943793,592.164754,7402.059420
2708.028722,1762.019645,1332.370696,8512.368333
2708.029051,2221.676944,-1258.350101,9548.656652
2708.029380,919.314598,-592.164754,7698.141797
2708.029709,-306.438199,-1480.411884,9918.759623
2708.030037,-919.314598,-592.164754,10066.800811
2708.030366,-612.876398,-1332.370696,9474.636058
2708.030695,-1532.190996,-814.226536,9474.636058
2708.031024,536.266849,-74.020594,10288.862594
2708.031353,766.095498,444.123565,9474.636058
2708.031682,612.876398,-296.082377,8290.306550
2708.032011,919.314598,740.205942,9104.533087
2708.032339,536.266849,814.226536,9104.533087
2708.032668,459.657299,-0.000000,7402.059420
2708.032997,-459.657299,-0.000000,8882.471304
2708.033326,689.485948,-0.000000,9992.780217
2708.033655,153.219100,-888.247130,8216.285956
2708.033984,-536.266849,-1406.391290,8586.388927
2708.034312,-1302.362347,-962.267725,10066.800811
2708.034641,-766.095498,-296.082377,9622.677246
2708.034970,-766.095498,-222.061783,8068.244768
2708.035299,-383.047749,-740.205942,9548.656652
2708.035628,536.266849,-444.123565,10066.800811
2708.035957,689.485948,-814.226536,8142.265362
2708.036286,459.657299,-222.061783,8290.306550
2708.036614,0.000000,962.267725,9178.553681
2708.036943,-306.438199,592.164754,8290.306550
2708.037272,-383.047749,222.061783,8068.244768
2708.037601,0.000000,-74.020594,10066.800811
2708.037930,-306.438199,-0.000000,9992.780217
2708.038259,612.876398,-814.226536,8734.430116
2708.038587,-689.485948,-296.082377,9474.636058
2708.038916,-1149.143247,222.061783,10881.027347
2708.039245,0.000000,-0.000000,9326.594869
2708.039574,229.828649,-888.247130,8290.306550
2708.039903,842.705048,148.041188,10436.903782
2708.040232,1685.410096,-148.041188,9104.533087
2708.040561,1991.848295,296.082377,7994.224174
2708.040889,1608.800546,518.144159,8290.306550
2708.041218,1302.362347,1110.308913,9252.574275
2708.041547,1072.533697,518.144159,8216.285956
2708.041876,1378.971896,444.123565,8068.244768
2708.042205,306.438199,-0.000000,9178.553681
2708.042534,-612.876398,-1258.350101,10362.883188
2708.042862,-383.047749,-1258.350101,9474.636058
2708.043191,-612.876398,-1184.329507,9104.533087
2708.043520,-995.924147,-518.144159,9844.739029
2708.043849,-842.705048,-518.144159,8512.368333
2708.044178,-383.047749,-888.247130,9474.636058
2708.044507,-459.657299,-740.205942,10066.800811
2708.044836,689.485948,-296.082377,9844.739029
2708.045164,612.876398,-370.102971,8438.347739
2708.045493,229.828649,1258.350101,8734.430116
2708.045822,-459.657299,962.267725,9474.636058
2708.046151,229.828649,-666.185348,9252.574275
2708.046480,1302.362347,296.082377,7698.141797
2708.046809,153.219100,-888.247130,9622.677246
2708.047137,536.266849,-1850.514855,9696.697840
2708.047466,-306.438199,-888.247130,8882.471304
2708.047795,-536.266849,-1184.329507,9178.553681
2708.048124,76.609550,-148.041188,9548.656652
2708.048453,612.876398,-444.123565,8586.388927
2708.048782,1072.533697,-74.020594,7994.224174
2708.049111,2298.286494,-0.000000,9992.780217
2708.049439,2451.505594,444.123565,8734.430116
2708.049768,2451.505594,-74.020594,7624.121203
2708.050097,1991.848295,814.226536,8142.265362
2708.050426,1225.752797,444.123565,9178.553681
2708.050755,1608.800546,592.164754,7772.162391
2708.051084,1149.143247,-888.247130,8290.306550
2708.051413,689.485948,-814.226536,9992.780217
2708.051741,689.485948,-1258.350101,9474.636058
2708.052070,383.047749,-1998.556043,9326.594869
2708.052399,-153.219100,-888.247130,10140.821405
2708.052728,459.657299,-222.061783,9474.636058
2708.053057,459.657299,-444.123565,8882.471304
2708.053386,383.047749,-814.226536,9326.594869
2708.053714,766.095498,148.041188,9622.677246
2708.054043,1762.019645,740.205942,8512.368333
2708.054372,1455.581446,-222.061783,7846.182985
2708.054701,229.828649,962.267725,9178.553681
2708.055030,229.828649,666.185348,9252.574275
2708.055359,76.609550,740.205942,7550.100608
2708.055688,153.219100,-222.061783,8586.388927
2708.056016,-766.095498,-518.144159,10732.986159
2708.056345,-689.485948,-1480.411884,9474.636058
2708.056674,-1149.143247,-888.247130,9178.553681
2708.057003,-1378.971896,-370.102971,9770.718434
2708.057332,-612.876398,-0.000000,9474.636058
2708.057661,-229.828649,296.082377,8216.285956
2708.057989,-229.828649,-592.164754,9918.759623
2708.058318,536.266849,962.267725,9844.739029
2708.058647,919.314598,296.082377,8734.430116
2708.058976,536.266849,-296.082377,8808.450710
2708.059305,-383.047749,444.123565,9770.718434
2708.059634,-383.047749,1110.308913,9252.574275
2708.059963,0.000000,-0.000000,8142.265362
2708.060291,-995.924147,-518.144159,8882.471304
2708.060620,-383.047749,-888.247130,10881.027347
2708.060949,0.000000,-518.144159,8364.327145
2708.061278,-766.095498,-1184.329507,8438.347739
2708.061607,-383.047749,-740.205942,9548.656652
2708.061936,612.876398,-296.082377,9252.574275
2708.062264,1149.143247,-0.000000,7846.182985
2708.062593,1455.581446,370.102971,8364.327145
2708.062922,2374.896044,444.123565,8956.491898
2708.063251,2911.162892,370.102971,7105.977043
2708.063580,2757.943793,592.164754,7328.038826
2708.063909,1991.848295,888.247130,8734.430116
2708.064238,919.314598,296.082377,7550.100608
2708.064566,459.657299,-74.020594,8364.327145
2708.064895,-229.828649,-666.185348,10436.903782
2708.065224,0.000000,-1036.288319,11103.089130
2708.065553,-1072.533697,-2220.617826,9474.636058
2708.065882,-1378.971896,-1332.370696,10584.944971
2708.066211,-1608.800546,-518.144159,10658.965565
2708.066540,-536.266849,370.102971,9548.656652
2708.066868,383.047749,-592.164754,9622.677246
2708.067197,536.266849,592.164754,9548.656652
2708.067526,2298.286494,1036.288319,9548.656652
2708.067855,2374.896044,592.164754,8068.244768
2708.068184,1378.971896,518.144159,8882.471304
2708.068513,919.314598,1406.391290,9770.718434
2708.068841,995.924147,222.061783,7328.038826
2708.069170,459.657299,-74.020594,8216.285956
2708.069499,-229.828649,-666.185348,10288.862594
2708.069828,0.000000,-1332.370696,10214.842000
2708.070157,-1302.362347,-1702.473667,10214.842000
2708.070486,-1225.752797,-1406.391290,9696.697840
2708.070815,-1149.143247,-370.102971,10362.883188
2708.071143,-383.047749,-370.102971,8956.491898
2708.071472,0.000000,-0.000000,9252.574275
2708.071801,536.266849,-148.041188,9844.739029
2708.072130,1455.581446,296.082377,8660.409521
2708.072459,2145.067394,518.144159,6957.935855
2708.072788,995.924147,1480.411884,7105.977043
2708.073116,1302.362347,-0.000000,9400.615463
2708.073445,1072.533697,-814.226536,6957.935855
2708.073774,-229.828649,592.164754,8068.244768
2708.074103,689.485948,-2294.638420,9474.636058
2708.074432,-459.657299,-1480.411884,8660.409521
2708.074761,-306.438199,-1184.329507,9770.718434
2708.075090,-689.485948,-2294.638420,9252.574275
2708.075418,0.000000,-518.144159,9178.553681
2708.075747,-153.219100,-0.000000,8882.471304
2708.076076,842.705048,740.205942,7994.224174
2708.076405,1149.143247,-0.000000,9696.697840
2708.076734,2298.286494,1258.350101,8142.265362
2708.077063,1225.752797,666.185348,7698.141797
2708.077391,1455.581446,518.144159,8882.471304
2708.077720,459.657299,814.226536,8512.368333
2708.078049,153.219100,148.041188,7920.203579
2708.078378,-919.314598,-148.041188,8290.306550
2708.078707,-1072.533697,-1480.411884,11695.253884
2708.079036,-1072.533697,-2590.720797,9770.718434
2708.079365,-1149.143247,-1184.329507,9030.512492
2708.079693,-1072.533697,-1776.494261,11473.192101
2708.080022,-1532.190996,-0.000000,9030.512492
2708.080351,-1149.143247,-518.144159,9696.697840
2708.080680,-919.314598,-296.082377,9770.718434
2708.081009,153.219100,592.164754,10584.944971
2708.081338,1072.533697,-74.020594,9474.636058
2708.081666,1072.533697,1184.329507,7328.038826
2708.081995,919.314598,1480.411884,9104.533087
2708.082324,1762.019645,1924.535449,7624.121203
2708.082653,1685.410096,1332.370696,7179.997637
2708.082982,612.876398,-74.020594,9178.553681
2708.083311,0.000000,-518.144159,9918.759623
2708.083640,-229.828649,-1480.411884,9104.533087
2708.083968,-1072.533697,-2146.597232,9474.636058
2708.084297,-1378.971896,-444.123565,10955.047942
2708.084626,-383.047749,-1110.308913,10214.842000
2708.084955,-153.219100,-444.123565,8956.491898
2708.085284,842.705048,-148.041188,10362.883188
2708.085613,2145.067394,1036.288319,9474.636058
2708.085942,2604.724693,592.164754,7994.224174
2708.086270,2604.724693,740.205942,8364.327145
2708.086599,1838.629195,1480.411884,8216.285956
2708.086928,2221.676944,1998.556043,7550.100608
2708.087257,1455.581446,518.144159,7105.977043
2708.087586,536.266849,-518.144159,9178.553681
2708.087915,76.609550,-1110.308913,10066.800811
2708.088243,-229.828649,-2886.803174,8956.491898
2708.088572,-1225.752797,-3034.844362,9030.512492
2708.088901,-612.876398,-1480.411884,11325.150913
2708.089230,-536.266849,-1110.308913,9696.697840
2708.089559,-383.047749,-74.020594,8882.471304
2708.089888,306.438199,148.041188,10288.862594
2708.090217,1915.238745,888.247130,9400.615463
2708.090545,2451.505594,1406.391290,7550.100608
2708.090874,2145.067394,1332.370696,7402.059420
2708.091203,1685.410096,2442.679609,9326.594869
2708.091532,1991.848295,1184.329507,7772.162391
2708.091861,919.314598,592.164754,7402.059420
2708.092190,306.438199,-0.000000,9400.615463
2708.092518,-383.047749,-1480.411884,10140.821405
2708.092847,-919.314598,-2368.659014,8586.388927
2708.093176,-1378.971896,-1998.556043,10214.842000
2708.093505,-1072.533697,-1332.370696,9844.739029
2708.093834,-919.314598,-1184.329507,8956.491898
2708.094163,-919.314598,-1110.308913,9696.697840
2708.094492,-536.266849,-148.041188,10584.944971
2708.094820,459.657299,296.082377,9918.759623
2708.095149,919.314598,518.144159,8882.471304
2708.095478,1378.971896,1480.411884,8512.368333
2708.095807,2451.505594,2072.576638,9030.512492
2708.096136,2221.676944,1110.308913,7031.956449
2708.096465,2374.896044,1036.288319,7476.080014
2708.096793,995.924147,222.061783,8956.491898
2708.097122,766.095498,-1184.329507,8660.409521
2708.097451,536.266849,-1332.370696,8808.450710
2708.097780,-842.705048,-1702.473667,10066.800811
2708.098109,-766.095498,-1554.432478,10955.047942
2708.098438,0.000000,-666.185348,9104.533087
2708.098767,0.000000,-296.082377,9326.594869
2708.099095,0.000000,296.082377,10510.924376
2708.099424,1149.143247,222.061783,10066.800811
2708.099753,612.876398,222.061783,8068.244768
2708.100082,1072.533697,814.226536,9030.512492
2708.100411,1225.752797,1332.370696,9770.718434
2708.100740,1225.752797,740.205942,7772.162391
2708.101069,383.047749,518.144159,8364.327145
2708.101397,229.828649,-222.061783,7994.224174
2708.101726,-383.047749,-518.144159,8882.471304
2708.102055,-459.657299,-2220.617826,9030.512492
2708.102384,-1225.752797,-1406.391290,9992.780217
2708.102713,-1991.848295,-1036.288319,10362.883188
2708.103042,-612.876398,-1924.535449,9252.574275
2708.103371,-766.095498,148.041188,9178.553681
2708.103699,-1225.752797,-370.102971,9548.656652
2708.104028,536.266849,-0.000000,9622.677246
2708.104357,0.000000,-0.000000,8216.285956
2708.104686,383.047749,1258.350101,9474.636058
2708.105015,2068.457845,814.226536,8438.347739
2708.105344,1378.971896,888.247130,6513.812290
2708.105673,229.828649,222.061783,8142.265362
2708.106001,1302.362347,-74.020594,9696.697840
2708.106330,153.219100,-962.267725,8142.265362
2708.106659,-229.828649,-1184.329507,8808.450710
2708.106988,-1149.143247,-1554.432478,9992.780217
2708.107317,-1532.190996,-1258.350101,10658.965565
2708.107646,-689.485948,-370.102971,8364.327145
2708.107974,-383.047749,-1258.350101,10288.862594
2708.108303,76.609550,-370.102971,10658.965565
2708.108632,842.705048,444.123565,9104.533087
2708.108961,2145.067394,-0.000000,8438.347739
2708.109290,2221.676944,1258.350101,7772.162391
2708.109619,3217.601092,1554.432478,7105.977043
2708.109948,2681.334243,740.205942,7254.018232
2708.110276,2374.896044,1110.308913,7920.203579
2708.110605,1838.629195,-518.144159,9474.636058
2708.110934,842.705048,-296.082377,7994.224174
2708.111263,-766.095498,-2368.659014,10140.821405
2708.111592,-1685.410096,-2072.576638,11177.109724
2708.111921,-1685.410096,-1406.391290,10584.944971
2708.112250,-1608.800546,-1702.473667,9474.636058
2708.112578,-766.095498,-518.144159,10955.047942
2708.112907,-612.876398,222.061783,10362.883188
2708.113236,0.000000,-518.144159,9474.636058
2708.113565,612.876398,592.164754,9178.553681
2708.113894,1378.971896,1332.370696,9474.636058
2708.114223,1762.019645,814.226536,7476.080014
2708.114552,1685.410096,1702.473667,7550.100608
2708.114880,1225.752797,1332.370696,8882.471304
2708.115209,536.266849,-222.061783,9326.594869
2708.115538,0.000000,-888.247130,8956.491898
2708.115867,-842.705048,-1258.350101,8586.388927
2708.116196,-1225.752797,-1184.329507,9918.759623
2708.116525,-1378.971896,-1184.329507,8956.491898
2708.116854,-612.876398,-1406.391290,8882.471304
2708.117182,-536.266849,-740.205942,10732.986159
2708.117511,76.609550,370.102971,9474.636058
2708.117840,1072.533697,-0.000000,7698.141797
2708.118169,1455.581446,1184.329507,8808.450710
2708.118498,1302.362347,1110.308913,9252.574275
2708.118827,1915.238745,1850.514855,7105.977043
2708.119156,2068.457845,666.185348,7402.059420
2708.119484,1915.238745,1332.370696,8734.430116
2708.119813,1608.800546,-0.000000,9104.533087
2708.120142,766.095498,-1258.350101,7994.224174
2708.120471,0.000000,-1628.453072,9400.615463
2708.120800,-229.828649,-888.247130,10214.842000
2708.121129,-459.657299,-1554.432478,9104.533087
2708.121458,-689.485948,-1776.494261,9548.656652
2708.121786,-153.219100,-592.164754,10140.821405
2708.122115,1225.752797,-0.000000,9622.677246
2708.122444,689.485948,-370.102971,7994.224174
2708.122773,612.876398,888.247130,9400.615463
2708.123102,1532.190996,814.226536,9696.697840
2708.123431,1532.190996,962.267725,7550.100608
2708.123760,995.924147,370.102971,7920.203579
2708.124088,842.705048,-222.061783,9474.636058
2708.124417,1149.143247,-0.000000,8882.471304
2708.124746,153.219100,-814.226536,8512.368333
2708.125075,-1072.533697,-1406.391290,9696.697840
2708.125404,-1302.362347,-592.164754,9844.739029
2708.125733,-536.266849,-1184.329507,8216.285956
2708.126062,-612.876398,-1850.514855,9696.697840
2708.126390,-612.876398,-740.205942,10140.821405
2708.126719,0.000000,-222.061783,9178.553681
2708.127048,-383.047749,148.041188,9474.636058
2708.127377,-842.705048,1184.329507,9622.677246
2708.127706,612.876398,592.164754,9252.574275
2708.128035,383.047749,888.247130,8142.265362
2708.128364,689.485948,444.123565,10214.842000
2708.128692,919.314598,814.226536,8882.471304
2708.129021,1225.752797,-296.082377,8734.430116
2708.129350,689.485948,-0.000000,8882.471304
2708.129679,536.266849,-518.144159,9622.677246
2708.130008,612.876398,-370.102971,9030.512492
2708.130337,383.047749,-1110.308913,8142.265362
2708.130666,919.314598,-0.000000,8882.471304
2708.130994,919.314598,-222.061783,9326.594869
2708.131323,1455.581446,-0.000000,7920.203579
2708.131652,842.705048,-0.000000,8734.430116
2708.131981,1072.533697,296.082377,9400.615463
2708.132310,689.485948,1036.288319,8290.306550
2708.132639,612.876398,888.247130,8882.471304
2708.132967,536.266849,-740.205942,9474.636058
2708.133296,76.609550,-740.205942,10807.006753
2708.133625,153.219100,-1036.288319,9400.615463
2708.133954,-153.219100,-1036.288319,9326.594869
2708.134283,-459.657299,-1184.329507,10584.944971
2708.134612,-459.657299,-444.123565,9474.636058
2708.134941,383.047749,-888.247130,8808.450710
2708.135269,919.314598,-444.123565,9696.697840
2708.135598,1455.581446,148.041188,8956.491898
2708.135927,1455.581446,296.082377,8586.388927
2708.136256,1225.752797,444.123565,7624.121203
2708.136585,689.485948,1110.308913,8586.388927
2708.136914,612.876398,592.164754,8734.430116
2708.137243,-153.219100,-0.000000,7846.182985
2708.137571,153.219100,-888.247130,9844.739029
2708.137900,0.000000,-370.102971,9400.615463
2708.138229,-383.047749,-592.164754,8882.471304
2708.138558,-1225.752797,-888.247130,8808.450710
2708.138887,-1915.238745,296.082377,8808.450710
2708.139216,-1762.019645,-2072.576638,11621.233289
2708.139545,-536.266849,-1702.473667,8734.430116
2708.139873,306.438199,370.102971,8734.430116
2708.140202,536.266849,-1702.473667,9178.553681
2708.140531,1302.362347,-222.061783,8512.368333
2708.140860,1302.362347,888.247130,9992.780217
2708.141189,919.314598,222.061783,8142.265362
2708.141518,2068.457845,1110.308913,7328.038826
2708.141847,995.924147,-814.226536,6809.894666
2708.142175,1072.533697,-74.020594,9326.594869
2708.142504,1302.362347,-1258.350101,9844.739029
2708.142833,842.705048,-666.185348,7624.121203
2708.143162,0.000000,-148.041188,9104.533087
2708.143491,153.219100,-296.082377,10214.842000
2708.143820,536.266849,-814.226536,7994.224174
2708.144149,1455.581446,-0.000000,9474.636058
2708.144477,1072.533697,-296.082377,10881.027347
2708.144806,1225.752797,666.185348,8290.306550
2708.145135,842.705048,-0.000000,8364.327145
2708.145464,1149.143247,-814.226536,9918.759623
2708.145793,-306.438199,888.247130,9770.718434
2708.146122,0.000000,-222.061783,8438.347739
2708.146451,306.438199,-814.226536,8882.471304
2708.146779,229.828649,-0.000000,10807.006753
2708.147108,76.609550,-1406.391290,9252.574275
2708.147437,536.266849,-1036.288319,8512.368333
2708.147766,-995.924147,-814.226536,10066.800811
2708.148095,-459.657299,1184.329507,9548.656652
2708.148424,383.047749,-370.102971,8734.430116
2708.148753,0.000000,-0.000000,8882.471304
2708.149081,1072.533697,962.267725,9844.739029
2708.149410,1378.971896,148.041188,9474.636058
2708.149739,306.438199,-74.020594,7476.080014
2708.150068,229.828649,296.082377,9030.512492
2708.150397,229.828649,-0.000000,9548.656652
2708.150726,-919.314598,370.102971,7476.080014
2708.151055,-1149.143247,-962.267725,10140.821405
2708.151383,-306.438199,-1110.308913,9474.636058
2708.151712,229.828649,-888.247130,8956.491898
2708.152041,-536.266849,-518.144159,8290.306550
2708.152370,-383.047749,-222.061783,9326.594869
2708.152699,-612.876398,370.102971,9548.656652
2708.153028,0.000000,-0.000000,7772.162391
2708.153357,842.705048,-74.020594,8808.450710
2708.153685,1532.190996,296.082377,9622.677246
2708.154014,1532.190996,444.123565,8290.306550
2708.154343,689.485948,370.102971,8808.450710
2708.154672,229.828649,-0.000000,9548.656652
2708.155001,-383.047749,666.185348,8808.450710
2708.155330,0.000000,-666.185348,9400.615463
2708.155658,0.000000,-518.144159,9622.677246
2708.155987,229.828649,-814.226536,9696.697840
2708.156316,76.609550,-1406.391290,9400.615463
2708.156645,-612.876398,-888.247130,9326.594869
2708.156974,-383.047749,370.102971,10140.821405
2708.157303,229.828649,370.102971,9104.533087
2708.157632,919.314598,1110.308913,8290.306550
2708.157960,1149.143247,814.226536,9326.594869
2708.158289,1685.410096,-0.000000,9696.697840
2708.158618,1072.533697,814.226536,8364.327145
2708.158947,306.438199,-0.000000,8882.471304
2708.159276,-995.924147,444.123565,9178.553681
2708.159605,-995.924147,-0.000000,9178.553681
2708.159934,-1532.190996,-1036.288319,9178.553681
2708.160262,-919.314598,-666.185348,10436.903782
2708.160591,-383.047749,-2146.597232,10362.883188
2708.160920,-383.047749,-1702.473667,9326.594869
2708.161249,-689.485948,-1258.350101,9474.636058
2708.161578,-612.876398,-888.247130,10214.842000
2708.161907,153.219100,296.082377,8734.430116
2708.162236,689.485948,-518.144159,9104.533087
2708.162564,1608.800546,962.267725,8808.450710
2708.162893,3524.039291,740.205942,8438.347739
2708.163222,2681.334243,740.205942,6513.812290
2708.163551,2298.286494,888.247130,6957.935855
2708.163880,1685.410096,-0.000000,8512.368333
2708.164209,1532.190996,296.082377,7846.182985
2708.164538,842.705048,-74.020594,7550.100608
2708.164866,306.438199,-1554.432478,9992.780217
2708.165195,-229.828649,-814.226536,10362.883188
2708.165524,229.828649,-1628.453072,10288.862594
2708.165853,-229.828649,-1406.391290,10288.862594
2708.166182,-306.438199,-222.061783,10584.944971
2708.166511,919.314598,296.082377,8586.388927
2708.166840,1915.238745,-0.000000,8660.409521
2708.167168,2374.896044,-0.000000,9770.718434
2708.167497,3217.601092,-0.000000,8956.491898
2708.167826,2451.505594,962.267725,6809.894666
2708.168155,1455.581446,592.164754,7550.100608
2708.168484,995.924147,592.164754,9104.533087
2708.168813,306.438199,962.267725,8512.368333
2708.169142,-612.876398,-1702.473667,8142.265362
2708.169470,-1378.971896,-1480.411884,10732.986159
2708.169799,-1072.533697,-2072.576638,10658.965565
2708.170128,-1225.752797,-1554.432478,9104.533087
2708.170457,-1378.971896,-1258.350101,9918.759623
2708.170786,-1149.143247,-0.000000,9770.718434
2708.171115,536.266849,740.205942,8734.430116
2708.171444,1455.581446,666.185348,7698.141797
2708.171772,1532.190996,1406.391290,7105.977043
2708.172101,2604.724693,1702.473667,7846.182985
2708.172430,1915.238745,1554.432478,7105.977043
2708.172759,229.828649,740.205942,9252.574275
2708.173088,-612.876398,592.164754,9030.512492
2708.173417,-919.314598,-296.082377,8882.471304
2708.173746,-1915.238745,-1036.288319,9104.533087
2708.174074,-1455.581446,-1776.494261,11103.089130
2708.174403,-689.485948,-2960.823768,10288.862594
2708.174732,-2145.067394,-1776.494261,10288.862594
2708.175061,-1991.848295,-962.267725,10807.006753
2708.175390,-1302.362347,-148.041188,9326.594869
2708.175719,0.000000,-0.000000,9326.594869
2708.176048,1225.752797,222.061783,8808.450710
2708.176376,2374.896044,1258.350101,8882.471304
2708.176705,3294.210641,740.205942,7550.100608
2708.177034,3140.991542,1554.432478,6291.750507
2708.177363,2298.286494,1184.329507,9992.780217
2708.177692,1225.752797,1036.288319,8808.450710
2708.178021,536.266849,444.123565,7328.038826
2708.178349,-306.438199,-1480.411884,10214.842000
2708.178678,-1225.752797,-1110.308913,10584.944971
2708.179007,-1455.581446,-2738.761985,10584.944971
2708.179336,-1991.848295,-2442.679609,9992.780217
2708.179665,-1455.581446,-1110.308913,10881.027347
2708.179994,-766.095498,-518.144159,10362.883188
2708.180323,-153.219100,-0.000000,8808.450710
2708.180651,689.485948,888.247130,8882.471304
2708.180980,2145.067394,740.205942,8290.306550
2708.181309,2987.772442,1924.535449,5847.626942
2708.181638,2068.457845,962.267725,7624.121203
2708.181967,459.657299,1702.473667,8586.388927
2708.182296,306.438199,148.041188,7105.977043
2708.182625,-459.657299,-0.000000,8364.327145
2708.182953,-995.924147,-2146.597232,9474.636058
2708.183282,-1072.533697,-2220.617826,10510.924376
2708.183611,-612.876398,-2368.659014,9770.718434
2708.183940,-1762.019645,-1184.329507,9770.718434
2708.184269,-1838.629195,-518.144159,9918.759623
2708.184598,-1225.752797,-1036.288319,9992.780217
2708.184927,0.000000,444.123565,8882.471304
2708.185255,995.924147,-0.000000,8882.471304
2708.185584,2451.505594,666.185348,8142.265362
2708.185913,3753.867940,2146.597232,6883.915261
2708.186242,3600.648841,1702.473667,7328.038826
2708.186571,1838.629195,2072.576638,7550.100608
2708.186900,1762.019645,1036.288319,8142.265362
2708.187229,842.705048,-148.041188,7994.224174
2708.187557,0.000000,-740.205942,9918.759623
2708.187886,-536.266849,-2368.659014,11251.130318
2708.188215,0.000000,-2812.782580,9992.780217
2708.188544,-1149.143247,-3108.864956,10955.047942
2708.188873,-1915.238745,-1776.494261,11917.315666
2708.189202,-536.266849,-888.247130,9992.780217
2708.189531,612.876398,222.061783,8882.471304
2708.189859,2681.334243,1702.473667,9326.594869
2708.190188,4290.134789,2072.576638,8216.285956
2708.190517,3753.867940,2664.741391,6661.853478
2708.190846,3677.258390,2072.576638,7402.059420
2708.191175,2987.772442,2294.638420,7772.162391
2708.191504,1915.238745,1480.411884,7254.018232
2708.191833,76.609550,-740.205942,8142.265362
2708.192161,-2374.896044,-2516.700203,11177.109724
2708.192490,-2374.896044,-2812.782580,12361.439231
2708.192819,-2451.505594,-3701.029710,9844.739029
2708.193148,-2757.943793,-1406.391290,10214.842000
2708.193477,-2068.457845,-666.185348,10658.965565
2708.193806,-2221.676944,-370.102971,9178.553681
2708.194135,-1532.190996,-0.000000,9844.739029
2708.194463,0.000000,-74.020594,11473.192101
2708.194792,1455.581446,888.247130,8216.285956
2708.195121,2451.505594,1776.494261,6587.832884
2708.195450,2757.943793,2294.638420,7105.977043
2708.195779,1762.019645,1628.453072,7920.203579
2708.196108,1302.362347,1184.329507,6735.874072
2708.196437,306.438199,148.041188,7105.977043
2708.196765,-842.705048,-1110.308913,9770.718434
2708.197094,-1225.752797,-2664.741391,10066.800811
2708.197423,-766.095498,-2294.638420,8290.306550
2708.197752,-2374.896044,-3404.947333,11177.109724
2708.198081,-2068.457845,-1924.535449,9992.780217
2708.198410,-459.657299,-1036.288319,8956.491898
2708.198739,76.609550,-74.020594,9252.574275
2708.199067,1532.190996,1258.350101,8364.327145
2708.199396,3064.381992,814.226536,7402.059420
2708.199725,3064.381992,2442.679609,6513.812290
2708.200054,3140.991542,1998.556043,7846.182985
2708.200383,2298.286494,1998.556043,7624.121203
2708.200712,1838.629195,666.185348,7254.018232
2708.201041,612.876398,-296.082377,8956.491898
2708.201370,-306.438199,-518.144159,10436.903782
2708.201699,0.000000,-4145.153275,10584.944971
2708.202027,-1455.581446,-2442.679609,10732.986159
2708.202356,-1762.019645,-2220.617826,11103.089130
2708.202685,-1072.533697,-2072.576638,10510.924376
2708.203014,76.609550,-0.000000,9474.636058
2708.203343,459.657299,370.102971,9252.574275
2708.203672,2681.334243,1628.453072,10288.862594
2708.204001,3753.867940,1702.473667,7031.956449
2708.204330,3294.210641,3256.906145,6883.915261
2708.204659,3217.601092,2368.659014,8364.327145
2708.204988,1685.410096,2812.782580,7550.100608
2708.205317,612.876398,814.226536,7772.162391
2708.205646,-383.047749,-222.061783,9844.739029
2708.205975,-1302.362347,-2220.617826,10732.986159
2708.206304,-1838.629195,-3330.926739,10584.944971
2708.206633,-1838.629195,-3923.091493,10658.965565
2708.206962,-3064.381992,-1924.535449,10881.027347
2708.207291,-1915.238745,-888.247130,10214.842000
2708.207620,-689.485948,-666.185348,9252.574275
2708.207949,0.000000,-0.000000,10362.883188
2708.208278,2068.457845,1036.288319,9548.656652
2708.208607,3677.258390,740.205942,7254.018232
2708.208936,3064.381992,1702.473667,6735.874072
2708.209265,2834.553343,1998.556043,6809.894666
2708.209594,2451.505594,1480.411884,6217.729913
2708.209923,1072.533697,444.123565,6957.935855
2708.210252,536.266849,296.082377,9178.553681
2708.210581,-766.095498,-1480.411884,10288.862594
2708.210909,-1225.752797,-3034.844362,10214.842000
2708.211238,-1762.019645,-2590.720797,10510.924376
2708.211567,-2374.896044,-2220.617826,10362.883188
2708.211896,-1608.800546,-2072.576638,10066.800811
2708.212225,-1225.752797,-888.247130,9252.574275
2708.212554,-383.047749,-518.144159,10584.944971
2708.212883,1532.190996,296.082377,9770.718434
2708.213212,2451.505594,1110.308913,7031.956449
2708.213541,2451.505594,2368.659014,6587.832884
2708.213870,2451.505594,2516.700203,7550.100608
2708.214199,2298.286494,1554.432478,7328.038826
2708.214528,153.219100,1184.329507,7254.018232
2708.214857,229.828649,-0.000000,9252.574275
2708.215186,-459.657299,-1998.556043,9992.780217
2708.215515,-1991.848295,-1924.535449,8734.430116
2708.215844,-2681.334243,-2664.741391,10362.883188
2708.216173,-2451.505594,-1110.308913,11029.068536
2708.216502,-1455.581446,-814.226536,9622.677246
2708.216831,-1838.629195,-666.185348,9252.574275
2708.217160,-1608.800546,-0.000000,10658.965565
2708.217489,0.000000,-0.000000,9992.780217
2708.217818,1225.752797,-0.000000,8438.347739
2708.218147,612.876398,1110.308913,8364.327145
2708.218476,1455.581446,1184.329507,8586.388927
2708.218805,919.314598,2220.617826,7031.956449
2708.219134,1532.190996,-0.000000,8142.265362
2708.219463,536.266849,-0.000000,8808.450710
2708.219792,612.876398,-740.205942,9474.636058
2708.220120,0.000000,-2072.576638,9030.512492
2708.220449,-689.485948,-2590.720797,9992.780217
2708.220778,-995.924147,-1554.432478,10732.986159
2708.221107,229.828649,-666.185348,9918.759623
2708.221436,153.219100,-740.205942,9252.574275
2708.221765,1302.362347,-0.000000,10807.006753
2708.222094,3140.991542,1702.473667,8956.491898
2708.222423,3677.258390,1702.473667,7402.059420
2708.222752,2911.162892,1702.473667,8882.471304
2708.223081,2911.162892,2516.700203,9030.512492
2708.223410,2145.067394,1036.288319,7698.141797
2708.223739,842.705048,1184.329507,7846.182985
2708.224068,153.219100,-370.102971,10436.903782
2708.224397,-306.438199,-2294.638420,10807.006753
2708.224726,-1532.190996,-3108.864956,9474.636058
2708.225055,-1915.238745,-2294.638420,10584.944971
2708.225384,-1378.971896,-2220.617826,9770.718434
2708.225713,-536.266849,-962.267725,8956.491898
2708.226042,1072.533697,-296.082377,10510.924376
2708.226371,1838.629195,-0.000000,9474.636058
2708.226700,3140.991542,1184.329507,7698.141797
2708.227029,2834.553343,1110.308913,6809.894666
2708.227358,2681.334243,2738.761985,7624.121203
2708.227687,2604.724693,2220.617826,6957.935855
2708.228016,1225.752797,1924.535449,6809.894666
2708.228345,1378.971896,1406.391290,7402.059420
2708.228674,766.095498,-1184.329507,10584.944971
2708.229002,-1072.533697,-2516.700203,9104.533087
2708.229331,-2681.334243,-2294.638420,9474.636058
2708.229660,-3217.601092,-3478.967927,11843.295072
2708.229989,-2757.943793,-2442.679609,9400.615463
2708.230318,-2221.676944,-1480.411884,8808.450710
2708.230647,-2757.943793,-888.247130,9548.656652
2708.230976,-766.095498,-666.185348,11251.130318
2708.231305,842.705048,-296.082377,8734.430116
2708.231634,1072.533697,518.144159,7846.182985
2708.231963,1915.238745,740.205942,8660.409521
2708.232292,1762.019645,1628.453072,7179.997637
2708.232621,2298.286494,1776.494261,7328.038826
2708.232950,1685.410096,1924.535449,8734.430116
2708.233279,2604.724693,-222.061783,8956.491898
2708.233608,919.314598,-444.123565,8364.327145
2708.233937,229.828649,-962.267725,9178.553681
2708.234266,-1608.800546,-2146.597232,11029.068536
2708.234595,-1991.848295,-2146.597232,10214.842000
2708.234924,-1225.752797,-2368.659014,10066.800811
2708.235253,-459.657299,-1332.370696,10362.883188
2708.235582,383.047749,-74.020594,10362.883188
2708.235911,536.266849,296.082377,9252.574275
2708.236240,766.095498,370.102971,9178.553681
2708.236569,842.705048,2072.576638,8734.430116
2708.236898,1149.143247,1554.432478,7550.100608
2708.237227,0.000000,1406.391290,9178.553681
2708.237556,76.609550,1184.329507,9770.718434
2708.237884,1455.581446,148.041188,8882.471304
2708.238213,-383.047749,-740.205942,8512.368333
2708.238542,-1378.971896,-1332.370696,9104.533087
2708.238871,-1915.238745,-1406.391290,11473.192101
2708.239200,-1915.238745,-1110.308913,9252.574275
2708.239529,-766.095498,-740.205942,8882.471304
2708.239858,-1455.581446,-1332.370696,9918.759623
2708.240187,-1149.143247,222.061783,11029.068536
2708.240516,612.876398,-1110.308913,7994.224174
2708.240845,459.657299,1036.288319,7179.997637
2708.241174,1149.143247,1036.288319,8586.388927
2708.241503,919.314598,1332.370696,7105.977043
2708.241832,1225.752797,1110.308913,8068.244768
2708.242161,2221.676944,296.082377,9030.512492
2708.242490,1685.410096,-1110.308913,9030.512492
2708.242819,689.485948,-592.164754,8586.388927
2708.243148,0.000000,-1184.329507,9844.739029
2708.243477,-689.485948,-1036.288319,10584.944971
2708.243806,-383.047749,-1258.350101,8512.368333
2708.244135,1225.752797,-1036.288319,9696.697840
2708.244464,919.314598,-666.185348,10214.842000
2708.244793,2374.896044,148.041188,8586.388927
2708.245122,2681.334243,-0.000000,8068.244768
2708.245451,1991.848295,1628.453072,8438.347739
2708.245780,2374.896044,962.267725,8956.491898
2708.246109,1762.019645,1184.329507,7994.224174
2708.246438,1302.362347,296.082377,7846.182985
2708.246766,2374.896044,-74.020594,10214.842000
2708.247095,1378.971896,-444.123565,9252.574275
2708.247424,383.047749,-1110.308913,9252.574275
2708.247753,-306.438199,-1554.432478,9992.780217
2708.248082,-383.047749,-444.123565,10288.862594
2708.248411,-383.047749,-1184.329507,8808.450710
2708.248740,0.000000,-962.267725,9252.574275
2708.249069,306.438199,-592.164754,10362.883188
2708.249398,1225.752797,518.144159,8808.450710
2708.249727,1225.752797,1850.514855,8364.327145
2708.250056,76.609550,1332.370696,8882.471304
2708.250385,229.828649,962.267725,8660.409521
2708.250714,-153.219100,740.205942,8438.347739
2708.251043,-459.657299,-370.102971,9326.594869
2708.251372,-842.705048,-666.185348,10288.862594
2708.251701,-919.314598,-2072.576638,9178.553681
2708.252030,-2604.724693,-740.205942,9548.656652
2708.252359,-2451.505594,-1554.432478,11029.068536
2708.252688,-1991.848295,-1628.453072,9548.656652
2708.253017,-1838.629195,-0.000000,8882.471304
2708.253346,-1225.752797,-666.185348,9252.574275
2708.253675,-612.876398,-1480.411884,9844.739029
2708.254004,1072.533697,-444.123565,9178.553681
2708.254333,1455.581446,1184.329507,6439.791695
2708.254662,1532.190996,1554.432478,7920.203579
2708.254991,842.705048,1554.432478,7328.038826
2708.255320,1608.800546,1406.391290,7179.997637
2708.255648,1455.581446,-370.102971,8216.285956
2708.255977,842.705048,-814.226536,9178.553681
2708.256306,306.438199,-2294.638420,8808.450710
2708.256635,-995.924147,-1628.453072,9548.656652
2708.256964,-1915.238745,-1998.556043,10807.006753
2708.257293,-1378.971896,-1628.453072,10140.821405
2708.257622,-229.828649,-2072.576638,9474.636058
2708.257951,0.000000,-518.144159,9992.780217
2708.258280,1302.362347,888.247130,9252.574275
2708.258609,766.095498,296.082377,8438.347739
2708.258938,2451.505594,-296.082377,9030.512492
2708.259267,1532.190996,2220.617826,7846.182985
2708.259596,536.266849,888.247130,7920.203579
2708.259925,1455.581446,-0.000000,7994.224174
2708.260254,1532.190996,1184.329507,8734.430116
2708.260583,612.876398,-518.144159,9992.780217
2708.260912,842.705048,-740.205942,8734.430116
2708.261241,-766.095498,-1924.535449,10066.800811
2708.261570,-842.705048,740.205942,9844.739029
2708.261899,-383.047749,-518.144159,8882.471304
2708.262228,-842.705048,-666.185348,9474.636058
2708.262557,0.000000,-148.041188,9548.656652
2708.262886,1455.581446,222.061783,9252.574275
2708.263215,1378.971896,444.123565,9104.533087
2708.263544,1149.143247,592.164754,8216.285956
2708.263873,689.485948,666.185348,9178.553681
2708.264202,842.705048,1184.329507,7994.224174
2708.264530,995.924147,666.185348,8216.285956
2708.264859,919.314598,-444.123565,10510.924376
2708.265188,536.266849,-666.185348,9400.615463
2708.265517,536.266849,-518.144159,8586.388927
2708.265846,0.000000,-814.226536,10658.965565
2708.266175,-919.314598,-888.247130,9548.656652
2708.266504,76.609550,-74.020594,9326.594869
2708.266833,612.876398,-296.082377,9030.512492
2708.267162,766.095498,-1036.288319,9844.739029
2708.267491,2374.896044,-370.102971,9696.697840
2708.267820,2145.067394,592.164754,7402.059420
2708.268149,2068.457845,666.185348,9030.512492
2708.268478,1915.238745,444.123565,8586.388927
2708.268807,1225.752797,1036.288319,7624.121203
2708.269136,1608.800546,-0.000000,8882.471304
2708.269465,1072.533697,370.102971,8882.471304
2708.269794,842.705048,-1480.411884,9252.574275
2708.270123,919.314598,-1184.329507,9178.553681
2708.270452,-229.828649,-592.164754,9770.718434
2708.270781,-1149.143247,-740.205942,9474.636058
2708.271110,0.000000,-444.123565,8586.388927
2708.271439,-689.485948,-148.041188,8882.471304
2708.271768,-306.438199,-296.082377,9844.739029
2708.272097,766.095498,-370.102971,8364.327145
2708.272426,0.000000,-592.164754,7920.203579
2708.272755,-919.314598,-0.000000,10584.944971
2708.273084,-1532.190996,592.164754,8512.368333
2708.273412,-995.924147,-444.123565,8660.409521
2708.273741,-919.314598,148.041188,8438.347739
2708.274070,-612.876398,-74.020594,9622.677246
2708.274399,0.000000,-1554.432478,9178.553681
2708.274728,-383.047749,-814.226536,8142.265362
2708.275057,-612.876398,-1036.288319,9178.553681
2708.275386,-612.876398,-1332.370696,9474.636058
2708.275715,-536.266849,-222.061783,7920.203579
2708.276044,-383.047749,-814.226536,8512.368333
2708.276373,306.438199,-740.205942,9326.594869
2708.276702,919.314598,-814.226536,8438.347739
2708.277031,766.095498,-444.123565,8512.368333
2708.277360,-766.095498,-0.000000,9992.780217
2708.277689,0.000000,-370.102971,9548.656652
2708.278018,229.828649,222.061783,8364.327145
2708.278347,-536.266849,-148.041188,9844.739029
2708.278676,0.000000,-592.164754,10510.924376
2708.279005,919.314598,-518.144159,9474.636058
2708.279334,689.485948,444.123565,9178.553681
2708.279663,1149.143247,-740.205942,10288.862594
2708.279992,842.705048,-370.102971,9178.553681
2708.280321,1225.752797,-0.000000,7698.141797
2708.280650,2451.505594,444.123565,8808.450710
2708.280979,2451.505594,1628.453072,8956.491898
2708.281308,2298.286494,-0.000000,9030.512492
2708.281637,1608.800546,666.185348,8216.285956
2708.281966,919.314598,-148.041188,9770.718434
2708.282294,383.047749,666.185348,8586.388927
2708.282623,306.438199,-0.000000,8660.409521
2708.282952,0.000000,-444.123565,10288.862594
2708.283281,229.828649,-222.061783,10066.800811
2708.283610,689.485948,-962.267725,10214.842000
2708.283939,-383.047749,-666.185348,9326.594869
2708.284268,306.438199,-222.061783,9252.574275
2708.284597,1225.752797,296.082377,9178.553681
2708.284926,1991.848295,888.247130,8438.347739
2708.285255,1225.752797,1332.370696,8586.388927
2708.285584,2451.505594,666.185348,10510.924376
2708.285913,1838.629195,444.123565,6957.935855
2708.286242,1762.019645,370.102971,7772.162391
2708.286571,0.000000,-0.000000,9474.636058
2708.286900,-1072.533697,-296.082377,9252.574275
2708.287229,-536.266849,-2294.638420,9252.574275
2708.287558,-1378.971896,-444.123565,9918.759623
2708.287887,-1225.752797,-2368.659014,10510.924376
2708.288216,-1838.629195,-2294.638420,10436.903782
2708.288545,-842.705048,-888.247130,9474.636058
2708.288874,-842.705048,-1110.308913,9474.636058
2708.289203,766.095498,-0.000000,9178.553681
2708.289532,689.485948,370.102971,8216.285956
2708.289861,1991.848295,592.164754,9252.574275
2708.290190,2911.162892,1110.308913,8364.327145
2708.290519,2528.115143,1110.308913,6809.894666
2708.290848,2911.162892,1184.329507,8882.471304
2708.291176,1762.019645,962.267725,8512.368333
2708.291505,536.266849,-592.164754,7920.203579
2708.291834,-383.047749,-888.247130,9178.553681
2708.292163,-842.705048,-1998.556043,10214.842000
2708.292492,-1455.581446,-1702.473667,9992.780217
2708.292821,-1608.800546,-2294.638420,9918.759623
2708.293150,-1608.800546,-1776.494261,9844.739029
2708.293479,-1302.362347,-1036.288319,10881.027347
2708.293808,-459.657299,740.205942,8512.368333
2708.294137,229.828649,-0.000000,8512.368333
2708.294466,842.705048,1184.329507,9696.697840
2708.294795,2068.457845,1480.411884,7846.182985
2708.295124,1685.410096,814.226536,7328.038826
2708.295453,76.609550,1406.391290,8216.285956
2708.295782,229.828649,888.247130,8290.306550
2708.296111,-1072.533697,370.102971,7698.141797
2708.296440,-2221.676944,-666.185348,8512.368333
2708.296769,-2528.115143,-1480.411884,9918.759623
2708.297098,-3217.601092,-2146.597232,10066.800811
2708.297427,-3524.039291,-1776.494261,8808.450710
2708.297756,-4443.353888,-666.185348,9252.574275
2708.298085,-4596.572988,-370.102971,10214.842000
2708.298414,-4366.744339,-1480.411884,9770.718434
2708.298743,-3907.087040,-962.267725,10288.862594
2708.299072,-3830.477490,-1258.350101,10214.842000
2708.299401,-2834.553343,-888.247130,8956.491898
2708.299730,-2604.724693,-296.082377,8512.368333
2708.300059,-3524.039291,-0.000000,9400.615463
2708.300388,-3140.991542,-0.000000,9622.677246
2708.300717,-2221.676944,444.123565,8660.409521
2708.301046,-1838.629195,296.082377,8364.327145
2708.301375,-1378.971896,296.082377,8882.471304
2708.301704,-1608.800546,-888.247130,8586.388927
2708.302033,-1072.533697,-962.267725,8956.491898
2708.302362,-1072.533697,-222.061783,8216.285956
2708.302691,-842.705048,-0.000000,9548.656652
2708.303020,-1225.752797,-74.020594,8660.409521
2708.303349,-689.485948,962.267725,8290.306550
2708.303678,0.000000,518.144159,8734.430116
2708.304007,-766.095498,-222.061783,8586.388927
2708.304336,-766.095498,-222.061783,9326.594869
2708.304665,-766.095498,-0.000000,9474.636058
2708.304994,-2221.676944,-0.000000,9030.512492
2708.305323,-2604.724693,-222.061783,9252.574275
2708.305652,-2528.115143,-518.144159,9326.594869
2708.305981,-1762.019645,-444.123565,9474.636058
2708.306310,-2068.457845,-518.144159,8364.327145
2708.306639,-2681.334243,-814.226536,9474.636058
2708.306968,-2604.724693,-740.205942,9474.636058
2708.307297,-2451.505594,444.123565,8586.388927
2708.307626,-3064.381992,740.205942,8956.491898
2708.307955,-3907.087040,-444.123565,9474.636058
2708.308284,-3064.381992,666.185348,8734.430116
2708.308613,-2681.334243,518.144159,8586.388927
2708.308942,-3294.210641,-740.205942,8808.450710
2708.309271,-4213.525239,-740.205942,9252.574275
2708.309600,-4366.744339,-444.123565,9696.697840
2708.309929,-3907.087040,-222.061783,8882.471304
2708.310258,-3983.696590,-666.185348,8660.409521
2708.310587,-4673.182538,-1406.391290,10288.862594
2708.310916,-4673.182538,-888.247130,9992.780217
2708.311246,-4136.915689,-592.164754,9548.656652
2708.311575,-3753.867940,-1184.329507,9178.553681
2708.311904,-3907.087040,-1702.473667,9844.739029
2708.312233,-3447.429741,-1776.494261,10807.006753
2708.312562,-2834.553343,-666.185348,9696.697840
2708.312891,-1915.238745,666.185348,9178.553681
2708.313220,-919.314598,444.123565,8586.388927
2708.313549,-766.095498,814.226536,8512.368333
2708.313878,-1225.752797,740.205942,8808.450710
2708.314207,-1149.143247,370.102971,8734.430116
2708.314536,0.000000,444.123565,7994.224174
2708.314865,306.438199,-0.000000,7920.203579
2708.315194,0.000000,-148.041188,8290.306550
2708.315523,-689.485948,-0.000000,7698.141797
2708.315852,-995.924147,666.185348,7698.141797
2708.316181,-1072.533697,592.164754,8364.327145
2708.316510,-1838.629195,370.102971,9326.594869
2708.316839,-2374.896044,-0.000000,9104.533087
2708.317168,-3140.991542,-222.061783,9326.594869
2708.317497,-3294.210641,-148.041188,8808.450710
2708.317826,-3753.867940,-888.247130,9326.594869
2708.318155,-4366.744339,-2590.720797,10288.862594
2708.318484,-4366.744339,-2664.741391,10288.862594
2708.318813,-4136.915689,-2368.659014,10362.883188
2708.319142,-3447.429741,-1998.556043,9104.533087
2708.319471,-2681.334243,-518.144159,9178.553681
2708.319800,-2221.676944,740.205942,9104.533087
2708.320129,-1455.581446,592.164754,8660.409521
2708.320458,-1225.752797,296.082377,8660.409521
2708.320787,-1225.752797,740.205942,8808.450710
2708.321116,-1378.971896,1110.308913,8364.327145
2708.321445,-1915.238745,962.267725,7846.182985
2708.321774,-1762.019645,-0.000000,9548.656652
2708.322103,-1915.238745,-518.144159,8586.388927
2708.322432,-1762.019645,-592.164754,9770.718434
2708.322761,-2757.943793,296.082377,8438.347739
2708.323090,-2604.724693,1184.329507,8068.244768
2708.323419,-2834.553343,370.102971,8438.347739
2708.323749,-3524.039291,-0.000000,9104.533087
2708.324078,-4366.744339,-444.123565,9918.759623
2708.324407,-4979.620737,-0.000000,9770.718434
2708.324736,-5056.230287,296.082377,9326.594869
2708.325065,-4673.182538,-814.226536,10140.821405
2708.325394,-4366.744339,-1258.350101,10140.821405
2708.325723,-3830.477490,-518.144159,9844.739029
2708.326052,-3217.601092,-1480.411884,9770.718434
2708.326381,-3447.429741,-74.020594,9252.574275
2708.326710,-2221.676944,-0.000000,9030.512492
2708.327039,-2221.676944,666.185348,8734.430116
2708.327368,-2451.505594,666.185348,8882.471304
2708.327697,-2451.505594,370.102971,8438.347739
2708.328026,-2681.334243,-222.061783,8586.388927
2708.328355,-1915.238745,-222.061783,9178.553681
2708.328684,-2451.505594,-518.144159,9178.553681
2708.329013,-1762.019645,-1184.329507,9400.615463
2708.329342,-2451.505594,-666.185348,9548.656652
2708.329671,-2145.067394,-296.082377,9104.533087
2708.330000,-1455.581446,518.144159,8586.388927
2708.330329,-995.924147,518.144159,7994.224174
2708.330658,-1455.581446,-0.000000,7846.182985
2708.330987,-1455.581446,-222.061783,8882.471304
2708.331316,-2068.457845,-814.226536,8660.409521
2708.331645,-2604.724693,-0.000000,8512.368333
2708.331974,-2987.772442,-0.000000,8660.409521
2708.332303,-3217.601092,592.164754,8512.368333
2708.332632,-4060.306139,518.144159,8882.471304
2708.332961,-4519.963438,-0.000000,9918.759623
2708.333290,-4519.963438,-666.185348,9548.656652
2708.333619,-4596.572988,-1554.432478,10362.883188
2708.333948,-4673.182538,-2960.823768,10807.006753
2708.334277,-3600.648841,-2368.659014,10584.944971
2708.334606,-2451.505594,-1776.494261,9622.677246
2708.334935,-995.924147,-222.061783,8660.409521
2708.335264,-612.876398,1184.329507,7179.997637
2708.335593,612.876398,1036.288319,8438.347739
2708.335922,1302.362347,740.205942,9326.594869
2708.336252,689.485948,2664.741391,5847.626942
2708.336581,995.924147,1554.432478,8068.244768
2708.336910,-1072.533697,1924.535449,6661.853478
2708.337239,-995.924147,740.205942,8956.491898
2708.337568,-3370.820191,-518.144159,9770.718434
2708.337897,-2681.334243,-518.144159,9030.512492
2708.338226,-3370.820191,-1184.329507,8586.388927
2708.338555,-5286.058936,-1184.329507,9696.697840
2708.338884,-6665.030833,-1924.535449,11103.089130
2708.339213,-6435.202183,-1998.556043,11769.274478
2708.339542,-5056.230287,-1406.391290,10436.903782
2708.339871,-3370.820191,-1776.494261,9844.739029
2708.340200,-1608.800546,-0.000000,9770.718434
2708.340529,-689.485948,1036.288319,7698.141797
2708.340858,-229.828649,-74.020594,6957.935855
2708.341187,-383.047749,444.123565,9474.636058
2708.341516,1225.752797,222.061783,8734.430116
2708.341845,1378.971896,1776.494261,6291.750507
2708.342174,1072.533697,1406.391290,7994.224174
2708.342503,-153.219100,1554.432478,6957.935855
2708.342832,-383.047749,-0.000000,8216.285956
2708.343161,-2451.505594,740.205942,8512.368333
2708.343490,-1915.238745,-444.123565,9918.759623
2708.343819,-2451.505594,-296.082377,9030.512492
2708.344148,-4060.306139,814.226536,7402.059420
2708.344477,-5362.668486,-1628.453072,9622.677246
2708.344806,-6205.373534,-1850.514855,10510.924376
2708.345135,-5515.887586,-2960.823768,11177.109724
2708.345464,-5975.544884,-3256.906145,10288.862594
2708.345793,-5209.449386,-2442.679609,10584.944971
2708.346122,-4903.011187,-2738.761985,10140.821405
2708.346451,-3983.696590,-2516.700203,9696.697840
2708.346780,-2757.943793,-74.020594,10214.842000
2708.347109,-1685.410096,370.102971,8956.491898
2708.347438,-1072.533697,814.226536,9104.533087
2708.347767,-1455.581446,1850.514855,8364.327145
2708.348096,-1532.190996,2220.617826,8364.327145
2708.348425,-1991.848295,1628.453072,7179.997637
2708.348755,-1608.800546,814.226536,8216.285956
2708.349084,-1302.362347,1628.453072,7920.203579
2708.349413,-2068.457845,962.267725,7994.224174
2708.349742,-2604.724693,814.226536,7550.100608
2708.350071,-2528.115143,-0.000000,7476.080014
2708.350400,-2528.115143,518.144159,7772.162391
2708.350729,-2757.943793,-296.082377,7846.182985
2708.351058,-2987.772442,-296.082377,8586.388927
2708.351387,-3447.429741,-0.000000,8956.491898
2708.351716,-3753.867940,740.205942,9474.636058
2708.352045,-4596.572988,1480.411884,9696.697840
2708.352374,-4443.353888,296.082377,11399.171507
2708.352703,-3983.696590,1184.329507,10214.842000
2708.353032,-3830.477490,592.164754,10214.842000
2708.353361,-3370.820191,296.082377,10658.965565
2708.353690,-2068.457845,370.102971,10732.986159
2708.354019,-1532.190996,1332.370696,9548.656652
2708.354348,-536.266849,1110.308913,9030.512492
2708.354677,-689.485948,1406.391290,8660.409521
2708.355006,-229.828649,-370.102971,11621.233289
2708.355335,1455.581446,2590.720797,7624.121203
2708.355664,2911.162892,2960.823768,7105.977043
2708.355993,3753.867940,3701.029710,6365.771101
2708.356322,2911.162892,4885.359217,6513.812290
2708.356651,3600.648841,4367.215058,9030.512492
2708.356980,2068.457845,4811.338623,6809.894666
2708.357309,2298.286494,3997.112087,9104.533087
2708.357638,306.438199,2368.659014,9918.759623
2708.357967,-536.266849,2812.782580,10436.903782
2708.358296,-1685.410096,888.247130,11621.233289
2708.358625,-995.924147,962.267725,10510.924376
2708.358954,-1072.533697,1332.370696,11251.130318
2708.359283,-612.876398,1406.391290,10140.821405
2708.359612,0.000000,3182.885551,9918.759623
2708.359941,459.657299,2072.576638,8956.491898
2708.360270,2068.457845,3034.844362,8586.388927
2708.360599,2221.676944,4959.379811,6439.791695
2708.360928,1915.238745,4219.173869,7328.038826
2708.361258,1915.238745,4811.338623,7476.080014
2708.361587,1378.971896,4885.359217,7179.997637
2708.361916,229.828649,3997.112087,8512.368333
2708.362245,-1455.581446,2664.741391,9104.533087
2708.362574,-2451.505594,1406.391290,10066.800811
2708.362903,-2987.772442,444.123565,10881.027347
2708.363232,-2298.286494,2368.659014,9548.656652
2708.363561,-2298.286494,1998.556043,10140.821405
2708.363890,-3447.429741,2146.597232,9696.697840
2708.364219,-2757.943793,2368.659014,10288.862594
2708.364548,-2221.676944,1554.432478,11473.192101
2708.364877,-1532.190996,2146.597232,9992.780217
2708.365206,-383.047749,2368.659014,8882.471304
2708.365535,-842.705048,3478.967927,8882.471304
2708.365864,-1532.190996,2664.741391,10066.800811
2708.366193,689.485948,1702.473667,11843.295072
2708.366522,2298.286494,4811.338623,6809.894666
2708.366851,3830.477490,4663.297435,8068.244768
2708.367180,2528.115143,4959.379811,5699.585753
2708.367509,3294.210641,7476.080014,6291.750507
2708.367838,2068.457845,5995.668130,7179.997637
2708.368167,1608.800546,5255.462188,7846.182985
2708.368496,842.705048,5699.585753,8364.327145
2708.368825,76.609550,4589.276840,8290.306550
2708.369154,-306.438199,3404.947333,9252.574275
2708.369483,-1532.190996,-222.061783,12361.439231
2708.369812,-842.705048,-1406.391290,10584.944971
2708.370141,-919.314598,1702.473667,11251.130318
2708.370470,-1225.752797,-666.185348,11843.295072
2708.370799,-1991.848295,3108.864956,8438.347739
2708.371128,536.266849,3108.864956,10955.047942
2708.371457,1685.410096,5033.400406,8216.285956
2708.371786,2374.896044,5773.606348,7624.121203
2708.372115,2911.162892,4441.235652,7254.018232
2708.372444,2298.286494,5033.400406,7624.121203
2708.372773,1378.971896,5329.482782,8068.244768
2708.373102,-536.266849,2294.638420,8734.430116
2708.373431,-1608.800546,370.102971,11103.089130
2708.373760,-1915.238745,-222.061783,11621.233289
2708.374090,-1915.238745,444.123565,11251.130318
2708.374419,-2298.286494,1258.350101,9622.677246
2708.374748,-1915.238745,1110.308913,9992.780217
2708.375077,-1608.800546,2516.700203,10436.903782
2708.375406,0.000000,1776.494261,10658.965565
2708.375735,1838.629195,2072.576638,9252.574275
2708.376064,3983.696590,2812.782580,8290.306550
2708.376393,4290.134789,2220.617826,6661.853478
2708.376722,3294.210641,3701.029710,6809.894666
2708.377051,3370.820191,4589.276840,7476.080014
2708.377380,2528.115143,3478.967927,7402.059420
2708.377709,2145.067394,3627.009116,7476.080014
2708.378038,1378.971896,4885.359217,6661.853478
2708.378367,229.828649,1850.514855,9696.697840
2708.378696,-3370.820191,-1998.556043,13175.665768
2708.379025,-2604.724693,-3256.906145,13027.624579
2708.379354,-1915.238745,-592.164754,11695.253884
2708.379683,-2911.162892,-2368.659014,11621.233289
2708.380012,-3983.696590,1480.411884,10510.924376
2708.380341,-1532.190996,1850.514855,10066.800811
2708.380670,-459.657299,2886.803174,8364.327145
2708.380999,0.000000,5181.441594,7994.224174
2708.381328,2911.162892,1850.514855,11843.295072
2708.381657,3217.601092,2146.597232,8586.388927
2708.381986,3447.429741,5107.421000,6883.915261
2708.382315,4673.182538,4663.297435,2220.617826
2708.382644,3677.258390,4737.318029,5699.585753
2708.382973,3983.696590,3034.844362,9252.574275
2708.383302,2068.457845,6291.750507,5329.482782
2708.383631,2374.896044,4589.276840,6661.853478
2708.383960,-842.705048,2664.741391,7402.059420
2708.384289,-3753.867940,2664.741391,10807.006753
2708.384618,-3447.429741,-2960.823768,14285.974681
2708.384947,-3600.648841,3849.070898,7846.182985
2708.385276,-842.705048,-2960.823768,12731.542202
2708.385605,-3447.429741,-962.267725,9918.759623
2708.385934,-1149.143247,2664.741391,13471.748144
2708.386263,-2221.676944,1924.535449,9104.533087
2708.386593,-1149.143247,1776.494261,10807.006753
2708.386922,689.485948,3034.844362,11843.295072
2708.387251,3140.991542,5107.421000,7476.080014
2708.387580,3064.381992,5625.565159,8734.430116
2708.387909,2681.334243,3701.029710,4441.235652
2708.388238,3370.820191,6143.709319,6365.771101
2708.388567,689.485948,5033.400406,8068.244768
2708.388896,0.000000,4515.256246,8068.244768
2708.389225,229.828649,6661.853478,10214.842000
2708.389554,-612.876398,2886.803174,8142.265362
2708.389883,-3064.381992,1480.411884,10732.986159
2708.390212,-3294.210641,-592.164754,11843.295072
2708.390541,-1991.848295,1258.350101,10807.006753
2708.390870,-842.705048,-1554.432478,11769.274478
2708.391199,-1762.019645,1258.350101,9326.594869
2708.391528,-995.924147,1998.556043,11325.150913
2708.391857,459.657299,3256.906145,9104.533087
2708.392186,1762.019645,6587.832884,7105.977043
2708.392515,3217.601092,6957.935855,7772.162391
2708.392844,2451.505594,5625.565159,8512.368333
2708.393173,689.485948,4885.359217,8808.450710
2708.393502,-229.828649,5255.462188,8290.306550
2708.393831,0.000000,4293.194464,7476.080014
2708.394160,995.924147,2664.741391,9326.594869
2708.394489,76.609550,1184.329507,10362.883188
2708.394818,-689.485948,666.185348,11769.274478
2708.395147,-2145.067394,1406.391290,10807.006753
2708.395476,-383.047749,-0.000000,9992.780217
2708.395805,-153.219100,3182.885551,8586.388927
2708.396134,995.924147,4589.276840,9918.759623
2708.396463,229.828649,4589.276840,8142.265362
2708.396792,995.924147,3404.947333,7994.224174
2708.397121,2834.553343,5107.421000,6883.915261
2708.397450,3983.696590,5033.400406,7550.100608
2708.397779,1991.848295,4515.256246,7772.162391
2708.398108,1378.971896,3034.844362,7772.162391
2708.398437,1455.581446,3034.844362,7994.224174
2708.398766,1225.752797,4885.359217,8068.244768
2708.399096,1685.410096,3404.947333,8512.368333
2708.399425,-383.047749,1850.514855,9770.718434
2708.399754,-1991.848295,-0.000000,10807.006753
2708.400083,-1149.143247,-0.000000,10066.800811
2708.400412,-1378.971896,-1776.494261,11695.253884
2708.400741,-2374.896044,-370.102971,11621.233289
2708.401070,-1685.410096,1332.370696,11621.233289
2708.401399,842.705048,1628.453072,9252.574275
2708.401728,2145.067394,3108.864956,7254.018232
2708.402057,2374.896044,4367.215058,7179.997637
2708.402386,1302.362347,3182.885551,8364.327145
2708.402715,1149.143247,3552.988522,8364.327145
2708.403044,2834.553343,3478.967927,7402.059420
2708.403373,2374.896044,3108.864956,6735.874072
2708.403702,766.095498,3108.864956,8216.285956
2708.404031,229.828649,2368.659014,9918.759623
2708.404360,-459.657299,444.123565,10066.800811
2708.404689,-1762.019645,1332.370696,9178.553681
2708.405018,-2681.334243,1702.473667,10288.862594
2708.405347,-2987.772442,-222.061783,11621.233289
2708.405676,-2757.943793,222.061783,10955.047942
2708.406005,-1915.238745,1036.288319,8586.388927
2708.406334,-1532.190996,518.144159,9992.780217
2708.406663,-536.266849,1924.535449,9030.512492
2708.406992,1149.143247,3034.844362,7550.100608
2708.407321,919.314598,3256.906145,6735.874072
2708.407650,689.485948,1332.370696,8068.244768
2708.407979,1991.848295,-0.000000,8586.388927
2708.408308,1991.848295,888.247130,8808.450710
2708.408637,919.314598,1332.370696,9252.574275
2708.408966,459.657299,1480.411884,9178.553681
2708.409295,0.000000,1406.391290,10214.842000
2708.409624,-919.314598,1628.453072,9548.656652
2708.409953,-1608.800546,1850.514855,10066.800811
2708.410282,-1685.410096,296.082377,11325.150913
2708.410611,612.876398,1406.391290,9918.759623
2708.410940,842.705048,2368.659014,9252.574275
2708.411269,536.266849,1258.350101,8882.471304
2708.411598,1302.362347,370.102971,9474.636058
2708.411927,1685.410096,2072.576638,7920.203579
2708.412256,1838.629195,2294.638420,7105.977043
2708.412585,2604.724693,1776.494261,7846.182985
2708.412914,2604.724693,888.247130,9030.512492
2708.413243,2221.676944,2220.617826,9104.533087
2708.413572,766.095498,1406.391290,8808.450710
2708.413901,612.876398,-0.000000,10140.821405
2708.414230,306.438199,666.185348,9918.759623
2708.414559,0.000000,1184.329507,10214.842000
2708.414888,-1072.533697,518.144159,10140.821405
2708.415217,76.609550,-814.226536,10955.047942
2708.415547,76.609550,888.247130,9252.574275
2708.415876,-536.266849,1110.308913,9030.512492
2708.416205,0.000000,-0.000000,8586.388927
2708.416534,536.266849,-0.000000,7920.203579
2708.416863,689.485948,888.247130,7031.956449
2708.417192,536.266849,370.102971,7402.059420
2708.417521,1072.533697,-1184.329507,8142.265362
2708.417850,995.924147,-888.247130,8808.450710
2708.418179,383.047749,-1036.288319,9992.780217
2708.418508,383.047749,-1554.432478,9178.553681
2708.418837,0.000000,-1554.432478,9474.636058
2708.419166,-612.876398,1110.308913,9770.718434
2708.419495,-995.924147,370.102971,10066.800811
2708.419824,0.000000,-740.205942,9474.636058
2708.420153,229.828649,888.247130,9252.574275
2708.420482,76.609550,814.226536,9548.656652
2708.420811,0.000000,-148.041188,9326.594869
2708.421140,459.657299,-222.061783,7772.162391
2708.421469,383.047749,222.061783,7994.224174
2708.421798,842.705048,-370.102971,8364.327145
2708.422127,766.095498,-1702.473667,8734.430116
2708.422456,842.705048,-1258.350101,8882.471304
2708.422785,1455.581446,-0.000000,9030.512492
2708.423114,1608.800546,-666.185348,8734.430116
2708.423443,459.657299,444.123565,9252.574275
2708.423772,229.828649,1850.514855,9326.594869
2708.424101,0.000000,888.247130,10362.883188
2708.424430,612.876398,888.247130,9992.780217
2708.424759,1532.190996,-0.000000,9696.697840
2708.425088,612.876398,-148.041188,9474.636058
2708.425417,306.438199,-1480.411884,9918.759623
2708.425746,612.876398,-518.144159,9548.656652
2708.426075,-229.828649,-0.000000,7105.977043
2708.426404,-383.047749,592.164754,8808.450710
2708.426733,612.876398,-74.020594,9548.656652
2708.427062,306.438199,-518.144159,7179.997637
2708.427391,459.657299,-518.144159,8068.244768
2708.427720,995.924147,-2368.659014,9474.636058
2708.428049,0.000000,-2072.576638,8808.450710
2708.428378,-919.314598,-1184.329507,9104.533087
2708.428707,-229.828649,-1554.432478,9548.656652
2708.429036,76.609550,-1258.350101,10214.842000
2708.429365,0.000000,-0.000000,8216.285956
2708.429694,76.609550,592.164754,8586.388927
2708.430023,-229.828649,592.164754,10658.965565
2708.430352,76.609550,444.123565,9030.512492
2708.430681,-919.314598,296.082377,7698.141797
2708.431010,-689.485948,-1628.453072,9696.697840
2708.431339,153.219100,-1554.432478,9474.636058
2708.431668,0.000000,-1554.432478,8290.306550
2708.431997,-383.047749,-2368.659014,8586.388927
2708.432326,-153.219100,-1924.535449,9252.574275
2708.432656,0.000000,-518.144159,8808.450710
2708.432985,-766.095498,222.061783,8216.285956
2708.433314,612.876398,740.205942,8882.471304
2708.433643,1915.238745,-0.000000,9178.553681
2708.433972,1685.410096,518.144159,8660.409521
2708.434301,1608.800546,-0.000000,10510.924376
2708.434630,1991.848295,-592.164754,9918.759623
2708.434959,1991.848295,1110.308913,8586.388927
2708.435288,1149.143247,2146.597232,8290.306550
2708.435617,995.924147,-370.102971,8734.430116
2708.435946,1532.190996,1258.350101,9030.512492
2708.436275,1608.800546,1036.288319,8142.265362
2708.436604,842.705048,-518.144159,8882.471304
2708.436933,306.438199,-666.185348,9326.594869
2708.437262,-153.219100,-592.164754,8216.285956
2708.437591,-1225.752797,-888.247130,8660.409521
2708.437920,-766.095498,-1776.494261,11103.089130
2708.438249,0.000000,-1702.473667,9474.636058
2708.438578,-536.266849,-518.144159,9548.656652
2708.438907,0.000000,-370.102971,10362.883188
2708.439236,1072.533697,-296.082377,9548.656652
2708.439565,919.314598,1480.411884,8216.285956
2708.439894,612.876398,2220.617826,7994.224174
2708.440223,1072.533697,1036.288319,9844.739029
2708.440552,1149.143247,1480.411884,9252.574275
2708.440881,459.657299,222.061783,8660.409521
2708.441210,459.657299,-1850.514855,9326.594869
2708.441539,-536.266849,-1924.535449,9326.594869
2708.441868,-1225.752797,-666.185348,8512.368333
2708.442197,-1915.238745,-1406.391290,9030.512492
2708.442526,-1378.971896,-1258.350101,9030.512492
2708.442855,-383.047749,-888.247130,9178.553681
2708.443184,-459.657299,-1850.514855,9030.512492
2708.443513,-306.438199,-1258.350101,9770.718434
2708.443842,766.095498,-1554.432478,9400.615463
2708.444171,842.705048,-0.000000,8290.306550
2708.444500,383.047749,1110.308913,8586.388927
2708.444829,2298.286494,518.144159,9696.697840
2708.445158,2145.067394,740.205942,8512.368333
2708.445487,1915.238745,1036.288319,8290.306550
2708.445816,1991.848295,-296.082377,8882.471304
2708.446145,1302.362347,222.061783,8216.285956
2708.446474,153.219100,222.061783,7994.224174
2708.446803,-383.047749,-592.164754,9400.615463
2708.447132,-229.828649,-1406.391290,9770.718434
2708.447461,-536.266849,-1776.494261,9400.615463
2708.447790,-229.828649,-1554.432478,9326.594869
2708.448119,0.000000,-1406.391290,9474.636058
2708.448448,689.485948,-740.205942,9474.636058
2708.448777,459.657299,1850.514855,7624.121203
2708.449106,919.314598,222.061783,9770.718434
2708.449435,1225.752797,962.267725,7920.203579
2708.449765,2298.286494,1406.391290,7698.141797
2708.450094,1608.800546,1258.350101,8586.388927
2708.450423,1455.581446,-74.020594,10066.800811
2708.450752,536.266849,-0.000000,9548.656652
2708.451081,-766.095498,-370.102971,8364.327145
2708.451410,-1149.143247,-296.082377,9770.718434
2708.451739,-306.438199,-1258.350101,9992.780217
2708.452068,-229.828649,-962.267725,9030.512492
2708.452397,-536.266849,-1480.411884,9548.656652
2708.452726,0.000000,-1184.329507,9326.594869
2708.453055,0.000000,-444.123565,8586.388927
2708.453384,-229.828649,740.205942,8364.327145
2708.453713,536.266849,592.164754,8364.327145
2708.454042,1225.752797,222.061783,8956.491898
2708.454371,1378.971896,962.267725,7328.038826
2708.454700,1302.362347,444.123565,8660.409521
2708.455029,995.924147,-814.226536,10066.800811
2708.455358,229.828649,296.082377,8734.430116
2708.455687,-306.438199,222.061783,8956.491898
2708.456016,-612.876398,-888.247130,9918.759623
2708.456345,-459.657299,-1628.453072,10955.047942
2708.456674,0.000000,-592.164754,9178.553681
2708.457003,-229.828649,-592.164754,9178.553681
2708.457332,306.438199,-962.267725,10881.027347
2708.457661,842.705048,-370.102971,8586.388927
2708.457990,766.095498,1554.432478,7698.141797
2708.458319,1455.581446,296.082377,9622.677246
2708.458648,1991.848295,1480.411884,7402.059420
2708.458977,1991.848295,1554.432478,7994.224174
2708.459306,1532.190996,518.144159,8734.430116
2708.459635,1378.971896,-518.144159,9178.553681
2708.459964,-153.219100,444.123565,8512.368333
2708.460293,-1149.143247,-0.000000,9104.533087
2708.460622,-536.266849,-444.123565,10510.924376
2708.460951,-612.876398,-888.247130,10362.883188
2708.461280,-1532.190996,-74.020594,9992.780217
2708.461609,-995.924147,-2442.679609,11177.109724
2708.461938,0.000000,-1332.370696,10066.800811
2708.462267,689.485948,444.123565,8216.285956
2708.462596,536.266849,666.185348,8660.409521
2708.462925,689.485948,740.205942,8660.409521
2708.463254,1838.629195,1184.329507,7624.121203
2708.463583,2451.505594,1480.411884,7624.121203
2708.463912,1149.143247,1258.350101,7698.141797
2708.464241,842.705048,148.041188,8142.265362
2708.464570,-459.657299,444.123565,8290.306550
2708.464899,-1378.971896,-296.082377,9030.512492
2708.465228,-919.314598,-2812.782580,10732.986159
2708.465557,-1455.581446,-2072.576638,9918.759623
2708.465886,-1685.410096,-2294.638420,10436.903782
2708.466215,-919.314598,-1776.494261,10584.944971
2708.466544,-459.657299,-1628.453072,9696.697840
2708.466874,536.266849,-370.102971,9474.636058
2708.467203,689.485948,962.267725,9178.553681
2708.467532,1838.629195,740.205942,8734.430116
2708.467861,3370.820191,1628.453072,7402.059420
2708.468190,2757.943793,1924.535449,7031.956449
2708.468519,2068.457845,222.061783,8660.409521
2708.468848,2221.676944,222.061783,7624.121203
2708.469177,995.924147,222.061783,7328.038826
2708.469506,229.828649,-296.082377,8882.471304
2708.469835,-383.047749,-1110.308913,9844.739029
2708.470164,-1149.143247,-2294.638420,10510.924376
2708.470493,-1838.629195,-2146.597232,10510.924376
2708.470822,-1072.533697,-2220.617826,10288.862594
2708.471151,-995.924147,-1554.432478,10288.862594
2708.471480,-1072.533697,518.144159,8586.388927
2708.471809,76.609550,-0.000000,9474.636058
2708.472138,1302.362347,518.144159,9400.615463
2708.472467,2145.067394,1480.411884,7772.162391
2708.472796,1455.581446,1850.514855,6883.915261
2708.473125,1225.752797,888.247130,8734.430116
2708.473454,1378.971896,814.226536,8438.347739
2708.473783,612.876398,296.082377,7772.162391
2708.474112,-229.828649,-1036.288319,8216.285956
2708.474441,-536.266849,-1776.494261,9770.718434
2708.474770,-1072.533697,-2072.576638,9992.780217
2708.475099,-1915.238745,-2294.638420,10362.883188
2708.475428,-1378.971896,-2368.659014,10807.006753
2708.475757,-1149.143247,-1036.288319,9474.636058
2708.476086,-1378.971896,814.226536,9474.636058
2708.476415,0.000000,296.082377,9178.553681
2708.476744,995.924147,1258.350101,9104.533087
2708.477073,1608.800546,1850.514855,7920.203579
2708.477402,2374.896044,592.164754,8290.306550
2708.477731,1915.238745,222.061783,8956.491898
2708.478060,1762.019645,-296.082377,8660.409521
2708.478389,229.828649,888.247130,7105.977043
2708.478718,0.000000,-1332.370696,10510.924376
2708.479047,153.219100,-814.226536,9622.677246
2708.479376,-383.047749,-1184.329507,8882.471304
2708.479705,-1302.362347,-1406.391290,10732.986159
2708.480034,0.000000,-2220.617826,11103.089130
2708.480363,0.000000,-0.000000,9178.553681
2708.480692,-612.876398,444.123565,9326.594869
2708.481021,1149.143247,444.123565,9918.759623
2708.481350,2298.286494,-296.082377,8808.450710
2708.481679,2604.724693,1258.350101,7328.038826
2708.482008,2681.334243,1110.308913,7698.141797
2708.482337,2068.457845,740.205942,8290.306550
2708.482666,1302.362347,1776.494261,7476.080014
2708.482995,0.000000,592.164754,8438.347739
2708.483324,-842.705048,-740.205942,9918.759623
2708.483653,-766.095498,-1554.432478,9030.512492
2708.483982,-1455.581446,-1184.329507,9548.656652
2708.484312,-1762.019645,-1998.556043,10362.883188
2708.484641,-1302.362347,-2590.720797,11103.089130
2708.484970,-1149.143247,-2220.617826,9548.656652
2708.485299,-842.705048,444.123565,9474.636058
2708.485628,689.485948,222.061783,10066.800811
2708.485957,1838.629195,1702.473667,6809.894666
2708.486286,2834.553343,1850.514855,7846.182985
2708.486615,2451.505594,2368.659014,7476.080014
2708.486944,2528.115143,1036.288319,7920.203579
2708.487273,1302.362347,1850.514855,7031.956449
2708.487602,612.876398,1332.370696,7772.162391
2708.487931,0.000000,-888.247130,9992.780217
2708.488260,-919.314598,-2368.659014,9770.718434
2708.488589,-1378.971896,-2590.720797,10066.800811
2708.488918,-2068.457845,-2886.803174,11325.150913
2708.489247,-1532.190996,-3182.885551,10584.944971
2708.489576,-2221.676944,-1110.308913,10066.800811
2708.489905,-1149.143247,-0.000000,10584.944971
2708.490234,76.609550,-814.226536,10140.821405
2708.490563,2068.457845,1184.329507,9030.512492
2708.490892,2604.724693,1776.494261,7624.121203
2708.491221,2987.772442,1850.514855,8364.327145
2708.491550,3217.601092,1702.473667,8216.285956
2708.491879,2451.505594,2220.617826,7402.059420
2708.492208,1915.238745,1850.514855,7105.977043
2708.492537,1685.410096,222.061783,8290.306550
2708.492866,995.924147,-222.061783,8808.450710
2708.493195,-689.485948,-1258.350101,9178.553681
2708.493524,-995.924147,-2590.720797,11029.068536
2708.493853,-1072.533697,-2368.659014,10214.842000
2708.494182,-2451.505594,-1110.308913,9770.718434
2708.494511,-1838.629195,-962.267725,11103.089130
2708.494840,-612.876398,-888.247130,10362.883188
2708.495169,689.485948,1776.494261,8808.450710
2708.495498,919.314598,1850.514855,8290.306550
2708.495827,1838.629195,1332.370696,8956.491898
2708.496156,2145.067394,1998.556043,8438.347739
2708.496485,1838.629195,2294.638420,7105.977043
2708.496814,459.657299,1480.411884,7328.038826
2708.497143,0.000000,-74.020594,9622.677246
2708.497472,0.000000,-518.144159,9474.636058
2708.497801,-766.095498,-1406.391290,9474.636058
2708.498130,-766.095498,-3034.844362,10362.883188
2708.498459,-1225.752797,-1776.494261,9844.739029
2708.498788,-1455.581446,-444.123565,9622.677246
2708.499117,-842.705048,-1184.329507,10288.862594
2708.499446,0.000000,-74.020594,10510.924376
2708.499775,1302.362347,444.123565,8142.265362
2708.500104,1608.800546,962.267725,7476.080014
2708.500427,2221.676944,-74.020594,9030.512492
2708.500756,2834.553343,740.205942,8216.285956
2708.501085,1225.752797,1776.494261,6587.832884
2708.501414,612.876398,-666.185348,8734.430116
2708.501743,612.876398,-1406.391290,9104.533087
2708.502073,229.828649,-1554.432478,9178.553681
2708.502402,-842.705048,-2220.617826,9474.636058
2708.502731,-995.924147,-2886.803174,10140.821405
2708.503060,-995.924147,-2072.576638,9770.718434
2708.503389,-1225.752797,-1184.329507,9474.636058
2708.503718,0.000000,-1258.350101,10658.965565
2708.504047,1072.533697,-296.082377,9326.594869
2708.504376,1455.581446,1480.411884,7920.203579
2708.504705,2145.067394,1480.411884,8660.409521
2708.505034,2987.772442,1480.411884,8438.347739
2708.505363,2374.896044,1406.391290,7624.121203
2708.505692,1532.190996,2516.700203,7105.977043
2708.506022,1225.752797,1258.350101,8734.430116
2708.506351,842.705048,-148.041188,9178.553681
2708.506680,-383.047749,-740.205942,8660.409521
2708.507009,-1302.362347,-2960.823768,10658.965565
2708.507338,-1455.581446,-2368.659014,10510.924376
2708.507667,-2068.457845,-2072.576638,9548.656652
2708.507996,-2528.115143,-666.185348,9770.718434
2708.508325,-1149.143247,-814.226536,10510.924376
2708.508654,76.609550,-1184.329507,9992.780217
2708.508983,919.314598,444.123565,8290.306550
2708.509312,1915.238745,888.247130,7994.224174
2708.509641,2451.505594,1184.329507,8734.430116
2708.509971,1991.848295,2664.741391,6513.812290
2708.510300,919.314598,2590.720797,7402.059420
2708.510629,1532.190996,962.267725,8512.368333
2708.510958,1149.143247,-74.020594,8438.347739
2708.511287,0.000000,-148.041188,8808.450710
2708.511616,-1149.143247,-2146.597232,10140.821405
2708.511945,-1455.581446,-2812.782580,11029.068536
2708.512274,-2145.067394,-2442.679609,10436.903782
2708.512603,-2221.676944,-1924.535449,9548.656652
2708.512932,-1225.752797,-2294.638420,11399.171507
2708.513261,0.000000,-888.247130,9696.697840
2708.513590,1072.533697,740.205942,8734.430116
2708.513920,2221.676944,592.164754,9178.553681
2708.514249,2834.553343,1036.288319,8216.285956
2708.514578,2911.162892,1850.514855,7772.162391
2708.514907,2068.457845,2368.659014,7920.203579
2708.515236,1915.238745,518.144159,8512.368333
2708.515565,1762.019645,370.102971,7994.224174
2708.515894,919.314598,-148.041188,8364.327145
2708.516223,153.219100,-1850.514855,10584.944971
2708.516552,-383.047749,-2368.659014,10140.821405
2708.516881,-1225.752797,-1406.391290,9104.533087
2708.517210,-2451.505594,-1480.411884,10510.924376
2708.517539,-1685.410096,-1332.370696,10584.944971
2708.517869,-766.095498,-370.102971,9104.533087
2708.518198,0.000000,-1110.308913,9400.615463
2708.518527,842.705048,-0.000000,8586.388927
2708.518856,1762.019645,-0.000000,8808.450710
2708.519185,1072.533697,2146.597232,6735.874072
2708.519514,1455.581446,962.267725,8216.285956
2708.519843,1608.800546,518.144159,8808.450710
2708.520172,1302.362347,370.102971,7328.038826
2708.520501,919.314598,-0.000000,8586.388927
2708.520830,0.000000,-1332.370696,9474.636058
2708.521159,-306.438199,-1258.350101,9400.615463
2708.521488,-919.314598,-666.185348,9178.553681
2708.521818,-1762.019645,-1628.453072,9696.697840
2708.522147,-459.657299,-2146.597232,11251.130318
2708.522476,-383.047749,666.185348,8808.450710
2708.522805,-306.438199,148.041188,8808.450710
2708.523134,919.314598,444.123565,9474.636058
2708.523463,1455.581446,222.061783,8660.409521
2708.523792,919.314598,962.267725,8438.347739
2708.524121,1072.533697,592.164754,8808.450710
2708.524450,1838.629195,-222.061783,8734.430116
2708.524779,1532.190996,666.185348,8290.306550
2708.525108,1532.190996,296.082377,9178.553681
2708.525437,1302.362347,-1628.453072,9770.718434
2708.525767,536.266849,-592.164754,9030.512492
2708.526096,-306.438199,1480.411884,9252.574275
2708.526425,-306.438199,-1036.288319,10510.924376
2708.526754,-306.438199,-1036.288319,9844.739029
2708.527083,0.000000,-814.226536,9622.677246
2708.527412,383.047749,-814.226536,9696.697840
2708.527741,229.828649,-1332.370696,9474.636058
2708.528070,459.657299,-740.205942,7920.203579
2708.528399,0.000000,1110.308913,8290.306550
2708.528728,0.000000,740.205942,8512.368333
2708.529057,536.266849,-74.020594,8882.471304
2708.529386,306.438199,296.082377,8882.471304
2708.529716,-1149.143247,-0.000000,9770.718434
2708.530045,0.000000,-1480.411884,9474.636058
2708.530374,-842.705048,-444.123565,9474.636058
2708.530703,-1072.533697,-370.102971,9326.594869
2708.531032,-842.705048,-1406.391290,10362.883188
2708.531361,-383.047749,-1036.288319,9844.739029
2708.531690,459.657299,-296.082377,9252.574275
2708.532019,766.095498,444.123565,8660.409521
2708.532348,1149.143247,592.164754,8882.471304
2708.532677,766.095498,2368.659014,8142.265362
2708.533006,153.219100,2146.597232,7920.203579
2708.533335,459.657299,962.267725,9030.512492
2708.533665,919.314598,-74.020594,8882.471304
2708.533994,612.876398,-888.247130,9548.656652
2708.534323,76.609550,-1776.494261,9992.780217
2708.534652,-76.609550,-2664.741391,9844.739029
2708.534981,153.219100,-740.205942,9104.533087
2708.535310,-459.657299,-222.061783,8956.491898
2708.535639,0.000000,-0.000000,9918.759623
2708.535968,842.705048,296.082377,8290.306550
2708.536297,1302.362347,1184.329507,7698.141797
2708.536626,1455.581446,-0.000000,9474.636058
2708.536955,2068.457845,592.164754,8512.368333
2708.537284,536.266849,148.041188,7698.141797
2708.537614,76.609550,222.061783,8660.409521
2708.537943,919.314598,-592.164754,9030.512492
2708.538272,995.924147,-962.267725,9400.615463
2708.538601,536.266849,-370.102971,8882.471304
2708.538930,0.000000,-1480.411884,9474.636058
2708.539259,-689.485948,-1258.350101,9622.677246
2708.539588,-689.485948,-0.000000,8586.388927
2708.539917,-689.485948,-222.061783,9252.574275
2708.540246,0.000000,-1554.432478,9400.615463
2708.540575,612.876398,-370.102971,8660.409521
2708.540904,766.095498,222.061783,8734.430116
2708.541233,306.438199,-814.226536,9992.780217
2708.541563,995.924147,-148.041188,9030.512492
2708.541892,-229.828649,1480.411884,8290.306550
2708.542221,0.000000,444.123565,9030.512492
2708.542550,76.609550,-296.082377,9326.594869
2708.542879,459.657299,-888.247130,9770.718434
2708.543208,306.438199,-296.082377,9178.553681
2708.543537,0.000000,-814.226536,9400.615463
2708.543866,153.219100,-222.061783,9770.718434
2708.544195,0.000000,962.267725,8364.327145
2708.544524,-306.438199,296.082377,9178.553681
2708.544853,306.438199,-296.082377,9474.636058
2708.545182,842.705048,296.082377,8216.285956
2708.545512,383.047749,518.144159,9178.553681
2708.545841,612.876398,-370.102971,9178.553681
2708.546170,766.095498,-0.000000,9770.718434
2708.546499,-536.266849,666.185348,9178.553681
2708.546828,-383.047749,518.144159,9178.553681
2708.547157,229.828649,-296.082377,9992.780217
2708.547486,689.485948,222.061783,9326.594869
2708.547815,459.657299,222.061783,9326.594869
2708.548144,306.438199,-1258.350101,10066.800811
2708.548473,1149.143247,-296.082377,8882.471304
2708.548802,383.047749,1406.391290,8142.265362
2708.549132,383.047749,1110.308913,8808.450710
2708.549461,1378.971896,518.144159,8734.430116
2708.549790,1302.362347,666.185348,7846.182985
2708.550119,842.705048,148.041188,8956.491898
2708.550448,919.314598,-148.041188,9474.636058
2708.550777,-229.828649,-592.164754,8882.471304
2708.551106,-1455.581446,-0.000000,8660.409521
2708.551435,-1072.533697,-1332.370696,10362.883188
2708.551764,-459.657299,-1258.350101,9770.718434
2708.552093,-536.266849,-1406.391290,9696.697840
2708.552422,-612.876398,-1554.432478,9696.697840
2708.552751,153.219100,-1628.453072,10288.862594
2708.553081,842.705048,-74.020594,9178.553681
2708.553410,306.438199,444.123565,7550.100608
2708.553739,76.609550,444.123565,9474.636058
2708.554068,1225.752797,666.185348,8290.306550
2708.554397,1532.190996,1628.453072,7328.038826
2708.554726,1225.752797,740.205942,8808.450710
2708.555055,919.314598,-1036.288319,9030.512492
2708.555384,229.828649,-148.041188,8808.450710
2708.555713,-689.485948,-370.102971,9030.512492
2708.556042,-383.047749,-1480.411884,9844.739029
2708.556371,-689.485948,-1554.432478,9770.718434
2708.556700,0.000000,-1332.370696,10214.842000
2708.557030,153.219100,-962.267725,9104.533087
2708.557359,842.705048,-888.247130,9178.553681
2708.557688,842.705048,296.082377,8290.306550
2708.558017,995.924147,888.247130,8068.244768
2708.558346,1225.752797,-0.000000,9770.718434
2708.558675,1915.238745,-0.000000,7994.224174
2708.559004,1608.800546,-0.000000,8216.285956
2708.559333,1838.629195,-0.000000,9104.533087
2708.559662,1991.848295,-296.082377,9326.594869
2708.559991,459.657299,-0.000000,8734.430116
2708.560320,-919.314598,814.226536,8364.327145
2708.560649,-383.047749,-814.226536,10214.842000
2708.560979,0.000000,-222.061783,9326.594869
2708.561308,-306.438199,-296.082377,9252.574275
2708.561637,-383.047749,-1998.556043,10140.821405
2708.561966,153.219100,-814.226536,9918.759623
2708.562295,766.095498,296.082377,8808.450710
2708.562624,459.657299,888.247130,8438.347739
2708.562953,995.924147,222.061783,9326.594869
2708.563282,1608.800546,962.267725,8290.306550
2708.563611,1149.143247,1480.411884,7105.977043
2708.563940,612.876398,-888.247130,9696.697840
2708.564269,612.876398,-1850.514855,9548.656652
2708.564598,-383.047749,-518.144159,7994.224174
2708.564928,-995.924147,-592.164754,9474.636058
2708.565257,-1302.362347,-1480.411884,10066.800811
2708.565586,-919.314598,-1554.432478,10140.821405
2708.565915,-919.314598,-740.205942,9326.594869
2708.566244,-612.876398,-1184.329507,9548.656652
2708.566573,0.000000,-296.082377,10140.821405
2708.566902,0.000000,1184.329507,8068.244768
2708.567231,842.705048,1332.370696,9474.636058
2708.567560,1532.190996,444.123565,9326.594869
2708.567889,1838.629195,962.267725,7328.038826
2708.568218,1378.971896,1036.288319,8364.327145
2708.568547,1149.143247,-148.041188,9326.594869
2708.568877,842.705048,-148.041188,8734.430116
2708.569206,-612.876398,1184.329507,7994.224174
2708.569535,-1149.143247,518.144159,10214.842000
2708.569864,-612.876398,-1184.329507,10584.944971
2708.570193,-229.828649,-888.247130,9474.636058
2708.570522,-536.266849,-740.205942,9548.656652
2708.570851,-229.828649,-1554.432478,10510.924376
2708.571180,229.828649,-74.020594,9696.697840
2708.571509,612.876398,-0.000000,8734.430116
2708.571838,995.924147,1480.411884,8660.409521
2708.572167,2221.676944,370.102971,8290.306550
2708.572496,2528.115143,1850.514855,7031.956449
2708.572826,1838.629195,2294.638420,7846.182985
2708.573155,2221.676944,1184.329507,8290.306550
2708.573484,995.924147,592.164754,8512.368333
2708.573813,229.828649,1036.288319,8808.450710
2708.574142,-153.219100,-1110.308913,9178.553681
2708.574471,-153.219100,-2294.638420,10807.006753
2708.574800,-1072.533697,-1480.411884,9622.677246
2708.575129,-1608.800546,-1776.494261,9622.677246
2708.575458,-689.485948,-1554.432478,10732.986159
2708.575787,0.000000,-370.102971,8660.409521
2708.576116,0.000000,1184.329507,8660.409521
2708.576445,536.266849,962.267725,8734.430116
2708.576775,1532.190996,-222.061783,8660.409521
2708.577104,1915.238745,1628.453072,7994.224174
2708.577433,1838.629195,1036.288319,8068.244768
2708.577762,1302.362347,-296.082377,9326.594869
2708.578091,536.266849,666.185348,8438.347739
2708.578420,-536.266849,518.144159,8882.471304
2708.578749,-842.705048,-1110.308913,10584.944971
2708.579078,-1072.533697,-1850.514855,10584.944971
2708.579407,-1302.362347,-1702.473667,9918.759623
2708.579736,-1608.800546,-2368.659014,9918.759623
2708.580065,-689.485948,-2368.659014,10881.027347
2708.580394,-306.438199,-1258.350101,9178.553681
2708.580724,306.438199,370.102971,8808.450710
2708.581053,1762.019645,-0.000000,9178.553681
2708.581382,3064.381992,962.267725,8142.265362
2708.581711,2451.505594,2664.741391,6883.915261
2708.582040,2145.067394,1406.391290,7994.224174
2708.582369,2145.067394,-0.000000,8512.368333
2708.582698,1149.143247,814.226536,7105.977043
2708.583027,306.438199,-0.000000,9104.533087
2708.583356,-689.485948,-1332.370696,9770.718434
2708.583685,-995.924147,-2738.761985,9918.759623
2708.584014,-1762.019645,-2072.576638,9696.697840
2708.584343,-1302.362347,-2220.617826,10140.821405
2708.584673,-536.266849,-1702.473667,10658.965565
2708.585002,-383.047749,-222.061783,8660.409521
2708.585331,0.000000,1332.370696,8512.368333
2708.585660,306.438199,518.144159,9252.574275
2708.585989,2451.505594,1184.329507,7994.224174
2708.586318,2528.115143,1850.514855,7105.977043
2708.586647,2145.067394,444.123565,8882.471304
2708.586976,1838.629195,740.205942,8142.265362
2708.587305,306.438199,-148.041188,8216.285956
2708.587634,-1532.190996,-74.020594,9178.553681
2708.587963,-995.924147,-1258.350101,10584.944971
2708.588292,-1302.362347,-1776.494261,10288.862594
2708.588622,-2221.676944,-1850.514855,9770.718434
2708.588951,-1991.848295,-2442.679609,11177.109724
2708.589280,-1455.581446,-2664.741391,10510.924376
2708.589609,-1302.362347,-0.000000,8586.388927
2708.589938,-153.219100,-296.082377,9622.677246
2708.590267,1608.800546,740.205942,8438.347739
2708.590596,3064.381992,1332.370696,7105.977043
2708.590925,2987.772442,1702.473667,7328.038826
2708.591254,2298.286494,1184.329507,8142.265362
2708.591583,1991.848295,1184.329507,7994.224174
2708.591912,1302.362347,1036.288319,6883.915261
2708.592241,-229.828649,-0.000000,9178.553681
2708.592571,-536.266849,-2442.679609,11103.089130
2708.592900,-995.924147,-2368.659014,9252.574275
2708.593229,-1762.019645,-1924.535449,9770.718434
2708.593558,-1302.362347,-2590.720797,11325.150913
2708.593887,-1225.752797,-666.185348,9844.739029
2708.594216,-766.095498,592.164754,8882.471304
2708.594545,-306.438199,444.123565,8734.430116
2708.594874,2451.505594,814.226536,8660.409521
2708.595203,3064.381992,1110.308913,7550.100608
2708.595532,2451.505594,1702.473667,6735.874072
2708.595861,2604.724693,1110.308913,7772.162391
2708.596190,1762.019645,518.144159,7994.224174
2708.596520,459.657299,1554.432478,7550.100608
2708.596849,-612.876398,74.020594,9400.615463
2708.597178,0.000000,-1036.288319,9622.677246
2708.597507,-766.095498,-1924.535449,9622.677246
2708.597836,-2068.457845,-1406.391290,10362.883188
2708.598165,-1838.629195,-3701.029710,11473.192101
2708.598494,-1532.190996,-1924.535449,9992.780217
2708.598823,-1302.362347,370.102971,9104.533087
2708.599152,0.000000,-444.123565,9622.677246
2708.599481,1608.800546,1628.453072,8808.450710
2708.599810,3294.210641,1554.432478,8216.285956
2708.600139,2528.115143,1332.370696,7624.121203
2708.600469,2145.067394,1332.370696,8512.368333
2708.600798,1838.629195,1184.329507,7624.121203
2708.601127,0.000000,1036.288319,7328.038826
2708.601456,-612.876398,-74.020594,10214.842000
2708.601785,-306.438199,-1924.535449,9844.739029
2708.602114,-995.924147,-1850.514855,9918.759623
2708.602443,-1991.848295,-2368.659014,11473.192101
2708.602772,-1532.190996,-3034.844362,10807.006753
2708.603101,-1685.410096,-1036.288319,9992.780217
2708.603430,-1149.143247,-370.102971,9696.697840
2708.603759,153.219100,-518.144159,9474.636058
2708.604088,1072.533697,740.205942,9400.615463
2708.604417,2757.943793,1258.350101,7328.038826
2708.604746,2681.334243,1776.494261,7254.018232
2708.605075,2451.505594,888.247130,8364.327145
2708.605404,1685.410096,1480.411884,7254.018232
2708.605733,995.924147,1924.535449,7254.018232
2708.606062,0.000000,-0.000000,8882.471304
2708.606392,-612.876398,-1776.494261,10140.821405
2708.606721,-1302.362347,-1184.329507,9474.636058
2708.607050,-2068.457845,-2886.803174,10955.047942
2708.607379,-1762.019645,-3034.844362,11103.089130
2708.607708,-2145.067394,-1184.329507,9770.718434
2708.608037,-1915.238745,-0.000000,9696.697840
2708.608366,-306.438199,-814.226536,9918.759623
2708.608695,1608.800546,444.123565,8882.471304
2708.609024,1838.629195,2146.597232,7550.100608
2708.609353,2681.334243,666.185348,7994.224174
2708.609682,2451.505594,1332.370696,7624.121203
2708.610011,1838.629195,1628.453072,7179.997637
2708.610340,689.485948,1628.453072,7254.018232
2708.610669,689.485948,-0.000000,9252.574275
2708.610998,0.000000,-1184.329507,9548.656652
2708.611327,-1608.800546,-1702.473667,8734.430116
2708.611656,-1608.800546,-2368.659014,11251.130318
2708.611985,-1455.581446,-3627.009116,10584.944971
2708.612314,-1685.410096,-1554.432478,9326.594869
2708.612643,-1378.971896,-444.123565,10584.944971
2708.612972,306.438199,-1480.411884,9844.739029
2708.613301,1685.410096,444.123565,8290.306550
2708.613630,2987.772442,2368.659014,7698.141797
2708.613959,3140.991542,1628.453072,8438.347739
2708.614288,2451.505594,1332.370696,8438.347739
2708.614617,1838.629195,2220.617826,7254.018232
2708.614947,1302.362347,1406.391290,7920.203579
2708.615276,1532.190996,666.185348,8734.430116
2708.615605,1532.190996,-222.061783,7772.162391
2708.615934,459.657299,-2072.576638,9770.718434
2708.616263,-459.657299,-1998.556043,10436.903782
2708.616592,-612.876398,-2664.741391,9622.677246
2708.616921,-1685.410096,-1924.535449,9326.594869
2708.617250,-1762.019645,666.185348,9918.759623
2708.617579,153.219100,-1554.432478,10510.924376
2708.617908,919.314598,1036.288319,8438.347739
2708.618237,1762.019645,1406.391290,8808.450710
2708.618566,2681.334243,444.123565,9178.553681
2708.618895,2374.896044,1406.391290,8142.265362
2708.619224,1455.581446,2072.576638,7402.059420
2708.619553,536.266849,814.226536,7698.141797
2708.619882,1302.362347,518.144159,9474.636058
2708.620211,689.485948,-222.061783,9178.553681
2708.620540,-459.657299,-814.226536,9844.739029
2708.620869,-1225.752797,-2146.597232,11251.130318
2708.621198,-1072.533697,-2368.659014,10214.842000
2708.621527,-1915.238745,-888.247130,9400.615463
2708.621856,-1225.752797,-1628.453072,11103.089130
2708.622185,0.000000,-1850.514855,10288.862594
2708.622514,919.314598,518.144159,8956.491898
2708.622843,1915.238745,-0.000000,8808.450710
2708.623172,2604.724693,666.185348,8142.265362
2708.623502,2374.896044,1850.514855,7772.162391
2708.623831,842.705048,2072.576638,6957.935855
2708.624160,689.485948,1406.391290,8512.368333
2708.624489,1378.971896,-222.061783,7994.224174
2708.624818,229.828649,-518.144159,8660.409521
2708.625147,-919.314598,-1776.494261,10436.903782
2708.625476,-766.095498,-3552.988522,10362.883188
2708.625805,-1915.238745,-2516.700203,9030.512492
2708.626134,-2068.457845,-1628.453072,9770.718434
2708.626463,-1149.143247,-2072.576638,10584.944971
2708.626792,306.438199,-1036.288319,9326.594869
2708.627121,1455.581446,-74.020594,8142.265362
2708.627450,1915.238745,1258.350101,7624.121203
2708.627779,2911.162892,444.123565,8586.388927
2708.628108,2374.896044,1258.350101,7402.059420
2708.628437,995.924147,2072.576638,7254.018232
2708.628766,842.705048,666.185348,8068.244768
2708.629095,1378.971896,-0.000000,7920.203579
2708.629424,689.485948,-518.144159,8586.388927
2708.629753,-1149.143247,-1702.473667,9696.697840
2708.630082,-1455.581446,-1850.514855,9918.759623
2708.630411,-1991.848295,-1406.391290,9548.656652
2708.630740,-2834.553343,-0.000000,8956.491898
2708.631069,-1762.019645,-1406.391290,10807.006753
2708.631398,-919.314598,-1110.308913,9770.718434
2708.631728,-459.657299,222.061783,9030.512492
2708.632057,766.095498,666.185348,8956.491898
2708.632386,1838.629195,296.082377,8734.430116
2708.632715,1378.971896,2072.576638,8364.327145
2708.633044,842.705048,1480.411884,8364.327145
2708.633373,995.924147,1258.350101,8660.409521
2708.633702,1378.971896,592.164754,8808.450710
2708.634031,1532.190996,444.123565,9104.533087
2708.634360,0.000000,-296.082377,10658.965565
2708.634689,0.000000,-1702.473667,10214.842000
2708.635018,-536.266849,-740.205942,8956.491898
2708.635347,-1225.752797,-0.000000,9474.636058
2708.635676,-842.705048,-1702.473667,10510.924376
2708.636005,0.000000,-444.123565,9696.697840
2708.636334,766.095498,-0.000000,9030.512492
2708.636663,1225.752797,-444.123565,9252.574275
2708.636992,995.924147,-0.000000,9474.636058
2708.637321,995.924147,1628.453072,8068.244768
2708.637650,689.485948,1110.308913,8512.368333
2708.637979,1302.362347,370.102971,8734.430116
2708.638308,1685.410096,-222.061783,9252.574275
2708.638637,1302.362347,-0.000000,9696.697840
2708.638966,459.657299,-592.164754,9474.636058
2708.639295,153.219100,-888.247130,10066.800811
2708.639624,0.000000,-222.061783,8956.491898
2708.639953,0.000000,-444.123565,9104.533087
2708.640283,306.438199,-1480.411884,10214.842000
2708.640612,995.924147,-518.144159,8068.244768
2708.640941,995.924147,1258.350101,7994.224174
2708.641270,919.314598,518.144159,9252.574275
2708.641599,1149.143247,296.082377,8512.368333
2708.641928,229.828649,1110.308913,7920.203579
2708.642257,0.000000,666.185348,8586.388927
2708.642586,383.047749,-740.205942,9400.615463
2708.642915,612.876398,-148.041188,9030.512492
2708.643244,-995.924147,-814.226536,9918.759623
2708.643573,0.000000,-1776.494261,10436.903782
2708.643902,-229.828649,-814.226536,9474.636058
2708.644231,-306.438199,1110.308913,7994.224174
2708.644560,-612.876398,222.061783,9178.553681
2708.644889,536.266849,-0.000000,9696.697840
2708.645218,1685.410096,148.041188,8808.450710
2708.645547,1072.533697,-222.061783,8808.450710
2708.645876,1072.533697,-1036.288319,8956.491898
2708.646205,536.266849,-814.226536,8586.388927
2708.646534,-306.438199,-0.000000,9030.512492
2708.646863,-153.219100,-0.000000,9178.553681
2708.647192,0.000000,-296.082377,8364.327145
2708.647521,0.000000,814.226536,8956.491898
2708.647850,-842.705048,148.041188,9770.718434
2708.648179,-383.047749,-1628.453072,10510.924376
2708.648509,-306.438199,-814.226536,8882.471304
2708.648838,-306.438199,-518.144159,8364.327145
2708.649167,-383.047749,-1036.288319,9622.677246
2708.649496,383.047749,-1110.308913,9992.780217
2708.649825,1072.533697,-370.102971,8808.450710
2708.650154,1302.362347,-0.000000,8216.285956
2708.650483,1302.362347,592.164754,9770.718434
2708.650812,1149.143247,1554.432478,7476.080014
2708.651141,0.000000,1776.494261,7698.141797
2708.651470,229.828649,370.102971,9400.615463
2708.651799,612.876398,-1110.308913,8882.471304
2708.652128,0.000000,-814.226536,8882.471304
2708.652457,0.000000,-888.247130,10214.842000
2708.652786,0.000000,-2072.576638,10140.821405
2708.653115,76.609550,-370.102971,8438.347739
2708.653444,0.000000,592.164754,8734.430116
2708.653773,0.000000,370.102971,9622.677246
2708.654102,919.314598,1480.411884,9104.533087
2708.654431,1225.752797,1628.453072,7254.018232
2708.654760,766.095498,518.144159,9252.574275
2708.655089,1225.752797,-0.000000,9844.739029
2708.655418,842.705048,-962.267725,8068.244768
2708.655747,-536.266849,370.102971,9622.677246
2708.656076,-153.219100,-814.226536,10362.883188
2708.656405,306.438199,-444.123565,9326.594869
2708.656734,-459.657299,296.082377,9844.739029
2708.657064,76.609550,1036.288319,9844.739029
2708.657393,76.609550,-74.020594,9992.780217
2708.657722,153.219100,518.144159,8882.471304
2708.658051,0.000000,444.123565,8734.430116
2708.658380,689.485948,-888.247130,9400.615463
2708.658709,995.924147,-592.164754,8512.368333
2708.659038,995.924147,-148.041188,8364.327145
2708.659367,842.705048,-444.123565,9474.636058
2708.659696,689.485948,-962.267725,9696.697840
2708.660025,306.438199,962.267725,7846.182985
2708.660354,-612.876398,592.164754,8734.430116
2708.660683,76.609550,-444.123565,9992.780217
2708.661012,689.485948,-740.205942,8956.491898
2708.661341,229.828649,-814.226536,8882.471304
2708.661670,153.219100,-1850.514855,9918.759623
2708.661999,919.314598,-666.185348,8586.388927
2708.662328,383.047749,-0.000000,8216.285956
2708.662657,612.876398,1110.308913,8216.285956
2708.662986,1149.143247,296.082377,8734.430116
2708.663315,1685.410096,518.144159,8290.306550
2708.663644,919.314598,1110.308913,7624.121203
2708.663973,1532.190996,-222.061783,9030.512492
2708.664302,153.219100,-740.205942,8734.430116
2708.664631,-612.876398,-888.247130,8216.285956
2708.664960,-1149.143247,-1258.350101,10362.883188
2708.665289,-459.657299,-2368.659014,9844.739029
2708.665619,-306.438199,-740.205942,9474.636058
2708.665948,-459.657299,-518.144159,8956.491898
2708.666277,-153.219100,-1480.411884,10881.027347
2708.666606,459.657299,222.061783,9622.677246
2708.666935,842.705048,1332.370696,6735.874072
2708.667264,153.219100,1110.308913,9252.574275
2708.667593,689.485948,370.102971,9252.574275
2708.667922,1225.752797,-518.144159,7994.224174
2708.668251,919.314598,-666.185348,8512.368333
2708.668580,1225.752797,-1258.350101,9770.718434
2708.668909,-229.828649,-1480.411884,9474.636058
2708.669238,-1378.971896,-222.061783,9178.553681
2708.669567,-842.705048,-592.164754,9548.656652
2708.669896,-612.876398,-1110.308913,9474.636058
2708.670225,-306.438199,-148.041188,9400.615463
2708.670554,-919.314598,-888.247130,9918.759623
2708.670883,459.657299,-1406.391290,9770.718434
2708.671212,842.705048,-518.144159,9178.553681
2708.671541,306.438199,-148.041188,8512.368333
2708.671870,919.314598,-0.000000,9474.636058
2708.672199,1838.629195,-0.000000,9104.533087
2708.672528,1762.019645,962.267725,7402.059420
2708.672857,1762.019645,1184.329507,7624.121203
2708.673186,1685.410096,-0.000000,8882.471304
2708.673515,612.876398,-0.000000,8882.471304
2708.673845,0.000000,1110.308913,8734.430116
2708.674174,-306.438199,-370.102971,9622.677246
2708.674503,0.000000,-1184.329507,9474.636058
2708.674832,-306.438199,-888.247130,9992.780217
2708.675161,-383.047749,-1702.473667,10584.944971
2708.675490,0.000000,-1258.350101,9622.677246
2708.675819,842.705048,962.267725,8068.244768
2708.676148,0.000000,814.226536,8660.409521
2708.676477,153.219100,1332.370696,9326.594869
2708.676806,1455.581446,296.082377,8808.450710
2708.677135,1532.190996,1332.370696,7105.977043
2708.677464,1378.971896,-0.000000,8808.450710
2708.677793,689.485948,-1554.432478,10584.944971
2708.678122,-919.314598,-888.247130,8734.430116
2708.678451,-1532.190996,-518.144159,8586.388927
2708.678780,-919.314598,-962.267725,9918.759623
2708.679109,-612.876398,-370.102971,9400.615463
2708.679438,-766.095498,-1110.308913,10362.883188
2708.679767,-306.438199,-296.082377,9992.780217
2708.680096,842.705048,-666.185348,9178.553681
2708.680425,612.876398,296.082377,8808.450710
2708.680754,459.657299,962.267725,8142.265362
2708.681083,919.314598,148.041188,10140.821405
2708.681412,1915.238745,666.185348,7920.203579
2708.681741,1685.410096,1480.411884,7105.977043
2708.682070,995.924147,962.267725,9104.533087
2708.682400,689.485948,-0.000000,8734.430116
2708.682729,153.219100,814.226536,8290.306550
2708.683058,-995.924147,-74.020594,9252.574275
2708.683387,-1149.143247,-1628.453072,10214.842000
2708.683716,-766.095498,-2220.617826,9992.780217
2708.684045,-766.095498,-1480.411884,9474.636058
2708.684374,-306.438199,-1480.411884,10140.821405
2708.684703,919.314598,-1554.432478,9474.636058
2708.685032,1455.581446,-0.000000,8290.306550
2708.685361,1072.533697,1850.514855,8882.471304
2708.685690,2145.067394,2146.597232,7994.224174
2708.686019,2068.457845,2072.576638,7254.018232
2708.686348,2298.286494,2664.741391,8216.285956
2708.686677,2221.676944,518.144159,8364.327145
2708.687006,1302.362347,296.082377,8438.347739
2708.687335,-536.266849,-814.226536,8882.471304
2708.687664,-919.314598,-1184.329507,9992.780217
2708.687993,-1455.581446,-2590.720797,10732.986159
2708.688322,-1225.752797,-2516.700203,10140.821405
2708.688651,-1915.238745,-1850.514855,10288.862594
2708.688980,-1302.362347,-1332.370696,11177.109724
2708.689309,0.000000,-814.226536,9918.759623
2708.689638,842.705048,-1258.350101,9326.594869
2708.689967,1302.362347,-148.041188,8956.491898
2708.690296,2221.676944,-296.082377,9178.553681
2708.690626,2987.772442,-0.000000,7994.224174
2708.690955,2374.896044,-0.000000,7476.080014
2708.691284,1762.019645,-666.185348,9104.533087
2708.691613,1302.362347,-2294.638420,9104.533087
2708.691942,0.000000,-444.123565,8734.430116
2708.692271,-1302.362347,-2220.617826,9918.759623
2708.692600,-1762.019645,-3627.009116,9696.697840
2708.692929,-1685.410096,-3997.112087,10658.965565
2708.693258,-2374.896044,-3775.050304,10584.944971
2708.693587,-1455.581446,-4959.379811,10955.047942
2708.693916,-229.828649,-4515.256246,10362.883188
2708.694245,612.876398,-2442.679609,8216.285956
2708.694574,1838.629195,-1184.329507,7920.203579
2708.694903,2681.334243,-1036.288319,8142.265362
2708.695232,3753.867940,-888.247130,6291.750507
2708.695561,3753.867940,370.102971,7031.956449
2708.695890,2834.553343,-1110.308913,7476.080014
2708.696219,2145.067394,-1850.514855,7476.080014
2708.696548,1455.581446,-2368.659014,7920.203579
2708.696877,-995.924147,-3997.112087,9104.533087
2708.697206,-1991.848295,-5033.400406,10288.862594
2708.697535,-1915.238745,-5847.626942,10436.903782
2708.697864,-2298.286494,-4811.338623,10362.883188
2708.698193,-2528.115143,-4071.132681,10362.883188
2708.698522,-1149.143247,-3552.988522,9474.636058
2708.698851,76.609550,-3478.967927,9474.636058
2708.699181,1378.971896,-1184.329507,8882.471304
2708.699510,1915.238745,-1998.556043,7772.162391
2708.699839,3217.601092,-2368.659014,7698.141797
2708.700168,3907.087040,-740.205942,6513.812290
2708.700497,3524.039291,-518.144159,7328.038826
2708.700826,1685.410096,-1924.535449,7846.182985
2708.701155,229.828649,-3034.844362,9252.574275
2708.701484,229.828649,-2886.803174,10066.800811
2708.701813,-1149.143247,-3404.947333,9400.615463
2708.702142,-2911.162892,-4811.338623,10510.924376
2708.702471,-3447.429741,-5551.544565,11399.171507
2708.702800,-2681.334243,-5625.565159,11473.192101
2708.703129,-2298.286494,-4811.338623,9992.780217
2708.703458,-1685.410096,-4367.215058,10066.800811
2708.703787,-306.438199,-4293.194464,10510.924376
2708.704116,1762.019645,-2368.659014,8586.388927
2708.704445,3370.820191,-1184.329507,6883.915261
2708.704775,3064.381992,-888.247130,6957.935855
2708.705104,3064.381992,-592.164754,7550.100608
2708.705433,3907.087040,-592.164754,7402.059420
2708.705762,3753.867940,-1110.308913,6143.709319
2708.706091,2834.553343,-2368.659014,7698.141797
2708.706420,536.266849,-2664.741391,9030.512492
2708.706749,-612.876398,-5181.441594,10436.903782
2708.707078,-1302.362347,-5255.462188,10288.862594
2708.707407,-2451.505594,-4737.318029,10066.800811
2708.707736,-3907.087040,-4441.235652,11547.212695
2708.708065,-2987.772442,-4145.153275,11103.089130
2708.708394,-1532.190996,-3404.947333,10288.862594
2708.708723,306.438199,-2812.782580,9104.533087
2708.709052,995.924147,-2590.720797,8512.368333
2708.709381,1915.238745,-2738.761985,8956.491898
2708.709710,3370.820191,-2072.576638,8734.430116
2708.710040,4596.572988,-1184.329507,7476.080014
2708.710369,3830.477490,-666.185348,7105.977043
2708.710698,2757.943793,-740.205942,7846.182985
2708.711027,2604.724693,-1184.329507,8364.327145
2708.711356,2911.162892,-1776.494261,8512.368333
2708.711685,1685.410096,-2442.679609,8882.471304
2708.712014,-536.266849,-4293.194464,9918.759623
2708.712343,-2911.162892,-4589.276840,11621.233289
2708.712672,-3217.601092,-5107.421000,11843.295072
2708.713001,-3370.820191,-4663.297435,10807.006753
2708.713330,-2221.676944,-3775.050304,10066.800811
2708.713659,-1915.238745,-3034.844362,10066.800811
2708.713988,-1302.362347,-3034.844362,9548.656652
2708.714317,0.000000,-2664.741391,8660.409521
2708.714646,2068.457845,-2220.617826,7846.182985
2708.714976,2604.724693,-1850.514855,6809.894666
2708.715305,2528.115143,-2072.576638,7994.224174
2708.715634,2604.724693,-2368.659014,8808.450710
2708.715963,2374.896044,-2812.782580,7772.162391
2708.716292,2604.724693,-2368.659014,7550.100608
2708.716621,1915.238745,-1850.514855,8290.306550
2708.716950,689.485948,-2590.720797,9696.697840
2708.717279,76.609550,-2738.761985,10288.862594
2708.717608,-842.705048,-2664.741391,9326.594869
2708.717937,-1302.362347,-3108.864956,8882.471304
2708.718266,-919.314598,-3997.112087,9104.533087
2708.718595,-689.485948,-4959.379811,9696.697840
2708.718924,-536.266849,-5699.585753,9992.780217
2708.719253,-229.828649,-6957.935855,9474.636058
2708.719582,-306.438199,-5033.400406,8364.327145
2708.719912,0.000000,-3552.988522,8438.347739
2708.720241,0.000000,-1628.453072,8142.265362
2708.720570,76.609550,-1628.453072,8364.327145
2708.720899,919.314598,-1998.556043,8734.430116
2708.721228,1685.410096,-2368.659014,8956.491898
2708.721557,1685.410096,-2960.823768,9104.533087
2708.721886,459.657299,-3478.967927,9104.533087
2708.722215,766.095498,-3182.885551,9178.553681
2708.722544,995.924147,-3330.926739,8512.368333
2708.722873,1072.533697,-3034.844362,9474.636058
2708.723202,842.705048,-2812.782580,9474.636058
2708.723531,536.266849,-2294.638420,8512.368333
2708.723860,229.828649,-1702.473667,7846.182985
2708.724189,-842.705048,-1850.514855,8956.491898
2708.724518,-1378.971896,-2368.659014,9548.656652
2708.724848,-2145.067394,-3256.906145,10436.903782
2708.725177,-995.924147,-4589.276840,10140.821405
2708.725506,-306.438199,-5033.400406,10214.842000
2708.725835,766.095498,-4959.379811,9992.780217
2708.726164,1532.190996,-4737.318029,9474.636058
2708.726493,2145.067394,-3256.906145,8734.430116
2708.726822,3370.820191,-1110.308913,7624.121203
2708.727151,3447.429741,-592.164754,7328.038826
2708.727480,4060.306139,-296.082377,7031.956449
2708.727809,3370.820191,-1110.308913,7328.038826
2708.728138,2068.457845,-2590.720797,8290.306550
2708.728467,766.095498,-4145.153275,8808.450710
2708.728796,-1455.581446,-4515.256246,10362.883188
2708.729125,-2987.772442,-5625.565159,10732.986159
2708.729454,-3830.477490,-5699.585753,11029.068536
2708.729783,-3753.867940,-4219.173869,11029.068536
2708.730113,-2911.162892,-3627.009116,9474.636058
2708.730442,-1915.238745,-3256.906145,8808.450710
2708.730771,-383.047749,-3997.112087,9696.697840
2708.731100,1915.238745,-3404.947333,8882.471304
2708.731429,3983.696590,-3034.844362,8512.368333
2708.731758,4749.792088,-2812.782580,6957.935855
2708.732087,5132.839837,-2294.638420,7105.977043
2708.732416,4826.401637,-1332.370696,7328.038826
2708.732745,4596.572988,-148.041188,7179.997637
2708.733074,4673.182538,-518.144159,7254.018232
2708.733403,3140.991542,-148.041188,6957.935855
2708.733732,995.924147,-1554.432478,7846.182985
2708.734061,-2451.505594,-5255.462188,11029.068536
2708.734390,-4673.182538,-5329.482782,11473.192101
2708.734719,-4903.011187,-7846.182985,13101.645173
2708.735049,-4979.620737,-7476.080014,11325.150913
2708.735378,-4519.963438,-4959.379811,10881.027347
2708.735707,-3217.601092,-4737.318029,9474.636058
2708.736036,-2681.334243,-2738.761985,9030.512492
2708.736365,-1072.533697,-1258.350101,8512.368333
2708.736694,1072.533697,-2294.638420,10066.800811
2708.737023,4213.525239,-1924.535449,8068.244768
2708.737352,4749.792088,-0.000000,5181.441594
2708.737681,4290.134789,-1554.432478,5995.668130
2708.738010,3830.477490,-1184.329507,6143.709319
2708.738339,5669.106685,-444.123565,8734.430116
2708.738668,4213.525239,-296.082377,6587.832884
2708.738997,3140.991542,1554.432478,6439.791695
2708.739326,2068.457845,-2664.741391,10807.006753
2708.739655,-2451.505594,-3552.988522,10140.821405
2708.739985,-3907.087040,-7179.997637,13101.645173
2708.740314,-4443.353888,-4959.379811,12657.521608
2708.740643,-2451.505594,-8142.265362,11843.295072
2708.740972,-4366.744339,-6291.750507,10140.821405
2708.741301,-1915.238745,-5995.668130,9918.759623
2708.741630,-383.047749,-5921.647536,10881.027347
2708.741959,1991.848295,-4071.132681,6513.812290
2708.742288,5592.497135,-0.000000,6883.915261
2708.742617,4290.134789,1332.370696,4737.318029
2708.742946,3983.696590,1184.329507,7105.977043
2708.743275,2451.505594,-74.020594,5921.647536
2708.743604,2834.553343,-1924.535449,7994.224174
2708.743933,0.000000,-4663.297435,10658.965565
2708.744262,-1915.238745,-6735.874072,12139.377449
2708.744591,-4903.011187,-6069.688724,12657.521608
2708.744921,-5056.230287,-9252.574275,14582.057057
2708.745250,-5286.058936,-4811.338623,9770.718434
2708.745579,-3064.381992,-4811.338623,10658.965565
2708.745908,-1762.019645,-2146.597232,8808.450710
2708.746237,-1532.190996,-1850.514855,9104.533087
2708.746566,2298.286494,-3256.906145,9104.533087
2708.746895,4596.572988,-740.205942,4737.318029
2708.747224,5132.839837,-1110.308913,6883.915261
2708.747553,2604.724693,-666.185348,4737.318029
2708.747882,3140.991542,518.144159,7179.997637
2708.748211,2451.505594,296.082377,6365.771101
2708.748540,2528.115143,2072.576638,5921.647536
