#time,accel_x,accel_y,accel_z
2664.933735,306.438199,-0.000000,9178.553681
2664.934064,536.266849,-0.000000,9326.594869
2664.934393,689.485948,-222.061783,9104.533087
2664.934722,842.705048,-74.020594,8734.430116
2664.935052,153.219100,-222.061783,8956.491898
2664.935381,306.438199,-0.000000,9030.512492
2664.935710,0.000000,-74.020594,9252.574275
2664.936039,153.219100,-74.020594,9030.512492
2664.936368,76.609550,-444.123565,8882.471304
2664.936697,0.000000,-0.000000,9474.636058
2664.937026,689.485948,-370.102971,8956.491898
2664.937355,536.266849,-0.000000,9030.512492
2664.937684,306.438199,-74.020594,8882.471304
2664.938013,383.047749,-148.041188,8882.471304
2664.938342,383.047749,-222.061783,8956.491898
2664.938672,153.219100,-148.041188,9030.512492
2664.939001,306.438199,-296.082377,9400.615463
2664.939330,76.609550,-148.041188,9474.636058
2664.939659,229.828649,-370.102971,9104.533087
2664.939988,229.828649,-296.082377,9030.512492
2664.940317,306.438199,-148.041188,9252.574275
2664.940646,153.219100,-74.020594,9030.512492
2664.940975,536.266849,-0.000000,9252.574275
2664.941304,383.047749,-74.020594,9474.636058
2664.941633,536.266849,-0.000000,9178.553681
2664.941962,689.485948,-0.000000,9326.594869
2664.942291,306.438199,-0.000000,9252.574275
2664.942621,306.438199,-296.082377,9178.553681
2664.942950,229.828649,-296.082377,9252.574275
2664.943279,229.828649,-814.226536,9474.636058
2664.943608,459.657299,-518.144159,9548.656652
2664.943937,229.828649,-148.041188,9252.574275
2664.944266,536.266849,-0.000000,9178.553681
2664.944595,76.609550,-444.123565,9104.533087
2664.944924,612.876398,-0.000000,8956.491898
2664.945253,383.047749,-0.000000,9104.533087
2664.945582,459.657299,-0.000000,8586.388927
2664.945911,306.438199,-0.000000,9030.512492
2664.946240,229.828649,-296.082377,9252.574275
2664.946570,919.314598,-518.144159,8586.388927
2664.946899,153.219100,-222.061783,9104.533087
2664.947228,459.657299,-148.041188,8882.471304
2664.947557,153.219100,-222.061783,8808.450710
2664.947886,153.219100,-0.000000,8808.450710
2664.948215,229.828649,-0.000000,8808.450710
2664.948544,536.266849,-222.061783,8808.450710
2664.948873,229.828649,-222.061783,9104.533087
2664.949202,229.828649,-222.061783,9104.533087
2664.949531,306.438199,-518.144159,9178.553681
2664.949860,229.828649,-148.041188,9030.512492
2664.950189,306.438199,-370.102971,9030.512492
2664.950519,76.609550,-222.061783,9104.533087
2664.950848,306.438199,-592.164754,8586.388927
2664.951177,383.047749,-296.082377,9178.553681
2664.951506,0.000000,-592.164754,9030.512492
2664.951835,536.266849,-148.041188,9030.512492
2664.952164,306.438199,-0.000000,9178.553681
2664.952493,153.219100,-74.020594,9030.512492
2664.952822,229.828649,-148.041188,9030.512492
2664.953151,612.876398,-222.061783,9400.615463
2664.953480,689.485948,-518.144159,9252.574275
2664.953809,536.266849,-370.102971,9178.553681
2664.954139,306.438199,-962.267725,9104.533087
2664.954468,383.047749,-296.082377,9178.553681
2664.954797,306.438199,-148.041188,9326.594869
2664.955126,306.438199,-74.020594,9252.574275
2664.955455,229.828649,-222.061783,8956.491898
2664.955784,842.705048,-0.000000,9474.636058
2664.956113,153.219100,-296.082377,9252.574275
2664.956442,76.609550,-0.000000,9030.512492
2664.956771,459.657299,-0.000000,9178.553681
2664.957100,229.828649,-0.000000,8882.471304
2664.957429,383.047749,-74.020594,8882.471304
2664.957758,536.266849,-0.000000,9474.636058
2664.958088,383.047749,-148.041188,9252.574275
2664.958417,459.657299,-222.061783,9104.533087
2664.958746,306.438199,-148.041188,9030.512492
2664.959075,76.609550,-0.000000,8882.471304
2664.959404,153.219100,-0.000000,8808.450710
2664.959733,306.438199,-74.020594,8882.471304
2664.960062,229.828649,-74.020594,8808.450710
2664.960391,306.438199,-148.041188,9030.512492
2664.960720,229.828649,-0.000000,8882.471304
2664.961049,0.000000,-222.061783,9474.636058
2664.961378,383.047749,-370.102971,8956.491898
2664.961707,383.047749,-148.041188,9030.512492
2664.962037,229.828649,-518.144159,8956.491898
2664.962366,459.657299,-592.164754,9104.533087
2664.962695,306.438199,-518.144159,8956.491898
2664.963024,689.485948,-296.082377,9030.512492
2664.963353,459.657299,-370.102971,8734.430116
2664.963682,459.657299,-222.061783,9178.553681
2664.964011,76.609550,-148.041188,9030.512492
2664.964340,383.047749,-148.041188,9178.553681
2664.964669,306.438199,-444.123565,9178.553681
2664.964998,306.438199,-444.123565,9326.594869
2664.965327,612.876398,-518.144159,9400.615463
2664.965656,612.876398,-666.185348,9104.533087
2664.965986,306.438199,-222.061783,9326.594869
2664.966315,153.219100,-0.000000,9178.553681
2664.966644,459.657299,-74.020594,9178.553681
2664.966973,689.485948,-0.000000,9178.553681
2664.967302,842.705048,-74.020594,9252.574275
2664.967631,536.266849,-0.000000,9252.574275
2664.967960,383.047749,-222.061783,8882.471304
2664.968289,306.438199,-0.000000,9030.512492
2664.968618,0.000000,-0.000000,8882.471304
2664.968947,306.438199,-74.020594,9030.512492
2664.969276,153.219100,-666.185348,9104.533087
2664.969606,76.609550,-370.102971,9030.512492
2664.969935,229.828649,-370.102971,8438.347739
2664.970264,536.266849,-0.000000,8956.491898
2664.970593,306.438199,-0.000000,8956.491898
2664.970922,229.828649,-74.020594,8734.430116
2664.971251,612.876398,-222.061783,9326.594869
2664.971580,1685.410096,-1406.391290,9400.615463
2664.971909,1302.362347,-962.267725,9178.553681
2664.972238,2145.067394,-666.185348,9474.636058
2664.972567,1915.238745,-222.061783,9400.615463
2664.972896,2145.067394,-0.000000,8438.347739
2664.973225,3294.210641,-0.000000,8882.471304
2664.973555,4136.915689,-518.144159,8882.471304
2664.973884,3907.087040,148.041188,8808.450710
2664.974213,3140.991542,-0.000000,8956.491898
2664.974542,3370.820191,-0.000000,8734.430116
2664.974871,2911.162892,-518.144159,9326.594869
2664.975200,2681.334243,-222.061783,9030.512492
2664.975529,1685.410096,-666.185348,9696.697840
2664.975858,1915.238745,-1554.432478,10140.821405
2664.976187,2451.505594,-1332.370696,9400.615463
2664.976516,2374.896044,-0.000000,9548.656652
2664.976845,2528.115143,-1332.370696,10510.924376
2664.977174,3140.991542,-1036.288319,9030.512492
2664.977504,4060.306139,666.185348,9548.656652
2664.977833,4903.011187,888.247130,7772.162391
2664.978162,4673.182538,1332.370696,8216.285956
2664.978491,4596.572988,1036.288319,9104.533087
2664.978820,4596.572988,1110.308913,7254.018232
2664.979149,4136.915689,888.247130,8364.327145
2664.979478,3830.477490,-0.000000,8734.430116
2664.979807,2757.943793,444.123565,8290.306550
2664.980136,1915.238745,-296.082377,9622.677246
2664.980465,1302.362347,-888.247130,9252.574275
2664.980794,1685.410096,-888.247130,9696.697840
2664.981123,842.705048,-1110.308913,9400.615463
2664.981453,1915.238745,-296.082377,9918.759623
2664.981782,1455.581446,-962.267725,10288.862594
2664.982111,2757.943793,518.144159,8068.244768
2664.982440,2834.553343,-296.082377,9326.594869
2664.982769,3907.087040,1184.329507,8882.471304
2664.983098,4136.915689,370.102971,8068.244768
2664.983427,4826.401637,370.102971,8068.244768
2664.983756,4596.572988,296.082377,9030.512492
2664.984085,4596.572988,-370.102971,8290.306550
2664.984414,3370.820191,-888.247130,8734.430116
2664.984743,3064.381992,-1406.391290,9400.615463
2664.985073,2604.724693,-1258.350101,10140.821405
2664.985402,2221.676944,-1776.494261,9770.718434
2664.985731,2451.505594,-1406.391290,10214.842000
2664.986060,2374.896044,-1110.308913,10214.842000
2664.986389,3294.210641,-222.061783,9844.739029
2664.986718,3294.210641,370.102971,8660.409521
2664.987047,3907.087040,1406.391290,9252.574275
2664.987376,4290.134789,2072.576638,8364.327145
2664.987705,4596.572988,2886.803174,7994.224174
2664.988034,3753.867940,2294.638420,7920.203579
2664.988363,4749.792088,1924.535449,8364.327145
2664.988692,3600.648841,1258.350101,8364.327145
2664.989022,3064.381992,-444.123565,8734.430116
2664.989351,2604.724693,-1406.391290,9696.697840
2664.989680,2221.676944,-2442.679609,10066.800811
2664.990009,2221.676944,-2960.823768,10732.986159
2664.990338,2911.162892,-2738.761985,10658.965565
2664.990667,3217.601092,-1998.556043,10658.965565
2664.990996,4290.134789,-444.123565,9474.636058
2664.991325,5209.449386,740.205942,9400.615463
2664.991654,5822.325785,1850.514855,8586.388927
2664.991983,5286.058936,2738.761985,7920.203579
2664.992312,4826.401637,3182.885551,7328.038826
2664.992641,4213.525239,3775.050304,6587.832884
2664.992971,3677.258390,2368.659014,7105.977043
2664.993300,2987.772442,1258.350101,7624.121203
2664.993629,1685.410096,-1184.329507,9400.615463
2664.993958,0.000000,-4071.132681,10881.027347
2664.994287,-995.924147,-3627.009116,10955.047942
2664.994616,-612.876398,-5699.585753,12361.439231
2664.994945,-919.314598,-2960.823768,10436.903782
2664.995274,612.876398,-1554.432478,11621.233289
2664.995603,1149.143247,-666.185348,9770.718434
2664.995932,3217.601092,1480.411884,10436.903782
2664.996261,6358.592633,1406.391290,8734.430116
2664.996590,7354.516781,1998.556043,8364.327145
2664.996920,6052.154434,1258.350101,8068.244768
2664.997249,6205.373534,1480.411884,5995.668130
2664.997578,5515.887586,2220.617826,7179.997637
2664.997907,5209.449386,814.226536,7179.997637
2664.998236,5056.230287,2886.803174,5255.462188
2664.998565,4903.011187,2072.576638,6883.915261
2664.998894,4673.182538,1036.288319,6143.709319
2664.999223,2604.724693,-2146.597232,9252.574275
2664.999552,-229.828649,-7476.080014,12361.439231
2664.999881,-995.924147,-4663.297435,11473.192101
2665.000210,-1838.629195,-5773.606348,14434.015869
2665.000540,-1762.019645,-5403.503377,11695.253884
2665.000869,-229.828649,-74.020594,11029.068536
2665.001198,2145.067394,-370.102971,11621.233289
2665.001527,4060.306139,2368.659014,9104.533087
2665.001856,7201.297681,888.247130,9548.656652
2665.002185,7201.297681,1924.535449,8734.430116
2665.002514,8044.002729,3478.967927,6069.688724
2665.002843,8197.221829,4737.318029,5625.565159
2665.003172,7967.393179,1332.370696,5477.523971
2665.003501,7967.393179,3034.844362,4219.173869
2665.003830,7354.516781,1702.473667,6809.894666
2665.004159,4826.401637,370.102971,6439.791695
2665.004489,3600.648841,1776.494261,6143.709319
2665.004818,3753.867940,-1850.514855,9474.636058
2665.005147,-1225.752797,-5773.606348,12953.603985
2665.005476,-2757.943793,-3849.070898,11843.295072
2665.005805,-1762.019645,-2516.700203,13471.748144
2665.006134,-1302.362347,-6513.812290,12435.459826
2665.006463,-1149.143247,1184.329507,11103.089130
2665.006792,1838.629195,-888.247130,11473.192101
2665.007121,-842.705048,2072.576638,9622.677246
2665.007450,4443.353888,-1110.308913,14656.077652
2665.007779,7584.345430,1554.432478,6513.812290
2665.008108,9269.755526,2368.659014,8808.450710
2665.008438,6511.811733,1406.391290,5921.647536
2665.008767,7814.174080,2738.761985,4367.215058
2665.009096,6588.421283,296.082377,9474.636058
2665.009425,6052.154434,1184.329507,5329.482782
2665.009754,5362.668486,2368.659014,7920.203579
2665.010083,3064.381992,1184.329507,7105.977043
2665.010412,3217.601092,1924.535449,7402.059420
2665.010741,2145.067394,-0.000000,9844.739029
2665.011070,1149.143247,-3627.009116,11547.212695
2665.011399,229.828649,-1776.494261,11695.253884
2665.011728,-306.438199,-4293.194464,13397.727550
2665.012057,-995.924147,-3478.967927,10510.924376
2665.012387,0.000000,-0.000000,10510.924376
2665.012716,1838.629195,296.082377,10362.883188
2665.013045,2298.286494,2072.576638,8586.388927
2665.013374,4443.353888,1110.308913,7846.182985
2665.013703,4443.353888,1628.453072,7698.141797
2665.014032,4903.011187,2368.659014,6587.832884
2665.014361,3983.696590,888.247130,7031.956449
2665.014690,3524.039291,-1258.350101,7105.977043
2665.015019,3064.381992,-3108.864956,9474.636058
2665.015348,2221.676944,-2516.700203,10362.883188
2665.015677,1608.800546,-2220.617826,10584.944971
2665.016007,229.828649,-1036.288319,10807.006753
2665.016335,3217.601092,592.164754,10214.842000
2665.016664,3294.210641,1628.453072,9178.553681
2665.016993,3294.210641,1184.329507,9474.636058
2665.017322,4673.182538,1702.473667,8586.388927
2665.017651,5669.106685,1924.535449,7920.203579
2665.017980,5822.325785,2220.617826,7772.162391
2665.018309,4826.401637,962.267725,7550.100608
2665.018638,3217.601092,-592.164754,8142.265362
2665.018967,2451.505594,-518.144159,8660.409521
2665.019296,1378.971896,-444.123565,7846.182985
2665.019625,-459.657299,-1628.453072,10140.821405
2665.019954,-1762.019645,-2294.638420,10362.883188
2665.020283,-1532.190996,-2294.638420,11029.068536
2665.020612,-536.266849,-1628.453072,10510.924376
2665.020940,-536.266849,-1406.391290,9326.594869
2665.021269,-1225.752797,-1850.514855,10658.965565
2665.021598,-383.047749,-1850.514855,12509.480420
2665.021927,1608.800546,666.185348,9696.697840
2665.022256,4519.963438,1850.514855,7920.203579
2665.022585,4519.963438,2072.576638,7624.121203
2665.022914,3907.087040,2368.659014,7994.224174
2665.023243,3140.991542,2590.720797,7179.997637
2665.023572,4136.915689,2368.659014,6439.791695
2665.023901,4366.744339,-0.000000,8142.265362
2665.024230,1685.410096,-888.247130,8882.471304
2665.024559,-612.876398,-1332.370696,9770.718434
2665.024888,-2068.457845,-2590.720797,9696.697840
2665.025217,-1455.581446,-2146.597232,9696.697840
2665.025546,-1072.533697,-1554.432478,11029.068536
2665.025874,-1455.581446,-1258.350101,9992.780217
2665.026203,-612.876398,962.267725,10288.862594
2665.026532,-153.219100,-0.000000,9548.656652
2665.026861,919.314598,-444.123565,9104.533087
2665.027190,766.095498,-666.185348,11399.171507
2665.027519,1608.800546,370.102971,8512.368333
2665.027848,3294.210641,962.267725,7031.956449
2665.028177,3753.867940,2368.659014,7846.182985
2665.028506,3294.210641,1184.329507,7994.224174
2665.028835,2757.943793,666.185348,7254.018232
2665.029164,1838.629195,2072.576638,5847.626942
2665.029493,1302.362347,370.102971,7624.121203
2665.029822,-536.266849,-740.205942,9104.533087
2665.030151,-2451.505594,-2516.700203,10955.047942
2665.030479,-2911.162892,-1998.556043,10510.924376
2665.030808,-2221.676944,-814.226536,8956.491898
2665.031137,-2145.067394,-1480.411884,9400.615463
2665.031466,-2451.505594,-1480.411884,10436.903782
2665.031795,-1915.238745,592.164754,10436.903782
2665.032124,-1455.581446,-296.082377,9548.656652
2665.032453,-1302.362347,-592.164754,8882.471304
2665.032782,-919.314598,-1184.329507,10362.883188
2665.033111,-766.095498,-740.205942,9844.739029
2665.033440,-995.924147,-1184.329507,9844.739029
2665.033769,612.876398,-1110.308913,8956.491898
2665.034098,1532.190996,-74.020594,8956.491898
2665.034427,2374.896044,592.164754,8068.244768
2665.034756,2528.115143,2072.576638,6217.729913
2665.035085,2604.724693,2368.659014,5995.668130
2665.035413,1149.143247,1406.391290,7105.977043
2665.035742,612.876398,-148.041188,9474.636058
2665.036071,0.000000,666.185348,9252.574275
2665.036400,-919.314598,-222.061783,8438.347739
2665.036729,-1915.238745,-888.247130,9400.615463
2665.037058,-2298.286494,-1702.473667,11103.089130
2665.037387,-766.095498,-1036.288319,10140.821405
2665.037716,-383.047749,-814.226536,8808.450710
2665.038045,0.000000,-222.061783,9474.636058
2665.038374,-612.876398,-222.061783,9844.739029
2665.038703,-459.657299,-1036.288319,10658.965565
2665.039032,0.000000,-888.247130,9622.677246
2665.039361,1149.143247,-0.000000,9030.512492
2665.039690,1455.581446,-444.123565,9104.533087
2665.040018,1685.410096,962.267725,8142.265362
2665.040347,3370.820191,1850.514855,8216.285956
2665.040676,3064.381992,1406.391290,7179.997637
2665.041005,2298.286494,592.164754,7772.162391
2665.041334,766.095498,592.164754,9252.574275
2665.041663,229.828649,592.164754,8956.491898
2665.041992,-306.438199,-740.205942,8882.471304
2665.042321,-995.924147,-1628.453072,10140.821405
2665.042650,-1685.410096,-666.185348,10584.944971
2665.042979,-1532.190996,-666.185348,9992.780217
2665.043308,0.000000,-1036.288319,9474.636058
2665.043637,-383.047749,-1332.370696,9548.656652
2665.043966,-383.047749,-1628.453072,10732.986159
2665.044295,76.609550,-888.247130,10436.903782
2665.044623,2145.067394,-592.164754,9844.739029
2665.044952,1302.362347,-0.000000,8364.327145
2665.045281,1838.629195,592.164754,8512.368333
2665.045610,2374.896044,962.267725,8364.327145
2665.045939,2834.553343,1554.432478,7328.038826
2665.046268,2681.334243,1406.391290,7105.977043
2665.046597,1149.143247,-518.144159,8438.347739
2665.046926,689.485948,-222.061783,8882.471304
2665.047255,76.609550,-74.020594,8734.430116
2665.047584,-1225.752797,-1110.308913,9252.574275
2665.047913,-1915.238745,-1332.370696,10510.924376
2665.048242,-1532.190996,-1702.473667,10066.800811
2665.048571,-1149.143247,-666.185348,9104.533087
2665.048900,536.266849,-592.164754,8290.306550
2665.049229,0.000000,-814.226536,9252.574275
2665.049557,-229.828649,-1406.391290,10140.821405
2665.049886,1685.410096,-0.000000,9474.636058
2665.050215,1991.848295,1110.308913,7105.977043
2665.050544,2528.115143,888.247130,8216.285956
2665.050873,1532.190996,-0.000000,8438.347739
2665.051202,1915.238745,962.267725,8290.306550
2665.051531,2068.457845,1554.432478,7328.038826
2665.051860,1302.362347,-888.247130,7550.100608
2665.052189,-689.485948,-814.226536,9622.677246
2665.052518,-1302.362347,-1184.329507,9992.780217
2665.052847,-1532.190996,-1628.453072,10288.862594
2665.053176,-1608.800546,-888.247130,9030.512492
2665.053505,-1225.752797,-740.205942,8882.471304
2665.053834,-1225.752797,-444.123565,9696.697840
2665.054162,-612.876398,148.041188,9178.553681
2665.054491,0.000000,-666.185348,8734.430116
2665.054820,-1149.143247,-888.247130,9474.636058
2665.055149,-919.314598,-1258.350101,10214.842000
2665.055478,-536.266849,-74.020594,10288.862594
2665.055807,612.876398,-0.000000,8808.450710
2665.056136,1149.143247,962.267725,8586.388927
2665.056465,1685.410096,814.226536,8660.409521
2665.056794,1302.362347,1776.494261,8216.285956
2665.057123,2068.457845,1776.494261,7698.141797
2665.057452,1455.581446,1110.308913,7772.162391
2665.057781,-306.438199,-222.061783,9400.615463
2665.058110,-689.485948,-888.247130,10066.800811
2665.058439,-1532.190996,-74.020594,9696.697840
2665.058768,-1072.533697,-1332.370696,10362.883188
2665.059096,-1302.362347,-814.226536,9104.533087
2665.059425,-383.047749,-148.041188,9992.780217
2665.059754,-383.047749,-222.061783,9252.574275
2665.060083,536.266849,148.041188,8734.430116
2665.060412,-383.047749,-1036.288319,9918.759623
2665.060741,-842.705048,-2146.597232,10881.027347
2665.061070,766.095498,-962.267725,10214.842000
2665.061399,1072.533697,-222.061783,9178.553681
2665.061728,1838.629195,518.144159,8142.265362
2665.062057,2604.724693,1332.370696,9474.636058
2665.062386,3677.258390,2368.659014,7179.997637
2665.062715,3983.696590,2442.679609,7328.038826
2665.063044,3064.381992,1184.329507,8142.265362
2665.063373,1608.800546,740.205942,8586.388927
2665.063701,1225.752797,-370.102971,8734.430116
2665.064030,-842.705048,-74.020594,8956.491898
2665.064359,-1762.019645,-1776.494261,10362.883188
2665.064688,-1455.581446,-2516.700203,10140.821405
2665.065017,-1149.143247,-666.185348,9474.636058
2665.065346,0.000000,-740.205942,8586.388927
2665.065675,0.000000,-296.082377,8438.347739
2665.066004,-229.828649,-814.226536,10214.842000
2665.066333,-306.438199,-592.164754,10214.842000
2665.066662,689.485948,-592.164754,10214.842000
2665.066991,1302.362347,-370.102971,8068.244768
2665.067320,2221.676944,592.164754,8068.244768
2665.067649,2374.896044,518.144159,8586.388927
2665.067978,2604.724693,1850.514855,7179.997637
2665.068307,2528.115143,1554.432478,7476.080014
2665.068635,1378.971896,740.205942,7476.080014
2665.068964,229.828649,-222.061783,8808.450710
2665.069293,-919.314598,-592.164754,8734.430116
2665.069622,-1225.752797,-1776.494261,9474.636058
2665.069951,-1455.581446,-1776.494261,8660.409521
2665.070280,-1762.019645,-2368.659014,9696.697840
2665.070609,-1685.410096,-1258.350101,9844.739029
2665.070938,-1225.752797,-296.082377,9104.533087
2665.071267,-766.095498,-518.144159,9326.594869
2665.071596,-1378.971896,-1628.453072,10214.842000
2665.071925,-612.876398,-1036.288319,10584.944971
2665.072254,-689.485948,-0.000000,9548.656652
2665.072583,-536.266849,222.061783,9252.574275
2665.072912,0.000000,-1184.329507,10881.027347
2665.073240,689.485948,222.061783,9548.656652
2665.073569,1838.629195,740.205942,7994.224174
2665.073898,3294.210641,-0.000000,6661.853478
2665.074227,2757.943793,962.267725,7254.018232
2665.074556,1608.800546,296.082377,8660.409521
2665.074885,2145.067394,1110.308913,8586.388927
2665.075214,995.924147,-666.185348,7994.224174
2665.075543,-306.438199,-518.144159,9474.636058
2665.075872,-842.705048,-1776.494261,10584.944971
2665.076201,-1225.752797,-814.226536,10140.821405
2665.076530,-919.314598,-962.267725,9548.656652
2665.076859,689.485948,-592.164754,10584.944971
2665.077188,76.609550,-1628.453072,9770.718434
2665.077517,0.000000,-0.000000,10807.006753
2665.077845,842.705048,-0.000000,10510.924376
2665.078174,1762.019645,-0.000000,8956.491898
2665.078503,2145.067394,962.267725,7920.203579
2665.078832,2681.334243,1332.370696,8438.347739
2665.079161,2604.724693,1776.494261,7550.100608
2665.079490,3064.381992,1998.556043,6883.915261
2665.079819,2145.067394,444.123565,8586.388927
2665.080148,0.000000,-1036.288319,9326.594869
2665.080477,-1149.143247,-1702.473667,9696.697840
2665.080806,-1991.848295,-1702.473667,9252.574275
2665.081135,-2298.286494,-2146.597232,10584.944971
2665.081464,-2221.676944,-1554.432478,10066.800811
2665.081793,-1072.533697,148.041188,9770.718434
2665.082122,-459.657299,-74.020594,9104.533087
2665.082451,0.000000,222.061783,8438.347739
2665.082779,0.000000,-666.185348,9474.636058
2665.083108,1762.019645,-148.041188,9918.759623
2665.083437,2374.896044,888.247130,7328.038826
2665.083766,3524.039291,1776.494261,7031.956449
2665.084095,2757.943793,1702.473667,7698.141797
2665.084424,2757.943793,1776.494261,8808.450710
2665.084753,2604.724693,1776.494261,7105.977043
2665.085082,1762.019645,666.185348,6661.853478
2665.085411,-536.266849,-1332.370696,9104.533087
2665.085740,-2298.286494,-2146.597232,10362.883188
2665.086069,-2374.896044,-2516.700203,10955.047942
2665.086398,-2145.067394,-2072.576638,10066.800811
2665.086727,-1685.410096,-1628.453072,9474.636058
2665.087056,-1762.019645,-1332.370696,10362.883188
2665.087384,-1455.581446,-0.000000,9918.759623
2665.087713,-689.485948,370.102971,9104.533087
2665.088042,-459.657299,-666.185348,8808.450710
2665.088371,153.219100,-962.267725,9548.656652
2665.088700,842.705048,-370.102971,11103.089130
2665.089029,1762.019645,962.267725,7254.018232
2665.089358,2911.162892,888.247130,7550.100608
2665.089687,2834.553343,1036.288319,7179.997637
2665.090016,3600.648841,2072.576638,6957.935855
2665.090345,3600.648841,1702.473667,7550.100608
2665.090674,2221.676944,666.185348,7105.977043
2665.091003,0.000000,-1332.370696,9474.636058
2665.091332,-1302.362347,-1480.411884,10066.800811
2665.091661,-2298.286494,-814.226536,9696.697840
2665.091990,-1915.238745,-2072.576638,11621.233289
2665.092318,-2374.896044,-1628.453072,9474.636058
2665.092647,-1302.362347,-1110.308913,10732.986159
2665.092976,-1072.533697,518.144159,10066.800811
2665.093305,-612.876398,222.061783,9252.574275
2665.093634,-306.438199,-0.000000,9770.718434
2665.093963,-766.095498,-296.082377,9770.718434
2665.094292,-459.657299,-370.102971,10066.800811
2665.094621,995.924147,-148.041188,9992.780217
2665.094950,1149.143247,296.082377,7550.100608
2665.095279,3524.039291,518.144159,8142.265362
2665.095608,3294.210641,962.267725,6735.874072
2665.095937,3677.258390,1110.308913,7254.018232
2665.096266,2451.505594,1184.329507,8216.285956
2665.096595,612.876398,-0.000000,8586.388927
2665.096923,-689.485948,-0.000000,9770.718434
2665.097252,-1532.190996,-0.000000,9992.780217
2665.097581,-1608.800546,-1258.350101,10881.027347
2665.097910,-1762.019645,-1702.473667,10955.047942
2665.098239,-1225.752797,-1184.329507,11029.068536
2665.098568,-842.705048,-444.123565,9622.677246
2665.098897,-459.657299,-0.000000,9400.615463
2665.099226,-612.876398,-740.205942,9992.780217
2665.099555,-1685.410096,-1554.432478,10140.821405
2665.099884,0.000000,-1110.308913,10140.821405
2665.100213,459.657299,-0.000000,10214.842000
2665.100542,842.705048,-0.000000,8512.368333
2665.100871,2145.067394,518.144159,8586.388927
2665.101200,3064.381992,2072.576638,7105.977043
2665.101529,2987.772442,2146.597232,5773.606348
2665.101857,2987.772442,1036.288319,6587.832884
2665.102186,1685.410096,1036.288319,7698.141797
2665.102515,1455.581446,296.082377,8438.347739
2665.102844,459.657299,296.082377,8142.265362
2665.103173,-1378.971896,-1924.535449,9622.677246
2665.103502,-1991.848295,-2516.700203,10362.883188
2665.103831,-1762.019645,-1628.453072,10066.800811
2665.104160,-1455.581446,-1406.391290,8586.388927
2665.104489,229.828649,-814.226536,8956.491898
2665.104818,-612.876398,-2294.638420,9918.759623
2665.105147,-766.095498,-740.205942,10140.821405
2665.105476,0.000000,-888.247130,9696.697840
2665.105805,842.705048,-0.000000,8808.450710
2665.106134,1225.752797,444.123565,7920.203579
2665.106462,3064.381992,1258.350101,8512.368333
2665.106791,2757.943793,1628.453072,7179.997637
2665.107120,4443.353888,1628.453072,7402.059420
2665.107449,3064.381992,666.185348,6883.915261
2665.107778,1915.238745,296.082377,8512.368333
2665.108107,919.314598,370.102971,9178.553681
2665.108436,-459.657299,-0.000000,8438.347739
2665.108765,-1608.800546,-1554.432478,10288.862594
2665.109094,-2451.505594,-1998.556043,11399.171507
2665.109423,-1915.238745,-1332.370696,10140.821405
2665.109752,-1685.410096,-666.185348,10584.944971
2665.110081,-842.705048,-444.123565,9178.553681
2665.110410,-1455.581446,-1332.370696,10807.006753
2665.110739,-1455.581446,-1110.308913,10584.944971
2665.111067,-1149.143247,-0.000000,10140.821405
2665.111396,-153.219100,-444.123565,10214.842000
2665.111725,-459.657299,444.123565,8808.450710
2665.112054,306.438199,-0.000000,9992.780217
2665.112383,1302.362347,740.205942,8882.471304
2665.112712,2298.286494,370.102971,7105.977043
2665.113041,3064.381992,1184.329507,7179.997637
2665.113370,2221.676944,1554.432478,7328.038826
2665.113699,1149.143247,1776.494261,8438.347739
2665.114028,383.047749,518.144159,8216.285956
2665.114357,-919.314598,-296.082377,8438.347739
2665.114686,-2145.067394,-1480.411884,10510.924376
2665.115015,-1838.629195,-1110.308913,10436.903782
2665.115344,-2221.676944,-1554.432478,9548.656652
2665.115673,-1302.362347,-1628.453072,9474.636058
2665.116001,-1149.143247,-1850.514855,9474.636058
2665.116330,-1225.752797,-1480.411884,10436.903782
2665.116659,-383.047749,-0.000000,9844.739029
2665.116988,306.438199,666.185348,9400.615463
2665.117317,1225.752797,-888.247130,9844.739029
2665.117646,2834.553343,1184.329507,8290.306550
2665.117975,4136.915689,1554.432478,7179.997637
2665.118304,4366.744339,2368.659014,5773.606348
2665.118633,4136.915689,1406.391290,7105.977043
2665.118962,3524.039291,592.164754,8068.244768
2665.119291,2221.676944,370.102971,7402.059420
2665.119620,459.657299,-222.061783,8512.368333
2665.119949,-1225.752797,-2146.597232,10807.006753
2665.120278,-2145.067394,-3108.864956,10955.047942
2665.120606,-2221.676944,-1776.494261,10436.903782
2665.120935,-1302.362347,-1776.494261,9844.739029
2665.121264,-919.314598,-1998.556043,9622.677246
2665.121593,-1225.752797,-1628.453072,10807.006753
2665.121922,-459.657299,-296.082377,10362.883188
2665.122251,306.438199,-666.185348,10066.800811
2665.122580,1685.410096,222.061783,9474.636058
2665.122909,2221.676944,1998.556043,7476.080014
2665.123238,3524.039291,2220.617826,7920.203579
2665.123567,3830.477490,2442.679609,6217.729913
2665.123896,4290.134789,2664.741391,6957.935855
2665.124225,3217.601092,962.267725,7254.018232
2665.124554,1532.190996,666.185348,7031.956449
2665.124883,0.000000,-0.000000,8586.388927
2665.125212,-1532.190996,-962.267725,9400.615463
2665.125540,-2528.115143,-2294.638420,11103.089130
2665.125869,-3064.381992,-1702.473667,10066.800811
2665.126198,-2221.676944,-1998.556043,10362.883188
2665.126527,-2221.676944,-592.164754,9696.697840
2665.126856,-1532.190996,-666.185348,10066.800811
2665.127185,-2374.896044,-1998.556043,11473.192101
2665.127514,-1378.971896,-1258.350101,10510.924376
2665.127843,459.657299,-0.000000,9400.615463
2665.128172,0.000000,962.267725,9474.636058
2665.128501,-612.876398,-592.164754,10436.903782
2665.128830,2068.457845,296.082377,9844.739029
2665.129159,4290.134789,2072.576638,5477.523971
2665.129488,4903.011187,1036.288319,6513.812290
2665.129817,2834.553343,1554.432478,5847.626942
2665.130145,2911.162892,1258.350101,8438.347739
2665.130474,1225.752797,740.205942,8808.450710
2665.130803,229.828649,370.102971,7550.100608
2665.131132,-1072.533697,-1850.514855,10214.842000
2665.131461,-2221.676944,-2812.782580,11547.212695
2665.131790,-2221.676944,-1480.411884,10066.800811
2665.132119,-1225.752797,-1924.535449,9178.553681
2665.132448,-459.657299,-2294.638420,9030.512492
2665.132777,-1149.143247,-2072.576638,11399.171507
2665.133106,-766.095498,-370.102971,11103.089130
2665.133435,-766.095498,-148.041188,9696.697840
2665.133764,0.000000,-296.082377,9474.636058
2665.134093,995.924147,666.185348,10214.842000
2665.134422,2145.067394,1554.432478,8290.306550
2665.134750,3524.039291,2664.741391,7105.977043
2665.135079,4290.134789,1628.453072,6735.874072
2665.135408,2987.772442,1554.432478,6809.894666
2665.135737,2681.334243,370.102971,8068.244768
2665.136066,536.266849,888.247130,7772.162391
2665.136395,76.609550,-370.102971,8882.471304
2665.136724,-1608.800546,-2072.576638,9474.636058
2665.137053,-1991.848295,-2220.617826,10214.842000
2665.137382,-1149.143247,-1406.391290,9770.718434
2665.137711,-1302.362347,-1184.329507,9104.533087
2665.138040,-1762.019645,-1036.288319,8512.368333
2665.138369,-1455.581446,-1258.350101,10066.800811
2665.138698,-919.314598,-592.164754,10584.944971
2665.139027,-536.266849,222.061783,9696.697840
2665.139356,0.000000,444.123565,8956.491898
2665.139684,0.000000,1332.370696,9770.718434
2665.140013,1685.410096,1036.288319,8142.265362
2665.140342,2068.457845,1406.391290,7476.080014
2665.140671,2911.162892,814.226536,7994.224174
2665.141000,1838.629195,740.205942,8364.327145
2665.141329,1225.752797,-444.123565,7994.224174
2665.141658,612.876398,518.144159,7624.121203
2665.141987,0.000000,-0.000000,8364.327145
2665.142316,-995.924147,-1480.411884,9474.636058
2665.142645,-1685.410096,-1702.473667,9992.780217
2665.142974,-1225.752797,-1480.411884,10362.883188
2665.143303,-612.876398,-1628.453072,8956.491898
2665.143632,-689.485948,-1554.432478,9400.615463
2665.143961,-1225.752797,-2146.597232,10732.986159
2665.144289,-612.876398,-740.205942,10955.047942
2665.144618,76.609550,-74.020594,9696.697840
2665.144947,919.314598,-0.000000,9918.759623
2665.145276,1378.971896,518.144159,9696.697840
2665.145605,2451.505594,1554.432478,8438.347739
2665.145934,2911.162892,1702.473667,7550.100608
2665.146263,2987.772442,814.226536,7179.997637
2665.146592,3140.991542,1036.288319,8734.430116
2665.146921,2451.505594,444.123565,8290.306550
2665.147250,1149.143247,888.247130,8438.347739
2665.147579,153.219100,-592.164754,8660.409521
2665.147908,-1225.752797,-740.205942,9992.780217
2665.148237,-1302.362347,-666.185348,9696.697840
2665.148566,-1608.800546,-518.144159,9400.615463
2665.148894,-1608.800546,-1258.350101,10510.924376
2665.149223,-1072.533697,-2442.679609,11103.089130
2665.149552,-1991.848295,-2072.576638,10881.027347
2665.149881,-995.924147,-444.123565,11473.192101
2665.150210,766.095498,-1332.370696,8290.306550
2665.150539,-153.219100,814.226536,8290.306550
2665.150868,1608.800546,1184.329507,9400.615463
2665.151197,2221.676944,1554.432478,8290.306550
2665.151526,2451.505594,2072.576638,6957.935855
2665.151855,2757.943793,962.267725,7476.080014
2665.152184,2068.457845,-0.000000,8216.285956
2665.152513,919.314598,-222.061783,8956.491898
2665.152842,153.219100,370.102971,8512.368333
2665.153171,-995.924147,-814.226536,8734.430116
2665.153500,-2528.115143,-1406.391290,10510.924376
2665.153828,-2374.896044,-1110.308913,10436.903782
2665.154157,-1838.629195,-1258.350101,9030.512492
2665.154486,-1072.533697,-1332.370696,9252.574275
2665.154815,-1302.362347,-2294.638420,9696.697840
2665.155144,-1302.362347,-1924.535449,10066.800811
2665.155473,-1302.362347,-222.061783,10436.903782
2665.155802,0.000000,-222.061783,9252.574275
2665.156131,153.219100,-296.082377,8882.471304
2665.156460,689.485948,370.102971,9178.553681
2665.156789,2068.457845,1850.514855,7846.182985
2665.157118,3524.039291,814.226536,7179.997637
2665.157447,2757.943793,1184.329507,5551.544565
2665.157776,3600.648841,962.267725,8364.327145
2665.158105,2451.505594,1110.308913,7254.018232
2665.158433,1225.752797,1036.288319,7328.038826
2665.158762,306.438199,-444.123565,8882.471304
2665.159091,-766.095498,-1406.391290,9474.636058
2665.159420,-1532.190996,-814.226536,10066.800811
2665.159749,-995.924147,-1258.350101,9918.759623
2665.160078,-842.705048,-1776.494261,9326.594869
2665.160407,-1225.752797,-1776.494261,10658.965565
2665.160736,-612.876398,-1850.514855,10584.944971
2665.161065,-842.705048,-74.020594,9918.759623
2665.161394,995.924147,-148.041188,9696.697840
2665.161723,1149.143247,222.061783,8142.265362
2665.162052,2298.286494,962.267725,9696.697840
2665.162381,3600.648841,1184.329507,8068.244768
2665.162710,3600.648841,1776.494261,7105.977043
2665.163039,3600.648841,1332.370696,7624.121203
2665.163367,2987.772442,666.185348,7772.162391
2665.163696,1915.238745,740.205942,8808.450710
2665.164025,383.047749,-0.000000,8808.450710
2665.164354,-689.485948,-740.205942,9474.636058
2665.164683,-2298.286494,-1702.473667,11399.171507
2665.165012,-1915.238745,-1036.288319,10584.944971
2665.165341,-1455.581446,-740.205942,9696.697840
2665.165670,-1762.019645,-1406.391290,10214.842000
2665.165999,-1608.800546,-1850.514855,10510.924376
2665.166328,-1378.971896,-1480.411884,10584.944971
2665.166657,-689.485948,-0.000000,10807.006753
2665.166986,0.000000,444.123565,8882.471304
2665.167315,-383.047749,-0.000000,9992.780217
2665.167644,153.219100,740.205942,9770.718434
2665.167972,1225.752797,1406.391290,7698.141797
2665.168301,2911.162892,666.185348,7179.997637
2665.168630,1838.629195,370.102971,6883.915261
2665.168959,1991.848295,962.267725,8364.327145
2665.169288,1149.143247,1702.473667,8512.368333
2665.169617,153.219100,666.185348,7328.038826
2665.169946,-919.314598,-370.102971,9178.553681
2665.170275,-1685.410096,-740.205942,10214.842000
2665.170604,-1378.971896,-1036.288319,9400.615463
2665.170933,-459.657299,-1110.308913,9622.677246
2665.171262,-459.657299,-1924.535449,8956.491898
2665.171591,-1149.143247,-2072.576638,10584.944971
2665.171920,-919.314598,-1406.391290,10584.944971
2665.172249,0.000000,-518.144159,9696.697840
2665.172577,1225.752797,-0.000000,8512.368333
2665.172906,1608.800546,962.267725,8734.430116
2665.173235,2451.505594,1628.453072,8956.491898
2665.173564,3294.210641,1776.494261,7105.977043
2665.173893,3447.429741,1258.350101,6809.894666
2665.174222,2604.724693,666.185348,7624.121203
2665.174551,1838.629195,-74.020594,8586.388927
2665.174880,612.876398,296.082377,8068.244768
2665.175209,76.609550,-962.267725,9030.512492
2665.175538,-1532.190996,-2146.597232,9844.739029
2665.175867,-1302.362347,-2072.576638,11399.171507
2665.176196,-1149.143247,-1110.308913,10288.862594
2665.176525,-689.485948,-740.205942,9104.533087
2665.176854,-766.095498,-1480.411884,9622.677246
2665.177183,-1378.971896,-888.247130,10362.883188
2665.177511,-306.438199,-1110.308913,11547.212695
2665.177840,612.876398,-0.000000,9326.594869
2665.178169,2068.457845,-0.000000,9030.512492
2665.178498,2145.067394,1036.288319,7994.224174
2665.178827,2145.067394,2146.597232,7624.121203
2665.179156,2221.676944,1850.514855,7550.100608
2665.179485,2145.067394,962.267725,6809.894666
2665.179814,842.705048,-148.041188,8586.388927
2665.180143,0.000000,-888.247130,9918.759623
2665.180472,-1302.362347,-148.041188,9474.636058
2665.180801,-2221.676944,-1110.308913,10066.800811
2665.181130,-2451.505594,-1554.432478,10881.027347
2665.181459,-2221.676944,-222.061783,10436.903782
2665.181788,-1302.362347,-148.041188,9770.718434
2665.182116,-383.047749,814.226536,8586.388927
2665.182445,766.095498,-518.144159,9474.636058
2665.182774,383.047749,-1702.473667,11029.068536
2665.183103,1225.752797,-74.020594,9030.512492
2665.183432,2528.115143,666.185348,7846.182985
2665.183761,2451.505594,962.267725,7328.038826
2665.184090,2221.676944,962.267725,8290.306550
2665.184419,2145.067394,1258.350101,8586.388927
2665.184748,2451.505594,888.247130,7550.100608
2665.185077,1915.238745,-296.082377,7698.141797
2665.185406,0.000000,-666.185348,8808.450710
2665.185735,-1225.752797,-1036.288319,10288.862594
2665.186064,-2068.457845,-2072.576638,11399.171507
2665.186393,-1838.629195,-2072.576638,9844.739029
2665.186721,-1225.752797,-2220.617826,10214.842000
2665.187050,-1378.971896,-592.164754,9696.697840
2665.187379,-383.047749,-0.000000,9696.697840
2665.187708,1149.143247,-296.082377,9992.780217
2665.188037,1532.190996,-888.247130,8512.368333
2665.188366,2374.896044,370.102971,8808.450710
2665.188695,2987.772442,-74.020594,8216.285956
2665.189024,3753.867940,1924.535449,6735.874072
2665.189353,3524.039291,-74.020594,8290.306550
2665.189682,2451.505594,518.144159,8068.244768
2665.190011,1762.019645,444.123565,8364.327145
2665.190340,1149.143247,-0.000000,8290.306550
2665.190669,0.000000,-0.000000,8068.244768
2665.190998,-842.705048,-1110.308913,9992.780217
2665.191327,-2298.286494,-1480.411884,10881.027347
2665.191655,-1302.362347,-962.267725,9696.697840
2665.191984,-1608.800546,-1332.370696,9178.553681
2665.192313,-1378.971896,-148.041188,9178.553681
2665.192642,-1225.752797,-148.041188,10140.821405
2665.192971,-383.047749,-148.041188,9178.553681
2665.193300,689.485948,740.205942,8586.388927
2665.193629,842.705048,-296.082377,8956.491898
2665.193958,766.095498,-0.000000,8142.265362
2665.194287,2987.772442,444.123565,8882.471304
2665.194616,2834.553343,962.267725,7105.977043
2665.194945,1072.533697,1184.329507,8290.306550
2665.195274,1149.143247,-518.144159,9696.697840
2665.195603,383.047749,888.247130,8216.285956
2665.195932,459.657299,1332.370696,8734.430116
2665.196260,-383.047749,-74.020594,9104.533087
2665.196589,-1762.019645,-1406.391290,10658.965565
2665.196918,-2298.286494,-666.185348,10584.944971
2665.197247,-689.485948,-370.102971,9844.739029
2665.197576,-1685.410096,-1480.411884,9474.636058
2665.197905,-1532.190996,-740.205942,10066.800811
2665.198234,-1072.533697,-74.020594,9770.718434
2665.198563,-612.876398,-592.164754,9400.615463
2665.198892,459.657299,-962.267725,9400.615463
2665.199221,536.266849,-1406.391290,9992.780217
2665.199550,1455.581446,-962.267725,10140.821405
2665.199879,2298.286494,-74.020594,7402.059420
2665.200208,2757.943793,1110.308913,7624.121203
2665.200537,2298.286494,888.247130,8290.306550
2665.200866,2145.067394,1480.411884,8956.491898
2665.201194,1762.019645,1480.411884,7920.203579
2665.201523,1608.800546,1036.288319,7624.121203
2665.201852,536.266849,148.041188,8660.409521
2665.202181,-995.924147,-222.061783,9696.697840
2665.202510,-1532.190996,-1850.514855,10510.924376
2665.202839,-1685.410096,-666.185348,9030.512492
2665.203168,-1378.971896,-1406.391290,9474.636058
2665.203497,-1149.143247,-1258.350101,9696.697840
2665.203826,-1302.362347,-592.164754,10214.842000
2665.204155,-842.705048,-740.205942,8586.388927
2665.204484,-459.657299,-222.061783,9252.574275
2665.204813,0.000000,-1776.494261,10436.903782
2665.205142,919.314598,-1258.350101,9178.553681
2665.205471,1915.238745,1110.308913,9474.636058
2665.205799,3600.648841,518.144159,8290.306550
2665.206128,3294.210641,1406.391290,6809.894666
2665.206457,2528.115143,1998.556043,8586.388927
2665.206786,3370.820191,2220.617826,7698.141797
2665.207115,2757.943793,2220.617826,6735.874072
2665.207444,306.438199,518.144159,8956.491898
2665.207773,-689.485948,-814.226536,8808.450710
2665.208102,-1762.019645,-1628.453072,10066.800811
2665.208431,-2451.505594,-1776.494261,9770.718434
2665.208760,-1608.800546,-2590.720797,10288.862594
2665.209089,-2604.724693,-2368.659014,9918.759623
2665.209418,-1915.238745,-1036.288319,10362.883188
2665.209747,-1225.752797,-740.205942,9474.636058
2665.210076,-536.266849,-592.164754,9696.697840
2665.210404,-306.438199,-1110.308913,10436.903782
2665.210733,-919.314598,-1554.432478,10732.986159
2665.211062,689.485948,-1184.329507,11917.315666
2665.211391,2145.067394,592.164754,7846.182985
2665.211720,3370.820191,1110.308913,7698.141797
2665.212049,2987.772442,1850.514855,7328.038826
2665.212378,4519.963438,2886.803174,6735.874072
2665.212707,3294.210641,2368.659014,6365.771101
2665.213036,2145.067394,1258.350101,6883.915261
2665.213365,536.266849,-370.102971,8808.450710
2665.213694,-2221.676944,-1554.432478,9400.615463
2665.214023,-2451.505594,-1850.514855,9474.636058
2665.214352,-2757.943793,-3034.844362,11325.150913
2665.214681,-2451.505594,-2960.823768,10362.883188
2665.215010,-2145.067394,-1480.411884,10955.047942
2665.215338,0.000000,-518.144159,10066.800811
2665.215667,-383.047749,-370.102971,8438.347739
2665.215996,0.000000,-1554.432478,11103.089130
2665.216325,1838.629195,-814.226536,11251.130318
2665.216654,2757.943793,2294.638420,6661.853478
2665.216983,4903.011187,2146.597232,7624.121203
2665.217312,3447.429741,1628.453072,6439.791695
2665.217641,5132.839837,2294.638420,8438.347739
2665.217971,4519.963438,2960.823768,6513.812290
2665.218300,3064.381992,962.267725,6069.688724
2665.218629,459.657299,-148.041188,9548.656652
2665.218958,-1455.581446,-592.164754,10288.862594
2665.219287,-3217.601092,-2072.576638,10881.027347
2665.219616,-3447.429741,-3182.885551,12731.542202
2665.219945,-2757.943793,-3182.885551,10510.924376
2665.220274,-2374.896044,-2146.597232,10881.027347
2665.220603,-1915.238745,-814.226536,10066.800811
2665.220932,-1149.143247,740.205942,9178.553681
2665.221262,-306.438199,-592.164754,10436.903782
2665.221591,229.828649,-222.061783,10288.862594
2665.221920,1608.800546,-0.000000,9474.636058
2665.222249,3217.601092,962.267725,7476.080014
2665.222578,3753.867940,1776.494261,5699.585753
2665.222907,2451.505594,2664.741391,7402.059420
2665.223236,3294.210641,1924.535449,8142.265362
2665.223565,2145.067394,1924.535449,6439.791695
2665.223894,1455.581446,1110.308913,7031.956449
2665.224223,-766.095498,-1258.350101,9696.697840
2665.224553,-3370.820191,-3108.864956,10807.006753
2665.224882,-3600.648841,-3034.844362,11473.192101
2665.225211,-2987.772442,-2072.576638,9400.615463
2665.225540,-2221.676944,-2220.617826,9548.656652
2665.225869,-2604.724693,-2072.576638,10881.027347
2665.226198,-1302.362347,-222.061783,9474.636058
2665.226527,-995.924147,-74.020594,9104.533087
2665.226856,0.000000,-1110.308913,9326.594869
2665.227185,1532.190996,-518.144159,10510.924376
2665.227514,2451.505594,592.164754,8142.265362
2665.227843,4290.134789,2368.659014,7105.977043
2665.228173,4213.525239,1702.473667,6365.771101
2665.228502,3830.477490,2738.761985,6587.832884
2665.228831,4060.306139,2146.597232,8142.265362
2665.229160,3447.429741,1998.556043,6661.853478
2665.229489,995.924147,-222.061783,7994.224174
2665.229818,-1608.800546,-2146.597232,10510.924376
2665.230147,-3294.210641,-2960.823768,10955.047942
2665.230476,-3600.648841,-2368.659014,11177.109724
2665.230805,-1991.848295,-2738.761985,10510.924376
2665.231134,-2068.457845,-2072.576638,10214.842000
2665.231464,-1838.629195,-1036.288319,11473.192101
2665.231793,-995.924147,148.041188,9474.636058
2665.232122,766.095498,-666.185348,9918.759623
2665.232451,1302.362347,-0.000000,9474.636058
2665.232780,2298.286494,1036.288319,8586.388927
2665.233109,3447.429741,962.267725,8216.285956
2665.233438,3217.601092,1924.535449,6661.853478
2665.233767,3064.381992,1184.329507,7772.162391
2665.234096,2145.067394,888.247130,8882.471304
2665.234425,2298.286494,1184.329507,7402.059420
2665.234755,2068.457845,814.226536,7624.121203
2665.235084,-612.876398,-0.000000,8216.285956
2665.235413,-1991.848295,-1480.411884,10510.924376
2665.235742,-3140.991542,-2664.741391,10881.027347
2665.236071,-2145.067394,-1480.411884,10140.821405
2665.236400,-1915.238745,-1776.494261,9696.697840
2665.236729,-2681.334243,-1332.370696,9400.615463
2665.237058,-2374.896044,-962.267725,10214.842000
2665.237387,-1532.190996,-74.020594,9104.533087
2665.237716,0.000000,-0.000000,8956.491898
2665.238046,-306.438199,-444.123565,9622.677246
2665.238375,1302.362347,-1036.288319,10140.821405
2665.238704,1838.629195,-148.041188,8882.471304
2665.239033,2221.676944,888.247130,7105.977043
2665.239362,2604.724693,740.205942,7179.997637
2665.239691,2374.896044,1258.350101,8734.430116
2665.240020,2604.724693,1998.556043,8586.388927
2665.240349,3677.258390,2220.617826,6957.935855
2665.240678,1532.190996,444.123565,7994.224174
2665.241007,-306.438199,-1110.308913,9030.512492
2665.241337,-383.047749,-1332.370696,9844.739029
2665.241666,-995.924147,-814.226536,9030.512492
2665.241995,-1532.190996,-1184.329507,9104.533087
2665.242324,-2068.457845,-2368.659014,11177.109724
2665.242653,-1991.848295,-1776.494261,10881.027347
2665.242982,-1302.362347,-740.205942,10066.800811
2665.243311,-383.047749,-888.247130,9252.574275
2665.243640,-76.609550,-1406.391290,10584.944971
2665.243969,842.705048,-148.041188,10214.842000
2665.244298,2451.505594,666.185348,9474.636058
2665.244627,3524.039291,1332.370696,7698.141797
2665.244957,3217.601092,814.226536,7476.080014
2665.245286,4060.306139,2072.576638,8660.409521
2665.245615,3140.991542,2886.803174,8142.265362
2665.245944,3753.867940,2368.659014,6809.894666
2665.246273,2145.067394,888.247130,7402.059420
2665.246602,0.000000,518.144159,9252.574275
2665.246931,-919.314598,-1110.308913,10140.821405
2665.247260,-1762.019645,-1332.370696,9400.615463
2665.247589,-2374.896044,-2516.700203,10436.903782
2665.247918,-2681.334243,-1702.473667,10807.006753
2665.248248,-2834.553343,-1628.453072,10658.965565
2665.248577,-2221.676944,-1110.308913,9474.636058
2665.248906,-1149.143247,-74.020594,9030.512492
2665.249235,-1455.581446,-1036.288319,9548.656652
2665.249564,-383.047749,-1702.473667,10658.965565
2665.249893,1608.800546,-0.000000,9178.553681
2665.250222,2145.067394,1184.329507,7328.038826
2665.250551,3600.648841,1554.432478,7476.080014
2665.250880,2604.724693,2294.638420,7772.162391
2665.251209,3677.258390,2664.741391,7328.038826
2665.251539,3064.381992,2294.638420,6513.812290
2665.251868,1149.143247,-148.041188,7846.182985
2665.252197,-536.266849,-1406.391290,9474.636058
2665.252526,-1915.238745,-1110.308913,9992.780217
2665.252855,-3907.087040,-2886.803174,10584.944971
2665.253184,-3064.381992,-2738.761985,10732.986159
2665.253513,-3447.429741,-2590.720797,10066.800811
2665.253842,-3140.991542,-2294.638420,11029.068536
2665.254171,-1608.800546,-740.205942,10214.842000
2665.254500,-919.314598,-1258.350101,10066.800811
2665.254830,-919.314598,-2738.761985,10140.821405
2665.255159,306.438199,-1184.329507,11029.068536
2665.255488,2374.896044,-592.164754,9770.718434
2665.255817,4366.744339,1850.514855,6883.915261
2665.256146,5209.449386,2368.659014,6587.832884
2665.256475,4826.401637,2664.741391,6365.771101
2665.256804,5822.325785,1924.535449,7031.956449
2665.257133,4213.525239,3701.029710,5255.462188
2665.257462,3830.477490,2590.720797,6365.771101
2665.257791,1225.752797,444.123565,8512.368333
2665.258120,-1072.533697,-888.247130,9326.594869
2665.258450,-1685.410096,-3182.885551,9918.759623
2665.258779,-3370.820191,-1924.535449,10584.944971
2665.259108,-2528.115143,-5551.544565,12361.439231
2665.259437,-3370.820191,-2072.576638,9992.780217
2665.259766,-1915.238745,-888.247130,10140.821405
2665.260095,-1762.019645,-888.247130,9178.553681
2665.260424,-1302.362347,-1036.288319,10436.903782
2665.260753,-306.438199,444.123565,10362.883188
2665.261082,2911.162892,-0.000000,11325.150913
2665.261411,3064.381992,2072.576638,7105.977043
2665.261741,3677.258390,1258.350101,6735.874072
2665.262070,3370.820191,2294.638420,7698.141797
2665.262399,5132.839837,2738.761985,6809.894666
2665.262728,4213.525239,2812.782580,6217.729913
2665.263057,2221.676944,2072.576638,7179.997637
2665.263386,689.485948,-444.123565,9474.636058
2665.263715,-1608.800546,-370.102971,9696.697840
2665.264044,-3140.991542,-2146.597232,10807.006753
2665.264373,-3600.648841,-2516.700203,11473.192101
2665.264702,-3370.820191,-2664.741391,11325.150913
2665.265032,-2451.505594,-1258.350101,10807.006753
2665.265361,-1762.019645,-296.082377,9770.718434
2665.265690,-1915.238745,-148.041188,10214.842000
2665.266019,-1915.238745,-2072.576638,11103.089130
2665.266348,0.000000,-444.123565,10732.986159
2665.266677,0.000000,-0.000000,11177.109724
2665.267006,919.314598,-74.020594,9696.697840
2665.267335,1608.800546,666.185348,9104.533087
2665.267664,4443.353888,1924.535449,7624.121203
2665.267993,5362.668486,1628.453072,4663.297435
2665.268323,3983.696590,2368.659014,5995.668130
2665.268652,4060.306139,1554.432478,7994.224174
2665.268981,2451.505594,1702.473667,7105.977043
2665.269310,1455.581446,1184.329507,7328.038826
2665.269639,-689.485948,-666.185348,8364.327145
2665.269968,-2911.162892,-1998.556043,10362.883188
2665.270297,-3294.210641,-4441.235652,12953.603985
2665.270626,-2834.553343,-2368.659014,9178.553681
2665.270955,-1608.800546,-2072.576638,10066.800811
2665.271284,-1762.019645,-2072.576638,10510.924376
2665.271614,-1762.019645,-814.226536,10584.944971
2665.271943,-1225.752797,-1554.432478,10732.986159
2665.272272,-153.219100,370.102971,8882.471304
2665.272601,1225.752797,148.041188,9178.553681
2665.272930,2145.067394,-296.082377,9104.533087
2665.273259,3294.210641,2294.638420,7328.038826
2665.273588,4596.572988,1776.494261,6365.771101
2665.273917,4443.353888,2146.597232,4959.379811
2665.274246,4060.306139,2072.576638,7624.121203
2665.274575,2451.505594,1406.391290,7179.997637
2665.274904,1378.971896,1258.350101,7179.997637
2665.275234,-1072.533697,-666.185348,8808.450710
2665.275563,-2604.724693,-2590.720797,10881.027347
2665.275892,-3064.381992,-3182.885551,11843.295072
2665.276221,-3294.210641,-2590.720797,9844.739029
2665.276550,-2145.067394,-2146.597232,10288.862594
2665.276879,-2374.896044,-1702.473667,9992.780217
2665.277208,-2221.676944,-1554.432478,11399.171507
2665.277537,-1455.581446,-1258.350101,11029.068536
2665.277866,153.219100,888.247130,9178.553681
2665.278195,-306.438199,592.164754,9844.739029
2665.278525,-689.485948,592.164754,10362.883188
2665.278854,1378.971896,962.267725,9696.697840
2665.279183,2681.334243,2220.617826,6735.874072
2665.279512,3830.477490,1702.473667,6143.709319
2665.279841,2374.896044,962.267725,7624.121203
2665.280170,3677.258390,1480.411884,8216.285956
2665.280499,1072.533697,1702.473667,8068.244768
2665.280828,153.219100,592.164754,7624.121203
2665.281157,-995.924147,-888.247130,9104.533087
2665.281486,-2604.724693,-1924.535449,10510.924376
2665.281816,-2298.286494,-2590.720797,11325.150913
2665.282145,-2145.067394,-2072.576638,9474.636058
2665.282474,-1685.410096,-2368.659014,10140.821405
2665.282803,-1378.971896,-2368.659014,11325.150913
2665.283132,536.266849,-1332.370696,10658.965565
2665.283461,1991.848295,1406.391290,7846.182985
2665.283790,3294.210641,1036.288319,7550.100608
2665.284119,3447.429741,2368.659014,7920.203579
2665.284448,3677.258390,2146.597232,7846.182985
2665.284777,4749.792088,2072.576638,6809.894666
2665.285107,3983.696590,1554.432478,6661.853478
2665.285436,2451.505594,-296.082377,8512.368333
2665.285765,995.924147,-370.102971,8882.471304
2665.286094,-459.657299,-518.144159,9030.512492
2665.286423,-1991.848295,-1406.391290,10658.965565
2665.286752,-2451.505594,-1850.514855,11399.171507
2665.287081,-2145.067394,-2146.597232,11029.068536
2665.287410,-2604.724693,-888.247130,10214.842000
2665.287739,-1532.190996,-1036.288319,9918.759623
2665.288068,-1072.533697,-1850.514855,10214.842000
2665.288397,0.000000,-148.041188,9178.553681
2665.288727,2374.896044,1258.350101,7698.141797
2665.289056,2987.772442,2072.576638,7105.977043
2665.289385,2681.334243,2368.659014,7772.162391
2665.289714,2374.896044,1850.514855,7994.224174
2665.290043,2834.553343,1924.535449,8142.265362
2665.290372,2298.286494,962.267725,8364.327145
2665.290701,536.266849,148.041188,7031.956449
2665.291030,0.000000,-1258.350101,9104.533087
2665.291359,-1608.800546,-1184.329507,10140.821405
2665.291688,-2451.505594,-1110.308913,9770.718434
2665.292018,-2221.676944,-1480.411884,10066.800811
2665.292347,-2604.724693,-1628.453072,9474.636058
2665.292676,-2451.505594,-0.000000,9844.739029
2665.293005,-1225.752797,-370.102971,9400.615463
2665.293334,-919.314598,-1258.350101,8364.327145
2665.293663,-1608.800546,-1480.411884,9770.718434
2665.293992,306.438199,-1628.453072,10362.883188
2665.294321,919.314598,-222.061783,8734.430116
2665.294650,1608.800546,-0.000000,8216.285956
2665.294979,1302.362347,-0.000000,9104.533087
2665.295309,1455.581446,-0.000000,8882.471304
2665.295638,2145.067394,888.247130,8068.244768
2665.295967,2987.772442,1184.329507,7402.059420
2665.296296,2451.505594,444.123565,7624.121203
2665.296625,1378.971896,-0.000000,9918.759623
2665.296954,459.657299,-74.020594,9252.574275
2665.297283,76.609550,-0.000000,8290.306550
2665.297612,-1225.752797,-888.247130,9104.533087
2665.297941,-1378.971896,-1406.391290,10584.944971
2665.298270,-1378.971896,-1628.453072,9548.656652
2665.298600,-1838.629195,-888.247130,9992.780217
2665.298929,-1532.190996,-2516.700203,10510.924376
2665.299258,-1608.800546,-3182.885551,10658.965565
2665.299587,-459.657299,-1406.391290,10066.800811
2665.299916,1072.533697,-296.082377,9474.636058
2665.300245,1838.629195,-0.000000,8882.471304
2665.300574,3064.381992,1184.329507,8882.471304
2665.300903,3524.039291,1184.329507,9030.512492
2665.301232,3524.039291,2738.761985,7476.080014
2665.301561,3524.039291,2738.761985,6957.935855
2665.301891,2681.334243,1628.453072,7624.121203
2665.302220,1762.019645,592.164754,9178.553681
2665.302549,842.705048,1110.308913,8216.285956
2665.302878,612.876398,-0.000000,7846.182985
2665.303207,-919.314598,-518.144159,8216.285956
2665.303536,-2374.896044,-888.247130,9918.759623
2665.303865,-2987.772442,-1480.411884,10584.944971
2665.304194,-2528.115143,-1110.308913,9548.656652
2665.304523,-1762.019645,-1258.350101,9474.636058
2665.304852,-1838.629195,-1776.494261,10362.883188
2665.305181,-2298.286494,-888.247130,10658.965565
2665.305511,-689.485948,-740.205942,10658.965565
2665.305840,153.219100,-0.000000,9844.739029
2665.306169,842.705048,444.123565,8364.327145
2665.306498,1991.848295,1258.350101,8734.430116
2665.306827,2681.334243,1924.535449,7846.182985
2665.307156,3294.210641,2442.679609,6661.853478
2665.307485,2528.115143,1036.288319,7550.100608
2665.307814,2068.457845,1406.391290,7846.182985
2665.308143,995.924147,740.205942,7994.224174
2665.308472,-229.828649,-0.000000,8142.265362
2665.308802,-1149.143247,-1924.535449,9474.636058
2665.309131,-2681.334243,-2664.741391,10584.944971
2665.309460,-2374.896044,-2368.659014,10510.924376
2665.309789,-2068.457845,-2516.700203,11177.109724
2665.310118,-2145.067394,-2072.576638,9474.636058
2665.310447,-1915.238745,-2220.617826,10658.965565
2665.310776,-766.095498,-2072.576638,11473.192101
2665.311105,459.657299,-296.082377,9992.780217
2665.311434,2221.676944,962.267725,7994.224174
2665.311763,2987.772442,740.205942,8586.388927
2665.312093,3064.381992,2220.617826,7476.080014
2665.312422,4903.011187,2516.700203,7179.997637
2665.312751,4290.134789,2516.700203,6513.812290
2665.313080,3217.601092,592.164754,6957.935855
2665.313409,2757.943793,518.144159,8586.388927
2665.313738,612.876398,296.082377,8068.244768
2665.314067,0.000000,-74.020594,8586.388927
2665.314396,-1302.362347,-1258.350101,9696.697840
2665.314725,-2374.896044,-1924.535449,10732.986159
2665.315054,-2145.067394,-1480.411884,10362.883188
2665.315384,-1378.971896,-74.020594,9548.656652
2665.315713,-1455.581446,-1258.350101,9178.553681
2665.316042,-766.095498,-1924.535449,10881.027347
2665.316371,536.266849,-0.000000,10066.800811
2665.316700,1532.190996,444.123565,8586.388927
2665.317029,1991.848295,1036.288319,7402.059420
2665.317358,1838.629195,1776.494261,7772.162391
2665.317687,3140.991542,1406.391290,8586.388927
2665.318016,2451.505594,1998.556043,7550.100608
2665.318346,1991.848295,1110.308913,7254.018232
2665.318675,995.924147,-962.267725,9252.574275
2665.319004,-612.876398,-666.185348,9548.656652
2665.319333,-919.314598,-444.123565,9104.533087
2665.319662,-2145.067394,-888.247130,9548.656652
2665.319991,-1915.238745,-1184.329507,10140.821405
2665.320320,-2604.724693,-740.205942,9992.780217
2665.320649,-2451.505594,-222.061783,9844.739029
2665.320979,-1532.190996,-666.185348,9474.636058
2665.321308,-1149.143247,-2146.597232,9696.697840
2665.321637,-1149.143247,-814.226536,9992.780217
2665.321966,306.438199,-1110.308913,9844.739029
2665.322295,1302.362347,-0.000000,8956.491898
2665.322624,1225.752797,518.144159,7846.182985
2665.322953,995.924147,592.164754,8882.471304
2665.323282,1532.190996,296.082377,8882.471304
2665.323612,1991.848295,1480.411884,7624.121203
2665.323941,1762.019645,222.061783,8216.285956
2665.324270,229.828649,-296.082377,9400.615463
2665.324599,0.000000,-1036.288319,9474.636058
2665.324928,0.000000,-296.082377,9400.615463
2665.325257,0.000000,-592.164754,8364.327145
2665.325586,-1225.752797,-666.185348,9400.615463
2665.325915,-995.924147,-888.247130,9548.656652
2665.326245,-689.485948,-0.000000,8882.471304
2665.326574,0.000000,-666.185348,7994.224174
2665.326903,76.609550,-1998.556043,8882.471304
2665.327232,842.705048,-1110.308913,9844.739029
2665.327561,1149.143247,-666.185348,9548.656652
2665.327890,2298.286494,518.144159,7846.182985
2665.328219,2068.457845,148.041188,8142.265362
2665.328548,1762.019645,740.205942,8882.471304
2665.328878,1991.848295,962.267725,8734.430116
2665.329207,2451.505594,888.247130,8068.244768
2665.329536,1149.143247,740.205942,7846.182985
2665.329865,995.924147,-592.164754,9178.553681
2665.330194,-383.047749,-1110.308913,10066.800811
2665.330523,-689.485948,148.041188,8660.409521
2665.330852,-919.314598,-222.061783,8734.430116
2665.331181,-995.924147,-962.267725,9992.780217
2665.331510,-1608.800546,-0.000000,9992.780217
2665.331840,-1991.848295,-0.000000,9918.759623
2665.332169,-536.266849,-1184.329507,9104.533087
2665.332498,-919.314598,-740.205942,9178.553681
2665.332827,-1149.143247,-1628.453072,11177.109724
2665.333156,153.219100,-962.267725,9844.739029
2665.333485,995.924147,592.164754,8586.388927
2665.333814,1685.410096,592.164754,8734.430116
2665.334143,2145.067394,1998.556043,9252.574275
2665.334473,1455.581446,1258.350101,9252.574275
2665.334802,1762.019645,2294.638420,7994.224174
2665.335131,1762.019645,888.247130,7328.038826
2665.335460,0.000000,-0.000000,9178.553681
2665.335789,-842.705048,-0.000000,9400.615463
2665.336118,-612.876398,-814.226536,9474.636058
2665.336447,-2145.067394,-1850.514855,9474.636058
2665.336776,-1532.190996,-1480.411884,9844.739029
2665.337106,-1532.190996,-1628.453072,10362.883188
2665.337435,-1378.971896,-1036.288319,9474.636058
2665.337764,-383.047749,-518.144159,8660.409521
2665.338093,383.047749,-1554.432478,9622.677246
2665.338422,1532.190996,-518.144159,9918.759623
2665.338751,2987.772442,962.267725,7402.059420
2665.339080,3983.696590,1110.308913,8512.368333
2665.339409,2451.505594,1702.473667,7994.224174
2665.339739,2987.772442,1554.432478,8956.491898
2665.340068,3064.381992,1406.391290,8364.327145
2665.340397,3294.210641,1998.556043,7254.018232
2665.340726,1532.190996,-0.000000,8438.347739
2665.341055,842.705048,-1110.308913,9400.615463
2665.341384,0.000000,-1480.411884,9474.636058
2665.341713,-306.438199,-2072.576638,9770.718434
2665.342042,-1532.190996,-1332.370696,8438.347739
2665.342372,-1991.848295,-2220.617826,10362.883188
2665.342701,-1608.800546,-1850.514855,10584.944971
2665.343030,-1225.752797,-740.205942,9178.553681
2665.343359,0.000000,-1258.350101,8808.450710
2665.343688,76.609550,-1110.308913,9844.739029
2665.344017,995.924147,-1036.288319,10584.944971
2665.344346,2221.676944,370.102971,8512.368333
2665.344675,2757.943793,2294.638420,6883.915261
2665.345004,2374.896044,1258.350101,8216.285956
2665.345334,2757.943793,2516.700203,8290.306550
2665.345663,2834.553343,1776.494261,7772.162391
2665.345992,1991.848295,962.267725,6735.874072
2665.346321,612.876398,-222.061783,8438.347739
2665.346650,-1608.800546,-1184.329507,9548.656652
2665.346979,-2604.724693,-1998.556043,10510.924376
2665.347308,-2757.943793,-666.185348,8956.491898
2665.347637,-2451.505594,-1776.494261,9844.739029
2665.347967,-2298.286494,-1110.308913,10510.924376
2665.348296,-2451.505594,-444.123565,9474.636058
2665.348625,-1762.019645,-444.123565,9326.594869
2665.348954,-1302.362347,-518.144159,8882.471304
2665.349283,-1149.143247,-1702.473667,10584.944971
2665.349612,0.000000,-1480.411884,11103.089130
2665.349941,1378.971896,-0.000000,8808.450710
2665.350270,2681.334243,888.247130,8142.265362
2665.350600,2681.334243,888.247130,7624.121203
2665.350929,3677.258390,1332.370696,8512.368333
2665.351258,3677.258390,1480.411884,7624.121203
2665.351587,2987.772442,1850.514855,6513.812290
2665.351916,1685.410096,-518.144159,8216.285956
2665.352245,0.000000,-1480.411884,9696.697840
2665.352574,-1378.971896,-1998.556043,9992.780217
2665.352903,-1378.971896,-1850.514855,9992.780217
2665.353233,-2068.457845,-2146.597232,9622.677246
2665.353562,-2298.286494,-2368.659014,11177.109724
2665.353891,-1915.238745,-740.205942,10436.903782
2665.354220,-842.705048,-222.061783,9474.636058
2665.354549,229.828649,-1406.391290,9326.594869
2665.354878,536.266849,-1110.308913,9992.780217
2665.355207,2834.553343,296.082377,9770.718434
2665.355536,3677.258390,1554.432478,7698.141797
2665.355866,3677.258390,1924.535449,7105.977043
2665.356195,3370.820191,1776.494261,7920.203579
2665.356524,3370.820191,2442.679609,7994.224174
2665.356853,3830.477490,2368.659014,7031.956449
2665.357182,2911.162892,1850.514855,6957.935855
2665.357511,1608.800546,-296.082377,9030.512492
2665.357840,-1378.971896,-1110.308913,9696.697840
2665.358169,-2298.286494,-1184.329507,10288.862594
2665.358498,-2834.553343,-2516.700203,10881.027347
2665.358828,-3447.429741,-2516.700203,10436.903782
2665.359157,-2987.772442,-1110.308913,10510.924376
2665.359486,-1991.848295,-814.226536,9548.656652
2665.359815,-1455.581446,370.102971,8808.450710
2665.360144,0.000000,-0.000000,9252.574275
2665.360473,-459.657299,-592.164754,10362.883188
2665.360802,1225.752797,-814.226536,10214.842000
2665.361131,2068.457845,1480.411884,7920.203579
2665.361461,3753.867940,2146.597232,8142.265362
2665.361790,2298.286494,1184.329507,6365.771101
2665.362119,3370.820191,1258.350101,8142.265362
2665.362448,3830.477490,2442.679609,8216.285956
2665.362777,2451.505594,2664.741391,6143.709319
2665.363106,0.000000,-1554.432478,8290.306550
2665.363435,-1762.019645,-1258.350101,10288.862594
2665.363764,-3064.381992,-2368.659014,10658.965565
2665.364094,-2374.896044,-2368.659014,10807.006753
2665.364423,-2374.896044,-4071.132681,10510.924376
2665.364752,-3370.820191,-2590.720797,10807.006753
2665.365081,-1991.848295,-740.205942,10584.944971
2665.365410,-1762.019645,-444.123565,8808.450710
2665.365739,-612.876398,-2220.617826,9770.718434
2665.366068,153.219100,-1776.494261,11251.130318
2665.366397,2068.457845,-666.185348,9030.512492
2665.366727,4136.915689,370.102971,7550.100608
2665.367056,4060.306139,1776.494261,6291.750507
2665.367385,3907.087040,592.164754,7179.997637
2665.367714,3830.477490,2368.659014,8660.409521
2665.368043,3524.039291,2368.659014,6513.812290
2665.368372,3524.039291,2738.761985,6291.750507
2665.368701,1225.752797,148.041188,8660.409521
2665.369030,-1225.752797,-740.205942,9474.636058
2665.369359,-2068.457845,-2516.700203,11325.150913
2665.369689,-2374.896044,-2368.659014,9770.718434
2665.370018,-2911.162892,-3404.947333,11473.192101
2665.370347,-3753.867940,-1554.432478,10658.965565
2665.370676,-2068.457845,-1184.329507,10362.883188
2665.371005,-1455.581446,-296.082377,7772.162391
2665.371334,-536.266849,-0.000000,8808.450710
2665.371663,459.657299,-888.247130,11843.295072
2665.371992,2068.457845,444.123565,10288.862594
2665.372322,3524.039291,2368.659014,7624.121203
2665.372651,3370.820191,2146.597232,6069.688724
2665.372980,3294.210641,2072.576638,7772.162391
2665.373309,3140.991542,2738.761985,7772.162391
2665.373638,3830.477490,3552.988522,6365.771101
2665.373967,2451.505594,1702.473667,7550.100608
2665.374296,0.000000,-518.144159,9400.615463
2665.374625,-2757.943793,-1480.411884,10436.903782
2665.374955,-3370.820191,-2072.576638,10807.006753
2665.375284,-3753.867940,-2442.679609,11325.150913
2665.375613,-3217.601092,-2590.720797,10140.821405
2665.375942,-2298.286494,-2072.576638,11177.109724
2665.376271,-2298.286494,-888.247130,9474.636058
2665.376600,-1302.362347,-592.164754,9252.574275
2665.376929,-1302.362347,-1184.329507,10362.883188
2665.377258,-536.266849,-1406.391290,10807.006753
2665.377588,1378.971896,-592.164754,10066.800811
2665.377917,2145.067394,666.185348,7698.141797
2665.378246,3294.210641,666.185348,7031.956449
2665.378575,2604.724693,1480.411884,7846.182985
2665.378904,4673.182538,1554.432478,8142.265362
2665.379233,3983.696590,2220.617826,7328.038826
2665.379562,3370.820191,1924.535449,6439.791695
2665.379891,995.924147,-370.102971,9178.553681
2665.380221,-612.876398,-1110.308913,9030.512492
2665.380550,-1149.143247,-1480.411884,9622.677246
2665.380879,-1762.019645,-1110.308913,9622.677246
2665.381208,-2374.896044,-2368.659014,10584.944971
2665.381537,-2604.724693,-2368.659014,10881.027347
2665.381866,-1762.019645,-962.267725,9474.636058
2665.382195,-459.657299,-1036.288319,8882.471304
2665.382524,229.828649,-1332.370696,9400.615463
2665.382853,2451.505594,-222.061783,9844.739029
2665.383183,2911.162892,1110.308913,7550.100608
2665.383512,4060.306139,1258.350101,7698.141797
2665.383841,4060.306139,1480.411884,7254.018232
2665.384170,3294.210641,1628.453072,8660.409521
2665.384499,3524.039291,2368.659014,7476.080014
2665.384828,3370.820191,1406.391290,7994.224174
2665.385157,1455.581446,-296.082377,8586.388927
2665.385486,-306.438199,-1406.391290,9622.677246
2665.385816,-1532.190996,-1406.391290,10288.862594
2665.386145,-2911.162892,-1406.391290,9622.677246
2665.386474,-2451.505594,-1628.453072,9696.697840
2665.386803,-3140.991542,-1776.494261,10288.862594
2665.387132,-2834.553343,-814.226536,10584.944971
2665.387461,-1915.238745,-1110.308913,9474.636058
2665.387790,-1149.143247,-888.247130,8808.450710
2665.388119,-1072.533697,-1184.329507,9770.718434
2665.388449,-459.657299,-0.000000,9474.636058
2665.388778,383.047749,962.267725,8216.285956
2665.389107,689.485948,1850.514855,7402.059420
2665.389436,76.609550,2368.659014,7994.224174
2665.389765,-306.438199,1998.556043,9104.533087
2665.390094,-842.705048,1850.514855,8364.327145
2665.390423,-1532.190996,1332.370696,8290.306550
2665.390752,-3064.381992,-1184.329507,9030.512492
2665.391082,-4903.011187,-2368.659014,9992.780217
2665.391411,-5439.278036,-1628.453072,9770.718434
2665.391740,-5209.449386,-1184.329507,8808.450710
2665.392069,-5056.230287,-888.247130,8438.347739
2665.392398,-5439.278036,-2072.576638,10807.006753
2665.392727,-5592.497135,-2590.720797,10658.965565
2665.393056,-5286.058936,-1480.411884,9030.512492
2665.393385,-4136.915689,-1998.556043,9844.739029
2665.393715,-3294.210641,-2442.679609,9252.574275
2665.394044,-3064.381992,-666.185348,9844.739029
2665.394373,-2145.067394,-0.000000,8808.450710
2665.394702,-1225.752797,592.164754,9030.512492
2665.395031,383.047749,1332.370696,9252.574275
2665.395360,1378.971896,1184.329507,8512.368333
2665.395689,1762.019645,2368.659014,7254.018232
2665.396018,1532.190996,1702.473667,5995.668130
2665.396347,1915.238745,1850.514855,6365.771101
2665.396677,1072.533697,814.226536,7476.080014
2665.397006,-459.657299,-814.226536,9252.574275
2665.397335,-1608.800546,-2368.659014,9252.574275
2665.397664,-2681.334243,-1554.432478,9252.574275
2665.397993,-3140.991542,-2220.617826,10510.924376
2665.398322,-2911.162892,-740.205942,9326.594869
2665.398651,-3677.258390,-1110.308913,10510.924376
2665.398980,-3830.477490,-1184.329507,10658.965565
2665.399310,-3294.210641,888.247130,8734.430116
2665.399639,-2604.724693,518.144159,9474.636058
2665.399968,-2987.772442,-518.144159,9326.594869
2665.400297,-3064.381992,-814.226536,9474.636058
2665.400626,-3140.991542,-1258.350101,9622.677246
2665.400955,-2911.162892,-592.164754,8882.471304
2665.401284,-2221.676944,-0.000000,9178.553681
2665.401613,-1608.800546,666.185348,8364.327145
2665.401943,-2068.457845,-148.041188,8290.306550
2665.402272,-2374.896044,-1184.329507,9030.512492
2665.402601,-2374.896044,-666.185348,9252.574275
2665.402930,-2604.724693,592.164754,8956.491898
2665.403259,-2451.505594,1332.370696,8142.265362
2665.403588,-2068.457845,814.226536,8290.306550
2665.403917,-2451.505594,-518.144159,9918.759623
2665.404246,-2757.943793,-1406.391290,9992.780217
2665.404576,-3447.429741,-222.061783,8956.491898
2665.404905,-2298.286494,296.082377,8586.388927
2665.405234,-2604.724693,962.267725,8068.244768
2665.405563,-2987.772442,814.226536,9030.512492
2665.405892,-2757.943793,-666.185348,9696.697840
2665.406221,-2834.553343,-0.000000,8808.450710
2665.406550,-2451.505594,-0.000000,8290.306550
2665.406879,-2757.943793,-0.000000,9178.553681
2665.407209,-3064.381992,-888.247130,9178.553681
2665.407538,-2757.943793,-888.247130,9696.697840
2665.407867,-2528.115143,-1184.329507,9252.574275
2665.408196,-2911.162892,-666.185348,9326.594869
2665.408525,-2451.505594,-444.123565,9400.615463
2665.408854,-3140.991542,592.164754,8364.327145
2665.409183,-3064.381992,148.041188,8956.491898
2665.409512,-2834.553343,-0.000000,9104.533087
2665.409841,-3447.429741,-0.000000,9252.574275
2665.410171,-2987.772442,-888.247130,9548.656652
2665.410500,-3064.381992,-592.164754,9326.594869
2665.410829,-2528.115143,-814.226536,9622.677246
2665.411158,-2757.943793,-666.185348,9474.636058
2665.411487,-2068.457845,-444.123565,9474.636058
2665.411816,-1532.190996,-0.000000,8290.306550
2665.412145,-1072.533697,444.123565,7698.141797
2665.412474,-919.314598,296.082377,8142.265362
2665.412804,-2068.457845,-592.164754,8586.388927
2665.413133,-2757.943793,-814.226536,9326.594869
2665.413462,-2451.505594,-296.082377,8438.347739
2665.413791,-3140.991542,-0.000000,8956.491898
2665.414120,-3217.601092,888.247130,8660.409521
2665.414449,-2987.772442,1110.308913,8660.409521
2665.414778,-3447.429741,1480.411884,8586.388927
2665.415107,-3753.867940,962.267725,8364.327145
2665.415437,-3830.477490,-592.164754,8586.388927
2665.415766,-4443.353888,-1702.473667,9918.759623
2665.416095,-4673.182538,-2590.720797,10288.862594
2665.416424,-3600.648841,-2812.782580,10510.924376
2665.416753,-2834.553343,-1998.556043,9474.636058
2665.417082,-1608.800546,-444.123565,8808.450710
2665.417411,-842.705048,1332.370696,7624.121203
2665.417740,-1225.752797,1554.432478,7994.224174
2665.418069,-229.828649,814.226536,10510.924376
2665.418398,0.000000,888.247130,8438.347739
2665.418727,-229.828649,1554.432478,7550.100608
2665.419056,-919.314598,888.247130,7550.100608
2665.419385,-1762.019645,-0.000000,8290.306550
2665.419714,-2834.553343,-888.247130,10140.821405
2665.420043,-3447.429741,-1850.514855,10362.883188
2665.420372,-2451.505594,-1184.329507,9178.553681
2665.420701,-2757.943793,-814.226536,9474.636058
2665.421030,-3677.258390,-370.102971,8808.450710
2665.421359,-3600.648841,-518.144159,9992.780217
2665.421688,-2834.553343,-592.164754,10066.800811
2665.422017,-2681.334243,-740.205942,9326.594869
2665.422346,-842.705048,-740.205942,8882.471304
2665.422675,-1072.533697,1258.350101,8734.430116
2665.423004,-1608.800546,-592.164754,8956.491898
2665.423333,-995.924147,-1480.411884,10362.883188
2665.423663,-536.266849,-0.000000,9326.594869
2665.423992,0.000000,370.102971,8734.430116
2665.424321,-383.047749,888.247130,8068.244768
2665.424650,-919.314598,1406.391290,8290.306550
2665.424979,-1225.752797,740.205942,8586.388927
2665.425308,-1378.971896,222.061783,8142.265362
2665.425637,-2451.505594,296.082377,8956.491898
2665.425966,-2604.724693,-0.000000,8808.450710
2665.426295,-3830.477490,592.164754,7920.203579
2665.426624,-4136.915689,-0.000000,7994.224174
2665.426953,-3830.477490,-1110.308913,8142.265362
2665.427282,-4826.401637,-1850.514855,9104.533087
2665.427611,-5056.230287,-2368.659014,10362.883188
2665.427940,-5592.497135,-2146.597232,10510.924376
2665.428269,-5898.935335,-3034.844362,10510.924376
2665.428598,-5439.278036,-2294.638420,10584.944971
2665.428927,-4826.401637,-518.144159,10362.883188
2665.429256,-3983.696590,-148.041188,10362.883188
2665.429585,-2987.772442,-0.000000,9474.636058
2665.429914,-1685.410096,1480.411884,9178.553681
2665.430243,-1532.190996,2368.659014,7920.203579
2665.430573,-1838.629195,2294.638420,7550.100608
2665.430902,-1532.190996,1258.350101,7920.203579
2665.431231,-2221.676944,1110.308913,7402.059420
2665.431560,-2298.286494,1332.370696,7994.224174
2665.431889,-2298.286494,-222.061783,7254.018232
2665.432218,-2221.676944,-0.000000,7994.224174
2665.432547,-2604.724693,-0.000000,8142.265362
2665.432876,-2604.724693,-0.000000,7994.224174
2665.433205,-2911.162892,-222.061783,9030.512492
2665.433534,-3140.991542,814.226536,9104.533087
2665.433863,-3140.991542,1702.473667,9474.636058
2665.434192,-3907.087040,1184.329507,9474.636058
2665.434521,-3370.820191,1776.494261,10214.842000
2665.434850,-3217.601092,1628.453072,10066.800811
2665.435179,-2911.162892,518.144159,10584.944971
2665.435508,-2145.067394,296.082377,10584.944971
2665.435837,-1302.362347,666.185348,9622.677246
2665.436166,-536.266849,962.267725,9178.553681
2665.436495,0.000000,1924.535449,8660.409521
2665.436824,0.000000,-740.205942,11991.336260
2665.437154,1762.019645,1554.432478,8216.285956
2665.437483,4060.306139,3330.926739,7031.956449
2665.437812,4596.572988,3552.988522,5921.647536
2665.438141,3370.820191,4663.297435,5847.626942
2665.438470,4366.744339,5033.400406,8364.327145
2665.438799,3753.867940,5033.400406,7402.059420
2665.439128,2604.724693,3701.029710,8956.491898
2665.439457,76.609550,1924.535449,9992.780217
2665.439786,-1149.143247,2590.720797,10066.800811
2665.440115,-2374.896044,814.226536,12805.562797
2665.440444,-1838.629195,1184.329507,10362.883188
2665.440773,-1072.533697,-0.000000,11251.130318
2665.441102,-842.705048,1184.329507,10807.006753
2665.441431,383.047749,3256.906145,9992.780217
2665.441760,306.438199,3034.844362,8142.265362
2665.442089,2145.067394,3182.885551,7402.059420
2665.442418,3447.429741,5995.668130,6809.894666
2665.442747,2681.334243,5107.421000,6513.812290
2665.443076,1762.019645,4959.379811,7254.018232
2665.443405,153.219100,4737.318029,7624.121203
2665.443734,-1072.533697,3182.885551,9252.574275
2665.444064,-2834.553343,2146.597232,10140.821405
2665.444393,-3983.696590,592.164754,11917.315666
2665.444722,-4136.915689,296.082377,11695.253884
2665.445051,-4443.353888,2368.659014,8956.491898
2665.445380,-4979.620737,1628.453072,11103.089130
2665.445709,-4213.525239,1628.453072,11029.068536
2665.446038,-3294.210641,2960.823768,11103.089130
2665.446367,-2221.676944,2072.576638,10510.924376
2665.446696,-919.314598,2812.782580,8216.285956
2665.447025,-766.095498,2886.803174,7550.100608
2665.447354,-919.314598,3256.906145,9030.512492
2665.447683,1991.848295,2442.679609,11177.109724
2665.448012,2987.772442,4737.318029,3849.070898
2665.448341,6358.592633,4589.276840,8956.491898
2665.448670,2987.772442,5477.523971,6217.729913
2665.448999,4213.525239,6809.894666,7179.997637
2665.449328,1685.410096,6883.915261,6883.915261
2665.449657,1838.629195,5847.626942,6513.812290
2665.449986,1532.190996,5033.400406,9696.697840
2665.450315,76.609550,6661.853478,6661.853478
2665.450645,76.609550,1776.494261,10658.965565
2665.450974,-3600.648841,888.247130,13175.665768
2665.451303,-1072.533697,-1702.473667,11029.068536
2665.451632,-2068.457845,740.205942,11325.150913
2665.451961,-1149.143247,-1480.411884,12879.583391
2665.452290,-2221.676944,3923.091493,7698.141797
2665.452619,995.924147,1258.350101,11325.150913
2665.452948,2068.457845,5033.400406,7772.162391
2665.453277,3217.601092,4515.256246,8512.368333
2665.453606,4443.353888,4589.276840,7179.997637
2665.453935,3677.258390,5551.544565,6957.935855
2665.454264,2604.724693,5773.606348,8660.409521
2665.454593,1302.362347,4737.318029,6587.832884
2665.454922,536.266849,2960.823768,10140.821405
2665.455251,-1225.752797,1332.370696,12731.542202
2665.455580,-1991.848295,-370.102971,11621.233289
2665.455909,-2911.162892,1776.494261,10955.047942
2665.456238,-2451.505594,-2072.576638,11325.150913
2665.456567,-3064.381992,2590.720797,9400.615463
2665.456896,-1532.190996,1554.432478,10362.883188
2665.457225,-1532.190996,2368.659014,8438.347739
2665.457555,-689.485948,2146.597232,10584.944971
2665.457884,3064.381992,1184.329507,10214.842000
2665.458213,3753.867940,4219.173869,4145.153275
2665.458542,3907.087040,2812.782580,9474.636058
2665.458871,1532.190996,2368.659014,5773.606348
2665.459200,3983.696590,4663.297435,8068.244768
2665.459529,2604.724693,5033.400406,7624.121203
2665.459858,2298.286494,4959.379811,6735.874072
2665.460187,1302.362347,4293.194464,8512.368333
2665.460516,-1532.190996,1776.494261,7920.203579
2665.460845,-3217.601092,-3330.926739,12953.603985
2665.461174,-4749.792088,222.061783,11251.130318
2665.461503,-2451.505594,-2886.803174,11473.192101
2665.461832,-3370.820191,592.164754,9474.636058
2665.462161,-1991.848295,1184.329507,11325.150913
2665.462490,-306.438199,2738.761985,7772.162391
2665.462819,842.705048,1406.391290,10658.965565
2665.463148,3370.820191,2442.679609,7328.038826
2665.463477,4213.525239,3256.906145,7476.080014
2665.463806,4060.306139,4589.276840,5773.606348
2665.464136,3600.648841,5995.668130,4515.256246
2665.464465,4213.525239,2738.761985,8808.450710
2665.464794,2221.676944,4515.256246,6143.709319
2665.465123,3524.039291,2960.823768,7328.038826
2665.465452,1685.410096,4589.276840,7031.956449
2665.465781,-766.095498,3108.864956,9770.718434
2665.466110,-4519.963438,-1702.473667,15692.365970
2665.466439,-5439.278036,-74.020594,12361.439231
2665.466768,-3447.429741,888.247130,12213.398043
2665.467097,-2757.943793,-2664.741391,12435.459826
2665.467426,-3447.429741,1924.535449,9474.636058
2665.467755,-919.314598,1480.411884,10362.883188
2665.468084,-2068.457845,4219.173869,7698.141797
2665.468413,-1608.800546,4367.215058,10140.821405
2665.468742,3830.477490,1850.514855,9696.697840
2665.469071,3217.601092,5551.544565,4071.132681
2665.469400,2987.772442,4885.359217,10140.821405
2665.469729,2298.286494,4811.338623,5033.400406
2665.470058,3907.087040,6069.688724,8956.491898
2665.470387,383.047749,5921.647536,7476.080014
2665.470717,-383.047749,7994.224174,5699.585753
2665.471046,-995.924147,5403.503377,10881.027347
2665.471375,-1302.362347,4515.256246,7105.977043
2665.471704,-3140.991542,888.247130,11547.212695
2665.472033,-4060.306139,-1406.391290,12287.418637
2665.472362,-2528.115143,1924.535449,8512.368333
2665.472691,-2068.457845,-4145.153275,11991.336260
2665.473020,-2911.162892,1036.288319,9474.636058
2665.473349,-1225.752797,2368.659014,13397.727550
2665.473678,153.219100,2590.720797,8290.306550
2665.474007,2528.115143,5403.503377,7550.100608
2665.474336,3600.648841,5995.668130,7476.080014
2665.474665,4443.353888,5255.462188,8142.265362
2665.474994,1225.752797,4959.379811,9030.512492
2665.475323,919.314598,5033.400406,8660.409521
2665.475652,919.314598,3552.988522,7994.224174
2665.475981,1685.410096,3108.864956,9178.553681
2665.476310,1991.848295,3775.050304,8734.430116
2665.476639,1762.019645,3849.070898,9474.636058
2665.476968,0.000000,-222.061783,10066.800811
2665.477297,0.000000,592.164754,10510.924376
2665.477627,0.000000,2146.597232,8734.430116
2665.477956,-536.266849,1924.535449,9400.615463
2665.478285,-1762.019645,2294.638420,8808.450710
2665.478614,0.000000,2072.576638,10214.842000
2665.478943,689.485948,518.144159,8290.306550
2665.479272,1608.800546,2664.741391,8586.388927
2665.479601,2298.286494,1110.308913,9030.512492
2665.479930,1762.019645,814.226536,9474.636058
2665.480259,612.876398,2738.761985,8660.409521
2665.480588,766.095498,1702.473667,9178.553681
2665.480917,76.609550,1924.535449,9326.594869
2665.481246,306.438199,2368.659014,9474.636058
2665.481575,229.828649,2368.659014,8290.306550
2665.481904,-842.705048,962.267725,9474.636058
2665.482233,-306.438199,-592.164754,9548.656652
2665.482562,1072.533697,-962.267725,8734.430116
2665.482891,-689.485948,592.164754,8364.327145
2665.483220,-536.266849,518.144159,8438.347739
2665.483549,689.485948,1480.411884,7846.182985
2665.483878,1608.800546,518.144159,7550.100608
2665.484208,689.485948,1702.473667,7698.141797
2665.484537,-995.924147,666.185348,9400.615463
2665.484866,-689.485948,-1258.350101,10362.883188
2665.485195,383.047749,-814.226536,10066.800811
2665.485524,612.876398,-1110.308913,9622.677246
2665.485853,-1225.752797,-1110.308913,10288.862594
2665.486182,-1915.238745,-888.247130,10807.006753
2665.486511,-995.924147,296.082377,10066.800811
2665.486840,383.047749,1184.329507,8956.491898
2665.487169,-612.876398,2146.597232,8512.368333
2665.487498,-1225.752797,518.144159,9770.718434
2665.487827,-536.266849,-74.020594,8808.450710
2665.488156,1072.533697,-814.226536,7624.121203
2665.488485,459.657299,-888.247130,7105.977043
2665.488814,-612.876398,-1628.453072,8882.471304
2665.489143,-995.924147,-2294.638420,10362.883188
2665.489472,306.438199,-2442.679609,9844.739029
2665.489801,766.095498,-1776.494261,9252.574275
2665.490130,-306.438199,-962.267725,9548.656652
2665.490459,0.000000,-296.082377,11029.068536
2665.490788,1302.362347,-0.000000,9992.780217
2665.491118,2374.896044,1184.329507,8142.265362
2665.491447,1072.533697,1776.494261,8586.388927
2665.491776,459.657299,1184.329507,9252.574275
2665.492105,1072.533697,-0.000000,9326.594869
2665.492434,2374.896044,-370.102971,8364.327145
2665.492763,1608.800546,-444.123565,7476.080014
2665.493092,-306.438199,-0.000000,7994.224174
2665.493421,-842.705048,-592.164754,8808.450710
2665.493750,229.828649,-888.247130,8512.368333
2665.494079,459.657299,-518.144159,7920.203579
2665.494408,-612.876398,-1184.329507,7920.203579
2665.494737,-306.438199,-1850.514855,9844.739029
2665.495066,995.924147,-1332.370696,10658.965565
2665.495395,1991.848295,-814.226536,9400.615463
2665.495724,1149.143247,518.144159,8882.471304
2665.496053,383.047749,1184.329507,9548.656652
2665.496382,1762.019645,592.164754,9474.636058
2665.496711,2451.505594,2442.679609,8364.327145
2665.497040,1838.629195,2368.659014,8216.285956
2665.497369,153.219100,1702.473667,8512.368333
2665.497699,0.000000,592.164754,9326.594869
2665.498028,306.438199,-148.041188,9104.533087
2665.498357,0.000000,-814.226536,8364.327145
2665.498686,-2145.067394,-888.247130,7920.203579
2665.499015,-2145.067394,-2664.741391,10510.924376
2665.499344,-689.485948,-2220.617826,9770.718434
2665.499673,0.000000,-1406.391290,8586.388927
2665.500002,-536.266849,-1110.308913,9178.553681
2665.500331,-612.876398,-74.020594,10140.821405
2665.500660,995.924147,444.123565,9918.759623
2665.500989,2145.067394,1924.535449,8808.450710
2665.501318,1378.971896,1702.473667,9474.636058
2665.501647,536.266849,1554.432478,9548.656652
2665.501976,1762.019645,1480.411884,9696.697840
2665.502305,2298.286494,1184.329507,8956.491898
2665.502634,612.876398,1258.350101,8142.265362
2665.502963,-766.095498,370.102971,8882.471304
2665.503292,-1072.533697,-962.267725,9252.574275
2665.503621,-459.657299,-1110.308913,9400.615463
2665.503950,-536.266849,-0.000000,8216.285956
2665.504279,-1838.629195,-1406.391290,8808.450710
2665.504609,-1455.581446,-1998.556043,9474.636058
2665.504938,306.438199,-1554.432478,9326.594869
2665.505267,995.924147,-592.164754,8512.368333
2665.505596,229.828649,-1036.288319,8882.471304
2665.505925,766.095498,-0.000000,9844.739029
2665.506254,2604.724693,1110.308913,9178.553681
2665.506583,3140.991542,1702.473667,7994.224174
2665.506912,2068.457845,2220.617826,9030.512492
2665.507241,1149.143247,444.123565,9252.574275
2665.507570,1378.971896,-0.000000,9400.615463
2665.507899,1608.800546,-148.041188,8956.491898
2665.508228,536.266849,-666.185348,9474.636058
2665.508557,-1762.019645,-1258.350101,9992.780217
2665.508886,-842.705048,-1258.350101,9326.594869
2665.509215,-459.657299,-1184.329507,9326.594869
2665.509544,-1072.533697,-740.205942,8290.306550
2665.509873,-1915.238745,-1110.308913,9400.615463
2665.510202,-383.047749,-2146.597232,10288.862594
2665.510531,1225.752797,-1480.411884,8586.388927
2665.510860,1225.752797,-444.123565,9474.636058
2665.511190,229.828649,-592.164754,9474.636058
2665.511519,306.438199,-518.144159,10140.821405
2665.511848,1915.238745,1628.453072,9104.533087
2665.512177,2451.505594,1554.432478,7920.203579
2665.512506,842.705048,1628.453072,9400.615463
2665.512835,612.876398,148.041188,9474.636058
2665.513164,1072.533697,-518.144159,8660.409521
2665.513493,459.657299,74.020594,8660.409521
2665.513822,-689.485948,-1554.432478,9104.533087
2665.514151,-1762.019645,-2886.803174,9770.718434
2665.514480,-1378.971896,-3182.885551,9844.739029
2665.514809,0.000000,-2072.576638,7846.182985
2665.515138,-536.266849,-1406.391290,7920.203579
2665.515467,-995.924147,-74.020594,9770.718434
2665.515796,612.876398,-888.247130,9178.553681
2665.516125,1608.800546,-0.000000,7920.203579
2665.516454,1685.410096,666.185348,7476.080014
2665.516783,919.314598,-0.000000,9104.533087
2665.517112,1302.362347,-518.144159,9400.615463
2665.517441,1532.190996,-962.267725,9178.553681
2665.517771,1378.971896,666.185348,7846.182985
2665.518100,536.266849,-0.000000,8438.347739
2665.518429,0.000000,-666.185348,9474.636058
2665.518758,766.095498,-666.185348,8438.347739
2665.519087,459.657299,-222.061783,7846.182985
2665.519416,-306.438199,-444.123565,8438.347739
2665.519745,-1149.143247,-1110.308913,9400.615463
2665.520074,-1149.143247,-1406.391290,9622.677246
2665.520403,612.876398,-296.082377,8660.409521
2665.520732,-306.438199,-814.226536,8882.471304
2665.521061,-536.266849,-592.164754,9696.697840
2665.521390,1149.143247,-148.041188,9696.697840
2665.521719,2298.286494,962.267725,8882.471304
2665.522048,1685.410096,1480.411884,8734.430116
2665.522377,306.438199,1628.453072,9548.656652
2665.522706,842.705048,1554.432478,9252.574275
2665.523035,2374.896044,1554.432478,8068.244768
2665.523364,766.095498,1850.514855,8068.244768
2665.523693,-459.657299,222.061783,9326.594869
2665.524023,-842.705048,-592.164754,9474.636058
2665.524352,-229.828649,-1924.535449,9548.656652
2665.524681,-229.828649,-962.267725,9178.553681
2665.525010,-2221.676944,-444.123565,8882.471304
2665.525339,-2145.067394,-1628.453072,10140.821405
2665.525668,-1149.143247,-1332.370696,10140.821405
2665.525997,0.000000,-222.061783,9104.533087
2665.526326,-689.485948,-0.000000,9326.594869
2665.526655,-689.485948,-148.041188,9844.739029
2665.526984,919.314598,-370.102971,9548.656652
2665.527313,2374.896044,962.267725,8290.306550
2665.527642,1378.971896,1406.391290,8586.388927
2665.527971,919.314598,888.247130,9252.574275
2665.528300,1532.190996,740.205942,8364.327145
2665.528629,1991.848295,1258.350101,7624.121203
2665.528958,1378.971896,666.185348,8068.244768
2665.529287,0.000000,-74.020594,8586.388927
2665.529616,-842.705048,-1776.494261,9326.594869
2665.529946,-306.438199,-1998.556043,9548.656652
2665.530275,-1072.533697,-1850.514855,8808.450710
2665.530604,-2221.676944,-2960.823768,10066.800811
2665.530933,-1838.629195,-1850.514855,10658.965565
2665.531262,-383.047749,-1998.556043,10362.883188
2665.531591,459.657299,222.061783,8438.347739
2665.531920,0.000000,814.226536,8438.347739
2665.532249,689.485948,814.226536,9918.759623
2665.532578,2528.115143,592.164754,8956.491898
2665.532907,3217.601092,1480.411884,7254.018232
2665.533236,2451.505594,-0.000000,7920.203579
2665.533565,1838.629195,1184.329507,8660.409521
2665.533894,1915.238745,444.123565,8512.368333
2665.534223,1608.800546,1332.370696,7994.224174
2665.534552,689.485948,1184.329507,7476.080014
2665.534881,-306.438199,-0.000000,8956.491898
2665.535210,-459.657299,-1184.329507,9104.533087
2665.535539,0.000000,-1406.391290,9104.533087
2665.535868,-1302.362347,-1776.494261,9696.697840
2665.536198,-1991.848295,-1036.288319,9918.759623
2665.536527,-1838.629195,-1998.556043,11029.068536
2665.536856,-459.657299,-1036.288319,11325.150913
2665.537185,612.876398,518.144159,8882.471304
2665.537514,536.266849,296.082377,9474.636058
2665.537843,995.924147,962.267725,9178.553681
2665.538172,2834.553343,962.267725,8290.306550
2665.538501,3677.258390,1850.514855,7846.182985
2665.538830,1991.848295,1554.432478,7402.059420
2665.539159,1302.362347,444.123565,9030.512492
2665.539488,1608.800546,-0.000000,7698.141797
2665.539817,1685.410096,-814.226536,8068.244768
2665.540146,-306.438199,-666.185348,8808.450710
2665.540475,-1915.238745,-1924.535449,9400.615463
2665.540804,-1915.238745,-3182.885551,10362.883188
2665.541133,-1532.190996,-2442.679609,10140.821405
2665.541462,-1532.190996,-1406.391290,9622.677246
2665.541791,-3064.381992,-1406.391290,10214.842000
2665.542120,-1378.971896,-1776.494261,10658.965565
2665.542450,-229.828649,-1036.288319,10140.821405
2665.542779,766.095498,-0.000000,8882.471304
2665.543108,76.609550,-0.000000,8882.471304
2665.543437,1225.752797,-148.041188,9104.533087
2665.543766,2757.943793,-0.000000,8142.265362
2665.544095,3064.381992,518.144159,7402.059420
2665.544424,2145.067394,1480.411884,7772.162391
2665.544753,1455.581446,740.205942,8586.388927
2665.545082,1838.629195,-0.000000,8290.306550
2665.545411,1455.581446,888.247130,7846.182985
2665.545740,229.828649,-0.000000,8734.430116
2665.546069,-766.095498,-1332.370696,9178.553681
2665.546398,-1149.143247,-1110.308913,9622.677246
2665.546727,-383.047749,-1628.453072,9548.656652
2665.547056,-1608.800546,-74.020594,9474.636058
2665.547385,-2145.067394,-666.185348,10584.944971
2665.547714,-1149.143247,-962.267725,9844.739029
2665.548043,76.609550,-0.000000,8956.491898
2665.548373,459.657299,888.247130,8216.285956
2665.548702,383.047749,1184.329507,9326.594869
2665.549031,1302.362347,592.164754,8956.491898
2665.549360,2528.115143,740.205942,7994.224174
2665.549689,3140.991542,1776.494261,7772.162391
2665.550018,1838.629195,814.226536,8512.368333
2665.550347,1532.190996,444.123565,9178.553681
2665.550676,2451.505594,518.144159,8512.368333
2665.551005,2221.676944,1332.370696,8290.306550
2665.551334,0.000000,1406.391290,8734.430116
2665.551663,-689.485948,222.061783,9770.718434
2665.551992,-612.876398,-888.247130,10658.965565
2665.552321,-306.438199,-296.082377,9252.574275
2665.552650,-1762.019645,-814.226536,9844.739029
2665.552979,-3370.820191,-444.123565,11103.089130
2665.553308,-1915.238745,-2220.617826,11547.212695
2665.553637,-306.438199,-222.061783,10066.800811
2665.553966,-459.657299,-296.082377,9178.553681
2665.554295,-995.924147,-0.000000,9548.656652
2665.554625,689.485948,-0.000000,9178.553681
2665.554954,2757.943793,222.061783,7994.224174
2665.555283,2451.505594,666.185348,8660.409521
2665.555612,1685.410096,888.247130,8290.306550
2665.555941,1302.362347,-148.041188,9030.512492
2665.556270,2221.676944,296.082377,8956.491898
2665.556599,2221.676944,1332.370696,7994.224174
2665.556928,229.828649,296.082377,8512.368333
2665.557257,-766.095498,-518.144159,9548.656652
2665.557586,0.000000,-1184.329507,10362.883188
2665.557915,-306.438199,-518.144159,8882.471304
2665.558244,-2298.286494,-666.185348,9400.615463
2665.558573,-2834.553343,-1406.391290,10288.862594
2665.558902,-2298.286494,-2590.720797,10584.944971
2665.559231,-919.314598,-1554.432478,9400.615463
2665.559560,-995.924147,-1332.370696,8808.450710
2665.559889,-689.485948,-1628.453072,10066.800811
2665.560218,842.705048,-1036.288319,8734.430116
2665.560547,2911.162892,-0.000000,7772.162391
2665.560877,3064.381992,1628.453072,7179.997637
2665.561206,2298.286494,1554.432478,7846.182985
2665.561535,2681.334243,1332.370696,8364.327145
2665.561864,3064.381992,1554.432478,7772.162391
2665.562193,3677.258390,2590.720797,7402.059420
2665.562522,1762.019645,1554.432478,7994.224174
2665.562851,76.609550,296.082377,9104.533087
2665.563180,0.000000,-666.185348,9992.780217
2665.563509,-459.657299,-1036.288319,9474.636058
2665.563838,-2068.457845,-1702.473667,9992.780217
2665.564167,-2987.772442,-2146.597232,10732.986159
2665.564496,-2221.676944,-2960.823768,10510.924376
2665.564825,-842.705048,-1036.288319,9474.636058
2665.565154,-1378.971896,-1110.308913,9178.553681
2665.565483,-1225.752797,-888.247130,10140.821405
2665.565812,1225.752797,-1406.391290,10140.821405
2665.566141,2681.334243,-0.000000,7772.162391
2665.566470,3370.820191,666.185348,7698.141797
2665.566800,2604.724693,814.226536,8142.265362
2665.567129,2681.334243,888.247130,9178.553681
2665.567458,4290.134789,2294.638420,7994.224174
2665.567787,3064.381992,3182.885551,7550.100608
2665.568116,1302.362347,3108.864956,7920.203579
2665.568445,459.657299,666.185348,8290.306550
2665.568774,76.609550,-1110.308913,9474.636058
2665.569103,-1072.533697,-2516.700203,9474.636058
2665.569432,-2911.162892,-2886.803174,10436.903782
2665.569761,-4060.306139,-4293.194464,11695.253884
2665.570090,-3524.039291,-3923.091493,10955.047942
2665.570419,-2145.067394,-1702.473667,9918.759623
2665.570748,-2451.505594,-888.247130,9400.615463
2665.571077,-1685.410096,-148.041188,9918.759623
2665.571406,919.314598,-518.144159,9548.656652
2665.571735,2451.505594,1332.370696,8512.368333
2665.572064,3064.381992,962.267725,7846.182985
2665.572393,2604.724693,1332.370696,8586.388927
2665.572722,2987.772442,444.123565,8660.409521
2665.573052,3524.039291,1924.535449,7476.080014
2665.573381,2681.334243,3108.864956,7920.203579
2665.573710,689.485948,2664.741391,7994.224174
2665.574039,1149.143247,370.102971,9030.512492
2665.574368,229.828649,-296.082377,9326.594869
2665.574697,-842.705048,-1036.288319,8586.388927
2665.575026,-3294.210641,-1406.391290,9474.636058
2665.575355,-3447.429741,-3478.967927,11473.192101
2665.575684,-2681.334243,-2368.659014,10881.027347
2665.576013,-1915.238745,-1480.411884,10066.800811
2665.576342,-2145.067394,-0.000000,10066.800811
2665.576671,-1608.800546,-444.123565,10362.883188
2665.577000,1532.190996,-0.000000,9104.533087
2665.577329,3140.991542,2368.659014,7846.182985
2665.577658,3677.258390,2368.659014,8216.285956
2665.577987,2681.334243,2146.597232,8512.368333
2665.578316,3447.429741,1776.494261,8216.285956
2665.578645,3370.820191,2590.720797,7920.203579
2665.578975,2757.943793,2812.782580,7031.956449
2665.579304,995.924147,2590.720797,7476.080014
2665.579633,1608.800546,1480.411884,7994.224174
2665.579962,2298.286494,370.102971,8512.368333
2665.580291,-995.924147,-1184.329507,8734.430116
2665.580620,-2298.286494,-2590.720797,9844.739029
2665.580949,-2987.772442,-1998.556043,11103.089130
2665.581278,-2757.943793,-5625.565159,11103.089130
2665.581607,-3064.381992,-1998.556043,10140.821405
2665.581936,-2757.943793,-1776.494261,10140.821405
2665.582265,-2604.724693,-1850.514855,10584.944971
2665.582594,-612.876398,-1184.329507,9178.553681
2665.582923,2374.896044,296.082377,8956.491898
2665.583252,2528.115143,1258.350101,8956.491898
2665.583581,2604.724693,1036.288319,8068.244768
2665.583910,3064.381992,-0.000000,7105.977043
2665.584239,3524.039291,1258.350101,7550.100608
2665.584568,2528.115143,1998.556043,7476.080014
2665.584897,2374.896044,666.185348,7920.203579
2665.585227,2221.676944,-148.041188,7550.100608
2665.585556,1225.752797,-1332.370696,9252.574275
2665.585885,-536.266849,-1702.473667,9252.574275
2665.586214,-3447.429741,-1924.535449,10288.862594
2665.586543,-3294.210641,-4071.132681,11621.233289
2665.586872,-2604.724693,-2072.576638,10658.965565
2665.587201,-2374.896044,-2220.617826,9622.677246
2665.587530,-3447.429741,-1406.391290,10362.883188
2665.587859,-2604.724693,-1480.411884,10881.027347
2665.588188,842.705048,-1998.556043,9622.677246
2665.588517,2528.115143,740.205942,8142.265362
2665.588846,2681.334243,1702.473667,7402.059420
2665.589175,2911.162892,1776.494261,8438.347739
2665.589504,3217.601092,1406.391290,8512.368333
2665.589833,4366.744339,2146.597232,7105.977043
2665.590162,3370.820191,2294.638420,7402.059420
2665.590491,1838.629195,2442.679609,8142.265362
2665.590820,2298.286494,1258.350101,8364.327145
2665.591149,2834.553343,1332.370696,7624.121203
2665.591479,0.000000,-370.102971,8290.306550
2665.591808,-2451.505594,-1702.473667,9844.739029
2665.592137,-2604.724693,-1998.556043,10807.006753
2665.592466,-1838.629195,-3775.050304,11473.192101
2665.592795,-3064.381992,-1258.350101,9252.574275
2665.593124,-3217.601092,-1702.473667,9918.759623
2665.593453,-2987.772442,-2368.659014,10881.027347
2665.593782,-229.828649,-1702.473667,9400.615463
2665.594111,1608.800546,-592.164754,8586.388927
2665.594440,2068.457845,-0.000000,8364.327145
2665.594769,2145.067394,888.247130,8660.409521
2665.595098,3294.210641,-74.020594,7550.100608
2665.595427,3600.648841,1332.370696,6883.915261
2665.595756,2757.943793,1850.514855,7550.100608
2665.596085,2221.676944,1406.391290,8216.285956
2665.596414,2374.896044,1036.288319,7846.182985
2665.596743,2221.676944,-0.000000,8068.244768
2665.597072,-995.924147,-1184.329507,9252.574275
2665.597402,-3140.991542,-1332.370696,9696.697840
2665.597731,-3294.210641,-3552.988522,11251.130318
2665.598060,-3217.601092,-3108.864956,10732.986159
2665.598389,-3140.991542,-1924.535449,10362.883188
2665.598718,-3524.039291,-2590.720797,10732.986159
2665.599047,-2757.943793,-2516.700203,10510.924376
2665.599376,-536.266849,-1998.556043,9918.759623
2665.599705,1532.190996,-222.061783,8290.306550
2665.600034,1608.800546,1406.391290,7920.203579
2665.600363,2298.286494,1480.411884,8068.244768
2665.600692,3140.991542,1258.350101,7994.224174
2665.601021,3983.696590,2220.617826,7624.121203
2665.601350,3294.210641,2146.597232,7624.121203
2665.601679,2681.334243,2220.617826,7624.121203
2665.602008,2528.115143,1702.473667,8142.265362
2665.602337,2451.505594,2442.679609,7772.162391
2665.602666,612.876398,2368.659014,6957.935855
2665.602995,-1378.971896,-814.226536,9918.759623
2665.603324,-1915.238745,-1776.494261,10510.924376
2665.603654,-1685.410096,-2294.638420,10066.800811
2665.603983,-3447.429741,-2664.741391,10140.821405
2665.604312,-3983.696590,-1332.370696,10288.862594
2665.604641,-2528.115143,-2442.679609,10881.027347
2665.604970,-459.657299,-1110.308913,9992.780217
2665.605299,1378.971896,-74.020594,9252.574275
2665.605628,2298.286494,740.205942,8882.471304
2665.605957,3217.601092,2442.679609,8734.430116
2665.606286,3753.867940,666.185348,8438.347739
2665.606615,3370.820191,1850.514855,8438.347739
2665.606944,2451.505594,2590.720797,7698.141797
2665.607273,2451.505594,1776.494261,7994.224174
2665.607602,2528.115143,1702.473667,8216.285956
2665.607931,2834.553343,2590.720797,6735.874072
2665.608260,689.485948,148.041188,8290.306550
2665.608589,-2221.676944,-2146.597232,9992.780217
2665.608918,-2374.896044,-3330.926739,10955.047942
2665.609247,-2604.724693,-2812.782580,11103.089130
2665.609576,-4290.134789,-3330.926739,11177.109724
2665.609906,-4979.620737,-2886.803174,11399.171507
2665.610235,-2987.772442,-4219.173869,11029.068536
2665.610564,-2145.067394,-2294.638420,10510.924376
2665.610893,306.438199,-962.267725,9104.533087
2665.611222,1455.581446,-296.082377,9400.615463
2665.611551,2451.505594,814.226536,7994.224174
2665.611880,4060.306139,1924.535449,7402.059420
2665.612209,3217.601092,2146.597232,7179.997637
2665.612538,1762.019645,1702.473667,7328.038826
2665.612867,2298.286494,1702.473667,7994.224174
2665.613196,3294.210641,1480.411884,7476.080014
2665.613525,2068.457845,1850.514855,5625.565159
2665.613854,-229.828649,-0.000000,8364.327145
2665.614183,-2374.896044,-2886.803174,9992.780217
2665.614512,-2681.334243,-2738.761985,9696.697840
2665.614841,-1915.238745,-2960.823768,10288.862594
2665.615170,-3140.991542,-1924.535449,9252.574275
2665.615499,-3830.477490,-1258.350101,10807.006753
2665.615829,-2374.896044,-2220.617826,11029.068536
2665.616158,-536.266849,-666.185348,8956.491898
2665.616487,1455.581446,-444.123565,9178.553681
2665.616816,2298.286494,962.267725,9104.533087
2665.617145,4060.306139,1554.432478,7994.224174
2665.617474,3983.696590,1850.514855,7994.224174
2665.617803,3447.429741,2294.638420,7402.059420
2665.618132,2374.896044,1998.556043,8364.327145
2665.618461,2374.896044,1184.329507,8364.327145
2665.618790,3447.429741,1776.494261,7328.038826
2665.619119,2604.724693,2220.617826,6217.729913
2665.619448,1225.752797,1776.494261,7105.977043
2665.619778,-689.485948,-740.205942,9696.697840
2665.620107,-766.095498,-3701.029710,11695.253884
2665.620436,-995.924147,-2146.597232,9622.677246
2665.620765,-2681.334243,-2442.679609,10658.965565
2665.621094,-4060.306139,-3108.864956,11399.171507
2665.621423,-2834.553343,-2368.659014,11991.336260
2665.621752,-306.438199,-1850.514855,10510.924376
2665.622081,383.047749,444.123565,9400.615463
2665.622411,766.095498,592.164754,9400.615463
2665.622740,2451.505594,740.205942,9104.533087
2665.623069,3907.087040,2368.659014,7698.141797
2665.623398,2834.553343,2072.576638,7254.018232
2665.623727,1149.143247,962.267725,7698.141797
2665.624056,1991.848295,1628.453072,8216.285956
2665.624385,3140.991542,1036.288319,7402.059420
2665.624714,1915.238745,1110.308913,7920.203579
2665.625044,-1149.143247,-888.247130,9696.697840
2665.625373,-1762.019645,-2590.720797,9992.780217
2665.625702,-2068.457845,-1998.556043,10436.903782
2665.626031,-2145.067394,-1998.556043,10510.924376
2665.626360,-3753.867940,-814.226536,9992.780217
2665.626689,-3600.648841,-1702.473667,10807.006753
2665.627018,-1991.848295,-1850.514855,9548.656652
2665.627347,229.828649,-370.102971,9770.718434
2665.627677,995.924147,-370.102971,8734.430116
2665.628006,1378.971896,148.041188,8660.409521
2665.628335,2911.162892,888.247130,8734.430116
2665.628664,3370.820191,1998.556043,6883.915261
2665.628993,2681.334243,1554.432478,7476.080014
2665.629322,1762.019645,1480.411884,7698.141797
2665.629651,2604.724693,1184.329507,8216.285956
2665.629980,2911.162892,1258.350101,7624.121203
2665.630310,1072.533697,222.061783,8660.409521
2665.630639,-1378.971896,-222.061783,10140.821405
2665.630968,-1915.238745,-1258.350101,9918.759623
2665.631297,-1302.362347,-2072.576638,10955.047942
2665.631626,-766.095498,-814.226536,9696.697840
2665.631955,-2145.067394,-592.164754,9844.739029
2665.632284,-2604.724693,-592.164754,10066.800811
2665.632613,-689.485948,-888.247130,9770.718434
2665.632943,919.314598,-814.226536,9400.615463
2665.633272,1225.752797,666.185348,8216.285956
2665.633601,1838.629195,-0.000000,9400.615463
2665.633930,1991.848295,296.082377,7624.121203
2665.634259,2987.772442,1036.288319,7920.203579
2665.634588,2374.896044,1850.514855,7476.080014
2665.634917,1225.752797,740.205942,8364.327145
2665.635246,1762.019645,370.102971,9252.574275
2665.635576,1991.848295,-518.144159,8364.327145
2665.635905,383.047749,-222.061783,9030.512492
2665.636234,-2298.286494,-1480.411884,10214.842000
2665.636563,-2068.457845,-2368.659014,10362.883188
2665.636892,-1685.410096,-1406.391290,10140.821405
2665.637221,-995.924147,-518.144159,9030.512492
2665.637550,-2298.286494,-0.000000,9252.574275
2665.637879,-1915.238745,-888.247130,9918.759623
2665.638208,0.000000,-1184.329507,9326.594869
2665.638538,1532.190996,-0.000000,8586.388927
2665.638867,1072.533697,-0.000000,9030.512492
2665.639196,536.266849,-0.000000,9104.533087
2665.639525,1455.581446,-74.020594,9178.553681
2665.639854,2298.286494,740.205942,8142.265362
2665.640183,1302.362347,740.205942,7920.203579
2665.640512,536.266849,370.102971,9622.677246
2665.640841,1608.800546,-1184.329507,9918.759623
2665.641171,1685.410096,518.144159,8216.285956
2665.641500,0.000000,370.102971,9400.615463
2665.641829,-1608.800546,-0.000000,9992.780217
2665.642158,-1225.752797,-370.102971,9548.656652
2665.642487,-229.828649,-222.061783,9326.594869
2665.642816,0.000000,296.082377,9326.594869
2665.643145,-1915.238745,-148.041188,9992.780217
2665.643474,-1532.190996,-1258.350101,10140.821405
2665.643804,1072.533697,-962.267725,8956.491898
2665.644133,1532.190996,148.041188,8734.430116
2665.644462,689.485948,222.061783,8808.450710
2665.644791,995.924147,-148.041188,9474.636058
2665.645120,1991.848295,-222.061783,9030.512492
2665.645449,2681.334243,2146.597232,7772.162391
2665.645778,1915.238745,1850.514855,8364.327145
2665.646107,1149.143247,444.123565,9178.553681
2665.646437,1532.190996,518.144159,9104.533087
2665.646766,1762.019645,-0.000000,8142.265362
2665.647095,-153.219100,296.082377,8586.388927
2665.647424,-1378.971896,-1036.288319,9844.739029
2665.647753,-1302.362347,-2072.576638,9474.636058
2665.648082,-842.705048,-1406.391290,9474.636058
2665.648411,-1149.143247,-592.164754,8734.430116
2665.648740,-2068.457845,-1036.288319,9474.636058
2665.649070,-1225.752797,-1628.453072,9474.636058
2665.649399,995.924147,-1036.288319,8882.471304
2665.649728,1762.019645,-222.061783,8142.265362
2665.650057,1149.143247,-518.144159,9030.512492
2665.650386,1149.143247,148.041188,9770.718434
2665.650715,2374.896044,-74.020594,8660.409521
2665.651044,2528.115143,1776.494261,7846.182985
2665.651373,1072.533697,740.205942,8142.265362
2665.651703,383.047749,370.102971,9178.553681
2665.652032,995.924147,-740.205942,9400.615463
2665.652361,229.828649,-444.123565,8068.244768
2665.652690,-1378.971896,-962.267725,9548.656652
2665.653019,-2528.115143,-1406.391290,10510.924376
2665.653348,-2221.676944,-2368.659014,10214.842000
2665.653677,-919.314598,-962.267725,9918.759623
2665.654006,-1149.143247,-814.226536,8956.491898
2665.654336,-1302.362347,-370.102971,9770.718434
2665.654665,0.000000,-888.247130,9844.739029
2665.654994,1378.971896,222.061783,8142.265362
2665.655323,2298.286494,592.164754,8586.388927
2665.655652,1532.190996,888.247130,8734.430116
2665.655981,1762.019645,962.267725,8882.471304
2665.656310,2221.676944,1628.453072,8586.388927
2665.656639,2145.067394,2146.597232,8216.285956
2665.656969,995.924147,1332.370696,8364.327145
2665.657298,229.828649,-0.000000,9252.574275
2665.657627,383.047749,-0.000000,9104.533087
2665.657956,-153.219100,-0.000000,9030.512492
2665.658285,-1608.800546,-444.123565,9326.594869
2665.658614,-2221.676944,-1776.494261,10066.800811
2665.658943,-1072.533697,-1554.432478,10214.842000
2665.659272,0.000000,-666.185348,8586.388927
2665.659602,-383.047749,-444.123565,8364.327145
2665.659931,-383.047749,-74.020594,9474.636058
2665.660260,1608.800546,-370.102971,8734.430116
2665.660589,2681.334243,518.144159,8438.347739
2665.660918,2757.943793,1406.391290,7476.080014
2665.661247,1532.190996,888.247130,8808.450710
2665.661576,2068.457845,814.226536,8808.450710
2665.661905,2298.286494,2072.576638,8290.306550
2665.662235,2145.067394,1924.535449,8438.347739
2665.662564,76.609550,740.205942,8956.491898
2665.662893,0.000000,-1258.350101,9770.718434
2665.663222,-153.219100,-1258.350101,9400.615463
2665.663551,-995.924147,-1776.494261,9622.677246
2665.663880,-2068.457845,-1628.453072,9918.759623
2665.664209,-2681.334243,-2590.720797,11029.068536
2665.664538,-1072.533697,-2220.617826,9696.697840
2665.664868,0.000000,-444.123565,9474.636058
2665.665197,0.000000,-74.020594,8586.388927
2665.665526,-229.828649,-0.000000,8882.471304
2665.665855,1991.848295,-0.000000,9474.636058
2665.666184,2911.162892,518.144159,7624.121203
2665.666513,2451.505594,666.185348,8142.265362
2665.666842,1455.581446,814.226536,8808.450710
2665.667171,1762.019645,-0.000000,8956.491898
2665.667501,2145.067394,592.164754,8290.306550
2665.667830,995.924147,962.267725,7920.203579
2665.668159,-383.047749,-296.082377,9474.636058
2665.668488,-1838.629195,-1332.370696,10214.842000
2665.668817,-1302.362347,-1406.391290,9030.512492
2665.669146,-1149.143247,-1554.432478,9178.553681
2665.669475,-2604.724693,-1110.308913,9474.636058
2665.669804,-2221.676944,-2960.823768,10658.965565
2665.670134,-766.095498,-2590.720797,9992.780217
2665.670463,76.609550,-444.123565,8660.409521
2665.670792,229.828649,-0.000000,8068.244768
2665.671121,459.657299,296.082377,9104.533087
2665.671450,2374.896044,592.164754,8882.471304
2665.671779,3677.258390,1554.432478,7105.977043
2665.672108,2604.724693,1480.411884,7550.100608
2665.672437,1838.629195,1924.535449,8512.368333
2665.672767,1838.629195,444.123565,8290.306550
2665.673096,2298.286494,1258.350101,8142.265362
2665.673425,76.609550,-0.000000,8586.388927
2665.673754,-536.266849,-1258.350101,9622.677246
2665.674083,-1378.971896,-2220.617826,9696.697840
2665.674412,-766.095498,-1850.514855,9696.697840
2665.674741,-1072.533697,-1184.329507,9622.677246
2665.675070,-2374.896044,-1110.308913,9992.780217
2665.675400,-1915.238745,-1776.494261,10584.944971
2665.675729,0.000000,-1184.329507,10362.883188
2665.676058,612.876398,-222.061783,9474.636058
2665.676387,76.609550,518.144159,8512.368333
2665.676716,536.266849,666.185348,9474.636058
2665.677045,2604.724693,-0.000000,8956.491898
2665.677374,3294.210641,740.205942,8216.285956
2665.677703,2374.896044,1554.432478,7846.182985
2665.678033,1608.800546,1628.453072,8586.388927
2665.678362,1225.752797,1776.494261,9104.533087
2665.678691,1378.971896,666.185348,8438.347739
2665.679020,0.000000,-0.000000,9178.553681
2665.679349,-1685.410096,-962.267725,9918.759623
2665.679678,-1915.238745,-2516.700203,10066.800811
2665.680007,-1838.629195,-2072.576638,10288.862594
2665.680336,-1991.848295,-1702.473667,9622.677246
2665.680666,-2681.334243,-1406.391290,9918.759623
2665.680995,-1991.848295,-1776.494261,10658.965565
2665.681324,-383.047749,-518.144159,9474.636058
2665.681653,536.266849,814.226536,8290.306550
2665.681982,306.438199,1036.288319,8216.285956
2665.682311,1302.362347,1110.308913,8438.347739
2665.682640,2911.162892,-0.000000,8290.306550
2665.682969,2834.553343,666.185348,7105.977043
2665.683299,2221.676944,-74.020594,7402.059420
2665.683628,1455.581446,592.164754,8586.388927
2665.683957,2068.457845,148.041188,8512.368333
2665.684286,1838.629195,1480.411884,7698.141797
2665.684615,0.000000,1110.308913,7994.224174
2665.684944,-1225.752797,-222.061783,9400.615463
2665.685273,-1378.971896,-888.247130,10288.862594
2665.685602,-306.438199,-1406.391290,9770.718434
2665.685932,-1302.362347,-1036.288319,9400.615463
2665.686261,-2374.896044,-1110.308913,10362.883188
2665.686590,-1838.629195,-1850.514855,10584.944971
2665.686919,0.000000,-444.123565,10214.842000
2665.687248,766.095498,814.226536,8808.450710
2665.687577,536.266849,1258.350101,8512.368333
2665.687906,1532.190996,740.205942,9474.636058
2665.688235,3524.039291,666.185348,8808.450710
2665.688565,3983.696590,1554.432478,7550.100608
2665.688894,2145.067394,1036.288319,7994.224174
2665.689223,1608.800546,1258.350101,9104.533087
2665.689552,2757.943793,222.061783,8882.471304
2665.689881,2451.505594,1036.288319,8290.306550
2665.690210,995.924147,518.144159,8290.306550
2665.690539,-612.876398,-222.061783,9474.636058
2665.690868,-1225.752797,-1924.535449,10140.821405
2665.691198,-1455.581446,-1702.473667,10066.800811
2665.691527,-2221.676944,-1406.391290,9696.697840
2665.691856,-3140.991542,-1850.514855,10066.800811
2665.692185,-1685.410096,-2072.576638,10584.944971
2665.692514,-1302.362347,-2072.576638,10732.986159
2665.692843,0.000000,-1036.288319,9104.533087
2665.693172,153.219100,-148.041188,8512.368333
2665.693501,1149.143247,-0.000000,8734.430116
2665.693831,2528.115143,740.205942,8364.327145
2665.694160,2987.772442,962.267725,8512.368333
2665.694489,2068.457845,1110.308913,7402.059420
2665.694818,2374.896044,740.205942,8586.388927
2665.695147,2528.115143,740.205942,8142.265362
2665.695476,1762.019645,814.226536,8068.244768
2665.695805,229.828649,296.082377,9474.636058
2665.696134,-1378.971896,-1110.308913,9030.512492
2665.696464,-1685.410096,-2146.597232,9918.759623
2665.696793,-1455.581446,-1554.432478,9474.636058
2665.697122,-2451.505594,-1406.391290,9844.739029
2665.697451,-3294.210641,-1184.329507,10214.842000
2665.697780,-2374.896044,-2294.638420,10140.821405
2665.698109,-995.924147,-1036.288319,9474.636058
2665.698438,-229.828649,-74.020594,9104.533087
2665.698767,229.828649,370.102971,8660.409521
2665.699097,1762.019645,-0.000000,8956.491898
2665.699426,3294.210641,1036.288319,8438.347739
2665.699755,3907.087040,1110.308913,7772.162391
2665.700084,2528.115143,1406.391290,8364.327145
2665.700413,2221.676944,1554.432478,8586.388927
2665.700742,2757.943793,1554.432478,8290.306550
2665.701071,2145.067394,2146.597232,8068.244768
2665.701400,1532.190996,962.267725,8364.327145
2665.701730,0.000000,-592.164754,9178.553681
2665.702059,0.000000,-2146.597232,9548.656652
2665.702388,-689.485948,-1184.329507,9252.574275
2665.702717,-1838.629195,-1924.535449,10214.842000
2665.703046,-3217.601092,-1924.535449,10140.821405
2665.703375,-2451.505594,-2072.576638,10807.006753
2665.703704,-1225.752797,-1110.308913,9252.574275
2665.704033,-919.314598,148.041188,9104.533087
2665.704363,-536.266849,-0.000000,9918.759623
2665.704692,1378.971896,-222.061783,8660.409521
2665.705021,2987.772442,962.267725,7920.203579
2665.705350,2911.162892,740.205942,8142.265362
2665.705679,2298.286494,370.102971,8808.450710
2665.706008,2987.772442,444.123565,8956.491898
2665.706337,3294.210641,592.164754,7994.224174
2665.706666,2834.553343,2590.720797,7772.162391
2665.706996,612.876398,1184.329507,8734.430116
2665.707325,-383.047749,-0.000000,9178.553681
2665.707654,-536.266849,-1184.329507,9696.697840
2665.707983,-1225.752797,-1702.473667,9622.677246
2665.708312,-2911.162892,-2146.597232,10362.883188
2665.708641,-3064.381992,-3478.967927,10881.027347
2665.708970,-2757.943793,-2960.823768,10881.027347
2665.709299,-1685.410096,-2072.576638,10288.862594
2665.709629,-1455.581446,-962.267725,8808.450710
2665.709958,-1302.362347,-0.000000,9400.615463
2665.710287,1532.190996,444.123565,9326.594869
2665.710616,3140.991542,1554.432478,7772.162391
2665.710945,3140.991542,1702.473667,8142.265362
2665.711274,2528.115143,1036.288319,9252.574275
2665.711603,2528.115143,1332.370696,8364.327145
2665.711932,2987.772442,1702.473667,8142.265362
2665.712262,2298.286494,2146.597232,7846.182985
2665.712591,1149.143247,1924.535449,7920.203579
2665.712920,995.924147,-148.041188,8586.388927
2665.713249,612.876398,-888.247130,9474.636058
2665.713578,-689.485948,-1554.432478,8734.430116
2665.713907,-2528.115143,-1184.329507,9548.656652
2665.714236,-3064.381992,-2516.700203,10288.862594
2665.714565,-3140.991542,-2516.700203,10510.924376
2665.714895,-1762.019645,-2294.638420,10362.883188
2665.715224,-1915.238745,-1258.350101,8956.491898
2665.715553,-1378.971896,-1110.308913,9548.656652
2665.715882,1072.533697,-962.267725,9252.574275
2665.716211,2911.162892,1406.391290,7402.059420
2665.716540,3064.381992,1332.370696,7846.182985
2665.716869,2068.457845,1332.370696,8438.347739
2665.717199,2451.505594,888.247130,9178.553681
2665.717528,3217.601092,2220.617826,7550.100608
2665.717857,2145.067394,2516.700203,7920.203579
2665.718186,842.705048,1702.473667,8290.306550
2665.718515,1378.971896,740.205942,8364.327145
2665.718844,1455.581446,-74.020594,8364.327145
2665.719174,-689.485948,-1998.556043,9474.636058
2665.719503,-1991.848295,-888.247130,10140.821405
2665.719832,-2604.724693,-3256.906145,11621.233289
2665.720161,-2757.943793,-3701.029710,11251.130318
2665.720490,-2374.896044,-814.226536,10881.027347
2665.720820,-1991.848295,-1184.329507,9918.759623
2665.721149,-2145.067394,-296.082377,10732.986159
2665.721478,459.657299,222.061783,9622.677246
2665.721807,2987.772442,296.082377,8956.491898
2665.722136,2681.334243,1850.514855,8290.306550
2665.722466,2374.896044,1480.411884,8512.368333
2665.722795,2681.334243,370.102971,8734.430116
2665.723124,3064.381992,2072.576638,8438.347739
2665.723453,2681.334243,2368.659014,7698.141797
2665.723782,1608.800546,1406.391290,8882.471304
2665.724112,1149.143247,-0.000000,8068.244768
2665.724441,919.314598,-814.226536,9474.636058
2665.724770,-766.095498,-1850.514855,9400.615463
2665.725099,-2451.505594,-1850.514855,9844.739029
2665.725428,-2528.115143,-3182.885551,11029.068536
2665.725758,-2834.553343,-1850.514855,9548.656652
2665.726087,-1838.629195,-962.267725,9770.718434
2665.726416,-2068.457845,-888.247130,9030.512492
2665.726745,-1915.238745,-1554.432478,9474.636058
2665.727074,842.705048,-1332.370696,9178.553681
2665.727404,2604.724693,592.164754,7846.182985
2665.727733,2221.676944,740.205942,7550.100608
2665.728062,1762.019645,518.144159,7698.141797
2665.728391,2604.724693,296.082377,8438.347739
2665.728720,2834.553343,518.144159,7846.182985
2665.729050,2145.067394,1110.308913,7254.018232
2665.729379,1532.190996,740.205942,8068.244768
2665.729708,1532.190996,-370.102971,8808.450710
2665.730037,1225.752797,-518.144159,9104.533087
2665.730366,-383.047749,-444.123565,8216.285956
2665.730696,-2145.067394,-814.226536,9548.656652
2665.731025,-1762.019645,-1480.411884,10807.006753
2665.731354,-1915.238745,-1406.391290,10066.800811
2665.731683,-1378.971896,-740.205942,9992.780217
2665.732012,-1915.238745,-814.226536,9770.718434
2665.732342,-1532.190996,-1406.391290,10140.821405
2665.732671,229.828649,-518.144159,9104.533087
2665.733000,1378.971896,666.185348,8068.244768
2665.733329,1762.019645,1036.288319,8734.430116
2665.733658,1838.629195,1110.308913,9252.574275
2665.733988,2374.896044,296.082377,9104.533087
2665.734317,2911.162892,1776.494261,7994.224174
2665.734646,2374.896044,2294.638420,7772.162391
2665.734975,1532.190996,888.247130,9400.615463
2665.735304,1302.362347,222.061783,9178.553681
2665.735634,1762.019645,592.164754,8512.368333
2665.735963,-842.705048,-0.000000,9104.533087
2665.736292,-2528.115143,-444.123565,10066.800811
2665.736621,-2451.505594,-2294.638420,10732.986159
2665.736950,-2451.505594,-1998.556043,9992.780217
2665.737280,-2068.457845,-1258.350101,9474.636058
2665.737609,-2987.772442,-1332.370696,9474.636058
2665.737938,-2221.676944,-1998.556043,10436.903782
2665.738267,-612.876398,-1480.411884,9548.656652
2665.738596,1149.143247,-666.185348,8734.430116
2665.738926,842.705048,962.267725,8364.327145
2665.739255,1991.848295,814.226536,9030.512492
2665.739584,2834.553343,370.102971,8586.388927
2665.739913,3600.648841,1480.411884,8364.327145
2665.740242,3064.381992,1406.391290,8142.265362
2665.740571,2451.505594,592.164754,8512.368333
2665.740901,2145.067394,1332.370696,8586.388927
2665.741230,3064.381992,962.267725,7179.997637
2665.741559,153.219100,962.267725,8882.471304
2665.741888,-1378.971896,-962.267725,9548.656652
2665.742217,-2145.067394,-2294.638420,9992.780217
2665.742547,-2298.286494,-2442.679609,11325.150913
2665.742876,-2681.334243,-2590.720797,9844.739029
2665.743205,-3064.381992,-1998.556043,9918.759623
2665.743534,-2145.067394,-2738.761985,11399.171507
2665.743863,229.828649,-962.267725,9400.615463
2665.744193,1532.190996,-0.000000,8882.471304
2665.744522,2145.067394,814.226536,8438.347739
2665.744851,3524.039291,666.185348,9104.533087
2665.745180,3447.429741,1184.329507,8216.285956
2665.745509,3677.258390,1628.453072,7105.977043
2665.745839,2451.505594,3034.844362,8216.285956
2665.746168,1838.629195,1850.514855,8734.430116
2665.746497,2451.505594,1554.432478,7846.182985
2665.746826,2911.162892,2146.597232,7031.956449
2665.747155,1608.800546,1406.391290,6661.853478
2665.747485,766.095498,444.123565,7698.141797
2665.747814,-612.876398,-2442.679609,8512.368333
2665.748143,-1455.581446,-3478.967927,10658.965565
2665.748472,-3064.381992,-1702.473667,9252.574275
2665.748801,-3907.087040,-4145.153275,11325.150913
2665.749131,-4136.915689,-3182.885551,10732.986159
2665.749460,-2068.457845,-2072.576638,11251.130318
2665.749789,-612.876398,-1628.453072,9844.739029
2665.750118,-459.657299,296.082377,9992.780217
2665.750447,1762.019645,-74.020594,10066.800811
2665.750777,3907.087040,1406.391290,8068.244768
2665.751106,3600.648841,1554.432478,7624.121203
2665.751435,2221.676944,740.205942,8142.265362
2665.751764,1762.019645,1036.288319,7402.059420
2665.752093,3294.210641,370.102971,8364.327145
2665.752423,2451.505594,1480.411884,6513.812290
