#time,accel_x,accel_y,accel_z
2717.946089,766.095498,-0.000000,9400.615463
2717.946418,612.876398,-296.082377,9178.553681
2717.946747,306.438199,-148.041188,9252.574275
2717.947076,383.047749,-74.020594,9030.512492
2717.947405,153.219100,-0.000000,9178.553681
2717.947734,306.438199,-148.041188,9252.574275
2717.948063,306.438199,-222.061783,9104.533087
2717.948392,153.219100,-444.123565,8660.409521
2717.948721,459.657299,-222.061783,9030.512492
2717.949050,612.876398,-222.061783,8734.430116
2717.949379,383.047749,-0.000000,8956.491898
2717.949708,536.266849,-0.000000,8882.471304
2717.950037,76.609550,-0.000000,8808.450710
2717.950366,229.828649,-0.000000,8956.491898
2717.950695,229.828649,-222.061783,8956.491898
2717.951023,766.095498,-222.061783,8808.450710
2717.951352,76.609550,-222.061783,8734.430116
2717.951681,153.219100,-222.061783,9030.512492
2717.952010,76.609550,-148.041188,8808.450710
2717.952339,0.000000,-74.020594,8956.491898
2717.952668,229.828649,-148.041188,9104.533087
2717.952997,306.438199,-0.000000,8882.471304
2717.953326,0.000000,-148.041188,9030.512492
2717.953655,383.047749,-74.020594,9252.574275
2717.953984,153.219100,-74.020594,9030.512492
2717.954313,306.438199,-0.000000,8956.491898
2717.954642,306.438199,-74.020594,9104.533087
2717.954971,459.657299,-148.041188,9178.553681
2717.955300,459.657299,-148.041188,9178.553681
2717.955629,153.219100,-222.061783,9104.533087
2717.955958,612.876398,-592.164754,9178.553681
2717.956287,229.828649,-296.082377,9474.636058
2717.956616,153.219100,-444.123565,9400.615463
2717.956945,0.000000,-296.082377,9252.574275
2717.957273,306.438199,-222.061783,9178.553681
2717.957602,536.266849,-444.123565,9104.533087
2717.957931,612.876398,-0.000000,9104.533087
2717.958260,459.657299,-148.041188,8734.430116
2717.958589,383.047749,-0.000000,8882.471304
2717.958918,229.828649,-0.000000,8956.491898
2717.959247,229.828649,-74.020594,9030.512492
2717.959576,612.876398,-148.041188,9252.574275
2717.959905,306.438199,-222.061783,9178.553681
2717.960234,153.219100,-0.000000,9178.553681
2717.960563,-153.219100,-296.082377,9178.553681
2717.960892,153.219100,-148.041188,9104.533087
2717.961221,306.438199,-148.041188,9030.512492
2717.961550,383.047749,-0.000000,8882.471304
2717.961879,536.266849,-148.041188,8808.450710
2717.962208,689.485948,-0.000000,8808.450710
2717.962537,766.095498,-0.000000,8956.491898
2717.962866,229.828649,-74.020594,8290.306550
2717.963195,306.438199,-74.020594,8808.450710
2717.963524,76.609550,-222.061783,8956.491898
2717.963852,153.219100,-296.082377,9030.512492
2717.964181,76.609550,-888.247130,9178.553681
2717.964510,229.828649,-296.082377,9252.574275
2717.964839,306.438199,-296.082377,9104.533087
2717.965168,306.438199,-148.041188,9030.512492
2717.965497,306.438199,-0.000000,9030.512492
2717.965826,612.876398,-0.000000,9030.512492
2717.966155,459.657299,-74.020594,8956.491898
2717.966484,0.000000,-148.041188,9178.553681
2717.966813,612.876398,-296.082377,9178.553681
2717.967142,766.095498,-296.082377,8956.491898
2717.967471,459.657299,-0.000000,9326.594869
2717.967800,153.219100,-222.061783,9326.594869
2717.968129,306.438199,-222.061783,9326.594869
2717.968458,306.438199,-222.061783,9178.553681
2717.968787,459.657299,-370.102971,9400.615463
2717.969116,383.047749,-370.102971,8808.450710
2717.969445,919.314598,-444.123565,9178.553681
2717.969774,612.876398,-222.061783,9104.533087
2717.970102,459.657299,-0.000000,8882.471304
2717.970431,383.047749,-0.000000,9104.533087
2717.970760,306.438199,-0.000000,8882.471304
2717.971089,459.657299,-148.041188,8956.491898
2717.971418,459.657299,-296.082377,9326.594869
2717.971747,76.609550,-148.041188,8956.491898
2717.972076,459.657299,-370.102971,9178.553681
2717.972405,459.657299,-518.144159,9178.553681
2717.972734,306.438199,-0.000000,9104.533087
2717.973063,153.219100,-0.000000,8956.491898
2717.973392,76.609550,-0.000000,8882.471304
2717.973721,612.876398,-296.082377,9400.615463
2717.974050,1838.629195,-962.267725,9474.636058
2717.974379,1915.238745,-888.247130,8586.388927
2717.974708,1991.848295,-370.102971,9326.594869
2717.975037,2451.505594,-222.061783,8882.471304
2717.975366,2757.943793,370.102971,8734.430116
2717.975695,3600.648841,518.144159,8956.491898
2717.976024,4136.915689,-370.102971,8660.409521
2717.976353,3294.210641,-0.000000,8512.368333
2717.976681,3370.820191,148.041188,8882.471304
2717.977010,2604.724693,-0.000000,8808.450710
2717.977339,2374.896044,-740.205942,9696.697840
2717.977668,2068.457845,-740.205942,9400.615463
2717.977997,1455.581446,-814.226536,9918.759623
2717.978326,1915.238745,-2072.576638,9918.759623
2717.978655,2757.943793,-1258.350101,9474.636058
2717.978984,2604.724693,-0.000000,9770.718434
2717.979313,3753.867940,-1406.391290,10066.800811
2717.979642,3294.210641,148.041188,9326.594869
2717.979971,4366.744339,962.267725,9474.636058
2717.980300,5439.278036,814.226536,7254.018232
2717.980629,4136.915689,1554.432478,8734.430116
2717.980958,5056.230287,666.185348,9178.553681
2717.981287,4136.915689,666.185348,7476.080014
2717.981616,3600.648841,148.041188,8734.430116
2717.981945,3294.210641,-148.041188,8956.491898
2717.982274,2374.896044,148.041188,8956.491898
2717.982603,1378.971896,-814.226536,9548.656652
2717.982931,1762.019645,-962.267725,9474.636058
2717.983260,1838.629195,-888.247130,9696.697840
2717.983589,1378.971896,-1110.308913,9474.636058
2717.983918,2298.286494,-0.000000,9696.697840
2717.984247,1915.238745,-222.061783,10140.821405
2717.984576,3140.991542,740.205942,7476.080014
2717.984905,4060.306139,592.164754,9400.615463
2717.985234,4136.915689,1258.350101,8142.265362
2717.985563,4213.525239,296.082377,8290.306550
2717.985892,4903.011187,518.144159,8364.327145
2717.986221,3447.429741,222.061783,9030.512492
2717.986550,3294.210641,-740.205942,8956.491898
2717.986879,2604.724693,-1406.391290,9400.615463
2717.987208,2145.067394,-1480.411884,9696.697840
2717.987537,2374.896044,-1850.514855,10288.862594
2717.987866,2298.286494,-1924.535449,9696.697840
2717.988195,2221.676944,-1776.494261,9992.780217
2717.988524,3140.991542,-592.164754,9696.697840
2717.988853,3677.258390,444.123565,9474.636058
2717.989182,3983.696590,740.205942,8216.285956
2717.989510,4443.353888,1702.473667,8660.409521
2717.989839,4443.353888,2368.659014,8216.285956
2717.990168,4213.525239,2368.659014,7328.038826
2717.990497,4213.525239,2072.576638,7920.203579
2717.990826,4060.306139,1406.391290,8660.409521
2717.991155,2987.772442,370.102971,8734.430116
2717.991484,2451.505594,-1110.308913,9696.697840
2717.991813,2145.067394,-2146.597232,9770.718434
2717.992142,1838.629195,-2664.741391,10584.944971
2717.992471,1991.848295,-2516.700203,10881.027347
2717.992800,2987.772442,-2960.823768,10584.944971
2717.993129,4290.134789,-1110.308913,10436.903782
2717.993458,4749.792088,-0.000000,9474.636058
2717.993787,5669.106685,1184.329507,8956.491898
2717.994116,5745.716235,2368.659014,8512.368333
2717.994445,5286.058936,2886.803174,8290.306550
2717.994774,4366.744339,3404.947333,6957.935855
2717.995103,4213.525239,3478.967927,6735.874072
2717.995432,4136.915689,2146.597232,6957.935855
2717.995760,2374.896044,370.102971,7550.100608
2717.996089,1149.143247,-2368.659014,10066.800811
2717.996418,-383.047749,-3701.029710,10140.821405
2717.996747,-842.705048,-4737.318029,11843.295072
2717.997076,-995.924147,-4737.318029,11769.274478
2717.997405,-459.657299,-2590.720797,10732.986159
2717.997734,153.219100,-2294.638420,10881.027347
2717.998063,1762.019645,296.082377,10214.842000
2717.998392,4443.353888,1036.288319,9918.759623
2717.998721,6971.469032,1702.473667,7920.203579
2717.999050,7124.688131,1850.514855,7698.141797
2717.999379,6435.202183,1036.288319,7698.141797
2717.999708,6358.592633,2368.659014,6217.729913
2718.000037,5669.106685,1184.329507,7476.080014
2718.000366,4979.620737,1924.535449,6069.688724
2718.000695,4903.011187,3182.885551,6735.874072
2718.001024,4826.401637,2220.617826,6587.832884
2718.001353,4290.134789,592.164754,6365.771101
2718.001682,1685.410096,-3701.029710,9918.759623
2718.002011,-612.876398,-7772.162391,13027.624579
2718.002339,-1915.238745,-2590.720797,11103.089130
2718.002668,-1225.752797,-7846.182985,14582.057057
2718.002997,-2145.067394,-3182.885551,10510.924376
2718.003326,919.314598,592.164754,12657.521608
2718.003655,2911.162892,-0.000000,10732.986159
2718.003984,4519.963438,2590.720797,9104.533087
2718.004313,7431.126331,222.061783,9548.656652
2718.004642,7660.954980,1850.514855,8660.409521
2718.004971,7431.126331,3997.112087,6513.812290
2718.005300,7890.783629,3627.009116,5699.585753
2718.005629,7431.126331,1184.329507,5403.503377
2718.005958,7354.516781,3404.947333,5181.441594
2718.006287,7277.907231,1036.288319,7105.977043
2718.006616,4596.572988,1776.494261,6365.771101
2718.006945,4136.915689,1110.308913,6439.791695
2718.007274,3294.210641,-1776.494261,9918.759623
2718.007603,-1685.410096,-6291.750507,12879.583391
2718.007932,-3294.210641,-2220.617826,11547.212695
2718.008261,-1378.971896,-4293.194464,14285.974681
2718.008589,-1532.190996,-4663.297435,11621.233289
2718.008918,0.000000,2220.617826,11769.274478
2718.009247,1991.848295,-518.144159,10658.965565
2718.009576,-689.485948,2146.597232,10288.862594
2718.009905,5515.887586,-1554.432478,12731.542202
2718.010234,7660.954980,2516.700203,4145.153275
2718.010563,8427.050478,888.247130,9400.615463
2718.010892,5592.497135,1332.370696,5699.585753
2718.011221,8044.002729,1332.370696,4959.379811
2718.011550,5975.544884,1036.288319,8586.388927
2718.011879,5822.325785,1850.514855,4293.194464
2718.012208,4903.011187,3034.844362,8808.450710
2718.012537,2987.772442,1406.391290,7105.977043
2718.012866,3600.648841,1258.350101,8438.347739
2718.013195,919.314598,-962.267725,9474.636058
2718.013524,995.924147,-4663.297435,11991.336260
2718.013853,-1072.533697,-1258.350101,10732.986159
2718.014182,0.000000,-5699.585753,13545.768739
2718.014511,-1302.362347,-1480.411884,9770.718434
2718.014840,919.314598,-888.247130,11547.212695
2718.015168,2145.067394,1406.391290,9104.533087
2718.015497,3217.601092,2072.576638,7846.182985
2718.015826,4290.134789,1554.432478,7402.059420
2718.016155,4749.792088,1776.494261,7476.080014
2718.016484,5209.449386,2368.659014,7402.059420
2718.016813,3217.601092,-74.020594,7328.038826
2718.017142,3753.867940,-1480.411884,7994.224174
2718.017471,2681.334243,-2368.659014,9326.594869
2718.017800,1838.629195,-2294.638420,10807.006753
2718.018129,1378.971896,-1036.288319,10140.821405
2718.018458,1915.238745,-592.164754,10510.924376
2718.018787,3140.991542,1110.308913,10066.800811
2718.019116,3753.867940,666.185348,8956.491898
2718.019445,3753.867940,666.185348,9770.718434
2718.019774,4673.182538,814.226536,8216.285956
2718.020103,5822.325785,1628.453072,8512.368333
2718.020432,5515.887586,2294.638420,7624.121203
2718.020760,4519.963438,962.267725,7624.121203
2718.021089,4290.134789,-222.061783,8216.285956
2718.021418,4136.915689,-74.020594,7031.956449
2718.021747,2757.943793,-740.205942,8882.471304
2718.022076,1072.533697,-1850.514855,9992.780217
2718.022405,76.609550,-1628.453072,10732.986159
2718.022734,0.000000,-2664.741391,11029.068536
2718.023063,995.924147,-2442.679609,10066.800811
2718.023392,995.924147,-1998.556043,10140.821405
2718.023720,919.314598,-1480.411884,11177.109724
2718.024049,2528.115143,296.082377,10288.862594
2718.024378,5439.278036,1480.411884,8586.388927
2718.024707,6971.469032,2072.576638,8660.409521
2718.025036,5975.544884,1480.411884,8956.491898
2718.025365,4596.572988,740.205942,8660.409521
2718.025694,4596.572988,2146.597232,6735.874072
2718.026023,5975.544884,296.082377,7624.121203
2718.026351,6205.373534,962.267725,7402.059420
2718.026680,4979.620737,1258.350101,8290.306550
2718.027009,4903.011187,444.123565,8290.306550
2718.027338,4213.525239,-518.144159,8438.347739
2718.027667,3217.601092,-1628.453072,9326.594869
2718.027996,2221.676944,-2072.576638,11251.130318
2718.028325,1149.143247,-296.082377,10510.924376
2718.028654,1532.190996,-1628.453072,10214.842000
2718.028982,2145.067394,-0.000000,8882.471304
2718.029311,2451.505594,-740.205942,11695.253884
2718.029640,4136.915689,-0.000000,9992.780217
2718.029969,3677.258390,1702.473667,7179.997637
2718.030298,4366.744339,370.102971,8364.327145
2718.030627,4443.353888,1036.288319,7476.080014
2718.030956,4979.620737,666.185348,8512.368333
2718.031285,1991.848295,-518.144159,7105.977043
2718.031614,2757.943793,-518.144159,8808.450710
2718.031942,2068.457845,-2072.576638,8660.409521
2718.032271,1532.190996,-592.164754,8586.388927
2718.032600,1685.410096,-2146.597232,10214.842000
2718.032929,-766.095498,-1702.473667,9474.636058
2718.033258,229.828649,-814.226536,9992.780217
2718.033587,1378.971896,-814.226536,10584.944971
2718.033916,1838.629195,-592.164754,9104.533087
2718.034245,2221.676944,518.144159,9696.697840
2718.034573,3524.039291,-0.000000,9696.697840
2718.034902,2528.115143,370.102971,8734.430116
2718.035231,2528.115143,-0.000000,9326.594869
2718.035560,4826.401637,1258.350101,7476.080014
2718.035889,4290.134789,814.226536,7328.038826
2718.036218,4060.306139,1406.391290,8364.327145
2718.036547,3830.477490,-0.000000,8068.244768
2718.036876,2145.067394,-444.123565,8512.368333
2718.037205,459.657299,222.061783,8068.244768
2718.037533,-1225.752797,-814.226536,9400.615463
2718.037862,-1838.629195,-1110.308913,10288.862594
2718.038191,-1915.238745,-444.123565,9622.677246
2718.038520,-1149.143247,-1110.308913,11029.068536
2718.038849,-1762.019645,-222.061783,9326.594869
2718.039178,-995.924147,-444.123565,9178.553681
2718.039507,-1838.629195,-888.247130,9770.718434
2718.039836,-766.095498,-74.020594,10288.862594
2718.040164,-459.657299,-0.000000,8956.491898
2718.040493,0.000000,-148.041188,8216.285956
2718.040822,76.609550,-666.185348,9474.636058
2718.041151,1302.362347,-0.000000,9548.656652
2718.041480,1685.410096,296.082377,7550.100608
2718.041809,1455.581446,1554.432478,7105.977043
2718.042138,3370.820191,666.185348,9178.553681
2718.042467,1532.190996,1332.370696,7105.977043
2718.042796,1072.533697,-370.102971,8364.327145
2718.043124,689.485948,-592.164754,9622.677246
2718.043453,229.828649,-1332.370696,9326.594869
2718.043782,-1225.752797,-1998.556043,9696.697840
2718.044111,-2221.676944,-1554.432478,10658.965565
2718.044440,-689.485948,-1628.453072,10732.986159
2718.044769,-153.219100,-518.144159,8882.471304
2718.045098,766.095498,-1110.308913,9844.739029
2718.045427,1762.019645,148.041188,9992.780217
2718.045755,3294.210641,740.205942,8512.368333
2718.046084,3064.381992,1036.288319,7254.018232
2718.046413,3677.258390,1480.411884,8512.368333
2718.046742,3907.087040,1110.308913,7920.203579
2718.047071,3370.820191,1554.432478,6217.729913
2718.047400,2911.162892,-0.000000,8438.347739
2718.047729,1532.190996,370.102971,9326.594869
2718.048058,1378.971896,-444.123565,8882.471304
2718.048387,-1225.752797,-962.267725,9104.533087
2718.048715,-1072.533697,-1554.432478,11325.150913
2718.049044,-1608.800546,-888.247130,10362.883188
2718.049373,-1455.581446,-1702.473667,9844.739029
2718.049702,-1072.533697,-592.164754,10732.986159
2718.050031,-689.485948,-222.061783,9696.697840
2718.050360,-766.095498,-0.000000,8068.244768
2718.050689,-995.924147,148.041188,9770.718434
2718.051018,0.000000,-222.061783,11029.068536
2718.051346,229.828649,370.102971,7328.038826
2718.051675,1455.581446,-0.000000,8068.244768
2718.052004,1455.581446,1406.391290,9252.574275
2718.052333,1762.019645,1480.411884,7328.038826
2718.052662,1225.752797,518.144159,7476.080014
2718.052991,459.657299,370.102971,8734.430116
2718.053320,0.000000,-0.000000,8512.368333
2718.053649,-306.438199,-296.082377,8290.306550
2718.053978,-1378.971896,-1332.370696,10510.924376
2718.054306,-1378.971896,-1258.350101,10955.047942
2718.054635,-1225.752797,-592.164754,8586.388927
2718.054964,-1455.581446,-1480.411884,9400.615463
2718.055293,-1225.752797,-518.144159,9918.759623
2718.055622,-459.657299,-0.000000,7772.162391
2718.055951,-612.876398,-888.247130,8512.368333
2718.056280,0.000000,-1036.288319,10362.883188
2718.056609,306.438199,-592.164754,9622.677246
2718.056937,229.828649,-444.123565,8734.430116
2718.057266,536.266849,888.247130,9252.574275
2718.057595,1838.629195,1406.391290,8290.306550
2718.057924,2068.457845,1850.514855,7105.977043
2718.058253,2068.457845,222.061783,9326.594869
2718.058582,1532.190996,888.247130,9770.718434
2718.058911,383.047749,-0.000000,8216.285956
2718.059240,383.047749,-0.000000,8438.347739
2718.059568,-1378.971896,-296.082377,9844.739029
2718.059897,-689.485948,-370.102971,9326.594869
2718.060226,-383.047749,-1628.453072,8956.491898
2718.060555,-766.095498,-1110.308913,10584.944971
2718.060884,-459.657299,-1258.350101,9622.677246
2718.061213,-689.485948,-888.247130,8068.244768
2718.061542,-383.047749,-0.000000,9622.677246
2718.061871,76.609550,-0.000000,10066.800811
2718.062200,536.266849,296.082377,7624.121203
2718.062528,1072.533697,-222.061783,8512.368333
2718.062857,1838.629195,962.267725,9474.636058
2718.063186,1762.019645,740.205942,7254.018232
2718.063515,995.924147,370.102971,8364.327145
2718.063844,229.828649,-74.020594,9178.553681
2718.064173,-383.047749,370.102971,9918.759623
2718.064502,-612.876398,-592.164754,8438.347739
2718.064831,-842.705048,-962.267725,10140.821405
2718.065159,0.000000,-888.247130,10140.821405
2718.065488,0.000000,-1480.411884,8956.491898
2718.065817,-689.485948,-1406.391290,9770.718434
2718.066146,-766.095498,-1702.473667,11251.130318
2718.066475,-536.266849,-666.185348,8364.327145
2718.066804,612.876398,-1628.453072,9918.759623
2718.067133,995.924147,-0.000000,10214.842000
2718.067462,2221.676944,370.102971,8142.265362
2718.067791,1991.848295,1258.350101,7772.162391
2718.068119,1838.629195,296.082377,9030.512492
2718.068448,1915.238745,1110.308913,9326.594869
2718.068777,2604.724693,-0.000000,7402.059420
2718.069106,1072.533697,-74.020594,8364.327145
2718.069435,536.266849,-1702.473667,10807.006753
2718.069764,0.000000,-1702.473667,9622.677246
2718.070093,-306.438199,-1110.308913,8882.471304
2718.070422,459.657299,-1480.411884,10436.903782
2718.070750,459.657299,370.102971,8364.327145
2718.071079,919.314598,-222.061783,8882.471304
2718.071408,1915.238745,1036.288319,8660.409521
2718.071737,2604.724693,1110.308913,8216.285956
2718.072066,1532.190996,222.061783,6957.935855
2718.072395,842.705048,592.164754,8734.430116
2718.072724,-153.219100,1184.329507,9474.636058
2718.073053,842.705048,-148.041188,7328.038826
2718.073382,-229.828649,-1258.350101,8956.491898
2718.073710,-1072.533697,-1480.411884,11103.089130
2718.074039,-842.705048,-1110.308913,9178.553681
2718.074368,-842.705048,-592.164754,8586.388927
2718.074697,-1532.190996,-518.144159,9622.677246
2718.075026,-459.657299,-0.000000,10140.821405
2718.075355,-1149.143247,-296.082377,8956.491898
2718.075684,229.828649,296.082377,10732.986159
2718.076013,383.047749,-0.000000,8808.450710
2718.076341,842.705048,1258.350101,7402.059420
2718.076670,306.438199,-0.000000,8068.244768
2718.076999,612.876398,1406.391290,9622.677246
2718.077328,0.000000,444.123565,8290.306550
2718.077657,0.000000,-444.123565,8586.388927
2718.077986,0.000000,-666.185348,10436.903782
2718.078315,-612.876398,-962.267725,10362.883188
2718.078644,-1225.752797,-1258.350101,9400.615463
2718.078973,-1149.143247,-1406.391290,10066.800811
2718.079301,-229.828649,-740.205942,9770.718434
2718.079630,0.000000,-592.164754,9326.594869
2718.079959,-229.828649,-592.164754,9844.739029
2718.080288,1762.019645,-592.164754,9992.780217
2718.080617,2451.505594,814.226536,7105.977043
2718.080946,2298.286494,1924.535449,6809.894666
2718.081275,1608.800546,1036.288319,9104.533087
2718.081604,1378.971896,888.247130,7920.203579
2718.081932,1149.143247,518.144159,7624.121203
2718.082261,536.266849,-0.000000,9252.574275
2718.082590,229.828649,-1406.391290,9770.718434
2718.082919,-1072.533697,-1480.411884,9178.553681
2718.083248,-1762.019645,-1110.308913,9918.759623
2718.083577,-766.095498,-444.123565,11103.089130
2718.083906,-919.314598,-888.247130,8956.491898
2718.084235,-153.219100,-444.123565,10288.862594
2718.084564,-306.438199,-592.164754,11769.274478
2718.084892,383.047749,-0.000000,9252.574275
2718.085221,536.266849,296.082377,7550.100608
2718.085550,1225.752797,1036.288319,9030.512492
2718.085879,1149.143247,1554.432478,8290.306550
2718.086208,1225.752797,1036.288319,7328.038826
2718.086537,2068.457845,888.247130,8808.450710
2718.086866,842.705048,-814.226536,10288.862594
2718.087195,0.000000,-0.000000,7031.956449
2718.087523,-383.047749,-1702.473667,9474.636058
2718.087852,-1149.143247,-666.185348,9770.718434
2718.088181,-689.485948,-888.247130,9622.677246
2718.088510,-306.438199,-1850.514855,10066.800811
2718.088839,0.000000,-1406.391290,10214.842000
2718.089168,153.219100,-148.041188,10288.862594
2718.089497,306.438199,-666.185348,9030.512492
2718.089826,229.828649,-148.041188,9104.533087
2718.090154,1378.971896,740.205942,9696.697840
2718.090483,1915.238745,1554.432478,7476.080014
2718.090812,1915.238745,296.082377,7698.141797
2718.091141,1302.362347,1332.370696,8438.347739
2718.091470,2374.896044,-888.247130,7920.203579
2718.091799,1225.752797,-0.000000,6957.935855
2718.092128,-766.095498,-0.000000,9622.677246
2718.092457,842.705048,-1998.556043,9400.615463
2718.092786,-306.438199,-222.061783,7624.121203
2718.093114,0.000000,-1332.370696,9326.594869
2718.093443,842.705048,-444.123565,9548.656652
2718.093772,306.438199,-1332.370696,8216.285956
2718.094101,-612.876398,1036.288319,8734.430116
2718.094430,0.000000,148.041188,9918.759623
2718.094759,-536.266849,444.123565,7920.203579
2718.095088,-383.047749,-148.041188,8438.347739
2718.095417,0.000000,-148.041188,10955.047942
2718.095745,-1225.752797,-1628.453072,9030.512492
2718.096074,-536.266849,-592.164754,7920.203579
2718.096403,-766.095498,370.102971,8956.491898
2718.096732,-995.924147,-0.000000,9548.656652
2718.097061,-306.438199,-1480.411884,8734.430116
2718.097390,0.000000,-0.000000,9178.553681
2718.097719,842.705048,-666.185348,10510.924376
2718.098048,0.000000,-518.144159,7031.956449
2718.098377,383.047749,-370.102971,9104.533087
2718.098705,153.219100,814.226536,10658.965565
2718.099034,919.314598,962.267725,8068.244768
2718.099363,0.000000,-666.185348,8216.285956
2718.099692,536.266849,148.041188,10510.924376
2718.100021,919.314598,-0.000000,9474.636058
2718.100350,-383.047749,-222.061783,8438.347739
2718.100679,459.657299,-666.185348,10362.883188
2718.101008,306.438199,-592.164754,10436.903782
2718.101336,306.438199,-1258.350101,9400.615463
2718.101665,306.438199,-740.205942,9474.636058
2718.101994,1762.019645,-370.102971,10436.903782
2718.102323,2145.067394,1036.288319,8290.306550
2718.102652,2221.676944,-518.144159,8438.347739
2718.102981,2145.067394,740.205942,9696.697840
2718.103310,2604.724693,1702.473667,7179.997637
2718.103639,1915.238745,1332.370696,7624.121203
2718.103968,1225.752797,148.041188,9770.718434
2718.104296,1072.533697,-0.000000,9548.656652
2718.104625,689.485948,-666.185348,8438.347739
2718.104954,-306.438199,-1110.308913,9696.697840
2718.105283,-766.095498,-148.041188,10584.944971
2718.105612,-689.485948,-1480.411884,9178.553681
2718.105941,-612.876398,-666.185348,10140.821405
2718.106270,383.047749,-518.144159,10807.006753
2718.106599,995.924147,444.123565,7550.100608
2718.106927,536.266849,-444.123565,7328.038826
2718.107256,919.314598,1110.308913,9622.677246
2718.107585,1532.190996,1332.370696,8290.306550
2718.107914,1072.533697,370.102971,7254.018232
2718.108243,842.705048,370.102971,8068.244768
2718.108572,1225.752797,296.082377,9400.615463
2718.108901,153.219100,-370.102971,7994.224174
2718.109230,-766.095498,-740.205942,8512.368333
2718.109559,-689.485948,-1258.350101,10436.903782
2718.109887,-1072.533697,-1258.350101,8142.265362
2718.110216,-689.485948,-740.205942,9326.594869
2718.110545,-383.047749,-1554.432478,10288.862594
2718.110874,0.000000,-148.041188,8586.388927
2718.111203,459.657299,-74.020594,8142.265362
2718.111532,76.609550,-74.020594,9400.615463
2718.111861,689.485948,-0.000000,9326.594869
2718.112190,1378.971896,888.247130,7550.100608
2718.112518,1072.533697,-0.000000,7772.162391
2718.112847,1072.533697,-370.102971,10584.944971
2718.113176,1149.143247,-148.041188,8512.368333
2718.113505,229.828649,-592.164754,7476.080014
2718.113834,459.657299,-444.123565,9770.718434
2718.114163,229.828649,-666.185348,9474.636058
2718.114492,0.000000,-1036.288319,9474.636058
2718.114821,306.438199,740.205942,10288.862594
2718.115150,995.924147,-0.000000,9400.615463
2718.115478,612.876398,-0.000000,8364.327145
2718.115807,919.314598,666.185348,9252.574275
2718.116136,689.485948,1258.350101,9770.718434
2718.116465,995.924147,1184.329507,7476.080014
2718.116794,0.000000,-222.061783,8956.491898
2718.117123,0.000000,-222.061783,10214.842000
2718.117452,-306.438199,-296.082377,9622.677246
2718.117781,-766.095498,-1110.308913,9178.553681
2718.118109,-995.924147,-592.164754,9548.656652
2718.118438,-1225.752797,-148.041188,9326.594869
2718.118767,-612.876398,-1332.370696,9992.780217
2718.119096,-536.266849,-1554.432478,9992.780217
2718.119425,0.000000,-74.020594,9696.697840
2718.119754,919.314598,-0.000000,6957.935855
2718.120083,76.609550,666.185348,7994.224174
2718.120412,689.485948,814.226536,9770.718434
2718.120741,612.876398,740.205942,7476.080014
2718.121070,612.876398,-814.226536,7624.121203
2718.121399,0.000000,-740.205942,10140.821405
2718.121728,0.000000,-1110.308913,9326.594869
2718.122058,-689.485948,-740.205942,8290.306550
2718.122387,-1072.533697,-1480.411884,9326.594869
2718.122716,-842.705048,-518.144159,9918.759623
2718.123045,-229.828649,-888.247130,8882.471304
2718.123374,0.000000,-888.247130,9474.636058
2718.123703,306.438199,-814.226536,9622.677246
2718.124032,1838.629195,-370.102971,9178.553681
2718.124361,842.705048,518.144159,7031.956449
2718.124690,2068.457845,444.123565,10288.862594
2718.125019,1838.629195,1110.308913,6883.915261
2718.125348,1915.238745,1480.411884,7105.977043
2718.125677,1991.848295,-370.102971,10658.965565
2718.126006,1378.971896,148.041188,9030.512492
2718.126335,919.314598,-740.205942,7624.121203
2718.126664,0.000000,148.041188,9326.594869
2718.126993,-459.657299,-888.247130,10288.862594
2718.127322,-306.438199,-444.123565,9252.574275
2718.127651,-383.047749,-1110.308913,9178.553681
2718.127980,-229.828649,-518.144159,10881.027347
2718.128309,612.876398,-0.000000,9474.636058
2718.128638,383.047749,-74.020594,8808.450710
2718.128967,0.000000,-296.082377,9178.553681
2718.129296,1455.581446,1924.535449,8808.450710
2718.129625,1149.143247,666.185348,6883.915261
2718.129954,995.924147,592.164754,9548.656652
2718.130283,1302.362347,518.144159,10214.842000
2718.130612,1455.581446,-592.164754,7698.141797
2718.130941,0.000000,-0.000000,9326.594869
2718.131270,153.219100,592.164754,9696.697840
2718.131599,0.000000,-518.144159,8956.491898
2718.131928,-766.095498,-1036.288319,8956.491898
2718.132257,-459.657299,-962.267725,10214.842000
2718.132587,0.000000,-666.185348,9474.636058
2718.132916,229.828649,-296.082377,7402.059420
2718.133245,689.485948,-370.102971,9548.656652
2718.133574,0.000000,518.144159,9844.739029
2718.133903,612.876398,-0.000000,8290.306550
2718.134232,689.485948,-0.000000,8364.327145
2718.134561,1302.362347,444.123565,9622.677246
2718.134890,919.314598,-0.000000,8512.368333
2718.135219,1149.143247,-444.123565,8364.327145
2718.135548,383.047749,-148.041188,9918.759623
2718.135877,1072.533697,666.185348,8882.471304
2718.136206,612.876398,-0.000000,8660.409521
2718.136535,76.609550,-222.061783,9474.636058
2718.136864,153.219100,-0.000000,9918.759623
2718.137193,229.828649,-222.061783,8364.327145
2718.137522,0.000000,-0.000000,8290.306550
2718.137851,76.609550,296.082377,10214.842000
2718.138180,-689.485948,-370.102971,6883.915261
2718.138509,-689.485948,-148.041188,8882.471304
2718.138838,76.609550,-518.144159,10362.883188
2718.139167,76.609550,-444.123565,8216.285956
2718.139496,-306.438199,-1332.370696,8882.471304
2718.139825,-229.828649,592.164754,8808.450710
2718.140154,-306.438199,-0.000000,9178.553681
2718.140483,612.876398,-1036.288319,8290.306550
2718.140812,536.266849,-222.061783,8734.430116
2718.141141,919.314598,222.061783,9474.636058
2718.141470,459.657299,444.123565,7550.100608
2718.141799,612.876398,-0.000000,8068.244768
2718.142128,-383.047749,-444.123565,9622.677246
2718.142457,-229.828649,370.102971,9178.553681
2718.142787,-689.485948,-1036.288319,9030.512492
2718.143116,0.000000,-814.226536,10881.027347
2718.143445,306.438199,-1554.432478,10658.965565
2718.143774,0.000000,-222.061783,8808.450710
2718.144103,-459.657299,-666.185348,9770.718434
2718.144432,0.000000,222.061783,10658.965565
2718.144761,766.095498,-296.082377,8808.450710
2718.145090,1532.190996,-74.020594,8882.471304
2718.145419,1991.848295,-0.000000,9548.656652
2718.145748,2528.115143,370.102971,7994.224174
2718.146077,1149.143247,296.082377,8142.265362
2718.146406,995.924147,666.185348,9844.739029
2718.146735,1225.752797,592.164754,8808.450710
2718.147064,459.657299,-1406.391290,8068.244768
2718.147393,0.000000,-518.144159,10732.986159
2718.147722,76.609550,-1184.329507,10436.903782
2718.148051,-306.438199,-1036.288319,8438.347739
2718.148380,-766.095498,-1332.370696,9770.718434
2718.148709,-306.438199,444.123565,9400.615463
2718.149038,0.000000,444.123565,8512.368333
2718.149367,153.219100,-148.041188,9104.533087
2718.149696,612.876398,666.185348,9844.739029
2718.150025,995.924147,-0.000000,8364.327145
2718.150354,536.266849,222.061783,6291.750507
2718.150683,306.438199,296.082377,9770.718434
2718.151012,153.219100,518.144159,8142.265362
2718.151341,76.609550,-0.000000,7105.977043
2718.151670,459.657299,-1110.308913,9252.574275
2718.151999,612.876398,-592.164754,9548.656652
2718.152328,383.047749,-518.144159,8438.347739
2718.152657,-229.828649,-1258.350101,8512.368333
2718.152986,-459.657299,-592.164754,9548.656652
2718.153316,-383.047749,-444.123565,9178.553681
2718.153645,0.000000,-222.061783,8142.265362
2718.153974,-306.438199,-222.061783,10140.821405
2718.154303,306.438199,296.082377,9622.677246
2718.154632,766.095498,-666.185348,9030.512492
2718.154961,536.266849,-1036.288319,8808.450710
2718.155290,0.000000,1554.432478,10584.944971
2718.155619,1455.581446,-1554.432478,8216.285956
2718.155948,-612.876398,-74.020594,7105.977043
2718.156277,1838.629195,-0.000000,10955.047942
2718.156606,1532.190996,-1480.411884,8512.368333
2718.156935,1225.752797,-370.102971,7698.141797
2718.157264,1608.800546,-0.000000,10214.842000
2718.157593,1455.581446,-222.061783,8512.368333
2718.157922,689.485948,-148.041188,7994.224174
2718.158251,1762.019645,-296.082377,9252.574275
2718.158580,1149.143247,962.267725,9696.697840
2718.158909,536.266849,-444.123565,8734.430116
2718.159238,612.876398,-222.061783,9326.594869
2718.159567,0.000000,962.267725,9474.636058
2718.159896,0.000000,-444.123565,9178.553681
2718.160225,-842.705048,-1406.391290,8882.471304
2718.160554,-1302.362347,-296.082377,11547.212695
2718.160883,76.609550,-1406.391290,9696.697840
2718.161212,-229.828649,-518.144159,7624.121203
2718.161541,-383.047749,-666.185348,9844.739029
2718.161870,306.438199,296.082377,9252.574275
2718.162199,1149.143247,222.061783,7550.100608
2718.162528,766.095498,148.041188,9178.553681
2718.162857,1532.190996,888.247130,8882.471304
2718.163186,1072.533697,666.185348,7550.100608
2718.163515,153.219100,444.123565,8068.244768
2718.163845,-1225.752797,962.267725,9992.780217
2718.164174,-1072.533697,-148.041188,8734.430116
2718.164503,-919.314598,-962.267725,9104.533087
2718.164832,-1149.143247,-1332.370696,10584.944971
2718.165161,-995.924147,-444.123565,9770.718434
2718.165490,-842.705048,-1628.453072,8290.306550
2718.165819,-995.924147,-444.123565,9622.677246
2718.166148,-383.047749,-518.144159,10584.944971
2718.166477,0.000000,-666.185348,8512.368333
2718.166806,766.095498,-0.000000,7772.162391
2718.167135,1685.410096,296.082377,9400.615463
2718.167464,1532.190996,962.267725,7402.059420
2718.167793,1685.410096,444.123565,8216.285956
2718.168122,689.485948,444.123565,9474.636058
2718.168451,0.000000,1110.308913,8882.471304
2718.168780,-153.219100,-296.082377,9030.512492
2718.169109,0.000000,-518.144159,10140.821405
2718.169438,-383.047749,-148.041188,10140.821405
2718.169767,0.000000,-1332.370696,9178.553681
2718.170096,-1072.533697,-1110.308913,9548.656652
2718.170425,0.000000,-444.123565,10732.986159
2718.170754,229.828649,-296.082377,8808.450710
2718.171083,0.000000,-444.123565,8808.450710
2718.171412,766.095498,-148.041188,9992.780217
2718.171741,1149.143247,1332.370696,7994.224174
2718.172070,383.047749,518.144159,8068.244768
2718.172399,-306.438199,222.061783,9474.636058
2718.172728,306.438199,592.164754,10066.800811
2718.173057,-306.438199,-666.185348,8808.450710
2718.173386,-1302.362347,-740.205942,9992.780217
2718.173715,-1302.362347,-888.247130,11251.130318
2718.174044,-1149.143247,-1332.370696,10288.862594
2718.174374,-842.705048,-518.144159,8956.491898
2718.174703,76.609550,-0.000000,10362.883188
2718.175032,1378.971896,148.041188,8660.409521
2718.175361,1685.410096,74.020594,7624.121203
2718.175690,1532.190996,444.123565,9178.553681
2718.176019,2681.334243,444.123565,7994.224174
2718.176348,1838.629195,740.205942,6661.853478
2718.176677,536.266849,-0.000000,8956.491898
2718.177006,612.876398,-370.102971,9178.553681
2718.177335,766.095498,-888.247130,7846.182985
2718.177664,1072.533697,-1776.494261,8882.471304
2718.177993,306.438199,-2294.638420,10955.047942
2718.178322,0.000000,-1776.494261,9104.533087
2718.178651,229.828649,-1110.308913,8660.409521
2718.178980,536.266849,-0.000000,9622.677246
2718.179309,1608.800546,1036.288319,9178.553681
2718.179638,1915.238745,370.102971,7920.203579
2718.179967,1608.800546,1406.391290,10510.924376
2718.180296,3294.210641,1184.329507,9326.594869
2718.180625,2221.676944,740.205942,6439.791695
2718.180954,1455.581446,962.267725,8142.265362
2718.181283,1455.581446,814.226536,9622.677246
2718.181612,76.609550,444.123565,8586.388927
2718.181941,-689.485948,-1554.432478,9326.594869
2718.182270,-1608.800546,-1998.556043,11325.150913
2718.182599,-919.314598,-1702.473667,8956.491898
2718.182928,-995.924147,-444.123565,8734.430116
2718.183257,-995.924147,-1628.453072,10288.862594
2718.183586,-995.924147,222.061783,9400.615463
2718.183915,0.000000,-74.020594,8512.368333
2718.184244,1378.971896,-0.000000,9770.718434
2718.184574,1838.629195,1184.329507,8586.388927
2718.184903,2604.724693,1554.432478,7402.059420
2718.185232,995.924147,1406.391290,7179.997637
2718.185561,689.485948,296.082377,9622.677246
2718.185890,-229.828649,666.185348,7624.121203
2718.186219,-229.828649,-518.144159,8068.244768
2718.186548,-1225.752797,-1036.288319,10288.862594
2718.186877,-1225.752797,-1628.453072,10732.986159
2718.187206,-1762.019645,-1184.329507,9400.615463
2718.187535,-1915.238745,-2368.659014,10066.800811
2718.187864,-995.924147,-222.061783,10214.842000
2718.188193,-919.314598,-1406.391290,8882.471304
2718.188522,-766.095498,-222.061783,10510.924376
2718.188851,536.266849,-296.082377,10510.924376
2718.189180,1532.190996,888.247130,7624.121203
2718.189509,1915.238745,888.247130,6587.832884
2718.189838,1762.019645,1924.535449,8586.388927
2718.190167,1378.971896,1924.535449,8734.430116
2718.190496,766.095498,296.082377,8586.388927
2718.190825,995.924147,-0.000000,9474.636058
2718.191154,0.000000,-1258.350101,10436.903782
2718.191483,-1378.971896,-1036.288319,8068.244768
2718.191812,-1455.581446,-1850.514855,10436.903782
2718.192141,-1685.410096,-1332.370696,10658.965565
2718.192470,-1378.971896,-1258.350101,9104.533087
2718.192799,153.219100,-1036.288319,9400.615463
2718.193128,0.000000,-0.000000,10140.821405
2718.193457,766.095498,1184.329507,8882.471304
2718.193786,1149.143247,444.123565,6957.935855
2718.194115,842.705048,1332.370696,8882.471304
2718.194444,1072.533697,962.267725,8290.306550
2718.194773,383.047749,518.144159,7031.956449
2718.195103,229.828649,-592.164754,9992.780217
2718.195432,76.609550,-444.123565,9992.780217
2718.195761,-459.657299,-1554.432478,8512.368333
2718.196090,-1302.362347,-2072.576638,9252.574275
2718.196419,-1149.143247,-1628.453072,10362.883188
2718.196748,-1225.752797,-888.247130,9844.739029
2718.197077,383.047749,-1036.288319,8808.450710
2718.197406,919.314598,-0.000000,9474.636058
2718.197735,1685.410096,296.082377,9326.594869
2718.198064,1378.971896,1184.329507,6735.874072
2718.198393,2221.676944,814.226536,8142.265362
2718.198722,2145.067394,962.267725,8734.430116
2718.199051,2145.067394,888.247130,7772.162391
2718.199380,306.438199,-444.123565,8290.306550
2718.199709,306.438199,-1332.370696,11399.171507
2718.200038,612.876398,-814.226536,9104.533087
2718.200367,0.000000,-1406.391290,8882.471304
2718.200696,0.000000,-444.123565,10584.944971
2718.201025,842.705048,148.041188,9548.656652
2718.201354,1532.190996,-666.185348,8512.368333
2718.201683,1302.362347,-222.061783,9400.615463
2718.202012,2451.505594,666.185348,10510.924376
2718.202341,1608.800546,1110.308913,7105.977043
2718.202670,766.095498,962.267725,7698.141797
2718.202999,919.314598,962.267725,10288.862594
2718.203328,1149.143247,148.041188,8586.388927
2718.203657,536.266849,-0.000000,8808.450710
2718.203986,383.047749,-962.267725,11029.068536
2718.204315,-383.047749,-962.267725,9030.512492
2718.204644,-689.485948,-888.247130,8882.471304
2718.204973,-995.924147,-0.000000,9474.636058
2718.205302,-383.047749,-592.164754,10066.800811
2718.205632,0.000000,-1628.453072,9104.533087
2718.205961,0.000000,-296.082377,8808.450710
2718.206290,1532.190996,-444.123565,10140.821405
2718.206619,842.705048,370.102971,7402.059420
2718.206948,459.657299,888.247130,7624.121203
2718.207277,0.000000,1110.308913,9918.759623
2718.207606,0.000000,1702.473667,8290.306550
2718.207935,-1149.143247,-592.164754,7994.224174
2718.208264,-766.095498,-740.205942,11029.068536
2718.208593,-306.438199,-962.267725,10584.944971
2718.208922,-995.924147,-962.267725,8216.285956
2718.209251,-1378.971896,-1258.350101,10288.862594
2718.209580,-536.266849,-740.205942,10140.821405
2718.209909,0.000000,-888.247130,8586.388927
2718.210238,459.657299,-962.267725,9178.553681
2718.210567,2298.286494,-222.061783,8512.368333
2718.210896,2911.162892,-74.020594,6957.935855
2718.211225,2528.115143,1036.288319,7179.997637
2718.211554,2528.115143,1184.329507,7920.203579
2718.211883,1915.238745,1036.288319,7698.141797
2718.212212,1532.190996,1406.391290,7031.956449
2718.212541,1072.533697,-148.041188,9474.636058
2718.212870,383.047749,-1110.308913,9770.718434
2718.213199,-229.828649,-1406.391290,9770.718434
2718.213528,-1378.971896,-1628.453072,10066.800811
2718.213857,-2451.505594,-518.144159,10436.903782
2718.214186,-995.924147,-1776.494261,10510.924376
2718.214515,-766.095498,-740.205942,7994.224174
2718.214844,-689.485948,-222.061783,10732.986159
2718.215173,1685.410096,-1036.288319,9178.553681
2718.215502,1378.971896,592.164754,7476.080014
2718.215831,1532.190996,518.144159,9474.636058
2718.216161,2451.505594,2146.597232,8290.306550
2718.216490,1838.629195,1480.411884,6735.874072
2718.216819,842.705048,1110.308913,9030.512492
2718.217148,1991.848295,-222.061783,9992.780217
2718.217477,229.828649,-0.000000,8808.450710
2718.217806,-919.314598,-1110.308913,9252.574275
2718.218135,-1532.190996,-1480.411884,11103.089130
2718.218464,-1149.143247,-518.144159,9918.759623
2718.218793,-1149.143247,-814.226536,8882.471304
2718.219122,-459.657299,-666.185348,10140.821405
2718.219451,-306.438199,444.123565,10510.924376
2718.219780,689.485948,444.123565,8142.265362
2718.220109,1302.362347,-518.144159,8660.409521
2718.220438,1532.190996,1332.370696,8068.244768
2718.220767,2068.457845,1036.288319,7105.977043
2718.221096,1532.190996,370.102971,8882.471304
2718.221425,1532.190996,148.041188,9696.697840
2718.221755,1149.143247,-370.102971,8068.244768
2718.222084,459.657299,-444.123565,9252.574275
2718.222413,-306.438199,-1702.473667,10658.965565
2718.222742,-689.485948,-518.144159,9474.636058
2718.223071,0.000000,-962.267725,9326.594869
2718.223400,0.000000,-1036.288319,9844.739029
2718.223730,306.438199,592.164754,9844.739029
2718.224059,536.266849,-74.020594,8956.491898
2718.224388,536.266849,444.123565,8438.347739
2718.224717,459.657299,-0.000000,9696.697840
2718.225046,383.047749,814.226536,7402.059420
2718.225376,-689.485948,-296.082377,7772.162391
2718.225705,-383.047749,-0.000000,9696.697840
2718.226034,-536.266849,-1406.391290,9844.739029
2718.226363,-1149.143247,-222.061783,8438.347739
2718.226692,-1225.752797,-740.205942,9474.636058
2718.227022,-612.876398,-740.205942,9992.780217
2718.227351,153.219100,-1184.329507,8734.430116
2718.227680,229.828649,-1184.329507,8734.430116
2718.228009,1378.971896,-296.082377,9992.780217
2718.228338,995.924147,518.144159,7624.121203
2718.228668,612.876398,370.102971,7772.162391
2718.228997,306.438199,1110.308913,9030.512492
2718.229326,919.314598,1480.411884,7920.203579
2718.229655,842.705048,-74.020594,7476.080014
2718.229984,-153.219100,-0.000000,9622.677246
2718.230314,-383.047749,-1036.288319,9326.594869
2718.230643,-766.095498,-1628.453072,8290.306550
2718.230972,-995.924147,-666.185348,8808.450710
2718.231301,-919.314598,-1702.473667,9696.697840
2718.231630,-766.095498,-1110.308913,9030.512492
2718.231959,153.219100,-1332.370696,9104.533087
2718.232289,1838.629195,-1036.288319,10510.924376
2718.232618,1838.629195,370.102971,8808.450710
2718.232947,2681.334243,1628.453072,7994.224174
2718.233276,2374.896044,1702.473667,9326.594869
2718.233605,2145.067394,2738.761985,9104.533087
2718.233935,2374.896044,1998.556043,7772.162391
2718.234264,1762.019645,962.267725,9326.594869
2718.234593,1838.629195,222.061783,9622.677246
2718.234922,1302.362347,296.082377,8660.409521
2718.235251,-306.438199,-888.247130,9844.739029
2718.235581,-1378.971896,-1924.535449,10881.027347
2718.235910,-842.705048,-0.000000,8956.491898
2718.236239,0.000000,-1628.453072,8734.430116
2718.236568,-1072.533697,-1776.494261,9400.615463
2718.236897,0.000000,-74.020594,11547.212695
2718.237227,1149.143247,-1332.370696,9474.636058
2718.237556,76.609550,592.164754,8290.306550
2718.237885,1378.971896,1110.308913,9178.553681
2718.238214,2068.457845,1628.453072,7624.121203
2718.238543,1608.800546,814.226536,8734.430116
2718.238872,2451.505594,814.226536,9696.697840
2718.239202,1838.629195,-222.061783,7254.018232
2718.239531,-229.828649,370.102971,8734.430116
2718.239860,-153.219100,-1036.288319,9844.739029
2718.240189,-766.095498,-592.164754,9104.533087
2718.240518,-1378.971896,-2072.576638,8586.388927
2718.240848,-1072.533697,-2220.617826,9844.739029
2718.241177,-1378.971896,-1998.556043,9622.677246
2718.241506,-842.705048,-1406.391290,8808.450710
2718.241835,-995.924147,-296.082377,7550.100608
2718.242164,229.828649,-0.000000,9918.759623
2718.242494,-306.438199,-148.041188,7328.038826
2718.242823,76.609550,444.123565,8734.430116
2718.243152,1072.533697,-370.102971,9918.759623
2718.243481,1608.800546,-148.041188,7550.100608
2718.243810,1838.629195,444.123565,7402.059420
2718.244140,995.924147,222.061783,9474.636058
2718.244469,1378.971896,-0.000000,8142.265362
2718.244798,383.047749,-222.061783,8734.430116
2718.245127,536.266849,-0.000000,8586.388927
2718.245456,306.438199,-814.226536,9252.574275
2718.245785,0.000000,-518.144159,9400.615463
2718.246115,-919.314598,-444.123565,8660.409521
2718.246444,-919.314598,-0.000000,9918.759623
2718.246773,-1838.629195,-592.164754,9622.677246
2718.247102,-995.924147,-592.164754,9400.615463
2718.247431,-842.705048,-888.247130,10732.986159
2718.247761,-306.438199,-518.144159,9400.615463
2718.248090,-612.876398,-518.144159,8660.409521
2718.248419,-459.657299,-592.164754,9992.780217
2718.248748,306.438199,-0.000000,10288.862594
2718.249077,0.000000,296.082377,9326.594869
2718.249407,229.828649,-814.226536,8882.471304
2718.249736,536.266849,888.247130,10140.821405
2718.250065,1838.629195,-370.102971,8808.450710
2718.250394,383.047749,740.205942,6957.935855
2718.250723,306.438199,-148.041188,10436.903782
2718.251053,-536.266849,296.082377,8512.368333
2718.251382,76.609550,-0.000000,8290.306550
2718.251711,0.000000,-888.247130,9474.636058
2718.252040,0.000000,-296.082377,9918.759623
2718.252369,-306.438199,-962.267725,9178.553681
2718.252698,76.609550,-222.061783,9622.677246
2718.253028,689.485948,-666.185348,9622.677246
2718.253357,1608.800546,-0.000000,8586.388927
2718.253686,1532.190996,370.102971,8660.409521
2718.254015,1991.848295,370.102971,9548.656652
2718.254344,2604.724693,666.185348,8142.265362
2718.254674,2374.896044,1480.411884,7328.038826
2718.255003,1762.019645,888.247130,8882.471304
2718.255332,229.828649,-74.020594,9770.718434
2718.255661,459.657299,-1258.350101,9696.697840
2718.255990,612.876398,-2072.576638,9178.553681
2718.256320,1838.629195,222.061783,9474.636058
2718.256649,689.485948,-666.185348,8290.306550
2718.256978,766.095498,-0.000000,8734.430116
2718.257307,1149.143247,296.082377,9548.656652
2718.257636,1149.143247,296.082377,8512.368333
2718.257966,2145.067394,-0.000000,8142.265362
2718.258295,1225.752797,-222.061783,9770.718434
2718.258624,766.095498,-0.000000,8808.450710
2718.258953,459.657299,-0.000000,8734.430116
2718.259282,153.219100,-0.000000,9104.533087
2718.259611,0.000000,-296.082377,9326.594869
2718.259941,-306.438199,-888.247130,9992.780217
2718.260270,-383.047749,-888.247130,8882.471304
2718.260599,0.000000,-1406.391290,9770.718434
2718.260928,536.266849,-444.123565,9474.636058
2718.261257,-995.924147,592.164754,7772.162391
2718.261587,-842.705048,-518.144159,9400.615463
2718.261916,0.000000,148.041188,8438.347739
2718.262245,-153.219100,814.226536,7698.141797
2718.262574,153.219100,-1332.370696,9696.697840
2718.262903,153.219100,-592.164754,9770.718434
2718.263233,306.438199,-740.205942,9474.636058
2718.263562,-1072.533697,-0.000000,8068.244768
2718.263891,-306.438199,370.102971,9474.636058
2718.264220,-842.705048,-1036.288319,9474.636058
2718.264549,-229.828649,-222.061783,8734.430116
2718.264879,0.000000,-1480.411884,10362.883188
2718.265208,229.828649,-1036.288319,8512.368333
2718.265537,612.876398,-148.041188,7179.997637
2718.265866,919.314598,-888.247130,9696.697840
2718.266195,612.876398,518.144159,8438.347739
2718.266524,1302.362347,-0.000000,7920.203579
2718.266854,1149.143247,-0.000000,8216.285956
2718.267183,842.705048,592.164754,9030.512492
2718.267512,766.095498,-0.000000,8512.368333
2718.267841,0.000000,-518.144159,8734.430116
2718.268170,-995.924147,-444.123565,9992.780217
2718.268500,-919.314598,-0.000000,9400.615463
2718.268829,-1685.410096,-222.061783,8512.368333
2718.269158,-306.438199,-1850.514855,11399.171507
2718.269487,0.000000,-518.144159,9400.615463
2718.269816,-1149.143247,-666.185348,9178.553681
2718.270146,-689.485948,-1628.453072,9770.718434
2718.270475,459.657299,740.205942,9474.636058
2718.270804,459.657299,-0.000000,9104.533087
2718.271133,995.924147,740.205942,8216.285956
2718.271462,1149.143247,-222.061783,9844.739029
2718.271792,1532.190996,962.267725,8512.368333
2718.272121,1915.238745,-0.000000,7550.100608
2718.272450,0.000000,1554.432478,9104.533087
2718.272779,-229.828649,-148.041188,9474.636058
2718.273108,-306.438199,296.082377,9178.553681
2718.273438,-612.876398,-888.247130,9548.656652
2718.273767,306.438199,-518.144159,9992.780217
2718.274096,0.000000,-1480.411884,9474.636058
2718.274425,0.000000,-814.226536,9770.718434
2718.274754,306.438199,-74.020594,9474.636058
2718.275083,2145.067394,222.061783,7994.224174
2718.275413,1378.971896,-0.000000,8290.306550
2718.275742,2374.896044,888.247130,9844.739029
2718.276071,3064.381992,444.123565,9030.512492
2718.276400,2528.115143,1184.329507,7328.038826
2718.276729,1532.190996,1258.350101,8512.368333
2718.277059,1762.019645,666.185348,9400.615463
2718.277388,1455.581446,-222.061783,8660.409521
2718.277717,459.657299,-0.000000,9104.533087
2718.278046,536.266849,-444.123565,10584.944971
2718.278375,689.485948,-814.226536,9326.594869
2718.278705,-383.047749,148.041188,9104.533087
2718.279034,-153.219100,-1036.288319,10362.883188
2718.279363,1072.533697,-444.123565,9400.615463
2718.279692,536.266849,-1184.329507,8586.388927
2718.280021,842.705048,-296.082377,9104.533087
2718.280351,1455.581446,222.061783,9178.553681
2718.280680,689.485948,296.082377,7624.121203
2718.281009,-306.438199,148.041188,8512.368333
2718.281338,0.000000,-148.041188,10214.842000
2718.281667,-306.438199,-1036.288319,8586.388927
2718.281996,-459.657299,-1258.350101,8956.491898
2718.282326,-842.705048,-1702.473667,11177.109724
2718.282655,-1072.533697,-1110.308913,9178.553681
2718.282984,-919.314598,-962.267725,8512.368333
2718.283313,-766.095498,-1628.453072,9918.759623
2718.283642,-1149.143247,-222.061783,9844.739029
2718.283972,0.000000,-1036.288319,7550.100608
2718.284301,536.266849,-814.226536,7624.121203
2718.284630,919.314598,-0.000000,9030.512492
2718.284959,766.095498,296.082377,7402.059420
2718.285288,689.485948,-0.000000,7031.956449
2718.285618,-612.876398,444.123565,8290.306550
2718.285947,459.657299,518.144159,8290.306550
2718.286276,-229.828649,-1628.453072,8290.306550
2718.286605,-689.485948,-1554.432478,9548.656652
2718.286934,0.000000,-1110.308913,9178.553681
2718.287264,0.000000,-962.267725,8808.450710
2718.287593,0.000000,-962.267725,9474.636058
2718.287922,383.047749,222.061783,9030.512492
2718.288251,1225.752797,444.123565,8586.388927
2718.288580,1455.581446,962.267725,8808.450710
2718.288909,2451.505594,814.226536,9474.636058
2718.289239,1915.238745,962.267725,8290.306550
2718.289568,1149.143247,1184.329507,7328.038826
2718.289897,689.485948,-74.020594,9844.739029
2718.290226,0.000000,1110.308913,9918.759623
2718.290555,306.438199,-148.041188,8882.471304
2718.290885,-689.485948,-444.123565,10214.842000
2718.291214,-995.924147,-814.226536,10881.027347
2718.291543,-306.438199,-1776.494261,11177.109724
2718.291872,-689.485948,-370.102971,10066.800811
2718.292201,0.000000,-370.102971,9992.780217
2718.292531,1149.143247,-0.000000,9548.656652
2718.292860,383.047749,-0.000000,8068.244768
2718.293189,1685.410096,148.041188,10362.883188
2718.293518,2987.772442,1406.391290,7920.203579
2718.293847,1149.143247,1998.556043,7402.059420
2718.294177,919.314598,740.205942,9548.656652
2718.294506,383.047749,888.247130,9104.533087
2718.294835,0.000000,148.041188,7772.162391
2718.295164,612.876398,-1258.350101,9622.677246
2718.295493,-689.485948,-1184.329507,9474.636058
2718.295822,-995.924147,-2516.700203,9992.780217
2718.296152,-1302.362347,-888.247130,8660.409521
2718.296481,-383.047749,-1036.288319,9326.594869
2718.296810,-306.438199,-296.082377,8882.471304
2718.297139,689.485948,-148.041188,8882.471304
2718.297468,1149.143247,-370.102971,9548.656652
2718.297798,1838.629195,740.205942,7624.121203
2718.298127,2834.553343,666.185348,6069.688724
2718.298456,1685.410096,1480.411884,9178.553681
2718.298785,1532.190996,1110.308913,9326.594869
2718.299114,1991.848295,962.267725,6957.935855
2718.299444,306.438199,-296.082377,8586.388927
2718.299773,536.266849,-0.000000,9326.594869
2718.300102,229.828649,-1110.308913,9030.512492
2718.300431,-1685.410096,-0.000000,9030.512492
2718.300760,-2528.115143,-666.185348,10066.800811
2718.301090,-2221.676944,-222.061783,9030.512492
2718.301419,-3294.210641,-1036.288319,8364.327145
2718.301748,-2604.724693,-740.205942,9844.739029
2718.302077,-2451.505594,-74.020594,9474.636058
2718.302406,-3140.991542,-592.164754,9178.553681
2718.302735,-4290.134789,-1406.391290,8512.368333
2718.303065,-4136.915689,-592.164754,10214.842000
2718.303394,-4136.915689,-0.000000,8808.450710
2718.303723,-4290.134789,-1258.350101,9326.594869
2718.304052,-4136.915689,-1332.370696,10510.924376
2718.304381,-3217.601092,-1406.391290,9474.636058
2718.304711,-3524.039291,-592.164754,8512.368333
2718.305040,-4136.915689,-1406.391290,9622.677246
2718.305369,-3294.210641,-814.226536,9400.615463
2718.305698,-2451.505594,-148.041188,8290.306550
2718.306027,-2834.553343,-666.185348,8290.306550
2718.306357,-2604.724693,-0.000000,9104.533087
2718.306686,-2145.067394,-370.102971,9030.512492
2718.307015,-1991.848295,-0.000000,7772.162391
2718.307344,-2145.067394,296.082377,8438.347739
2718.307673,-1915.238745,740.205942,7994.224174
2718.308003,-2298.286494,222.061783,7624.121203
2718.308332,-1762.019645,518.144159,8882.471304
2718.308661,-1762.019645,-888.247130,9548.656652
2718.308990,-1991.848295,-1258.350101,9992.780217
2718.309319,-2374.896044,-518.144159,9770.718434
2718.309648,-1302.362347,-666.185348,10066.800811
2718.309978,-1762.019645,-222.061783,9474.636058
2718.310307,-689.485948,592.164754,8438.347739
2718.310636,-306.438199,1036.288319,8438.347739
2718.310965,459.657299,666.185348,8586.388927
2718.311294,229.828649,1184.329507,7772.162391
2718.311624,-306.438199,888.247130,7254.018232
2718.311953,-2451.505594,1480.411884,9104.533087
2718.312282,-2681.334243,222.061783,9252.574275
2718.312611,-3983.696590,-370.102971,9252.574275
2718.312940,-3753.867940,-592.164754,9770.718434
2718.313270,-4213.525239,-592.164754,8882.471304
2718.313599,-4596.572988,-2516.700203,10362.883188
2718.313928,-5745.716235,-2442.679609,10955.047942
2718.314257,-4673.182538,-1554.432478,11843.295072
2718.314586,-4443.353888,-1110.308913,10881.027347
2718.314916,-4060.306139,-1406.391290,9770.718434
2718.315245,-3064.381992,-0.000000,9992.780217
2718.315574,-1378.971896,1776.494261,8438.347739
2718.315903,-1225.752797,814.226536,7328.038826
2718.316232,-2451.505594,814.226536,8290.306550
2718.316561,-1685.410096,74.020594,9844.739029
2718.316891,-1608.800546,2072.576638,6291.750507
2718.317220,-689.485948,1850.514855,7031.956449
2718.317549,-2757.943793,-0.000000,7328.038826
2718.317878,-2834.553343,-518.144159,9400.615463
2718.318207,-3064.381992,148.041188,9326.594869
2718.318537,-2451.505594,-370.102971,7550.100608
2718.318866,-3294.210641,-2220.617826,9178.553681
2718.319195,-4213.525239,-2442.679609,10807.006753
2718.319524,-4903.011187,-2146.597232,11251.130318
2718.319853,-4136.915689,-1480.411884,10732.986159
2718.320183,-1762.019645,-518.144159,8734.430116
2718.320512,-1838.629195,296.082377,9326.594869
2718.320841,-2221.676944,1628.453072,9992.780217
2718.321170,-2221.676944,1332.370696,8216.285956
2718.321499,-1225.752797,962.267725,9696.697840
2718.321829,-536.266849,888.247130,7105.977043
2718.322158,0.000000,1258.350101,7328.038826
2718.322487,-1455.581446,-444.123565,7994.224174
2718.322816,-1225.752797,666.185348,7105.977043
2718.323145,-2298.286494,-518.144159,8660.409521
2718.323475,-3447.429741,-1184.329507,9770.718434
2718.323804,-2987.772442,-2072.576638,8808.450710
2718.324133,-3370.820191,-2294.638420,10584.944971
2718.324462,-4519.963438,-2072.576638,9474.636058
2718.324792,-4366.744339,-1480.411884,10955.047942
2718.325121,-4290.134789,-2368.659014,11843.295072
2718.325450,-3294.210641,-1702.473667,10955.047942
2718.325779,-2757.943793,-1036.288319,10807.006753
2718.326109,-2068.457845,444.123565,8808.450710
2718.326438,-1991.848295,1480.411884,7920.203579
2718.326767,-1149.143247,962.267725,8882.471304
2718.327096,-1072.533697,1332.370696,7846.182985
2718.327426,-766.095498,-740.205942,8290.306550
2718.327755,-919.314598,-148.041188,7402.059420
2718.328084,-766.095498,1480.411884,6809.894666
2718.328413,-1915.238745,518.144159,6735.874072
2718.328743,-2068.457845,-296.082377,8216.285956
2718.329072,-1991.848295,-1110.308913,9252.574275
2718.329401,-2451.505594,-2072.576638,9474.636058
2718.329731,-2987.772442,-518.144159,9548.656652
2718.330060,-3830.477490,740.205942,9030.512492
2718.330389,-3907.087040,1110.308913,8660.409521
2718.330718,-3753.867940,1332.370696,9474.636058
2718.331048,-3753.867940,-148.041188,10140.821405
2718.331377,-4596.572988,-0.000000,10288.862594
2718.331706,-4903.011187,-0.000000,9770.718434
2718.332035,-4749.792088,-444.123565,8808.450710
2718.332365,-4290.134789,-1628.453072,9696.697840
2718.332694,-3753.867940,-1776.494261,9474.636058
2718.333023,-2681.334243,-1184.329507,9326.594869
2718.333352,-2221.676944,-1184.329507,8882.471304
2718.333682,-2068.457845,-444.123565,8290.306550
2718.334011,-1762.019645,740.205942,8512.368333
2718.334340,-1685.410096,370.102971,9474.636058
2718.334669,-1991.848295,296.082377,9326.594869
2718.334999,-1838.629195,444.123565,9844.739029
2718.335328,-2221.676944,888.247130,10140.821405
2718.335657,-2221.676944,370.102971,9918.759623
2718.335986,-1608.800546,370.102971,9622.677246
2718.336316,-2145.067394,296.082377,9474.636058
2718.336645,-1532.190996,-0.000000,9474.636058
2718.336974,-2068.457845,296.082377,9178.553681
2718.337303,-1378.971896,592.164754,8142.265362
2718.337633,-1532.190996,-74.020594,8364.327145
2718.337962,-1838.629195,-666.185348,8216.285956
2718.338291,-2451.505594,-1036.288319,8290.306550
2718.338620,-2757.943793,-1406.391290,8882.471304
2718.338950,-3294.210641,-666.185348,9030.512492
2718.339279,-3753.867940,-666.185348,9622.677246
2718.339608,-4290.134789,296.082377,9696.697840
2718.339937,-4826.401637,-0.000000,9622.677246
2718.340267,-5439.278036,-222.061783,10214.842000
2718.340596,-4673.182538,-962.267725,10510.924376
2718.340925,-3983.696590,-1480.411884,10066.800811
2718.341254,-2681.334243,-1628.453072,9992.780217
2718.341584,-1149.143247,-1184.329507,9474.636058
2718.341913,-689.485948,-0.000000,6883.915261
2718.342242,-1455.581446,888.247130,7698.141797
2718.342571,383.047749,-74.020594,10066.800811
2718.342901,612.876398,1924.535449,5107.421000
2718.343230,2145.067394,2294.638420,7179.997637
2718.343559,536.266849,1850.514855,4811.338623
2718.343889,0.000000,1406.391290,7328.038826
2718.344218,-2451.505594,-370.102971,9992.780217
2718.344547,-3600.648841,-1110.308913,10362.883188
2718.344876,-3677.258390,-1776.494261,9844.739029
2718.345206,-5669.106685,-888.247130,9622.677246
2718.345535,-7201.297681,-2664.741391,11399.171507
2718.345864,-8350.440928,-2442.679609,12879.583391
2718.346193,-6052.154434,-1998.556043,12657.521608
2718.346523,-4366.744339,-1776.494261,11325.150913
2718.346852,-2298.286494,-888.247130,9622.677246
2718.347181,-1072.533697,1628.453072,7994.224174
2718.347510,-919.314598,1480.411884,5477.523971
2718.347840,306.438199,-0.000000,10658.965565
2718.348169,2604.724693,1628.453072,6735.874072
2718.348498,4290.134789,1924.535449,6217.729913
2718.348827,2604.724693,1480.411884,6809.894666
2718.349157,689.485948,2294.638420,5921.647536
2718.349486,-612.876398,-518.144159,10288.862594
2718.349815,-2757.943793,296.082377,8956.491898
2718.350144,-1838.629195,-1258.350101,11103.089130
2718.350474,-2834.553343,-1554.432478,10288.862594
2718.350803,-4519.963438,222.061783,7994.224174
2718.351132,-6511.811733,-2960.823768,11621.233289
2718.351461,-7277.907231,-962.267725,10510.924376
2718.351791,-5362.668486,-2368.659014,11251.130318
2718.352120,-5056.230287,-2368.659014,9474.636058
2718.352449,-3677.258390,-592.164754,8808.450710
2718.352778,-3600.648841,-1998.556043,9252.574275
2718.353108,-2604.724693,-2072.576638,8142.265362
2718.353437,-1991.848295,592.164754,8216.285956
2718.353766,-1072.533697,-0.000000,7846.182985
2718.354095,-1378.971896,-0.000000,8956.491898
2718.354425,-2451.505594,444.123565,9548.656652
2718.354754,-2528.115143,592.164754,8734.430116
2718.355083,-2911.162892,592.164754,8734.430116
2718.355412,-2451.505594,592.164754,8882.471304
2718.355742,-2451.505594,1406.391290,9326.594869
2718.356071,-2298.286494,1258.350101,8660.409521
2718.356400,-2834.553343,444.123565,8216.285956
2718.356730,-3064.381992,296.082377,8290.306550
2718.357059,-2757.943793,370.102971,7994.224174
2718.357388,-2221.676944,-0.000000,7328.038826
2718.357717,-2145.067394,148.041188,7994.224174
2718.358047,-2757.943793,666.185348,8068.244768
2718.358376,-2451.505594,222.061783,8660.409521
2718.358705,-3677.258390,1480.411884,8660.409521
2718.359034,-3600.648841,1628.453072,9696.697840
2718.359364,-3753.867940,888.247130,9770.718434
2718.359693,-4290.134789,1110.308913,10436.903782
2718.360022,-4443.353888,370.102971,11029.068536
2718.360351,-4903.011187,-0.000000,11769.274478
2718.360681,-3677.258390,-148.041188,10955.047942
2718.361010,-2298.286494,592.164754,9770.718434
2718.361339,-612.876398,740.205942,9474.636058
2718.361668,-766.095498,1554.432478,7550.100608
2718.361998,-612.876398,592.164754,10732.986159
2718.362327,766.095498,1480.411884,9992.780217
2718.362656,2681.334243,3775.050304,5699.585753
2718.362985,4596.572988,3256.906145,7105.977043
2718.363315,3600.648841,4663.297435,5107.421000
2718.363644,3600.648841,4589.276840,7402.059420
2718.363973,2374.896044,3775.050304,7624.121203
2718.364302,1915.238745,4145.153275,8438.347739
2718.364632,1532.190996,2072.576638,9622.677246
2718.364961,-536.266849,2664.741391,9918.759623
2718.365290,-2221.676944,1110.308913,11769.274478
2718.365619,-2451.505594,962.267725,11177.109724
2718.365949,-306.438199,1036.288319,11103.089130
2718.366278,-995.924147,1258.350101,10732.986159
2718.366607,919.314598,2664.741391,10362.883188
2718.366936,919.314598,3552.988522,7994.224174
2718.367266,2451.505594,2294.638420,7772.162391
2718.367595,2604.724693,5033.400406,6809.894666
2718.367924,2681.334243,5551.544565,6365.771101
2718.368253,2757.943793,5329.482782,7698.141797
2718.368583,1225.752797,5625.565159,7402.059420
2718.368912,76.609550,3108.864956,8882.471304
2718.369241,-2221.676944,2294.638420,9400.615463
2718.369571,-3677.258390,592.164754,10807.006753
2718.369900,-3217.601092,-0.000000,12731.542202
2718.370229,-3370.820191,2294.638420,9918.759623
2718.370558,-2757.943793,2664.741391,9992.780217
2718.370888,-3370.820191,2442.679609,10362.883188
2718.371217,-2987.772442,2960.823768,10955.047942
2718.371546,-2145.067394,1998.556043,10436.903782
2718.371875,-995.924147,3256.906145,8142.265362
2718.372205,-153.219100,3330.926739,8216.285956
2718.372534,-229.828649,2886.803174,9400.615463
2718.372863,-459.657299,1628.453072,11399.171507
2718.373192,1915.238745,2368.659014,7994.224174
2718.373522,4673.182538,4441.235652,6513.812290
2718.373851,4290.134789,5181.441594,4959.379811
2718.374180,2911.162892,5921.647536,6883.915261
2718.374509,2145.067394,6587.832884,8808.450710
2718.374839,2221.676944,6587.832884,7105.977043
2718.375168,2145.067394,4589.276840,7994.224174
2718.375497,-459.657299,5477.523971,8142.265362
2718.375826,-229.828649,4737.318029,7550.100608
2718.376156,-1838.629195,1110.308913,10658.965565
2718.376485,-1915.238745,-740.205942,11325.150913
2718.376814,-1685.410096,444.123565,10288.862594
2718.377143,-1685.410096,-1110.308913,11473.192101
2718.377473,-1991.848295,2072.576638,9326.594869
2718.377802,-153.219100,2886.803174,11251.130318
2718.378131,2068.457845,3997.112087,8216.285956
2718.378460,2374.896044,5847.626942,7698.141797
2718.378790,3753.867940,4145.153275,7624.121203
2718.379119,3753.867940,5329.482782,8142.265362
2718.379448,2451.505594,5181.441594,7698.141797
2718.379777,1685.410096,3849.070898,6883.915261
2718.380107,-306.438199,2442.679609,9474.636058
2718.380436,-1838.629195,-0.000000,12953.603985
2718.380765,-2911.162892,-0.000000,11029.068536
2718.381094,-2757.943793,1258.350101,12583.501014
2718.381424,-2681.334243,-1184.329507,10436.903782
2718.381753,-2298.286494,2072.576638,10288.862594
2718.382082,-1532.190996,1850.514855,9104.533087
2718.382412,-1302.362347,2220.617826,9252.574275
2718.382741,919.314598,1184.329507,12953.603985
2718.383070,2911.162892,1702.473667,7994.224174
2718.383399,5669.106685,2368.659014,7920.203579
2718.383729,3600.648841,3923.091493,5403.503377
2718.384058,3830.477490,3182.885551,5181.441594
2718.384387,3140.991542,4219.173869,8142.265362
2718.384716,2681.334243,4145.153275,7402.059420
2718.385046,2451.505594,4737.318029,7179.997637
2718.385375,995.924147,4219.173869,7846.182985
2718.385704,-2374.896044,666.185348,7846.182985
2718.386033,-3447.429741,-5107.421000,13767.830521
2718.386363,-3600.648841,-518.144159,10362.883188
2718.386692,-3524.039291,-2146.597232,11473.192101
2718.387021,-3600.648841,-370.102971,9992.780217
2718.387350,-2221.676944,3404.947333,10288.862594
2718.387680,0.000000,2146.597232,8142.265362
2718.388009,-383.047749,4515.256246,7328.038826
2718.388338,4673.182538,2368.659014,11547.212695
2718.388667,2451.505594,3775.050304,4219.173869
2718.388997,4903.011187,3775.050304,9400.615463
2718.389326,2834.553343,7179.997637,4367.215058
2718.389655,4519.963438,2960.823768,5551.544565
2718.389984,2298.286494,4441.235652,6439.791695
2718.390314,3370.820191,4737.318029,6735.874072
2718.390643,2528.115143,4219.173869,8660.409521
2718.390972,-1762.019645,7476.080014,6217.729913
2718.391301,-2757.943793,148.041188,11325.150913
2718.391631,-6435.202183,-2590.720797,12879.583391
2718.391960,-3600.648841,2368.659014,10807.006753
2718.392289,-2911.162892,222.061783,11325.150913
2718.392618,-2834.553343,-2812.782580,12287.418637
2718.392948,-2757.943793,4589.276840,11325.150913
2718.393277,-459.657299,1480.411884,8290.306550
2718.393606,-3294.210641,5773.606348,8290.306550
2718.393935,1838.629195,962.267725,14137.933492
2718.394265,3294.210641,4367.215058,6143.709319
2718.394594,3830.477490,5551.544565,8216.285956
2718.394923,2451.505594,4737.318029,5847.626942
2718.395252,3447.429741,5847.626942,6143.709319
2718.395582,1302.362347,4959.379811,9326.594869
2718.395911,-383.047749,6365.771101,6735.874072
2718.396240,536.266849,6883.915261,11991.336260
2718.396570,-1225.752797,5329.482782,7846.182985
2718.396899,-842.705048,3034.844362,8734.430116
2718.397228,-3524.039291,2294.638420,11399.171507
2718.397557,-2451.505594,-962.267725,12065.356855
2718.397887,-2298.286494,1332.370696,10510.924376
2718.398216,-689.485948,-3627.009116,11547.212695
2718.398545,-2451.505594,2294.638420,7550.100608
2718.398874,459.657299,1702.473667,12879.583391
2718.399204,842.705048,4219.173869,8438.347739
2718.399533,2681.334243,6291.750507,8586.388927
2718.399862,3600.648841,5403.503377,7031.956449
2718.400191,2068.457845,4737.318029,9918.759623
2718.400521,-153.219100,6143.709319,9622.677246
2718.400850,306.438199,4145.153275,6957.935855
2718.401179,842.705048,3108.864956,8290.306550
2718.401508,1072.533697,962.267725,10584.944971
2718.401838,0.000000,148.041188,11917.315666
2718.402167,-919.314598,1184.329507,10362.883188
2718.402496,-1072.533697,592.164754,9252.574275
2718.402825,689.485948,1332.370696,9400.615463
2718.403155,459.657299,4737.318029,8216.285956
2718.403484,536.266849,4071.132681,9400.615463
2718.403813,459.657299,3552.988522,9104.533087
2718.404142,2374.896044,2960.823768,7328.038826
2718.404472,3600.648841,4145.153275,7624.121203
2718.404801,2528.115143,4219.173869,7031.956449
2718.405130,1149.143247,3404.947333,7994.224174
2718.405459,1072.533697,2664.741391,8290.306550
2718.405789,842.705048,4441.235652,7698.141797
2718.406118,1378.971896,4885.359217,8290.306550
2718.406447,459.657299,3404.947333,9770.718434
2718.406776,-2528.115143,2368.659014,9918.759623
2718.407106,-1608.800546,-0.000000,10436.903782
2718.407435,-1685.410096,-1184.329507,10436.903782
2718.407764,-1991.848295,-1332.370696,11251.130318
2718.408093,-2911.162892,1924.535449,10955.047942
2718.408423,153.219100,814.226536,9474.636058
2718.408752,1685.410096,2516.700203,7550.100608
2718.409081,3907.087040,3627.009116,6513.812290
2718.409411,1762.019645,3330.926739,7772.162391
2718.409740,536.266849,3627.009116,9326.594869
2718.410069,1378.971896,2960.823768,8142.265362
2718.410398,3064.381992,2590.720797,7105.977043
2718.410728,1455.581446,3330.926739,7772.162391
2718.411057,1072.533697,2960.823768,9474.636058
2718.411386,-383.047749,296.082377,10807.006753
2718.411715,-1149.143247,296.082377,10214.842000
2718.412045,-1762.019645,2294.638420,10066.800811
2718.412374,-2604.724693,-222.061783,11991.336260
2718.412703,-3447.429741,370.102971,10658.965565
2718.413032,-1838.629195,1036.288319,9548.656652
2718.413362,-1685.410096,1480.411884,8364.327145
2718.413691,-1149.143247,2516.700203,8586.388927
2718.414020,689.485948,2590.720797,8660.409521
2718.414349,1225.752797,3108.864956,7550.100608
2718.414679,995.924147,2960.823768,7624.121203
2718.415008,1149.143247,1036.288319,7994.224174
2718.415337,459.657299,2368.659014,9622.677246
2718.415666,0.000000,2886.803174,9844.739029
2718.415996,-306.438199,2146.597232,9178.553681
2718.416325,0.000000,2516.700203,10288.862594
2718.416654,-459.657299,2220.617826,10436.903782
2718.416983,-1455.581446,2812.782580,10214.842000
2718.417313,-612.876398,1628.453072,9918.759623
2718.417642,1225.752797,1480.411884,9548.656652
2718.417971,1991.848295,4071.132681,8660.409521
2718.418300,2068.457845,2886.803174,8586.388927
2718.418630,2221.676944,1850.514855,8438.347739
2718.418959,2145.067394,3182.885551,7624.121203
2718.419288,1302.362347,3552.988522,6735.874072
2718.419617,1072.533697,2442.679609,7624.121203
2718.419947,2068.457845,2146.597232,8956.491898
2718.420276,2757.943793,1776.494261,8734.430116
2718.420605,1302.362347,1332.370696,9030.512492
2718.420934,766.095498,-1628.453072,10881.027347
2718.421264,0.000000,740.205942,9474.636058
2718.421593,-689.485948,444.123565,11251.130318
2718.421922,-1302.362347,370.102971,10362.883188
2718.422251,76.609550,518.144159,10510.924376
2718.422580,536.266849,2220.617826,9400.615463
2718.422909,229.828649,2294.638420,8882.471304
2718.423238,1149.143247,962.267725,8808.450710
2718.423567,995.924147,1184.329507,7179.997637
2718.423897,766.095498,1628.453072,6809.894666
2718.424226,612.876398,1036.288319,7698.141797
2718.424555,-306.438199,-1998.556043,8290.306550
2718.424884,-842.705048,-1554.432478,9326.594869
2718.425213,-995.924147,-814.226536,9252.574275
2718.425542,-536.266849,-2146.597232,10288.862594
2718.425871,-2068.457845,-1258.350101,9474.636058
2718.426200,-2374.896044,666.185348,10807.006753
2718.426529,-1225.752797,-296.082377,9992.780217
2718.426858,-306.438199,-222.061783,9992.780217
2718.427187,689.485948,1110.308913,9104.533087
2718.427516,1455.581446,-0.000000,9326.594869
2718.427845,1608.800546,962.267725,9474.636058
2718.428174,2298.286494,962.267725,7254.018232
2718.428504,1225.752797,1036.288319,6883.915261
2718.428833,1532.190996,666.185348,7772.162391
2718.429162,1532.190996,444.123565,6957.935855
2718.429491,995.924147,444.123565,7624.121203
2718.429820,612.876398,-1480.411884,8882.471304
2718.430149,76.609550,-1850.514855,9030.512492
2718.430478,-842.705048,-1110.308913,9178.553681
2718.430807,-1072.533697,-1406.391290,9918.759623
2718.431136,-383.047749,-2442.679609,10732.986159
2718.431465,229.828649,-666.185348,10214.842000
2718.431794,536.266849,-222.061783,9252.574275
2718.432123,1455.581446,-444.123565,9770.718434
2718.432452,1915.238745,1776.494261,8512.368333
2718.432781,2451.505594,1850.514855,7772.162391
2718.433111,1685.410096,1480.411884,7105.977043
2718.433440,1915.238745,666.185348,7624.121203
2718.433769,1455.581446,222.061783,8586.388927
2718.434098,842.705048,-1184.329507,7846.182985
2718.434427,229.828649,-2664.741391,9178.553681
2718.434756,-1225.752797,-2072.576638,9252.574275
2718.435085,-1685.410096,-2442.679609,9696.697840
2718.435414,-2145.067394,-2960.823768,9992.780217
2718.435743,-1991.848295,-1776.494261,11029.068536
2718.436072,-1455.581446,-1110.308913,9548.656652
2718.436401,-919.314598,-1110.308913,8808.450710
2718.436730,76.609550,962.267725,9696.697840
2718.437059,1072.533697,1036.288319,8734.430116
2718.437388,919.314598,962.267725,8290.306550
2718.437718,1072.533697,1036.288319,8808.450710
2718.438047,1149.143247,-0.000000,9400.615463
2718.438376,1149.143247,444.123565,9326.594869
2718.438705,612.876398,-1776.494261,8512.368333
2718.439034,-153.219100,-1554.432478,9474.636058
2718.439363,-1455.581446,-518.144159,9326.594869
2718.439692,-919.314598,-1998.556043,8586.388927
2718.440021,-689.485948,-1628.453072,10140.821405
2718.440350,-459.657299,-1184.329507,9622.677246
2718.440679,0.000000,-1702.473667,8734.430116
2718.441008,229.828649,222.061783,9622.677246
2718.441337,1302.362347,814.226536,8882.471304
2718.441666,1455.581446,2146.597232,7772.162391
2718.441995,2145.067394,1406.391290,8734.430116
2718.442325,2451.505594,666.185348,8956.491898
2718.442654,2374.896044,1850.514855,8290.306550
2718.442983,1915.238745,814.226536,7698.141797
2718.443312,1072.533697,-0.000000,8808.450710
2718.443641,0.000000,444.123565,8660.409521
2718.443970,0.000000,-1110.308913,9326.594869
2718.444299,-306.438199,-740.205942,8956.491898
2718.444628,-995.924147,-1850.514855,10362.883188
2718.444957,-536.266849,-1406.391290,9400.615463
2718.445286,0.000000,-1776.494261,10066.800811
2718.445615,383.047749,-222.061783,9844.739029
2718.445944,689.485948,814.226536,8216.285956
2718.446273,842.705048,592.164754,8660.409521
2718.446602,1149.143247,1554.432478,8808.450710
2718.446932,1685.410096,2146.597232,8734.430116
2718.447261,1838.629195,370.102971,9104.533087
2718.447590,0.000000,-222.061783,8586.388927
2718.447919,229.828649,-0.000000,9696.697840
2718.448248,-919.314598,-1332.370696,9326.594869
2718.448577,-1302.362347,-1850.514855,9770.718434
2718.448906,-1149.143247,-1258.350101,9992.780217
2718.449235,-1072.533697,-2442.679609,9918.759623
2718.449564,-919.314598,-2072.576638,9474.636058
2718.449893,-306.438199,-1850.514855,8956.491898
2718.450222,536.266849,888.247130,7624.121203
2718.450551,689.485948,296.082377,8586.388927
2718.450880,1225.752797,-296.082377,8512.368333
2718.451209,1378.971896,888.247130,8438.347739
2718.451539,1685.410096,-0.000000,8660.409521
2718.451868,1685.410096,-888.247130,8512.368333
2718.452197,536.266849,148.041188,9252.574275
2718.452526,0.000000,740.205942,8734.430116
2718.452855,0.000000,-0.000000,9030.512492
2718.453184,-153.219100,-370.102971,10140.821405
2718.453513,-153.219100,-1036.288319,9252.574275
2718.453842,76.609550,-888.247130,9400.615463
2718.454171,689.485948,-222.061783,8956.491898
2718.454500,76.609550,-0.000000,8438.347739
2718.454829,306.438199,-0.000000,9030.512492
2718.455158,1378.971896,-1110.308913,8882.471304
2718.455487,1838.629195,666.185348,7920.203579
2718.455816,1378.971896,1628.453072,8290.306550
2718.456146,383.047749,-148.041188,9104.533087
2718.456475,459.657299,814.226536,9326.594869
2718.456804,383.047749,1332.370696,9622.677246
2718.457133,459.657299,-1036.288319,9992.780217
2718.457462,-1072.533697,-666.185348,10658.965565
2718.457791,-612.876398,-1480.411884,10732.986159
2718.458120,0.000000,-1258.350101,9770.718434
2718.458449,76.609550,-592.164754,9474.636058
2718.458778,0.000000,370.102971,7846.182985
2718.459107,153.219100,888.247130,8364.327145
2718.459436,1378.971896,592.164754,8882.471304
2718.459765,1608.800546,814.226536,7846.182985
2718.460094,1532.190996,-0.000000,7624.121203
2718.460424,842.705048,-370.102971,8216.285956
2718.460753,536.266849,-740.205942,9252.574275
2718.461082,-919.314598,-962.267725,9400.615463
2718.461411,-842.705048,-814.226536,8808.450710
2718.461740,-612.876398,-1332.370696,9918.759623
2718.462069,-459.657299,-666.185348,10288.862594
2718.462398,-612.876398,-296.082377,9178.553681
2718.462727,229.828649,-1184.329507,9696.697840
2718.463056,459.657299,370.102971,8512.368333
2718.463385,842.705048,518.144159,8734.430116
2718.463714,1532.190996,148.041188,8734.430116
2718.464043,1532.190996,666.185348,8290.306550
2718.464372,2298.286494,1480.411884,7328.038826
2718.464701,2145.067394,-0.000000,7328.038826
2718.465031,1302.362347,-148.041188,8438.347739
2718.465360,0.000000,222.061783,8808.450710
2718.465689,-383.047749,-370.102971,8734.430116
2718.466018,-612.876398,-1258.350101,9178.553681
2718.466347,-1225.752797,-1776.494261,10658.965565
2718.466676,-1608.800546,-1184.329507,10436.903782
2718.467005,-842.705048,-2590.720797,10288.862594
2718.467334,-459.657299,-444.123565,9326.594869
2718.467663,0.000000,444.123565,9696.697840
2718.467992,995.924147,-370.102971,10214.842000
2718.468321,1685.410096,-666.185348,8586.388927
2718.468650,2298.286494,1184.329507,7550.100608
2718.468979,2068.457845,1480.411884,7920.203579
2718.469308,1378.971896,1332.370696,7846.182985
2718.469638,842.705048,1480.411884,8586.388927
2718.469967,306.438199,296.082377,8512.368333
2718.470296,-612.876398,-740.205942,9178.553681
2718.470625,-766.095498,-1332.370696,10288.862594
2718.470954,-1455.581446,-2590.720797,11547.212695
2718.471283,-1225.752797,-1776.494261,10066.800811
2718.471612,-536.266849,-1406.391290,11103.089130
2718.471941,-612.876398,518.144159,8956.491898
2718.472270,612.876398,-0.000000,9326.594869
2718.472599,2145.067394,1554.432478,8142.265362
2718.472928,3294.210641,2368.659014,8142.265362
2718.473257,2911.162892,1628.453072,7772.162391
2718.473586,2374.896044,1258.350101,7105.977043
2718.473915,1762.019645,1332.370696,8142.265362
2718.474245,689.485948,740.205942,8290.306550
2718.474574,-383.047749,-740.205942,9030.512492
2718.474903,-1455.581446,-2368.659014,10288.862594
2718.475232,-306.438199,-2442.679609,9918.759623
2718.475561,-612.876398,-1924.535449,10066.800811
2718.475890,-1762.019645,-2368.659014,10362.883188
2718.476219,-1532.190996,-0.000000,9400.615463
2718.476548,-459.657299,814.226536,9326.594869
2718.476877,536.266849,370.102971,9326.594869
2718.477206,1532.190996,1406.391290,8068.244768
2718.477535,2528.115143,2072.576638,7698.141797
2718.477864,1991.848295,-1036.288319,8438.347739
2718.478193,1455.581446,-0.000000,9326.594869
2718.478522,766.095498,148.041188,8290.306550
2718.478852,153.219100,-740.205942,8660.409521
2718.479181,-842.705048,-222.061783,10066.800811
2718.479510,-842.705048,-1480.411884,10436.903782
2718.479839,-1378.971896,-1480.411884,9548.656652
2718.480168,-919.314598,-1036.288319,10362.883188
2718.480497,-919.314598,148.041188,9104.533087
2718.480826,-1149.143247,-74.020594,10066.800811
2718.481155,536.266849,-370.102971,10066.800811
2718.481484,1225.752797,-0.000000,8216.285956
2718.481813,1302.362347,888.247130,7994.224174
2718.482142,2221.676944,296.082377,8512.368333
2718.482471,766.095498,1332.370696,8808.450710
2718.482800,1072.533697,2072.576638,7846.182985
2718.483129,1225.752797,370.102971,8068.244768
2718.483459,0.000000,-740.205942,9474.636058
2718.483788,-229.828649,-666.185348,9918.759623
2718.484117,-153.219100,-1850.514855,9548.656652
2718.484446,153.219100,-2220.617826,9770.718434
2718.484775,-229.828649,-1258.350101,10436.903782
2718.485104,76.609550,-444.123565,8882.471304
2718.485433,766.095498,-74.020594,9474.636058
2718.485762,1455.581446,888.247130,8142.265362
2718.486091,1838.629195,1184.329507,7550.100608
2718.486420,2145.067394,1554.432478,8512.368333
2718.486749,1225.752797,666.185348,8216.285956
2718.487078,766.095498,1406.391290,7846.182985
2718.487407,306.438199,-0.000000,8586.388927
2718.487736,-306.438199,-666.185348,9400.615463
2718.488066,-612.876398,-1406.391290,10140.821405
2718.488395,-995.924147,-1480.411884,9844.739029
2718.488724,-1072.533697,-2442.679609,10140.821405
2718.489053,-1608.800546,-888.247130,9474.636058
2718.489382,-1302.362347,-814.226536,9918.759623
2718.489711,306.438199,-888.247130,9992.780217
2718.490040,842.705048,222.061783,8586.388927
2718.490369,1455.581446,1406.391290,8068.244768
2718.490698,2068.457845,1480.411884,8290.306550
2718.491027,1991.848295,1554.432478,8364.327145
2718.491356,229.828649,2072.576638,8142.265362
2718.491685,842.705048,1036.288319,8586.388927
2718.492014,0.000000,-592.164754,9548.656652
2718.492344,-689.485948,-888.247130,9622.677246
2718.492673,-995.924147,-1628.453072,10288.862594
2718.493002,-1532.190996,-2368.659014,10510.924376
2718.493331,-1455.581446,-1924.535449,10732.986159
2718.493660,-1532.190996,-518.144159,10066.800811
2718.493989,-459.657299,-0.000000,9992.780217
2718.494318,995.924147,-518.144159,9252.574275
2718.494647,1685.410096,1406.391290,8216.285956
2718.494976,2221.676944,888.247130,8216.285956
2718.495305,2757.943793,1258.350101,7920.203579
2718.495634,2374.896044,1480.411884,8290.306550
2718.495963,1991.848295,1554.432478,7698.141797
2718.496292,1685.410096,518.144159,8364.327145
2718.496621,842.705048,-74.020594,9178.553681
2718.496951,-383.047749,-1332.370696,9326.594869
2718.497280,-842.705048,-2368.659014,10288.862594
2718.497609,-1532.190996,-2072.576638,9770.718434
2718.497938,-1915.238745,-888.247130,9844.739029
2718.498267,-536.266849,-1184.329507,10881.027347
2718.498596,-612.876398,-1036.288319,10140.821405
2718.498925,306.438199,-0.000000,8956.491898
2718.499254,1225.752797,592.164754,8660.409521
2718.499583,1991.848295,1554.432478,8438.347739
2718.499912,2145.067394,1554.432478,7994.224174
2718.500241,1532.190996,1776.494261,7105.977043
2718.500570,1378.971896,1036.288319,8068.244768
2718.500899,842.705048,-0.000000,8734.430116
2718.501228,153.219100,-222.061783,8734.430116
2718.501558,0.000000,-1850.514855,9770.718434
2718.501887,-842.705048,-1406.391290,9844.739029
2718.502216,-1378.971896,-740.205942,9844.739029
2718.502545,-1302.362347,-888.247130,9918.759623
2718.502874,-766.095498,-1184.329507,10140.821405
2718.503203,229.828649,888.247130,9844.739029
2718.503532,1149.143247,-0.000000,9178.553681
2718.503861,1532.190996,666.185348,8586.388927
2718.504190,2068.457845,962.267725,8068.244768
2718.504519,1455.581446,1850.514855,7624.121203
2718.504848,842.705048,592.164754,8364.327145
2718.505177,842.705048,444.123565,8882.471304
2718.505506,995.924147,-0.000000,9030.512492
2718.505835,229.828649,-1850.514855,9918.759623
2718.506165,0.000000,-1628.453072,9548.656652
2718.506494,-536.266849,-1850.514855,9474.636058
2718.506823,-612.876398,-1554.432478,9326.594869
2718.507152,0.000000,-1258.350101,9474.636058
2718.507481,0.000000,-296.082377,9548.656652
2718.507810,1149.143247,592.164754,7846.182985
2718.508139,1378.971896,370.102971,9326.594869
2718.508468,1608.800546,444.123565,7698.141797
2718.508797,689.485948,1554.432478,7179.997637
2718.509126,383.047749,888.247130,9178.553681
2718.509455,0.000000,-1258.350101,9474.636058
2718.509784,-306.438199,-1110.308913,9548.656652
2718.510113,-1455.581446,-1554.432478,9474.636058
2718.510442,-766.095498,-2442.679609,10362.883188
2718.510772,-1532.190996,-666.185348,9622.677246
2718.511101,-612.876398,-1258.350101,9474.636058
2718.511430,-383.047749,-518.144159,9326.594869
2718.511759,612.876398,-148.041188,9326.594869
2718.512088,459.657299,888.247130,8882.471304
2718.512417,1608.800546,814.226536,8216.285956
2718.512746,1608.800546,296.082377,9178.553681
2718.513075,919.314598,1184.329507,7698.141797
2718.513404,536.266849,962.267725,8290.306550
2718.513733,76.609550,-0.000000,9622.677246
2718.514062,-229.828649,-592.164754,9474.636058
2718.514391,-536.266849,-296.082377,9622.677246
2718.514720,-766.095498,-1850.514855,10362.883188
2718.515049,-1149.143247,-1628.453072,9770.718434
2718.515379,-995.924147,-666.185348,9844.739029
2718.515708,0.000000,-666.185348,9400.615463
2718.516037,536.266849,-666.185348,9770.718434
2718.516366,2298.286494,518.144159,7920.203579
2718.516695,2145.067394,1036.288319,7772.162391
2718.517024,2681.334243,666.185348,8660.409521
2718.517353,2451.505594,1332.370696,7624.121203
2718.517682,1762.019645,1924.535449,7031.956449
2718.518011,1608.800546,962.267725,8290.306550
2718.518340,1149.143247,-74.020594,8882.471304
2718.518669,306.438199,-1036.288319,8956.491898
2718.518998,-766.095498,-2442.679609,9474.636058
2718.519327,-919.314598,-1776.494261,9844.739029
2718.519656,-1455.581446,-1110.308913,9326.594869
2718.519986,-1302.362347,-2146.597232,10140.821405
2718.520315,-766.095498,-1332.370696,9548.656652
2718.520644,-229.828649,-666.185348,9104.533087
2718.520973,76.609550,-0.000000,8808.450710
2718.521302,1378.971896,-518.144159,9104.533087
2718.521631,1225.752797,444.123565,7994.224174
2718.521960,612.876398,666.185348,7179.997637
2718.522289,306.438199,222.061783,8068.244768
2718.522618,766.095498,-518.144159,9992.780217
2718.522947,689.485948,-222.061783,8586.388927
2718.523276,0.000000,-740.205942,9474.636058
2718.523605,-995.924147,-1110.308913,9770.718434
2718.523936,-459.657299,-370.102971,9474.636058
2718.524265,-919.314598,-592.164754,9474.636058
2718.524594,-229.828649,-1110.308913,9474.636058
2718.524923,76.609550,-0.000000,9474.636058
2718.525252,536.266849,296.082377,9030.512492
2718.525581,1455.581446,222.061783,9548.656652
2718.525911,1685.410096,1184.329507,8142.265362
2718.526240,1225.752797,2220.617826,7846.182985
2718.526569,919.314598,1628.453072,8808.450710
2718.526898,1225.752797,-0.000000,9548.656652
2718.527227,1532.190996,-0.000000,8808.450710
2718.527556,1302.362347,-0.000000,7994.224174
2718.527885,689.485948,-1036.288319,9844.739029
2718.528214,153.219100,-444.123565,9844.739029
2718.528543,-383.047749,-296.082377,8882.471304
2718.528873,76.609550,-1258.350101,9696.697840
2718.529202,153.219100,-0.000000,9326.594869
2718.529531,229.828649,666.185348,8734.430116
2718.529860,1149.143247,370.102971,8512.368333
2718.530189,919.314598,666.185348,9400.615463
2718.530518,689.485948,222.061783,8364.327145
2718.530847,153.219100,666.185348,7994.224174
2718.531176,536.266849,-222.061783,9178.553681
2718.531506,229.828649,-370.102971,9326.594869
2718.531835,-383.047749,-518.144159,9030.512492
2718.532164,-306.438199,-1628.453072,9104.533087
2718.532493,-383.047749,-1554.432478,9696.697840
2718.532822,-1072.533697,-518.144159,9474.636058
2718.533151,-1149.143247,-1110.308913,9918.759623
2718.533480,-766.095498,-1258.350101,10288.862594
2718.533809,-229.828649,-518.144159,8364.327145
2718.534139,306.438199,-888.247130,9474.636058
2718.534468,689.485948,-518.144159,9178.553681
2718.534797,0.000000,-0.000000,8660.409521
2718.535126,76.609550,1332.370696,8438.347739
2718.535455,612.876398,-222.061783,9104.533087
2718.535784,306.438199,-518.144159,9474.636058
2718.536113,0.000000,-444.123565,8956.491898
2718.536442,459.657299,-1702.473667,8586.388927
2718.536771,0.000000,-1110.308913,9770.718434
2718.537101,76.609550,222.061783,9326.594869
2718.537430,153.219100,-1184.329507,8734.430116
2718.537759,612.876398,-666.185348,9622.677246
2718.538088,1225.752797,444.123565,9326.594869
2718.538417,1225.752797,-148.041188,8364.327145
2718.538746,1608.800546,-0.000000,8882.471304
2718.539075,1225.752797,444.123565,8956.491898
2718.539404,1149.143247,962.267725,7994.224174
2718.539734,1149.143247,296.082377,8586.388927
2718.540063,1225.752797,-148.041188,9252.574275
2718.540392,842.705048,148.041188,8956.491898
2718.540721,612.876398,-296.082377,9104.533087
2718.541050,459.657299,-444.123565,8734.430116
2718.541379,76.609550,518.144159,9104.533087
2718.541708,229.828649,-666.185348,8882.471304
2718.542037,229.828649,-814.226536,9474.636058
2718.542367,76.609550,-518.144159,8882.471304
2718.542696,0.000000,-444.123565,9178.553681
2718.543025,536.266849,-814.226536,9104.533087
2718.543354,536.266849,-740.205942,8734.430116
2718.543683,0.000000,592.164754,8364.327145
2718.544012,229.828649,-148.041188,9178.553681
2718.544341,536.266849,-222.061783,9474.636058
2718.544670,0.000000,-0.000000,9548.656652
2718.544999,0.000000,-666.185348,9400.615463
2718.545329,0.000000,-666.185348,9326.594869
2718.545658,0.000000,444.123565,8586.388927
2718.545987,-229.828649,-814.226536,9178.553681
2718.546316,459.657299,-370.102971,9548.656652
2718.546645,536.266849,-1036.288319,9252.574275
2718.546974,0.000000,-74.020594,9178.553681
2718.547303,229.828649,-148.041188,9252.574275
2718.547632,0.000000,-0.000000,8586.388927
2718.547962,-153.219100,518.144159,8586.388927
2718.548291,0.000000,-0.000000,9770.718434
2718.548620,995.924147,-1110.308913,9992.780217
2718.548949,919.314598,-148.041188,8882.471304
2718.549278,842.705048,-296.082377,9474.636058
2718.549607,842.705048,-444.123565,9400.615463
2718.549936,612.876398,888.247130,9104.533087
2718.550265,612.876398,1480.411884,8290.306550
2718.550594,1149.143247,1850.514855,8882.471304
2718.550924,1149.143247,592.164754,8882.471304
2718.551253,383.047749,740.205942,8882.471304
2718.551582,689.485948,-444.123565,9696.697840
2718.551911,306.438199,-740.205942,9252.574275
2718.552240,-995.924147,-296.082377,9474.636058
2718.552569,-1149.143247,888.247130,8808.450710
2718.552898,-153.219100,-1036.288319,10288.862594
2718.553227,0.000000,444.123565,9474.636058
2718.553557,76.609550,-296.082377,8808.450710
2718.553886,153.219100,-666.185348,9622.677246
2718.554215,0.000000,666.185348,9178.553681
2718.554544,612.876398,740.205942,8734.430116
2718.554873,689.485948,-296.082377,8808.450710
2718.555202,689.485948,-666.185348,9474.636058
2718.555531,689.485948,148.041188,8512.368333
2718.555860,766.095498,-370.102971,8364.327145
2718.556190,153.219100,-296.082377,9326.594869
2718.556519,76.609550,-518.144159,8808.450710
2718.556848,-766.095498,-0.000000,9474.636058
2718.557177,-383.047749,-962.267725,9474.636058
2718.557506,0.000000,-1110.308913,9326.594869
2718.557835,383.047749,-962.267725,9474.636058
2718.558164,229.828649,-1776.494261,9104.533087
2718.558493,612.876398,-370.102971,9400.615463
2718.558822,919.314598,592.164754,8364.327145
2718.559152,995.924147,444.123565,8290.306550
2718.559481,1532.190996,592.164754,8882.471304
2718.559810,1685.410096,518.144159,8512.368333
2718.560139,1455.581446,592.164754,8364.327145
2718.560468,1532.190996,-0.000000,8956.491898
2718.560797,536.266849,-222.061783,8734.430116
2718.561126,229.828649,-74.020594,8956.491898
2718.561455,229.828649,-814.226536,9770.718434
2718.561785,0.000000,-1628.453072,9252.574275
2718.562114,-306.438199,-370.102971,9622.677246
2718.562443,-306.438199,-1110.308913,9252.574275
2718.562772,229.828649,-1036.288319,9992.780217
2718.563101,0.000000,666.185348,9030.512492
2718.563430,-229.828649,444.123565,8734.430116
2718.563759,383.047749,-0.000000,9696.697840
2718.564088,383.047749,370.102971,8882.471304
2718.564418,1072.533697,148.041188,8512.368333
2718.564747,766.095498,-740.205942,8586.388927
2718.565076,306.438199,-1036.288319,9178.553681
2718.565405,-306.438199,-0.000000,8734.430116
2718.565734,-612.876398,-1184.329507,9326.594869
2718.566063,-536.266849,-740.205942,9844.739029
2718.566392,-153.219100,-296.082377,9474.636058
2718.566721,-383.047749,-666.185348,9178.553681
2718.567050,0.000000,-444.123565,9474.636058
2718.567380,459.657299,222.061783,9326.594869
2718.567709,0.000000,-0.000000,9104.533087
2718.568038,1072.533697,-296.082377,9030.512492
2718.568367,995.924147,-74.020594,9622.677246
2718.568696,919.314598,444.123565,8734.430116
2718.569025,766.095498,-148.041188,8808.450710
2718.569354,842.705048,518.144159,8586.388927
2718.569683,0.000000,370.102971,7920.203579
2718.570013,-383.047749,-0.000000,9770.718434
2718.570342,0.000000,-666.185348,9992.780217
2718.570671,0.000000,-592.164754,9474.636058
2718.571000,0.000000,-222.061783,8808.450710
2718.571329,76.609550,-1702.473667,10140.821405
2718.571658,-306.438199,-962.267725,9548.656652
2718.571987,1455.581446,518.144159,7772.162391
2718.572316,1608.800546,-0.000000,9178.553681
2718.572645,1685.410096,814.226536,8956.491898
2718.572975,2068.457845,1702.473667,7920.203579
2718.573304,1685.410096,1554.432478,8142.265362
2718.573633,1302.362347,1110.308913,8216.285956
2718.573962,689.485948,888.247130,8734.430116
2718.574291,-383.047749,-0.000000,8216.285956
2718.574620,-229.828649,-1924.535449,10214.842000
2718.574949,-689.485948,-1036.288319,10066.800811
2718.575278,-1378.971896,-1406.391290,9474.636058
2718.575608,-1302.362347,-2072.576638,10066.800811
2718.575937,-766.095498,-740.205942,9844.739029
2718.576266,-229.828649,296.082377,9178.553681
2718.576595,-76.609550,-0.000000,9104.533087
2718.576924,1455.581446,-0.000000,9252.574275
2718.577253,2298.286494,1258.350101,8512.368333
2718.577582,2145.067394,1406.391290,7994.224174
2718.577911,1762.019645,962.267725,8216.285956
2718.578241,919.314598,1258.350101,9104.533087
2718.578570,76.609550,1184.329507,8734.430116
2718.578899,459.657299,-148.041188,9252.574275
2718.579228,229.828649,-1184.329507,10955.047942
2718.579557,0.000000,-1406.391290,9696.697840
2718.579886,-919.314598,-1702.473667,10140.821405
2718.580215,-995.924147,-1332.370696,9844.739029
2718.580544,-766.095498,-296.082377,9178.553681
2718.580873,0.000000,-222.061783,9178.553681
2718.581203,1302.362347,-370.102971,8438.347739
2718.581532,1762.019645,1036.288319,9030.512492
2718.581861,1991.848295,1036.288319,7105.977043
2718.582190,2451.505594,370.102971,8364.327145
2718.582519,1762.019645,740.205942,8364.327145
2718.582848,842.705048,296.082377,7772.162391
2718.583177,459.657299,-74.020594,8956.491898
2718.583506,0.000000,-1702.473667,9548.656652
2718.583836,-153.219100,-1702.473667,9918.759623
2718.584165,0.000000,-1850.514855,9400.615463
2718.584494,-689.485948,-1850.514855,9696.697840
2718.584823,-536.266849,148.041188,9548.656652
2718.585152,-306.438199,-74.020594,8586.388927
2718.585481,229.828649,-444.123565,9178.553681
2718.585810,689.485948,666.185348,8290.306550
2718.586139,1532.190996,592.164754,7994.224174
2718.586469,1608.800546,-0.000000,8142.265362
2718.586798,995.924147,370.102971,8216.285956
2718.587127,76.609550,-666.185348,9030.512492
2718.587456,-229.828649,-370.102971,8586.388927
2718.587785,0.000000,-1184.329507,9844.739029
2718.588114,-459.657299,-1184.329507,10214.842000
2718.588443,-1225.752797,-888.247130,9992.780217
2718.588772,-842.705048,-1702.473667,11029.068536
2718.589101,-1072.533697,-296.082377,9326.594869
2718.589431,-612.876398,740.205942,8808.450710
2718.589760,229.828649,-0.000000,9030.512492
2718.590089,383.047749,962.267725,8364.327145
2718.590418,2068.457845,740.205942,8068.244768
2718.590747,1915.238745,-518.144159,8142.265362
2718.591076,1302.362347,-0.000000,7846.182985
2718.591405,919.314598,962.267725,8364.327145
2718.591734,0.000000,-74.020594,8512.368333
2718.592064,0.000000,-962.267725,9770.718434
2718.592393,0.000000,-444.123565,9918.759623
2718.592722,-536.266849,-1110.308913,9548.656652
2718.593051,0.000000,-1184.329507,10362.883188
2718.593380,0.000000,-592.164754,9474.636058
2718.593709,0.000000,-148.041188,9252.574275
2718.594038,766.095498,-148.041188,9474.636058
2718.594367,1302.362347,-296.082377,9474.636058
2718.594696,1455.581446,1332.370696,7846.182985
2718.595026,2068.457845,1332.370696,7994.224174
2718.595355,2145.067394,444.123565,8290.306550
2718.595684,229.828649,740.205942,7994.224174
2718.596013,306.438199,1036.288319,7772.162391
2718.596342,0.000000,-814.226536,9474.636058
2718.596671,-919.314598,-1110.308913,9622.677246
2718.597000,-919.314598,-2590.720797,9918.759623
2718.597329,-1072.533697,-2886.803174,10214.842000
2718.597659,-1149.143247,-2960.823768,10140.821405
2718.597988,-1302.362347,-1110.308913,9400.615463
2718.598317,-306.438199,-0.000000,9474.636058
2718.598646,766.095498,518.144159,9622.677246
2718.598975,1685.410096,1554.432478,7846.182985
2718.599304,1838.629195,1258.350101,7846.182985
2718.599633,2298.286494,296.082377,9178.553681
2718.599962,1378.971896,2146.597232,7772.162391
2718.600292,536.266849,1184.329507,7994.224174
2718.600621,-459.657299,-0.000000,9178.553681
2718.600950,-689.485948,-888.247130,10066.800811
2718.601279,-766.095498,-1480.411884,9622.677246
2718.601608,-1225.752797,-2220.617826,9548.656652
2718.601937,-1532.190996,-2146.597232,10584.944971
2718.602266,-1532.190996,-666.185348,9400.615463
2718.602595,-842.705048,-814.226536,10140.821405
2718.602924,536.266849,-370.102971,9622.677246
2718.603254,1225.752797,888.247130,8586.388927
2718.603583,1685.410096,1998.556043,7994.224174
2718.603912,2374.896044,962.267725,7920.203579
2718.604241,2221.676944,1554.432478,8364.327145
2718.604570,306.438199,1332.370696,8290.306550
2718.604899,842.705048,666.185348,8290.306550
2718.605228,0.000000,-148.041188,9622.677246
2718.605557,-459.657299,-518.144159,9400.615463
2718.605887,-1149.143247,-1924.535449,9696.697840
2718.606216,-1302.362347,-1702.473667,10288.862594
2718.606545,-1149.143247,-814.226536,9252.574275
2718.606874,-842.705048,-888.247130,9030.512492
2718.607203,-536.266849,-518.144159,9622.677246
2718.607532,459.657299,-0.000000,8882.471304
2718.607861,1302.362347,740.205942,7698.141797
2718.608190,1915.238745,370.102971,8290.306550
2718.608520,1762.019645,814.226536,8068.244768
2718.608849,842.705048,740.205942,8142.265362
2718.609178,383.047749,444.123565,8512.368333
2718.609507,-383.047749,-0.000000,9252.574275
2718.609836,-612.876398,-518.144159,10214.842000
2718.610165,-1149.143247,-1036.288319,9474.636058
2718.610494,-995.924147,-2294.638420,10436.903782
2718.610823,-1302.362347,-1702.473667,10066.800811
2718.611152,-612.876398,-1776.494261,9474.636058
2718.611482,536.266849,-1036.288319,9474.636058
2718.611811,1072.533697,-296.082377,9548.656652
2718.612140,1225.752797,1258.350101,7920.203579
2718.612469,2451.505594,1850.514855,7698.141797
2718.612798,2757.943793,1924.535449,7994.224174
2718.613127,1915.238745,1110.308913,8216.285956
2718.613456,919.314598,1924.535449,7994.224174
2718.613785,1608.800546,-74.020594,9104.533087
2718.614115,536.266849,-518.144159,9696.697840
2718.614444,-919.314598,-740.205942,9844.739029
2718.614773,-612.876398,-2368.659014,10955.047942
2718.615102,-1149.143247,-2368.659014,10288.862594
2718.615431,-1072.533697,-0.000000,9548.656652
2718.615760,306.438199,-1628.453072,10362.883188
2718.616089,153.219100,296.082377,9400.615463
2718.616418,1685.410096,592.164754,9104.533087
2718.616747,2681.334243,1184.329507,7920.203579
2718.617077,2451.505594,592.164754,8142.265362
2718.617406,1915.238745,1702.473667,8142.265362
2718.617735,1302.362347,1554.432478,7105.977043
2718.618064,1685.410096,-148.041188,8734.430116
2718.618393,689.485948,-148.041188,8882.471304
2718.618722,919.314598,-444.123565,9548.656652
2718.619051,-1072.533697,-2368.659014,10362.883188
2718.619380,-1225.752797,-2738.761985,9992.780217
2718.619710,-1532.190996,-888.247130,9178.553681
2718.620039,-1532.190996,-2516.700203,11103.089130
2718.620368,-919.314598,-1184.329507,9696.697840
2718.620697,0.000000,-666.185348,9474.636058
2718.621026,689.485948,-0.000000,8068.244768
2718.621355,2145.067394,-74.020594,8142.265362
2718.621684,2068.457845,1258.350101,8882.471304
2718.622013,995.924147,962.267725,7179.997637
2718.622343,1455.581446,296.082377,8512.368333
2718.622672,1225.752797,-888.247130,9030.512492
2718.623001,842.705048,-740.205942,8956.491898
2718.623330,153.219100,-2294.638420,10288.862594
2718.623659,-229.828649,-1332.370696,9178.553681
2718.623988,-459.657299,-74.020594,8956.491898
2718.624318,-919.314598,-592.164754,9770.718434
2718.624647,-995.924147,-1702.473667,9770.718434
2718.624976,-153.219100,-814.226536,9474.636058
2718.625305,689.485948,666.185348,8512.368333
2718.625634,995.924147,-148.041188,8734.430116
2718.625963,1149.143247,-222.061783,8882.471304
2718.626293,459.657299,1332.370696,7698.141797
2718.626622,689.485948,-0.000000,8734.430116
2718.626951,459.657299,518.144159,8660.409521
2718.627280,306.438199,148.041188,8660.409521
2718.627609,-306.438199,-296.082377,8734.430116
2718.627939,306.438199,-888.247130,10658.965565
2718.628268,-229.828649,-370.102971,8956.491898
2718.628597,-919.314598,-666.185348,8882.471304
2718.628926,-459.657299,-222.061783,10066.800811
2718.629255,0.000000,-518.144159,8882.471304
2718.629584,0.000000,444.123565,9030.512492
2718.629914,536.266849,-0.000000,8586.388927
2718.630243,612.876398,-0.000000,8290.306550
2718.630572,0.000000,888.247130,7402.059420
2718.630901,0.000000,888.247130,8512.368333
2718.631230,76.609550,666.185348,9104.533087
2718.631560,229.828649,666.185348,7994.224174
2718.631889,0.000000,-0.000000,9104.533087
2718.632218,-383.047749,-962.267725,9548.656652
2718.632547,-1149.143247,-148.041188,9992.780217
2718.632876,-383.047749,-888.247130,9844.739029
2718.633205,0.000000,-962.267725,9770.718434
2718.633535,76.609550,-296.082377,9622.677246
2718.633864,76.609550,370.102971,9104.533087
2718.634193,1378.971896,-0.000000,9326.594869
2718.634522,1838.629195,518.144159,9104.533087
2718.634851,2298.286494,1480.411884,8512.368333
2718.635181,1378.971896,1184.329507,8956.491898
2718.635510,1685.410096,1554.432478,8660.409521
2718.635839,1378.971896,888.247130,9326.594869
2718.636168,842.705048,592.164754,9252.574275
2718.636497,459.657299,-740.205942,9844.739029
2718.636826,306.438199,-518.144159,9918.759623
2718.637156,612.876398,222.061783,9030.512492
2718.637485,383.047749,-1258.350101,10362.883188
2718.637814,0.000000,-518.144159,9474.636058
2718.638143,306.438199,-74.020594,9400.615463
2718.638472,842.705048,592.164754,9104.533087
2718.638802,1532.190996,814.226536,8956.491898
2718.639131,995.924147,962.267725,8956.491898
2718.639460,459.657299,1110.308913,8290.306550
2718.639789,1455.581446,-370.102971,9992.780217
2718.640118,1225.752797,-74.020594,8660.409521
2718.640447,306.438199,-444.123565,8882.471304
2718.640777,0.000000,-814.226536,10214.842000
2718.641106,-153.219100,-370.102971,8290.306550
2718.641435,-536.266849,592.164754,8438.347739
2718.641764,-612.876398,-814.226536,9030.512492
2718.642093,-459.657299,-1332.370696,9104.533087
2718.642422,76.609550,-888.247130,9474.636058
2718.642752,229.828649,-1036.288319,8586.388927
2718.643081,459.657299,-1184.329507,8882.471304
2718.643410,306.438199,-518.144159,8290.306550
2718.643739,689.485948,-370.102971,8142.265362
2718.644068,766.095498,370.102971,9030.512492
2718.644398,689.485948,296.082377,9178.553681
2718.644727,689.485948,814.226536,7772.162391
2718.645056,0.000000,-296.082377,9548.656652
2718.645385,612.876398,-1258.350101,9474.636058
2718.645714,229.828649,-370.102971,8068.244768
2718.646043,-919.314598,-1406.391290,9992.780217
2718.646373,-229.828649,-962.267725,9548.656652
2718.646702,76.609550,-962.267725,9474.636058
2718.647031,0.000000,296.082377,8438.347739
2718.647360,766.095498,-888.247130,9474.636058
2718.647689,153.219100,-0.000000,9104.533087
2718.648019,0.000000,740.205942,7550.100608
2718.648348,842.705048,592.164754,8956.491898
2718.648677,689.485948,296.082377,9992.780217
2718.649006,1225.752797,148.041188,8586.388927
2718.649335,612.876398,-444.123565,9178.553681
2718.649664,995.924147,814.226536,9474.636058
2718.649994,766.095498,296.082377,8142.265362
2718.650323,0.000000,592.164754,8586.388927
2718.650652,0.000000,-0.000000,9844.739029
2718.650981,76.609550,-222.061783,9104.533087
2718.651310,-383.047749,-0.000000,8734.430116
2718.651640,0.000000,-1628.453072,9992.780217
2718.651969,-459.657299,-1406.391290,9548.656652
2718.652298,-842.705048,-740.205942,8882.471304
2718.652627,-306.438199,-0.000000,8956.491898
2718.652956,306.438199,-592.164754,9696.697840
2718.653285,383.047749,1184.329507,9030.512492
2718.653615,536.266849,-444.123565,8956.491898
2718.653944,689.485948,-0.000000,8956.491898
2718.654273,689.485948,444.123565,8068.244768
2718.654602,1225.752797,1184.329507,8290.306550
2718.654931,766.095498,-0.000000,9474.636058
2718.655261,919.314598,-666.185348,9696.697840
2718.655590,0.000000,-0.000000,8290.306550
2718.655919,842.705048,-1110.308913,9844.739029
2718.656248,76.609550,-0.000000,8808.450710
2718.656577,-612.876398,-0.000000,8956.491898
2718.656906,-1225.752797,962.267725,9252.574275
2718.657236,0.000000,-148.041188,9770.718434
2718.657565,-153.219100,-222.061783,9918.759623
2718.657894,0.000000,-666.185348,9548.656652
2718.658223,383.047749,-962.267725,9474.636058
2718.658552,842.705048,-444.123565,9178.553681
2718.658881,1455.581446,814.226536,8290.306550
2718.659211,1455.581446,1184.329507,8512.368333
2718.659540,1378.971896,1554.432478,8808.450710
2718.659869,1455.581446,1998.556043,7846.182985
2718.660198,1455.581446,1184.329507,8142.265362
2718.660527,1608.800546,814.226536,9178.553681
2718.660857,459.657299,-74.020594,8216.285956
2718.661186,-536.266849,-888.247130,9178.553681
2718.661515,-919.314598,-1702.473667,10288.862594
2718.661844,-995.924147,-2442.679609,10807.006753
2718.662173,-995.924147,-518.144159,8882.471304
2718.662502,-689.485948,-1036.288319,9622.677246
2718.662832,-153.219100,-370.102971,9178.553681
2718.663161,-383.047749,592.164754,8438.347739
2718.663490,842.705048,-74.020594,8438.347739
2718.663819,1072.533697,-666.185348,9474.636058
2718.664148,919.314598,666.185348,8734.430116
2718.664478,1302.362347,-370.102971,7920.203579
2718.664807,995.924147,-592.164754,9178.553681
2718.665136,229.828649,-814.226536,9178.553681
2718.665465,0.000000,-962.267725,8808.450710
2718.665794,-612.876398,-740.205942,9918.759623
2718.666123,-459.657299,-962.267725,9400.615463
2718.666453,-842.705048,-370.102971,9696.697840
2718.666782,-1149.143247,-740.205942,9474.636058
2718.667111,-612.876398,-1406.391290,9326.594869
2718.667440,0.000000,-296.082377,9252.574275
2718.667769,0.000000,-888.247130,8808.450710
2718.668099,919.314598,-1406.391290,9844.739029
2718.668428,1378.971896,-148.041188,8660.409521
2718.668757,1378.971896,-148.041188,7994.224174
2718.669086,1455.581446,-0.000000,8660.409521
2718.669415,842.705048,518.144159,8512.368333
2718.669744,0.000000,444.123565,8882.471304
2718.670074,306.438199,814.226536,8808.450710
2718.670403,766.095498,-592.164754,9918.759623
2718.670732,459.657299,-0.000000,9104.533087
2718.671061,0.000000,-814.226536,9400.615463
2718.671390,229.828649,-888.247130,9992.780217
2718.671720,0.000000,-0.000000,8290.306550
2718.672049,0.000000,592.164754,8290.306550
2718.672378,536.266849,518.144159,8586.388927
2718.672707,689.485948,740.205942,8438.347739
2718.673036,1072.533697,592.164754,8364.327145
2718.673365,766.095498,-444.123565,8956.491898
2718.673695,306.438199,-444.123565,9104.533087
2718.674024,-306.438199,-0.000000,8586.388927
2718.674353,-612.876398,-296.082377,9844.739029
2718.674682,153.219100,-1110.308913,10288.862594
2718.675011,-229.828649,-1184.329507,9918.759623
2718.675340,229.828649,-518.144159,9030.512492
2718.675670,459.657299,-666.185348,10214.842000
2718.675999,536.266849,1110.308913,8586.388927
2718.676328,383.047749,2146.597232,7476.080014
2718.676657,919.314598,222.061783,8956.491898
2718.676986,842.705048,814.226536,8808.450710
2718.677316,1378.971896,518.144159,8512.368333
2718.677645,1149.143247,-518.144159,8734.430116
2718.677974,459.657299,-518.144159,9400.615463
2718.678303,0.000000,-814.226536,9104.533087
2718.678632,-995.924147,-0.000000,8956.491898
2718.678961,-383.047749,-1554.432478,10658.965565
2718.679291,-383.047749,-444.123565,9474.636058
2718.679620,0.000000,592.164754,9178.553681
2718.679949,153.219100,-296.082377,10140.821405
2718.680278,1225.752797,222.061783,9696.697840
2718.680607,1455.581446,888.247130,8364.327145
2718.680937,1149.143247,296.082377,9030.512492
2718.681266,1915.238745,444.123565,9178.553681
2718.681595,1991.848295,-0.000000,7920.203579
2718.681924,2221.676944,-0.000000,8660.409521
2718.682253,1685.410096,-0.000000,8216.285956
2718.682582,153.219100,-962.267725,8142.265362
2718.682912,-919.314598,-148.041188,8956.491898
2718.683241,-842.705048,-1998.556043,10510.924376
2718.683570,-1072.533697,-3108.864956,10510.924376
2718.683899,-1838.629195,-2368.659014,9474.636058
2718.684228,-1225.752797,-3404.947333,10658.965565
2718.684558,-612.876398,-3108.864956,10732.986159
2718.684887,536.266849,-1036.288319,8882.471304
2718.685216,229.828649,-1184.329507,8586.388927
2718.685545,1685.410096,-962.267725,8956.491898
2718.685874,2604.724693,-0.000000,7254.018232
2718.686203,1991.848295,-444.123565,7105.977043
2718.686533,2298.286494,-1628.453072,8586.388927
2718.686862,1378.971896,-3182.885551,8290.306550
2718.687191,-459.657299,-2664.741391,7994.224174
2718.687520,-1455.581446,-4071.132681,9548.656652
2718.687849,-1225.752797,-5181.441594,10658.965565
2718.688179,-1838.629195,-4737.318029,9696.697840
2718.688508,-2374.896044,-4589.276840,10584.944971
2718.688837,-1302.362347,-5403.503377,11695.253884
2718.689166,0.000000,-3923.091493,8882.471304
2718.689495,459.657299,-1628.453072,8512.368333
2718.689824,1149.143247,-1184.329507,8438.347739
2718.690154,2451.505594,-1628.453072,7105.977043
2718.690483,3830.477490,-1258.350101,7846.182985
2718.690812,2987.772442,-518.144159,6735.874072
2718.691141,2681.334243,-2368.659014,8290.306550
2718.691470,2145.067394,-2664.741391,7920.203579
2718.691799,306.438199,-1702.473667,7476.080014
2718.692129,-842.705048,-3256.906145,9918.759623
2718.692458,-1149.143247,-5403.503377,9918.759623
2718.692787,-1149.143247,-5551.544565,10881.027347
2718.693116,-1762.019645,-5255.462188,11177.109724
2718.693445,-1302.362347,-4959.379811,10288.862594
2718.693775,-306.438199,-5699.585753,10881.027347
2718.694104,1149.143247,-2738.761985,8586.388927
2718.694433,1225.752797,-1110.308913,8364.327145
2718.694762,2145.067394,-962.267725,8512.368333
2718.695091,2757.943793,-1184.329507,7031.956449
2718.695420,3830.477490,-666.185348,7031.956449
2718.695750,2374.896044,-1110.308913,7846.182985
2718.696079,1225.752797,-2220.617826,8142.265362
2718.696408,0.000000,-4219.173869,9104.533087
2718.696737,-306.438199,-4071.132681,9474.636058
2718.697066,-1915.238745,-4663.297435,9622.677246
2718.697396,-2451.505594,-6291.750507,10658.965565
2718.697725,-2221.676944,-6291.750507,10658.965565
2718.698054,-1838.629195,-4441.235652,9918.759623
2718.698383,-1378.971896,-4145.153275,9030.512492
2718.698712,-1072.533697,-3627.009116,9474.636058
2718.699041,919.314598,-2516.700203,9770.718434
2718.699371,2528.115143,-1702.473667,7920.203579
2718.699700,2528.115143,-962.267725,6809.894666
2718.700029,2451.505594,-1184.329507,7179.997637
2718.700358,2834.553343,-1036.288319,8290.306550
2718.700687,2528.115143,-1924.535449,7624.121203
2718.701017,1762.019645,-3404.947333,7698.141797
2718.701346,76.609550,-3701.029710,9178.553681
2718.701675,-1532.190996,-4293.194464,9918.759623
2718.702004,-1302.362347,-5107.421000,10362.883188
2718.702333,-1991.848295,-5329.482782,9770.718434
2718.702662,-2681.334243,-5107.421000,11399.171507
2718.702992,-2374.896044,-4145.153275,11695.253884
2718.703321,-842.705048,-4071.132681,10362.883188
2718.703650,766.095498,-3108.864956,9918.759623
2718.703979,2221.676944,-1628.453072,8734.430116
2718.704308,2145.067394,-1332.370696,8882.471304
2718.704637,2681.334243,-740.205942,8734.430116
2718.704967,4060.306139,-814.226536,7994.224174
2718.705296,3983.696590,-0.000000,7846.182985
2718.705625,2221.676944,-0.000000,7328.038826
2718.705954,1838.629195,-2146.597232,8512.368333
2718.706283,1532.190996,-3552.988522,9326.594869
2718.706613,1072.533697,-3330.926739,8512.368333
2718.706942,-459.657299,-4737.318029,9252.574275
2718.707271,-2374.896044,-4737.318029,9918.759623
2718.707600,-2987.772442,-5255.462188,10732.986159
2718.707929,-2221.676944,-4293.194464,9770.718434
2718.708258,-1302.362347,-3627.009116,9548.656652
2718.708588,-383.047749,-2886.803174,9252.574275
2718.708917,-306.438199,-2072.576638,9104.533087
2718.709246,689.485948,-1850.514855,9400.615463
2718.709575,1838.629195,-1776.494261,7920.203579
2718.709904,2681.334243,-2220.617826,7772.162391
2718.710234,2374.896044,-2812.782580,8660.409521
2718.710563,1608.800546,-3034.844362,9400.615463
2718.710892,1378.971896,-3404.947333,9030.512492
2718.711221,1302.362347,-2960.823768,8290.306550
2718.711550,842.705048,-2442.679609,8290.306550
2718.711879,0.000000,-2442.679609,9178.553681
2718.712209,0.000000,-3182.885551,9844.739029
2718.712538,-689.485948,-4367.215058,9548.656652
2718.712867,-995.924147,-3330.926739,9030.512492
2718.713196,-153.219100,-3478.967927,9030.512492
2718.713525,0.000000,-4071.132681,9770.718434
2718.713855,153.219100,-4293.194464,10362.883188
2718.714184,229.828649,-4885.359217,9474.636058
2718.714513,306.438199,-3997.112087,8586.388927
2718.714842,919.314598,-2738.761985,8808.450710
2718.715171,459.657299,-740.205942,8438.347739
2718.715500,153.219100,-1406.391290,8586.388927
2718.715830,536.266849,-2368.659014,8660.409521
2718.716159,995.924147,-2590.720797,8808.450710
2718.716488,689.485948,-2812.782580,9030.512492
2718.716817,536.266849,-3775.050304,8734.430116
2718.717146,536.266849,-3849.070898,8660.409521
2718.717476,1149.143247,-3330.926739,8290.306550
2718.717805,919.314598,-3404.947333,8734.430116
2718.718134,766.095498,-3108.864956,9104.533087
2718.718463,153.219100,-2738.761985,8956.491898
2718.718792,229.828649,-2072.576638,8808.450710
2718.719121,-306.438199,-2368.659014,8956.491898
2718.719451,-1225.752797,-2960.823768,9474.636058
2718.719780,-919.314598,-3330.926739,10214.842000
2718.720109,-689.485948,-3701.029710,10066.800811
2718.720438,0.000000,-4219.173869,9844.739029
2718.720767,766.095498,-4367.215058,9622.677246
2718.721096,1455.581446,-3404.947333,9474.636058
2718.721426,1915.238745,-3108.864956,8734.430116
2718.721755,2221.676944,-1776.494261,7476.080014
2718.722084,3600.648841,-1110.308913,6883.915261
2718.722413,3983.696590,-592.164754,6809.894666
2718.722742,3600.648841,-1332.370696,7179.997637
2718.723072,2145.067394,-3034.844362,7994.224174
2718.723401,306.438199,-4145.153275,9326.594869
2718.723730,-1532.190996,-4737.318029,9918.759623
2718.724059,-2757.943793,-5329.482782,11103.089130
2718.724388,-3907.087040,-4589.276840,11399.171507
2718.724717,-3983.696590,-4071.132681,10955.047942
2718.725047,-3217.601092,-3552.988522,10288.862594
2718.725376,-2145.067394,-3330.926739,9770.718434
2718.725705,-383.047749,-3182.885551,9326.594869
2718.726034,1532.190996,-2960.823768,8512.368333
2718.726363,4596.572988,-2812.782580,7772.162391
2718.726692,4826.401637,-2294.638420,7254.018232
2718.727021,4366.744339,-2368.659014,7105.977043
2718.727351,4826.401637,-1776.494261,7031.956449
2718.727680,4673.182538,-370.102971,6735.874072
2718.728009,4060.306139,-518.144159,6883.915261
2718.728338,3140.991542,-1998.556043,7624.121203
2718.728667,229.828649,-2664.741391,8882.471304
2718.728996,-2298.286494,-5255.462188,11325.150913
2718.729325,-4749.792088,-4959.379811,11029.068536
2718.729655,-4903.011187,-8142.265362,12805.562797
2718.729984,-5209.449386,-6513.812290,11103.089130
2718.730313,-4366.744339,-5255.462188,11029.068536
2718.730642,-3370.820191,-4885.359217,10362.883188
2718.730971,-2604.724693,-3108.864956,8882.471304
2718.731300,-1302.362347,-3330.926739,9252.574275
2718.731629,2911.162892,-2664.741391,9326.594869
2718.731959,4290.134789,-148.041188,4737.318029
2718.732288,5898.935335,-1850.514855,7624.121203
2718.732617,3830.477490,-1776.494261,6069.688724
2718.732946,5209.449386,-222.061783,7772.162391
2718.733275,4749.792088,-222.061783,7179.997637
2718.733604,4290.134789,666.185348,6661.853478
2718.733933,3217.601092,666.185348,7920.203579
2718.734263,1991.848295,888.247130,6661.853478
2718.734592,-1838.629195,-2960.823768,9770.718434
2718.734921,-3830.477490,-6809.894666,13175.665768
2718.735250,-3140.991542,-5033.400406,11843.295072
2718.735579,-2911.162892,-8882.471304,12287.418637
2718.735908,-5056.230287,-6957.935855,10288.862594
2718.736237,-2911.162892,-6069.688724,12879.583391
2718.736567,153.219100,-6661.853478,9918.759623
2718.736896,2374.896044,-1258.350101,7105.977043
2718.737225,5209.449386,-296.082377,5921.647536
2718.737554,5056.230287,518.144159,5847.626942
2718.737883,3677.258390,1332.370696,7105.977043
2718.738212,2987.772442,222.061783,5551.544565
2718.738541,2221.676944,-888.247130,6069.688724
2718.738871,0.000000,-4071.132681,9326.594869
2718.739200,-2221.676944,-6365.771101,11325.150913
2718.739529,-4213.525239,-4959.379811,12435.459826
2718.739858,-4903.011187,-9252.574275,12879.583391
2718.740187,-4443.353888,-6809.894666,9918.759623
2718.740516,-3370.820191,-3256.906145,11325.150913
2718.740845,-2068.457845,-2812.782580,9696.697840
2718.741175,-2604.724693,-962.267725,8216.285956
2718.741504,-306.438199,-4959.379811,9548.656652
2718.741833,3217.601092,-3627.009116,8734.430116
2718.742162,5056.230287,-814.226536,4293.194464
2718.742491,4826.401637,-1628.453072,5699.585753
2718.742820,2221.676944,-1480.411884,5033.400406
2718.743149,4673.182538,-0.000000,8808.450710
2718.743479,1915.238745,2812.782580,5625.565159
2718.743808,2451.505594,1628.453072,6143.709319
2718.744137,-612.876398,-444.123565,7550.100608
2718.744466,-4060.306139,-3404.947333,9548.656652
2718.744795,-5132.839837,-5181.441594,11917.315666
2718.745124,-6358.592633,-5403.503377,11917.315666
2718.745453,-5439.278036,-4959.379811,11621.233289
2718.745783,-5286.058936,-3627.009116,11695.253884
2718.746112,-3830.477490,-2368.659014,9770.718434
2718.746441,-3677.258390,-1036.288319,8734.430116
2718.746770,-3140.991542,-1628.453072,7698.141797
2718.747099,-2604.724693,1406.391290,8586.388927
2718.747428,-2528.115143,-296.082377,10066.800811
2718.747757,-1225.752797,962.267725,7624.121203
2718.748087,-536.266849,148.041188,7031.956449
2718.748416,76.609550,-370.102971,6809.894666
2718.748745,-612.876398,-592.164754,6587.832884
2718.749074,842.705048,-1332.370696,10288.862594
2718.749403,-2145.067394,444.123565,8586.388927
2718.749732,-2528.115143,-962.267725,10584.944971
2718.750061,-3753.867940,-148.041188,10140.821405
2718.750391,-4673.182538,148.041188,9770.718434
2718.750720,-4366.744339,814.226536,10362.883188
2718.751049,-2681.334243,-296.082377,9252.574275
2718.751378,-2604.724693,-1702.473667,8660.409521
2718.751707,-2451.505594,-2294.638420,9622.677246
2718.752036,-2374.896044,-2738.761985,11029.068536
2718.752365,-3447.429741,-2146.597232,8290.306550
2718.752694,-1608.800546,-888.247130,9104.533087
2718.753024,-1378.971896,2072.576638,6587.832884
2718.753353,-842.705048,1036.288319,7846.182985
2718.753682,-536.266849,370.102971,10214.842000
2718.754011,-995.924147,-592.164754,8586.388927
2718.754340,-1991.848295,-1628.453072,9622.677246
2718.754669,-3677.258390,-1924.535449,9770.718434
2718.754998,-3983.696590,-1258.350101,11251.130318
2718.755328,-4749.792088,-1036.288319,11325.150913
2718.755657,-3524.039291,518.144159,9918.759623
2718.755986,-3064.381992,370.102971,9400.615463
2718.756315,-2374.896044,-0.000000,8438.347739
2718.756644,-2145.067394,1258.350101,7920.203579
2718.756973,-2298.286494,-222.061783,7179.997637
2718.757302,-2528.115143,370.102971,7402.059420
2718.757632,-2451.505594,-0.000000,7994.224174
2718.757961,-2911.162892,-444.123565,8142.265362
2718.758290,-3294.210641,-814.226536,8512.368333
2718.758619,-2834.553343,-1702.473667,9030.512492
2718.758948,-3064.381992,-2294.638420,9474.636058
2718.759277,-2911.162892,-1924.535449,9474.636058
2718.759606,-3830.477490,-1628.453072,10140.821405
2718.759936,-4060.306139,-740.205942,10362.883188
2718.760265,-4366.744339,222.061783,9992.780217
2718.760594,-3753.867940,-0.000000,9770.718434
2718.760923,-3447.429741,370.102971,9030.512492
2718.761252,-2834.553343,-0.000000,8956.491898
2718.761581,-2451.505594,-74.020594,7920.203579
2718.761910,-2604.724693,148.041188,7920.203579
2718.762240,-2987.772442,-518.144159,7550.100608
2718.762569,-2757.943793,-962.267725,7920.203579
2718.762898,-2757.943793,-1554.432478,8438.347739
2718.763227,-2374.896044,-2368.659014,8808.450710
2718.763556,-1685.410096,-2220.617826,8734.430116
2718.763885,-919.314598,-1480.411884,8882.471304
2718.764214,-689.485948,-148.041188,8808.450710
2718.764544,-536.266849,1036.288319,8512.368333
2718.764873,-306.438199,2294.638420,8364.327145
2718.765202,-229.828649,2516.700203,8438.347739
2718.765531,-153.219100,2442.679609,8734.430116
2718.765860,-1225.752797,1998.556043,8586.388927
2718.766189,-1685.410096,962.267725,7846.182985
2718.766518,-2604.724693,518.144159,8364.327145
2718.766848,-3600.648841,222.061783,8068.244768
2718.767177,-3983.696590,-1036.288319,9400.615463
2718.767506,-4290.134789,-1554.432478,9178.553681
2718.767835,-3983.696590,-2146.597232,9178.553681
2718.768164,-4136.915689,-2516.700203,9918.759623
2718.768493,-4136.915689,-2146.597232,10436.903782
2718.768822,-3447.429741,-2664.741391,11769.274478
2718.769152,-3294.210641,-2368.659014,11621.233289
2718.769481,-2681.334243,-1554.432478,12065.356855
2718.769810,-2911.162892,-0.000000,11769.274478
2718.770139,-2911.162892,592.164754,10807.006753
2718.770468,-2451.505594,1184.329507,11547.212695
2718.770797,-612.876398,2442.679609,9918.759623
2718.771126,459.657299,4145.153275,6587.832884
2718.771456,612.876398,4219.173869,6069.688724
2718.771785,383.047749,4293.194464,4145.153275
2718.772114,-229.828649,3775.050304,4663.297435
2718.772443,-1378.971896,1184.329507,6143.709319
2718.772772,-2451.505594,-1258.350101,7179.997637
2718.773101,-3677.258390,-3330.926739,9474.636058
2718.773430,-4213.525239,-4071.132681,9622.677246
