#time,accel_x,accel_y,accel_z
2692.285741,306.438199,-222.061783,8882.471304
2692.286070,536.266849,-592.164754,9104.533087
2692.286399,306.438199,-444.123565,9178.553681
2692.286728,306.438199,-370.102971,8808.450710
2692.287057,153.219100,-222.061783,9104.533087
2692.287386,76.609550,-74.020594,9030.512492
2692.287715,306.438199,-148.041188,9178.553681
2692.288044,383.047749,-296.082377,9474.636058
2692.288372,536.266849,-370.102971,9252.574275
2692.288701,229.828649,-222.061783,8956.491898
2692.289030,0.000000,-74.020594,9548.656652
2692.289359,306.438199,-148.041188,9104.533087
2692.289688,229.828649,-222.061783,9030.512492
2692.290017,229.828649,-0.000000,9178.553681
2692.290346,306.438199,-222.061783,9326.594869
2692.290675,612.876398,-148.041188,9030.512492
2692.291004,919.314598,-222.061783,9326.594869
2692.291333,689.485948,-0.000000,9104.533087
2692.291662,459.657299,-0.000000,8808.450710
2692.291991,459.657299,-148.041188,8956.491898
2692.292320,153.219100,-0.000000,8808.450710
2692.292648,536.266849,-370.102971,8956.491898
2692.292977,612.876398,-148.041188,8956.491898
2692.293306,689.485948,-296.082377,9178.553681
2692.293635,459.657299,-296.082377,8956.491898
2692.293964,383.047749,-148.041188,8882.471304
2692.294293,306.438199,-74.020594,8882.471304
2692.294622,229.828649,-74.020594,8882.471304
2692.294951,306.438199,-148.041188,9178.553681
2692.295280,612.876398,-518.144159,8956.491898
2692.295609,229.828649,-222.061783,9030.512492
2692.295938,689.485948,-74.020594,8956.491898
2692.296267,229.828649,-148.041188,8808.450710
2692.296595,306.438199,-148.041188,9104.533087
2692.296924,229.828649,-148.041188,9252.574275
2692.297253,536.266849,-518.144159,9104.533087
2692.297582,306.438199,-296.082377,9104.533087
2692.297911,-76.609550,-0.000000,9474.636058
2692.298240,-306.438199,-74.020594,9474.636058
2692.298569,76.609550,-296.082377,9178.553681
2692.298898,306.438199,-222.061783,9030.512492
2692.299227,306.438199,-222.061783,9252.574275
2692.299556,306.438199,-222.061783,9474.636058
2692.299885,459.657299,-444.123565,9252.574275
2692.300214,-229.828649,-0.000000,9622.677246
2692.300543,76.609550,-370.102971,9474.636058
2692.300871,459.657299,-222.061783,9326.594869
2692.301200,153.219100,-74.020594,9104.533087
2692.301529,383.047749,-74.020594,9178.553681
2692.301858,612.876398,-74.020594,9474.636058
2692.302187,842.705048,-0.000000,9326.594869
2692.302516,536.266849,-222.061783,9178.553681
2692.302845,383.047749,222.061783,9178.553681
2692.303174,459.657299,-0.000000,8956.491898
2692.303503,383.047749,-0.000000,8882.471304
2692.303832,153.219100,-74.020594,8808.450710
2692.304161,383.047749,-296.082377,9104.533087
2692.304490,536.266849,-370.102971,8956.491898
2692.304818,76.609550,-222.061783,8882.471304
2692.305147,153.219100,-0.000000,9326.594869
2692.305476,229.828649,-148.041188,8882.471304
2692.305805,459.657299,-74.020594,8734.430116
2692.306134,306.438199,-74.020594,8882.471304
2692.306463,536.266849,-370.102971,8808.450710
2692.306792,459.657299,-444.123565,8882.471304
2692.307121,689.485948,-518.144159,8734.430116
2692.307450,306.438199,-370.102971,8956.491898
2692.307779,536.266849,-222.061783,8956.491898
2692.308108,306.438199,-370.102971,8882.471304
2692.308437,229.828649,-148.041188,9104.533087
2692.308766,459.657299,-148.041188,9178.553681
2692.309094,536.266849,-222.061783,9030.512492
2692.309423,306.438199,-74.020594,9326.594869
2692.309752,-383.047749,-0.000000,9326.594869
2692.310081,229.828649,-296.082377,9178.553681
2692.310410,229.828649,-148.041188,9252.574275
2692.310739,383.047749,-74.020594,9400.615463
2692.311068,919.314598,-296.082377,9104.533087
2692.311397,76.609550,-296.082377,9474.636058
2692.311726,229.828649,-444.123565,9178.553681
2692.312055,536.266849,-518.144159,9400.615463
2692.312384,229.828649,-148.041188,9178.553681
2692.312713,383.047749,-74.020594,9178.553681
2692.313041,612.876398,-74.020594,9104.533087
2692.313370,459.657299,-518.144159,9178.553681
2692.313699,306.438199,-74.020594,8956.491898
2692.314028,536.266849,-0.000000,9326.594869
2692.314357,689.485948,-370.102971,9104.533087
2692.314686,459.657299,-148.041188,9104.533087
2692.315015,306.438199,-148.041188,9104.533087
2692.315344,229.828649,-222.061783,8882.471304
2692.315673,383.047749,-592.164754,9400.615463
2692.316002,1072.533697,-888.247130,9474.636058
2692.316331,1302.362347,-962.267725,8808.450710
2692.316660,1608.800546,-592.164754,9474.636058
2692.316989,1762.019645,-148.041188,8956.491898
2692.317317,2604.724693,222.061783,8808.450710
2692.317646,3524.039291,222.061783,8956.491898
2692.317975,4596.572988,-222.061783,8586.388927
2692.318304,3677.258390,-0.000000,8512.368333
2692.318633,3600.648841,444.123565,8586.388927
2692.318962,2681.334243,222.061783,8586.388927
2692.319291,2757.943793,-296.082377,9326.594869
2692.319620,2451.505594,-518.144159,8882.471304
2692.319949,1302.362347,-888.247130,9696.697840
2692.320278,1915.238745,-2072.576638,9992.780217
2692.320607,2681.334243,-1258.350101,9474.636058
2692.320936,2374.896044,-518.144159,9474.636058
2692.321264,2528.115143,-1628.453072,10140.821405
2692.321593,3294.210641,-444.123565,9104.533087
2692.321922,4290.134789,888.247130,9252.574275
2692.322251,5286.058936,962.267725,7402.059420
2692.322580,4366.744339,1628.453072,8438.347739
2692.322909,5669.106685,1184.329507,9178.553681
2692.323238,4443.353888,888.247130,7328.038826
2692.323567,4519.963438,1110.308913,9178.553681
2692.323896,2987.772442,-0.000000,8734.430116
2692.324225,2451.505594,-0.000000,9104.533087
2692.324554,1532.190996,-814.226536,9622.677246
2692.324883,1149.143247,-814.226536,9548.656652
2692.325211,1685.410096,-1332.370696,10140.821405
2692.325540,1378.971896,-1258.350101,9622.677246
2692.325869,1838.629195,-0.000000,9918.759623
2692.326198,1991.848295,-444.123565,9992.780217
2692.326527,3140.991542,888.247130,7772.162391
2692.326856,3983.696590,444.123565,9474.636058
2692.327185,4443.353888,1628.453072,8142.265362
2692.327514,4903.011187,1184.329507,7846.182985
2692.327843,5286.058936,1036.288319,8438.347739
2692.328172,4366.744339,222.061783,8882.471304
2692.328501,3907.087040,-0.000000,8882.471304
2692.328830,2681.334243,-1332.370696,9104.533087
2692.329159,2528.115143,-1480.411884,9844.739029
2692.329487,2374.896044,-1850.514855,10362.883188
2692.329816,1991.848295,-2442.679609,9918.759623
2692.330145,2145.067394,-2368.659014,10436.903782
2692.330474,2604.724693,-1258.350101,10066.800811
2692.330803,3447.429741,-74.020594,9178.553681
2692.331132,3677.258390,962.267725,8734.430116
2692.331461,4596.572988,1702.473667,8216.285956
2692.331790,4826.401637,2368.659014,8142.265362
2692.332119,4979.620737,2516.700203,7328.038826
2692.332448,4673.182538,2294.638420,7698.141797
2692.332777,4443.353888,2146.597232,7550.100608
2692.333106,3447.429741,592.164754,7994.224174
2692.333434,2834.553343,-888.247130,9400.615463
2692.333763,2298.286494,-2294.638420,10066.800811
2692.334092,1762.019645,-3256.906145,10510.924376
2692.334421,1378.971896,-3552.988522,11251.130318
2692.334750,2528.115143,-2960.823768,11177.109724
2692.335079,3447.429741,-1924.535449,10955.047942
2692.335408,4290.134789,-0.000000,9770.718434
2692.335737,5362.668486,1036.288319,9400.615463
2692.336066,6128.763984,2072.576638,8586.388927
2692.336395,5132.839837,2738.761985,7994.224174
2692.336724,4749.792088,3478.967927,7402.059420
2692.337053,4596.572988,3701.029710,6587.832884
2692.337382,3830.477490,2516.700203,6143.709319
2692.337710,3524.039291,1850.514855,7105.977043
2692.338039,2068.457845,-1110.308913,8586.388927
2692.338368,0.000000,-4589.276840,10658.965565
2692.338697,-1302.362347,-3849.070898,10584.944971
2692.339026,-536.266849,-5921.647536,12139.377449
2692.339355,-995.924147,-2664.741391,9622.677246
2692.339684,459.657299,-1554.432478,11103.089130
2692.340013,1302.362347,-444.123565,10066.800811
2692.340342,2528.115143,1702.473667,10881.027347
2692.340671,6052.154434,1184.329507,9474.636058
2692.341000,7354.516781,1850.514855,8216.285956
2692.341329,5822.325785,1110.308913,7698.141797
2692.341657,5822.325785,1998.556043,6809.894666
2692.341986,6052.154434,2368.659014,7031.956449
2692.342315,5132.839837,1184.329507,7105.977043
2692.342644,5132.839837,2738.761985,5329.482782
2692.342973,4826.401637,2368.659014,6439.791695
2692.343302,4366.744339,888.247130,5921.647536
2692.343631,3677.258390,-2072.576638,9252.574275
2692.343960,0.000000,-6809.894666,12065.356855
2692.344289,-383.047749,-6291.750507,11695.253884
2692.344618,-2068.457845,-3849.070898,13397.727550
2692.344947,-1149.143247,-6513.812290,14285.974681
2692.345276,-766.095498,296.082377,10436.903782
2692.345605,2451.505594,-0.000000,12065.356855
2692.345933,4290.134789,1998.556043,9918.759623
2692.346262,6511.811733,2294.638420,9474.636058
2692.346591,6894.859482,1480.411884,9548.656652
2692.346920,7584.345430,4367.215058,6883.915261
2692.347249,7737.564530,4959.379811,5551.544565
2692.347578,7660.954980,1406.391290,5107.421000
2692.347907,7584.345430,1850.514855,5033.400406
2692.348236,6511.811733,1258.350101,7031.956449
2692.348565,4979.620737,814.226536,5995.668130
2692.348894,4136.915689,2072.576638,5181.441594
2692.349223,3217.601092,-2812.782580,9918.759623
2692.349552,-842.705048,-4885.359217,13101.645173
2692.349880,-2834.553343,-3108.864956,11695.253884
2692.350209,-1762.019645,-2886.803174,14285.974681
2692.350538,-1072.533697,-4885.359217,11473.192101
2692.350867,-306.438199,2664.741391,11695.253884
2692.351196,1532.190996,-962.267725,11473.192101
2692.351525,-536.266849,2664.741391,9770.718434
2692.351854,4596.572988,-814.226536,13027.624579
2692.352183,8120.612279,1554.432478,4441.235652
2692.352512,8350.440928,1258.350101,8882.471304
2692.352841,5975.544884,1110.308913,6735.874072
2692.353170,7201.297681,1480.411884,5181.441594
2692.353499,5898.935335,-0.000000,8586.388927
2692.353827,5592.497135,962.267725,4219.173869
2692.354156,4826.401637,2072.576638,8290.306550
2692.354485,3140.991542,1776.494261,7105.977043
2692.354814,3677.258390,1184.329507,8364.327145
2692.355143,2451.505594,-148.041188,9844.739029
2692.355472,229.828649,-3404.947333,12065.356855
2692.355801,-459.657299,-592.164754,11103.089130
2692.356130,0.000000,-4441.235652,13915.871710
2692.356459,-842.705048,-2664.741391,10658.965565
2692.356788,612.876398,370.102971,10881.027347
2692.357117,1915.238745,1110.308913,10510.924376
2692.357446,2451.505594,1554.432478,8142.265362
2692.357775,3753.867940,1110.308913,7846.182985
2692.358103,3753.867940,962.267725,7772.162391
2692.358432,4290.134789,2072.576638,7105.977043
2692.358761,3753.867940,296.082377,8216.285956
2692.359090,3447.429741,-1924.535449,7920.203579
2692.359419,2681.334243,-2442.679609,9400.615463
2692.359748,2145.067394,-2442.679609,10732.986159
2692.360077,1608.800546,-1480.411884,10510.924376
2692.360406,1532.190996,-444.123565,10510.924376
2692.360735,3370.820191,740.205942,10140.821405
2692.361064,3140.991542,1332.370696,9178.553681
2692.361393,3600.648841,740.205942,9770.718434
2692.361722,4519.963438,1850.514855,8142.265362
2692.362051,5745.716235,1850.514855,8068.244768
2692.362380,5822.325785,1702.473667,7920.203579
2692.362709,5209.449386,962.267725,7920.203579
2692.363038,4519.963438,-444.123565,8068.244768
2692.363367,3600.648841,-1110.308913,7994.224174
2692.363696,3140.991542,-222.061783,8882.471304
2692.364025,919.314598,-1554.432478,10436.903782
2692.364354,0.000000,-2368.659014,10584.944971
2692.364683,153.219100,-2072.576638,10362.883188
2692.365012,919.314598,-2294.638420,10436.903782
2692.365341,1149.143247,-1480.411884,9918.759623
2692.365670,1302.362347,-1480.411884,10288.862594
2692.365999,3217.601092,-370.102971,10881.027347
2692.366328,4903.011187,1850.514855,8364.327145
2692.366657,7048.078582,1850.514855,7920.203579
2692.366986,6052.154434,1554.432478,8512.368333
2692.367315,4826.401637,2072.576638,8290.306550
2692.367644,5592.497135,1850.514855,7624.121203
2692.367973,6052.154434,-74.020594,6661.853478
2692.368302,4826.401637,740.205942,8734.430116
2692.368631,5132.839837,-1184.329507,9474.636058
2692.368960,2604.724693,-1554.432478,6957.935855
2692.369289,3217.601092,-740.205942,9844.739029
2692.369618,1991.848295,-2072.576638,9104.533087
2692.369947,1685.410096,-1110.308913,11399.171507
2692.370276,153.219100,-444.123565,9992.780217
2692.370605,1685.410096,1406.391290,7920.203579
2692.370934,1608.800546,-222.061783,9326.594869
2692.371263,2298.286494,518.144159,9622.677246
2692.371592,2451.505594,1036.288319,8586.388927
2692.371921,2604.724693,1702.473667,8142.265362
2692.372250,1762.019645,222.061783,7698.141797
2692.372579,1072.533697,592.164754,8660.409521
2692.372908,383.047749,-962.267725,9474.636058
2692.373237,-459.657299,-1258.350101,8512.368333
2692.373566,-689.485948,-1332.370696,8586.388927
2692.373895,-1149.143247,-2146.597232,9104.533087
2692.374224,-536.266849,-1628.453072,10066.800811
2692.374553,-229.828649,-1258.350101,8956.491898
2692.374882,-919.314598,-1184.329507,9548.656652
2692.375211,-1532.190996,-74.020594,9326.594869
2692.375540,-383.047749,444.123565,9326.594869
2692.375869,766.095498,222.061783,9178.553681
2692.376198,0.000000,888.247130,8512.368333
2692.376527,459.657299,296.082377,9696.697840
2692.376856,0.000000,-518.144159,9030.512492
2692.377185,689.485948,-592.164754,9548.656652
2692.377514,842.705048,518.144159,7920.203579
2692.377843,1149.143247,-370.102971,8216.285956
2692.378172,995.924147,-666.185348,9178.553681
2692.378501,1149.143247,-1184.329507,9918.759623
2692.378830,383.047749,-1702.473667,9696.697840
2692.379159,995.924147,-148.041188,9474.636058
2692.379488,919.314598,-0.000000,8882.471304
2692.379817,383.047749,666.185348,9400.615463
2692.380146,1225.752797,962.267725,9992.780217
2692.380475,1149.143247,1110.308913,8290.306550
2692.380804,1225.752797,1406.391290,8512.368333
2692.381133,995.924147,1332.370696,8956.491898
2692.381462,1072.533697,444.123565,8808.450710
2692.381791,919.314598,-0.000000,9178.553681
2692.382120,229.828649,-148.041188,8734.430116
2692.382449,-689.485948,-518.144159,8734.430116
2692.382778,-919.314598,-74.020594,8068.244768
2692.383107,-995.924147,-1406.391290,9992.780217
2692.383436,-1072.533697,-962.267725,9030.512492
2692.383765,-919.314598,-1406.391290,9178.553681
2692.384094,-229.828649,-148.041188,9400.615463
2692.384423,-1302.362347,-148.041188,9474.636058
2692.384752,-995.924147,444.123565,10066.800811
2692.385081,-995.924147,-0.000000,9030.512492
2692.385410,0.000000,1110.308913,9178.553681
2692.385739,0.000000,-222.061783,9844.739029
2692.386068,229.828649,-592.164754,9992.780217
2692.386397,842.705048,-814.226536,9104.533087
2692.386726,1532.190996,444.123565,8882.471304
2692.387055,995.924147,-444.123565,8216.285956
2692.387384,1378.971896,-444.123565,8808.450710
2692.387713,2221.676944,-444.123565,8438.347739
2692.388042,1685.410096,-0.000000,7328.038826
2692.388371,1915.238745,-814.226536,8734.430116
2692.388700,919.314598,-1184.329507,9030.512492
2692.389029,1225.752797,-518.144159,8882.471304
2692.389358,0.000000,-962.267725,9548.656652
2692.389687,-612.876398,-0.000000,9474.636058
2692.390016,-689.485948,-962.267725,10436.903782
2692.390345,306.438199,444.123565,9622.677246
2692.390674,383.047749,-74.020594,9696.697840
2692.391003,306.438199,-888.247130,10436.903782
2692.391332,1378.971896,-0.000000,9326.594869
2692.391661,2221.676944,592.164754,9104.533087
2692.391990,1838.629195,814.226536,7476.080014
2692.392319,2374.896044,888.247130,8216.285956
2692.392648,2681.334243,1110.308913,7476.080014
2692.392977,2681.334243,296.082377,7846.182985
2692.393306,2221.676944,-0.000000,7624.121203
2692.393635,1685.410096,-370.102971,8660.409521
2692.393964,76.609550,-0.000000,8956.491898
2692.394293,-1302.362347,-0.000000,8808.450710
2692.394621,-1608.800546,-814.226536,9548.656652
2692.394950,-1915.238745,-518.144159,9474.636058
2692.395279,-766.095498,-370.102971,9622.677246
2692.395608,-1225.752797,-444.123565,9104.533087
2692.395937,-1608.800546,-666.185348,10362.883188
2692.396266,-1378.971896,-1036.288319,9844.739029
2692.396595,-995.924147,-74.020594,9844.739029
2692.396924,-995.924147,-0.000000,9104.533087
2692.397253,-919.314598,-0.000000,8882.471304
2692.397582,0.000000,-0.000000,8882.471304
2692.397911,76.609550,-1184.329507,9474.636058
2692.398240,153.219100,-1258.350101,9622.677246
2692.398569,536.266849,-592.164754,8142.265362
2692.398898,1762.019645,-0.000000,7476.080014
2692.399227,842.705048,740.205942,7476.080014
2692.399556,229.828649,1554.432478,7846.182985
2692.399885,306.438199,1258.350101,8808.450710
2692.400214,612.876398,814.226536,9030.512492
2692.400543,-536.266849,148.041188,9474.636058
2692.400872,-689.485948,-666.185348,10658.965565
2692.401201,153.219100,-1184.329507,11177.109724
2692.401530,-689.485948,-296.082377,10288.862594
2692.401859,-689.485948,-148.041188,9918.759623
2692.402188,536.266849,-518.144159,9696.697840
2692.402517,1225.752797,-74.020594,9548.656652
2692.402846,2068.457845,148.041188,9474.636058
2692.403175,2681.334243,-740.205942,7846.182985
2692.403504,2834.553343,370.102971,7772.162391
2692.403833,2451.505594,1628.453072,7179.997637
2692.404162,2374.896044,1332.370696,8216.285956
2692.404491,1455.581446,370.102971,7920.203579
2692.404820,1225.752797,1332.370696,7328.038826
2692.405149,919.314598,-444.123565,9178.553681
2692.405478,-1225.752797,-1110.308913,9770.718434
2692.405807,-1072.533697,-2072.576638,11399.171507
2692.406136,-995.924147,-1184.329507,9770.718434
2692.406465,-612.876398,-222.061783,9548.656652
2692.406794,-995.924147,-74.020594,9548.656652
2692.407123,0.000000,-148.041188,8882.471304
2692.407452,383.047749,-1406.391290,9474.636058
2692.407781,766.095498,-518.144159,9030.512492
2692.408110,1455.581446,148.041188,8512.368333
2692.408439,1838.629195,148.041188,7994.224174
2692.408768,459.657299,2368.659014,7031.956449
2692.409097,306.438199,1332.370696,8586.388927
2692.409426,-153.219100,-740.205942,8512.368333
2692.409755,-612.876398,444.123565,8142.265362
2692.410084,-689.485948,-2368.659014,10066.800811
2692.410413,-1685.410096,-1850.514855,9030.512492
2692.410742,-1685.410096,-2146.597232,10214.842000
2692.411071,-919.314598,-1998.556043,10881.027347
2692.411400,-995.924147,-444.123565,9622.677246
2692.411729,-612.876398,-962.267725,9770.718434
2692.412058,612.876398,-74.020594,8660.409521
2692.412387,306.438199,-148.041188,9252.574275
2692.412716,1072.533697,-1184.329507,10658.965565
2692.413045,2145.067394,370.102971,8364.327145
2692.413374,2834.553343,888.247130,8586.388927
2692.413703,1838.629195,1850.514855,7402.059420
2692.414032,1915.238745,1776.494261,7328.038826
2692.414361,1991.848295,-0.000000,8438.347739
2692.414690,2451.505594,-0.000000,7772.162391
2692.415019,612.876398,-222.061783,7994.224174
2692.415348,-459.657299,-1776.494261,9992.780217
2692.415677,-842.705048,-1776.494261,10584.944971
2692.416006,-536.266849,-740.205942,10658.965565
2692.416335,-919.314598,-592.164754,9104.533087
2692.416664,-689.485948,-592.164754,10140.821405
2692.416993,1072.533697,-296.082377,9770.718434
2692.417322,1685.410096,814.226536,9326.594869
2692.417651,2145.067394,-0.000000,8216.285956
2692.417980,2681.334243,296.082377,8438.347739
2692.418309,1915.238745,2516.700203,7328.038826
2692.418638,1302.362347,222.061783,7994.224174
2692.418967,-383.047749,-222.061783,8216.285956
2692.419296,-229.828649,-888.247130,8364.327145
2692.419625,-1302.362347,-1036.288319,8512.368333
2692.419954,-1685.410096,-1702.473667,9400.615463
2692.420283,-2145.067394,-2368.659014,10362.883188
2692.420612,-1532.190996,-1628.453072,9474.636058
2692.420941,-766.095498,-0.000000,9696.697840
2692.421270,-919.314598,-148.041188,9252.574275
2692.421599,-383.047749,-0.000000,9770.718434
2692.421928,229.828649,-74.020594,10436.903782
2692.422257,1225.752797,444.123565,8586.388927
2692.422586,2451.505594,1036.288319,8438.347739
2692.422915,2374.896044,666.185348,7328.038826
2692.423244,2068.457845,2812.782580,7846.182985
2692.423573,1378.971896,814.226536,9548.656652
2692.423902,153.219100,296.082377,8216.285956
2692.424231,-383.047749,-1036.288319,9104.533087
2692.424560,-995.924147,-1110.308913,9474.636058
2692.424889,-1532.190996,-1776.494261,9696.697840
2692.425218,-2145.067394,-2664.741391,10510.924376
2692.425547,-1302.362347,-2294.638420,10140.821405
2692.425876,-383.047749,-444.123565,9844.739029
2692.426205,-306.438199,-814.226536,9770.718434
2692.426534,-459.657299,962.267725,8956.491898
2692.426863,536.266849,-148.041188,9474.636058
2692.427192,2145.067394,-148.041188,10658.965565
2692.427521,2221.676944,592.164754,6957.935855
2692.427850,4596.572988,1184.329507,7254.018232
2692.428179,4213.525239,2590.720797,5329.482782
2692.428508,3753.867940,2220.617826,6513.812290
2692.428837,1302.362347,444.123565,7698.141797
2692.429166,766.095498,-0.000000,6883.915261
2692.429495,536.266849,-814.226536,8512.368333
2692.429824,-1225.752797,-2516.700203,11547.212695
2692.430153,-2068.457845,-2812.782580,11029.068536
2692.430482,-2221.676944,-2442.679609,10881.027347
2692.430811,-1072.533697,-1184.329507,10658.965565
2692.431140,-1302.362347,-222.061783,10140.821405
2692.431469,0.000000,740.205942,10140.821405
2692.431798,0.000000,1332.370696,9474.636058
2692.432127,-306.438199,-740.205942,10584.944971
2692.432456,995.924147,-0.000000,10214.842000
2692.432785,1225.752797,1184.329507,7254.018232
2692.433114,1685.410096,1332.370696,8364.327145
2692.433443,919.314598,1406.391290,7254.018232
2692.433772,1532.190996,962.267725,7772.162391
2692.434101,995.924147,296.082377,7550.100608
2692.434430,689.485948,-370.102971,8290.306550
2692.434759,-766.095498,-1924.535449,10288.862594
2692.435088,-1608.800546,-2294.638420,10658.965565
2692.435417,-1455.581446,-1776.494261,9696.697840
2692.435746,-1608.800546,-814.226536,10362.883188
2692.436074,-1762.019645,-1480.411884,10510.924376
2692.436403,0.000000,-370.102971,9992.780217
2692.436732,229.828649,-0.000000,9474.636058
2692.437061,383.047749,-0.000000,9326.594869
2692.437390,1378.971896,-1110.308913,10362.883188
2692.437719,1762.019645,1776.494261,7772.162391
2692.438048,1455.581446,1628.453072,7476.080014
2692.438377,1762.019645,1258.350101,7105.977043
2692.438706,2145.067394,1332.370696,6809.894666
2692.439035,1915.238745,962.267725,7179.997637
2692.439364,612.876398,-814.226536,9474.636058
2692.439693,76.609550,-3701.029710,8438.347739
2692.440022,-2221.676944,-2368.659014,11177.109724
2692.440351,-995.924147,-3108.864956,11103.089130
2692.440680,-1762.019645,-1332.370696,8660.409521
2692.441009,-459.657299,-740.205942,11029.068536
2692.441338,0.000000,-1110.308913,9326.594869
2692.441667,1378.971896,740.205942,9474.636058
2692.441996,1991.848295,-592.164754,10584.944971
2692.442325,2757.943793,1036.288319,7105.977043
2692.442654,3447.429741,962.267725,8512.368333
2692.442983,1991.848295,2738.761985,6735.874072
2692.443312,1685.410096,1480.411884,7772.162391
2692.443641,1149.143247,148.041188,7846.182985
2692.443970,459.657299,148.041188,6735.874072
2692.444299,-459.657299,-1184.329507,9326.594869
2692.444628,-1225.752797,-2886.803174,10510.924376
2692.444957,-2374.896044,-2812.782580,9918.759623
2692.445286,-1838.629195,-1258.350101,11621.233289
2692.445615,-2068.457845,-296.082377,9178.553681
2692.445944,-1838.629195,-296.082377,11695.253884
2692.446273,-153.219100,-0.000000,10362.883188
2692.446602,-689.485948,1110.308913,9474.636058
2692.446931,-306.438199,-1258.350101,9918.759623
2692.447260,0.000000,-444.123565,9918.759623
2692.447589,1608.800546,962.267725,9696.697840
2692.447918,1072.533697,2072.576638,7179.997637
2692.448247,1991.848295,2220.617826,7105.977043
2692.448576,1685.410096,888.247130,7254.018232
2692.448905,1762.019645,1480.411884,7476.080014
2692.449234,536.266849,-962.267725,8364.327145
2692.449563,-1225.752797,-2294.638420,9104.533087
2692.449892,-1915.238745,-1480.411884,10510.924376
2692.450221,-1378.971896,-1332.370696,10362.883188
2692.450550,-1762.019645,-1924.535449,10214.842000
2692.450879,-766.095498,-888.247130,10436.903782
2692.451208,612.876398,-592.164754,9992.780217
2692.451537,1532.190996,-0.000000,10288.862594
2692.451866,1838.629195,148.041188,9548.656652
2692.452195,3370.820191,1480.411884,7402.059420
2692.452524,4060.306139,2664.741391,7624.121203
2692.452853,2451.505594,2738.761985,6513.812290
2692.453182,2604.724693,2146.597232,7698.141797
2692.453511,2987.772442,1406.391290,7402.059420
2692.453840,1838.629195,-0.000000,7624.121203
2692.454169,-766.095498,-3034.844362,10214.842000
2692.454498,-2221.676944,-3404.947333,10584.944971
2692.454827,-2145.067394,-4145.153275,10510.924376
2692.455156,-1532.190996,-1924.535449,10510.924376
2692.455485,-1302.362347,-1406.391290,10288.862594
2692.455814,-1532.190996,-444.123565,10214.842000
2692.456143,0.000000,-370.102971,9918.759623
2692.456472,229.828649,444.123565,9474.636058
2692.456801,1685.410096,-518.144159,10066.800811
2692.457130,2834.553343,1628.453072,6957.935855
2692.457459,3907.087040,3552.988522,6809.894666
2692.457788,2374.896044,3330.926739,5921.647536
2692.458117,3524.039291,2146.597232,7994.224174
2692.458446,1915.238745,1628.453072,6957.935855
2692.458775,766.095498,-0.000000,7402.059420
2692.459104,-766.095498,-1776.494261,10881.027347
2692.459433,-2145.067394,-4589.276840,11251.130318
2692.459762,-2834.553343,-2812.782580,9104.533087
2692.460091,-2145.067394,-1776.494261,11325.150913
2692.460420,-2834.553343,-1702.473667,10436.903782
2692.460750,-919.314598,-814.226536,11251.130318
2692.461079,-459.657299,592.164754,11251.130318
2692.461408,-766.095498,444.123565,9178.553681
2692.461737,306.438199,-962.267725,10362.883188
2692.462067,612.876398,-0.000000,10214.842000
2692.462396,842.705048,2516.700203,8142.265362
2692.462725,2528.115143,2368.659014,7550.100608
2692.463054,3524.039291,1184.329507,5921.647536
2692.463383,3447.429741,2812.782580,6069.688724
2692.463712,2681.334243,592.164754,7105.977043
2692.464041,1149.143247,-444.123565,7328.038826
2692.464370,306.438199,-3404.947333,9696.697840
2692.464699,-766.095498,-2220.617826,10066.800811
2692.465028,-1838.629195,-2368.659014,10510.924376
2692.465357,-2911.162892,-2590.720797,10955.047942
2692.465686,-1685.410096,-1702.473667,11103.089130
2692.466015,0.000000,-888.247130,10436.903782
2692.466344,-306.438199,-0.000000,10288.862594
2692.466673,229.828649,-0.000000,11769.274478
2692.467003,1455.581446,1702.473667,9104.533087
2692.467332,2451.505594,3775.050304,7550.100608
2692.467661,1685.410096,3701.029710,7476.080014
2692.467990,1685.410096,1850.514855,7402.059420
2692.468319,2451.505594,1776.494261,7550.100608
2692.468648,1685.410096,888.247130,8216.285956
2692.468977,76.609550,-2516.700203,9252.574275
2692.469306,-2068.457845,-3849.070898,9918.759623
2692.469635,-1225.752797,-3034.844362,10140.821405
2692.469964,-1762.019645,-2072.576638,10510.924376
2692.470293,-2145.067394,-814.226536,9622.677246
2692.470622,-383.047749,666.185348,9844.739029
2692.470951,-229.828649,518.144159,10066.800811
2692.471280,-1302.362347,962.267725,9844.739029
2692.471609,459.657299,148.041188,9992.780217
2692.471938,689.485948,1036.288319,7698.141797
2692.472268,1072.533697,2368.659014,6809.894666
2692.472597,1149.143247,2368.659014,8512.368333
2692.472926,2834.553343,1184.329507,7550.100608
2692.473255,1608.800546,666.185348,6809.894666
2692.473584,-153.219100,592.164754,8808.450710
2692.473913,689.485948,-3330.926739,9178.553681
2692.474242,-1455.581446,-2442.679609,7920.203579
2692.474571,-919.314598,-1924.535449,10066.800811
2692.474900,-1991.848295,-1258.350101,9992.780217
2692.475229,-1991.848295,-2590.720797,10807.006753
2692.475558,0.000000,-0.000000,10288.862594
2692.475887,689.485948,-666.185348,9474.636058
2692.476216,0.000000,-222.061783,10140.821405
2692.476545,1455.581446,-888.247130,9622.677246
2692.476874,2681.334243,1924.535449,8734.430116
2692.477204,2221.676944,2368.659014,7846.182985
2692.477533,2374.896044,2072.576638,7994.224174
2692.477862,2145.067394,814.226536,7994.224174
2692.478191,2298.286494,1036.288319,8438.347739
2692.478520,766.095498,-1036.288319,8142.265362
2692.478849,0.000000,-2146.597232,9474.636058
2692.479178,-1149.143247,-2368.659014,9326.594869
2692.479507,-1762.019645,-1628.453072,10658.965565
2692.479836,-1149.143247,-2146.597232,10658.965565
2692.480165,-1302.362347,-1110.308913,10362.883188
2692.480494,-995.924147,-1184.329507,9844.739029
2692.480823,0.000000,-148.041188,9918.759623
2692.481152,1149.143247,296.082377,9474.636058
2692.481481,1685.410096,888.247130,8808.450710
2692.481810,2298.286494,2072.576638,7698.141797
2692.482140,1762.019645,2516.700203,8216.285956
2692.482469,1532.190996,1554.432478,7105.977043
2692.482798,1608.800546,1036.288319,7105.977043
2692.483127,995.924147,-0.000000,9178.553681
2692.483456,-612.876398,-1110.308913,8956.491898
2692.483785,-1915.238745,-3256.906145,9844.739029
2692.484114,-2068.457845,-3330.926739,10881.027347
2692.484443,-1302.362347,-1480.411884,9104.533087
2692.484772,-1302.362347,-518.144159,9326.594869
2692.485101,-1302.362347,-740.205942,9474.636058
2692.485430,-919.314598,-0.000000,9474.636058
2692.485759,-459.657299,-666.185348,10510.924376
2692.486088,612.876398,-814.226536,10510.924376
2692.486417,2221.676944,962.267725,7698.141797
2692.486746,3064.381992,2368.659014,7846.182985
2692.487076,1762.019645,1776.494261,7179.997637
2692.487405,2451.505594,2146.597232,7772.162391
2692.487734,2451.505594,1702.473667,6587.832884
2692.488063,1838.629195,1258.350101,7254.018232
2692.488392,919.314598,-1924.535449,9696.697840
2692.488721,-842.705048,-2664.741391,9844.739029
2692.489050,-1149.143247,-2590.720797,10066.800811
2692.489379,-995.924147,-1628.453072,10214.842000
2692.489708,-1378.971896,-1258.350101,9918.759623
2692.490037,-919.314598,-1110.308913,10510.924376
2692.490366,306.438199,-0.000000,9992.780217
2692.490695,995.924147,222.061783,9252.574275
2692.491024,1149.143247,-222.061783,9104.533087
2692.491353,2145.067394,1924.535449,8586.388927
2692.491682,1838.629195,2220.617826,8142.265362
2692.492012,1762.019645,2072.576638,7476.080014
2692.492341,1072.533697,1258.350101,7254.018232
2692.492670,1455.581446,740.205942,7846.182985
2692.492999,1302.362347,-888.247130,8290.306550
2692.493328,-229.828649,-2220.617826,9918.759623
2692.493657,-612.876398,-3256.906145,9918.759623
2692.493986,-919.314598,-1776.494261,9622.677246
2692.494315,-1532.190996,-814.226536,9548.656652
2692.494644,-1532.190996,-370.102971,9696.697840
2692.494973,-1072.533697,-222.061783,9696.697840
2692.495302,0.000000,-296.082377,9992.780217
2692.495631,612.876398,-74.020594,9696.697840
2692.495960,689.485948,444.123565,8808.450710
2692.496289,919.314598,1110.308913,8734.430116
2692.496618,995.924147,1850.514855,8808.450710
2692.496948,612.876398,1110.308913,8734.430116
2692.497277,689.485948,666.185348,7846.182985
2692.497606,1532.190996,740.205942,8586.388927
2692.497935,76.609550,-1554.432478,9474.636058
2692.498264,-766.095498,-3182.885551,9400.615463
2692.498593,-612.876398,-2886.803174,9696.697840
2692.498922,-76.609550,-1776.494261,8956.491898
2692.499251,-766.095498,-1184.329507,9622.677246
2692.499580,-459.657299,-518.144159,9992.780217
2692.499909,1378.971896,370.102971,9400.615463
2692.500238,1838.629195,814.226536,9474.636058
2692.500567,2221.676944,592.164754,9252.574275
2692.500896,1762.019645,740.205942,8882.471304
2692.501225,2068.457845,1554.432478,8808.450710
2692.501554,1072.533697,1480.411884,8882.471304
2692.501883,0.000000,888.247130,8734.430116
2692.502213,995.924147,-740.205942,9252.574275
2692.502542,459.657299,-592.164754,8216.285956
2692.502871,153.219100,-1406.391290,9178.553681
2692.503200,-383.047749,-2516.700203,9992.780217
2692.503529,-229.828649,-2442.679609,9326.594869
2692.503858,-153.219100,-666.185348,9178.553681
2692.504187,-689.485948,-518.144159,8734.430116
2692.504516,306.438199,-0.000000,8808.450710
2692.504845,1149.143247,592.164754,8586.388927
2692.505174,2374.896044,1480.411884,7550.100608
2692.505503,1762.019645,74.020594,8734.430116
2692.505832,689.485948,814.226536,8882.471304
2692.506161,842.705048,1406.391290,8216.285956
2692.506490,-536.266849,-0.000000,9178.553681
2692.506819,-1762.019645,-74.020594,9178.553681
2692.507149,-459.657299,-518.144159,9178.553681
2692.507478,-995.924147,-1110.308913,9326.594869
2692.507807,-1225.752797,-1332.370696,9030.512492
2692.508136,-689.485948,-1850.514855,9400.615463
2692.508465,-229.828649,-1776.494261,9622.677246
2692.508794,76.609550,-444.123565,9474.636058
2692.509123,383.047749,-222.061783,9252.574275
2692.509452,536.266849,-518.144159,8808.450710
2692.509781,2221.676944,1184.329507,8512.368333
2692.510110,2374.896044,1110.308913,8586.388927
2692.510439,1685.410096,962.267725,8290.306550
2692.510768,536.266849,666.185348,7772.162391
2692.511097,0.000000,-370.102971,11325.150913
2692.511426,-536.266849,-1110.308913,9696.697840
2692.511755,-612.876398,-1036.288319,9326.594869
2692.512085,-383.047749,-2294.638420,9622.677246
2692.512414,-306.438199,-888.247130,10140.821405
2692.512743,0.000000,-1480.411884,11547.212695
2692.513072,-459.657299,-2368.659014,9474.636058
2692.513401,1149.143247,-1184.329507,9104.533087
2692.513730,1378.971896,-148.041188,9326.594869
2692.514059,1149.143247,1184.329507,7920.203579
2692.514388,2757.943793,444.123565,7994.224174
2692.514717,2911.162892,1998.556043,7550.100608
2692.515046,2604.724693,1850.514855,7328.038826
2692.515375,2451.505594,222.061783,8660.409521
2692.515704,1149.143247,-0.000000,7624.121203
2692.516033,842.705048,592.164754,8290.306550
2692.516362,-612.876398,-888.247130,10214.842000
2692.516691,-1838.629195,-370.102971,9992.780217
2692.517021,-1302.362347,-518.144159,9696.697840
2692.517350,-842.705048,-814.226536,9326.594869
2692.517679,-1915.238745,-814.226536,9474.636058
2692.518008,-459.657299,-1924.535449,10288.862594
2692.518337,-689.485948,-518.144159,8216.285956
2692.518666,-383.047749,-518.144159,9474.636058
2692.518995,229.828649,-666.185348,9178.553681
2692.519324,1838.629195,296.082377,8216.285956
2692.519653,2451.505594,1110.308913,8068.244768
2692.519982,2221.676944,1480.411884,7994.224174
2692.520311,1838.629195,296.082377,8364.327145
2692.520640,1608.800546,1258.350101,8512.368333
2692.520969,383.047749,518.144159,8512.368333
2692.521298,-1149.143247,370.102971,9844.739029
2692.521627,-1302.362347,-1554.432478,9844.739029
2692.521957,-1302.362347,-888.247130,9992.780217
2692.522286,-1532.190996,-2220.617826,10140.821405
2692.522615,-1225.752797,-2220.617826,9696.697840
2692.522944,-1608.800546,-1850.514855,9844.739029
2692.523273,-689.485948,-888.247130,10066.800811
2692.523602,-536.266849,-0.000000,9548.656652
2692.523931,536.266849,-444.123565,9844.739029
2692.524260,1915.238745,740.205942,7550.100608
2692.524589,3064.381992,1702.473667,7994.224174
2692.524918,2451.505594,1406.391290,7179.997637
2692.525247,2451.505594,962.267725,8364.327145
2692.525576,1762.019645,592.164754,8216.285956
2692.525905,76.609550,1184.329507,8068.244768
2692.526234,-459.657299,-370.102971,9548.656652
2692.526563,-1225.752797,-296.082377,9178.553681
2692.526893,-919.314598,-814.226536,9622.677246
2692.527222,-1225.752797,-2146.597232,9992.780217
2692.527551,-1838.629195,-1702.473667,9474.636058
2692.527880,-1072.533697,-2220.617826,10510.924376
2692.528209,-1608.800546,-592.164754,8956.491898
2692.528538,-995.924147,-0.000000,9400.615463
2692.528867,1149.143247,-370.102971,9696.697840
2692.529196,2145.067394,1628.453072,6587.832884
2692.529525,2757.943793,2072.576638,8364.327145
2692.529854,2757.943793,1776.494261,7105.977043
2692.530183,2374.896044,1184.329507,7402.059420
2692.530512,383.047749,1258.350101,8290.306550
2692.530841,76.609550,666.185348,8956.491898
2692.531170,-1762.019645,-1258.350101,10584.944971
2692.531499,-2145.067394,-1184.329507,9474.636058
2692.531828,-1455.581446,-1406.391290,10362.883188
2692.532158,-1915.238745,-1924.535449,10955.047942
2692.532487,-1608.800546,-1628.453072,10362.883188
2692.532816,-919.314598,-1110.308913,9992.780217
2692.533145,-1378.971896,-370.102971,9326.594869
2692.533474,-1685.410096,-74.020594,10066.800811
2692.533803,919.314598,-1110.308913,11177.109724
2692.534132,2298.286494,-0.000000,7846.182985
2692.534461,2451.505594,1702.473667,7920.203579
2692.534790,3140.991542,666.185348,7994.224174
2692.535119,2987.772442,1702.473667,7328.038826
2692.535448,3217.601092,1850.514855,8290.306550
2692.535777,1685.410096,444.123565,8512.368333
2692.536106,1225.752797,-666.185348,9104.533087
2692.536435,-229.828649,-888.247130,9326.594869
2692.536764,0.000000,-1258.350101,8882.471304
2692.537094,-1608.800546,-2146.597232,11029.068536
2692.537423,-1378.971896,-2960.823768,10807.006753
2692.537752,536.266849,-2442.679609,10066.800811
2692.538081,1072.533697,-222.061783,9104.533087
2692.538410,2374.896044,1036.288319,7179.997637
2692.538739,3447.429741,1258.350101,7698.141797
2692.539068,4136.915689,2220.617826,7624.121203
2692.539397,4596.572988,3478.967927,7105.977043
2692.539726,3677.258390,1554.432478,7550.100608
2692.540055,2145.067394,1332.370696,8142.265362
2692.540384,1455.581446,444.123565,7920.203579
2692.540713,-1149.143247,-1036.288319,9548.656652
2692.541042,-2451.505594,-2590.720797,10362.883188
2692.541371,-2298.286494,-2886.803174,11029.068536
2692.541700,-2221.676944,-1998.556043,10288.862594
2692.542030,-2604.724693,-1850.514855,9400.615463
2692.542359,-1685.410096,-1628.453072,10436.903782
2692.542688,-995.924147,-740.205942,9400.615463
2692.543017,-383.047749,370.102971,9104.533087
2692.543346,306.438199,-1036.288319,10066.800811
2692.543675,1302.362347,1628.453072,6809.894666
2692.544004,3907.087040,1184.329507,7772.162391
2692.544333,2834.553343,2146.597232,6587.832884
2692.544662,2834.553343,1776.494261,7624.121203
2692.544991,2528.115143,2368.659014,7920.203579
2692.545320,229.828649,2368.659014,7698.141797
2692.545649,-1225.752797,-296.082377,10140.821405
2692.545978,-2528.115143,-1702.473667,9918.759623
2692.546307,-2374.896044,-2442.679609,10732.986159
2692.546636,-2757.943793,-2368.659014,10362.883188
2692.546966,-1991.848295,-2960.823768,10214.842000
2692.547295,-2221.676944,-2368.659014,11103.089130
2692.547624,-1532.190996,148.041188,10510.924376
2692.547953,-995.924147,888.247130,9844.739029
2692.548282,-1302.362347,666.185348,8660.409521
2692.548611,1072.533697,-148.041188,10584.944971
2692.548940,2451.505594,296.082377,7550.100608
2692.549269,2911.162892,1480.411884,8512.368333
2692.549598,3600.648841,592.164754,8068.244768
2692.549927,3370.820191,1702.473667,6513.812290
2692.550256,2987.772442,1702.473667,7772.162391
2692.550585,919.314598,814.226536,8364.327145
2692.550914,1072.533697,-0.000000,8290.306550
2692.551243,-459.657299,-1184.329507,9696.697840
2692.551572,-1072.533697,-1184.329507,10288.862594
2692.551902,-2298.286494,-2590.720797,11251.130318
2692.552231,-1762.019645,-3256.906145,10955.047942
2692.552560,-1915.238745,-1480.411884,10658.965565
2692.552889,-842.705048,-1110.308913,10436.903782
2692.553218,536.266849,148.041188,8882.471304
2692.553547,1915.238745,962.267725,7550.100608
2692.553876,3064.381992,1184.329507,8142.265362
2692.554205,2528.115143,1998.556043,7105.977043
2692.554534,3524.039291,1036.288319,7772.162391
2692.554863,1991.848295,1480.411884,7179.997637
2692.555192,995.924147,666.185348,8512.368333
2692.555521,-153.219100,-814.226536,8438.347739
2692.555850,-1149.143247,-1702.473667,8882.471304
2692.556179,-1762.019645,-1924.535449,10362.883188
2692.556508,-2298.286494,-2812.782580,11547.212695
2692.556837,-1838.629195,-2368.659014,11029.068536
2692.557167,-1685.410096,-1332.370696,10807.006753
2692.557496,-1838.629195,-518.144159,10288.862594
2692.557825,-1762.019645,370.102971,9326.594869
2692.558154,0.000000,-370.102971,11103.089130
2692.558483,1915.238745,962.267725,8216.285956
2692.558812,3294.210641,1184.329507,7328.038826
2692.559141,3217.601092,2072.576638,7550.100608
2692.559470,2757.943793,1406.391290,6143.709319
2692.559799,2834.553343,2442.679609,7328.038826
2692.560128,1685.410096,1850.514855,7254.018232
2692.560457,1072.533697,-518.144159,8142.265362
2692.560786,-459.657299,-592.164754,8512.368333
2692.561115,-536.266849,-1036.288319,9474.636058
2692.561444,-1608.800546,-3404.947333,11325.150913
2692.561773,-2145.067394,-3330.926739,11103.089130
2692.562103,-1608.800546,-2072.576638,10955.047942
2692.562432,-1378.971896,-962.267725,11029.068536
2692.562761,-766.095498,-296.082377,10584.944971
2692.563090,995.924147,222.061783,9622.677246
2692.563419,3677.258390,1036.288319,7550.100608
2692.563748,4136.915689,2812.782580,6587.832884
2692.564077,4213.525239,2294.638420,7550.100608
2692.564406,4290.134789,2812.782580,6439.791695
2692.564735,3140.991542,2590.720797,7624.121203
2692.565064,1225.752797,1110.308913,7920.203579
2692.565394,-153.219100,-814.226536,8216.285956
2692.565723,-1532.190996,-1480.411884,9326.594869
2692.566052,-2757.943793,-2294.638420,11177.109724
2692.566381,-3064.381992,-3997.112087,11991.336260
2692.566710,-2604.724693,-3256.906145,10066.800811
2692.567039,-2374.896044,-1184.329507,11103.089130
2692.567368,-2604.724693,-666.185348,10510.924376
2692.567697,-2374.896044,-148.041188,10066.800811
2692.568026,-1455.581446,-148.041188,9548.656652
2692.568355,2221.676944,-0.000000,9770.718434
2692.568685,2451.505594,1850.514855,6587.832884
2692.569014,3677.258390,1998.556043,7846.182985
2692.569343,3524.039291,1924.535449,6957.935855
2692.569672,2681.334243,3701.029710,6809.894666
2692.570001,1302.362347,1184.329507,7402.059420
2692.570330,229.828649,-148.041188,8290.306550
2692.570659,-1532.190996,-814.226536,9326.594869
2692.570988,-2451.505594,-1702.473667,9844.739029
2692.571317,-2987.772442,-3108.864956,11103.089130
2692.571647,-3753.867940,-3404.947333,11103.089130
2692.571976,-2451.505594,-1998.556043,11399.171507
2692.572305,-1991.848295,-740.205942,9474.636058
2692.572634,-1685.410096,-0.000000,9400.615463
2692.572963,536.266849,-148.041188,9178.553681
2692.573292,2681.334243,-222.061783,9326.594869
2692.573621,3753.867940,1110.308913,7550.100608
2692.573950,5209.449386,1332.370696,7031.956449
2692.574279,4213.525239,2220.617826,5921.647536
2692.574608,4060.306139,2738.761985,6883.915261
2692.574938,3370.820191,2368.659014,6883.915261
2692.575267,2834.553343,2220.617826,5847.626942
2692.575596,3140.991542,740.205942,7402.059420
2692.575925,229.828649,-740.205942,8512.368333
2692.576254,-1762.019645,-4663.297435,11325.150913
2692.576583,-3447.429741,-3330.926739,11177.109724
2692.576912,-2298.286494,-4293.194464,12509.480420
2692.577241,-2757.943793,-2146.597232,9770.718434
2692.577570,-1915.238745,-740.205942,11177.109724
2692.577900,-1455.581446,888.247130,8734.430116
2692.578229,1225.752797,-666.185348,11251.130318
2692.578558,2374.896044,592.164754,8586.388927
2692.578887,3524.039291,2368.659014,8216.285956
2692.579216,3753.867940,2294.638420,7772.162391
2692.579545,2068.457845,3256.906145,6513.812290
2692.579874,1302.362347,962.267725,8734.430116
2692.580203,1915.238745,1184.329507,7920.203579
2692.580532,1915.238745,-0.000000,7624.121203
2692.580861,-229.828649,-740.205942,10510.924376
2692.581191,-2068.457845,-2072.576638,10436.903782
2692.581520,-2911.162892,-3256.906145,12361.439231
2692.581849,-2451.505594,-2146.597232,10584.944971
2692.582178,-1685.410096,-814.226536,10955.047942
2692.582507,-1991.848295,-1110.308913,10510.924376
2692.582836,-229.828649,-0.000000,9770.718434
2692.583165,1532.190996,296.082377,9918.759623
2692.583494,2451.505594,-0.000000,7920.203579
2692.583823,3140.991542,1924.535449,6365.771101
2692.584153,2987.772442,2664.741391,7328.038826
2692.584482,2068.457845,2738.761985,7624.121203
2692.584811,1532.190996,1036.288319,8142.265362
2692.585140,1838.629195,740.205942,7179.997637
2692.585469,459.657299,-1554.432478,9252.574275
2692.585798,-1455.581446,-2664.741391,10066.800811
2692.586127,-2451.505594,-3701.029710,10510.924376
2692.586456,-2298.286494,-3849.070898,11621.233289
2692.586785,-1838.629195,-2146.597232,10362.883188
2692.587114,-1915.238745,-888.247130,10510.924376
2692.587444,-995.924147,-0.000000,10214.842000
2692.587773,1608.800546,666.185348,9326.594869
2692.588102,2604.724693,1036.288319,7105.977043
2692.588431,3830.477490,1480.411884,7105.977043
2692.588760,3140.991542,2886.803174,6439.791695
2692.589089,2834.553343,2590.720797,7476.080014
2692.589418,842.705048,1924.535449,7402.059420
2692.589747,-153.219100,592.164754,7846.182985
2692.590076,-459.657299,-1628.453072,8512.368333
2692.590406,-1685.410096,-2146.597232,8734.430116
2692.590735,-2145.067394,-2738.761985,11399.171507
2692.591064,-3294.210641,-2812.782580,9548.656652
2692.591393,-2068.457845,-2812.782580,10436.903782
2692.591722,-2451.505594,-888.247130,10584.944971
2692.592051,-1532.190996,-222.061783,10510.924376
2692.592380,-1532.190996,-74.020594,9622.677246
2692.592709,-536.266849,-0.000000,9252.574275
2692.593038,1149.143247,592.164754,10510.924376
2692.593367,919.314598,1480.411884,8142.265362
2692.593697,2298.286494,1554.432478,8438.347739
2692.594026,2068.457845,2294.638420,7328.038826
2692.594355,2068.457845,2294.638420,8068.244768
2692.594684,1455.581446,-0.000000,7994.224174
2692.595013,1149.143247,666.185348,7254.018232
2692.595342,153.219100,-370.102971,8882.471304
2692.595671,-1378.971896,-2886.803174,9918.759623
2692.596000,-1762.019645,-2812.782580,9548.656652
2692.596329,-1225.752797,-2812.782580,10732.986159
2692.596658,-689.485948,-1924.535449,11325.150913
2692.596988,229.828649,-1924.535449,10214.842000
2692.597317,1302.362347,-0.000000,9326.594869
2692.597646,2911.162892,1628.453072,8660.409521
2692.597975,3907.087040,814.226536,8734.430116
2692.598304,3983.696590,2294.638420,8438.347739
2692.598633,3217.601092,2738.761985,7846.182985
2692.598962,3447.429741,2738.761985,8586.388927
2692.599291,1838.629195,1480.411884,8216.285956
2692.599620,995.924147,148.041188,8882.471304
2692.599950,306.438199,-1110.308913,9474.636058
2692.600279,-612.876398,-2072.576638,9474.636058
2692.600608,-1455.581446,-3034.844362,10436.903782
2692.600937,-2068.457845,-2664.741391,11251.130318
2692.601266,-919.314598,-1850.514855,10584.944971
2692.601595,-995.924147,-1332.370696,9622.677246
2692.601924,-995.924147,-518.144159,9844.739029
2692.602253,995.924147,888.247130,8586.388927
2692.602582,2604.724693,740.205942,8882.471304
2692.602911,3370.820191,1850.514855,7772.162391
2692.603241,3677.258390,2146.597232,7105.977043
2692.603570,2681.334243,1776.494261,7105.977043
2692.603899,2221.676944,2146.597232,7476.080014
2692.604228,995.924147,2368.659014,8290.306550
2692.604557,383.047749,-148.041188,7994.224174
2692.604886,-766.095498,-666.185348,8216.285956
2692.605215,-1991.848295,-2442.679609,9844.739029
2692.605544,-2757.943793,-2886.803174,9992.780217
2692.605873,-2145.067394,-4219.173869,10066.800811
2692.606203,-2451.505594,-1850.514855,9696.697840
2692.606532,-2451.505594,-666.185348,9770.718434
2692.606861,-2298.286494,-1258.350101,9622.677246
2692.607190,-383.047749,-814.226536,9770.718434
2692.607519,1302.362347,666.185348,8142.265362
2692.607848,2298.286494,296.082377,8438.347739
2692.608177,3140.991542,814.226536,8142.265362
2692.608506,1991.848295,2368.659014,7624.121203
2692.608835,1455.581446,1258.350101,8808.450710
2692.609164,689.485948,2072.576638,7328.038826
2692.609494,1302.362347,740.205942,7920.203579
2692.609823,995.924147,-888.247130,9030.512492
2692.610152,-1302.362347,-1258.350101,9474.636058
2692.610481,-2221.676944,-3923.091493,11473.192101
2692.610810,-2145.067394,-3997.112087,9770.718434
2692.611139,-1532.190996,-1776.494261,10362.883188
2692.611468,-2145.067394,-1554.432478,11103.089130
2692.611797,-689.485948,-592.164754,10066.800811
2692.612126,919.314598,-888.247130,9696.697840
2692.612456,2298.286494,962.267725,9400.615463
2692.612785,2374.896044,962.267725,8512.368333
2692.613114,2757.943793,1406.391290,8364.327145
2692.613443,2987.772442,3182.885551,7846.182985
2692.613772,2528.115143,3330.926739,7994.224174
2692.614101,1762.019645,1258.350101,7772.162391
2692.614430,1072.533697,1110.308913,7624.121203
2692.614759,0.000000,148.041188,8216.285956
2692.615088,-1378.971896,-1406.391290,9992.780217
2692.615417,-1991.848295,-2960.823768,10362.883188
2692.615747,-2451.505594,-2442.679609,10955.047942
2692.616076,-2528.115143,-1406.391290,10955.047942
2692.616405,-3064.381992,-222.061783,9474.636058
2692.616734,-1838.629195,-222.061783,9992.780217
2692.617063,-536.266849,-518.144159,9178.553681
2692.617392,1302.362347,370.102971,9844.739029
2692.617721,766.095498,370.102971,8660.409521
2692.618050,2145.067394,1776.494261,8512.368333
2692.618379,2681.334243,1184.329507,7402.059420
2692.618708,1762.019645,2590.720797,6883.915261
2692.619038,1762.019645,370.102971,8882.471304
2692.619367,1455.581446,-222.061783,7402.059420
2692.619696,1762.019645,-0.000000,7328.038826
2692.620025,76.609550,-1406.391290,9178.553681
2692.620354,-612.876398,-2664.741391,9622.677246
2692.620683,-1149.143247,-1998.556043,11103.089130
2692.621012,-919.314598,-1850.514855,10510.924376
2692.621341,-1455.581446,-1258.350101,9696.697840
2692.621670,229.828649,-1184.329507,8956.491898
2692.622000,1072.533697,-0.000000,8882.471304
2692.622329,1762.019645,-0.000000,9770.718434
2692.622658,2451.505594,814.226536,8734.430116
2692.622987,1991.848295,740.205942,8660.409521
2692.623316,2068.457845,1258.350101,8882.471304
2692.623645,2068.457845,1554.432478,7550.100608
2692.623974,1149.143247,666.185348,7994.224174
2692.624303,2298.286494,-370.102971,8586.388927
2692.624632,1455.581446,-518.144159,9104.533087
2692.624961,306.438199,-1406.391290,9104.533087
2692.625291,306.438199,-2072.576638,10214.842000
2692.625620,-383.047749,-740.205942,8882.471304
2692.625949,-1378.971896,-888.247130,9696.697840
2692.626278,0.000000,-370.102971,8956.491898
2692.626607,612.876398,592.164754,9104.533087
2692.626936,919.314598,-0.000000,9178.553681
2692.627265,1302.362347,518.144159,8882.471304
2692.627594,995.924147,814.226536,9178.553681
2692.627923,689.485948,1332.370696,8734.430116
2692.628253,153.219100,1184.329507,8512.368333
2692.628582,-1302.362347,518.144159,9030.512492
2692.628911,-1532.190996,-296.082377,10288.862594
2692.629240,-842.705048,-296.082377,9622.677246
2692.629569,-1225.752797,-1924.535449,9030.512492
2692.629898,-1991.848295,-1406.391290,10362.883188
2692.630227,-1608.800546,-1850.514855,10288.862594
2692.630556,-995.924147,-888.247130,9918.759623
2692.630885,-766.095498,-666.185348,8142.265362
2692.631214,0.000000,296.082377,8586.388927
2692.631544,536.266849,444.123565,9474.636058
2692.631873,919.314598,1332.370696,7772.162391
2692.632202,1302.362347,592.164754,9400.615463
2692.632531,536.266849,-74.020594,9400.615463
2692.632860,306.438199,370.102971,8734.430116
2692.633189,-612.876398,74.020594,10066.800811
2692.633518,-1762.019645,-0.000000,8660.409521
2692.633847,-1455.581446,-2368.659014,10362.883188
2692.634176,-766.095498,-888.247130,9030.512492
2692.634506,-229.828649,-1554.432478,9252.574275
2692.634835,-229.828649,-2146.597232,8956.491898
2692.635164,689.485948,-1480.411884,8882.471304
2692.635493,1915.238745,370.102971,8808.450710
2692.635822,2298.286494,666.185348,8364.327145
2692.636151,2834.553343,592.164754,7550.100608
2692.636480,3370.820191,1258.350101,7328.038826
2692.636809,2757.943793,1554.432478,7624.121203
2692.637138,2757.943793,1776.494261,8142.265362
2692.637467,1991.848295,-0.000000,8142.265362
2692.637797,919.314598,666.185348,8808.450710
2692.638126,0.000000,-370.102971,9992.780217
2692.638455,-1608.800546,-1184.329507,10066.800811
2692.638784,-2221.676944,-1554.432478,9622.677246
2692.639113,-1378.971896,-962.267725,9992.780217
2692.639442,-689.485948,-1406.391290,9400.615463
2692.639771,-1685.410096,-1702.473667,9696.697840
2692.640100,-1072.533697,-1406.391290,10140.821405
2692.640429,-459.657299,-296.082377,9400.615463
2692.640758,536.266849,-296.082377,9474.636058
2692.641088,1225.752797,962.267725,8364.327145
2692.641417,3217.601092,1036.288319,8364.327145
2692.641746,2911.162892,1554.432478,7328.038826
2692.642075,3140.991542,1924.535449,8438.347739
2692.642404,2451.505594,1184.329507,7994.224174
2692.642733,1225.752797,2072.576638,9770.718434
2692.643062,919.314598,888.247130,8956.491898
2692.643391,-459.657299,-370.102971,9252.574275
2692.643720,-1762.019645,-1776.494261,10140.821405
2692.644050,-1302.362347,-1776.494261,10807.006753
2692.644379,-1149.143247,-2146.597232,10732.986159
2692.644708,-1685.410096,-1998.556043,10362.883188
2692.645037,-995.924147,-1702.473667,10362.883188
2692.645366,-842.705048,-666.185348,9918.759623
2692.645695,0.000000,-592.164754,9622.677246
2692.646024,2068.457845,592.164754,8142.265362
2692.646353,2987.772442,1332.370696,7920.203579
2692.646682,3140.991542,1480.411884,8290.306550
2692.647011,3524.039291,1110.308913,8216.285956
2692.647341,3294.210641,1110.308913,7402.059420
2692.647670,2681.334243,1184.329507,7328.038826
2692.647999,1762.019645,1184.329507,8364.327145
2692.648328,76.609550,-74.020594,9104.533087
2692.648657,-153.219100,-740.205942,8808.450710
2692.648986,-842.705048,-1110.308913,9548.656652
2692.649315,-1149.143247,-2368.659014,9918.759623
2692.649644,-1991.848295,-2442.679609,9622.677246
2692.649973,-1991.848295,-1332.370696,9696.697840
2692.650303,-1149.143247,-888.247130,9326.594869
2692.650632,-536.266849,-0.000000,8808.450710
2692.650961,459.657299,592.164754,8068.244768
2692.651290,2068.457845,-0.000000,8216.285956
2692.651619,1838.629195,1036.288319,7476.080014
2692.651948,459.657299,592.164754,7994.224174
2692.652277,1149.143247,148.041188,8882.471304
2692.652606,-306.438199,1554.432478,8438.347739
2692.652935,-995.924147,222.061783,9918.759623
2692.653264,-1685.410096,-0.000000,9252.574275
2692.653594,-1532.190996,-1184.329507,9622.677246
2692.653923,-1302.362347,-1332.370696,9548.656652
2692.654252,-1838.629195,-2146.597232,9770.718434
2692.654581,-1991.848295,-2294.638420,10362.883188
2692.654910,-1532.190996,-1036.288319,10066.800811
2692.655239,-1225.752797,-1036.288319,9548.656652
2692.655568,-459.657299,-814.226536,8956.491898
2692.655897,1302.362347,-0.000000,8216.285956
2692.656226,1532.190996,888.247130,7624.121203
2692.656556,1991.848295,-0.000000,8438.347739
2692.656885,2298.286494,222.061783,7994.224174
2692.657214,2451.505594,-0.000000,7920.203579
2692.657543,1072.533697,962.267725,8512.368333
2692.657872,-153.219100,-296.082377,9474.636058
2692.658201,-306.438199,-1628.453072,9622.677246
2692.658530,76.609550,-1702.473667,9326.594869
2692.658859,-612.876398,-1184.329507,9622.677246
2692.659188,-229.828649,-1776.494261,9548.656652
2692.659517,-153.219100,-1554.432478,10362.883188
2692.659847,459.657299,-518.144159,9474.636058
2692.660176,1302.362347,518.144159,8512.368333
2692.660505,2068.457845,1110.308913,7476.080014
2692.660834,3600.648841,1332.370696,7846.182985
2692.661163,3677.258390,2368.659014,7254.018232
2692.661492,3064.381992,1036.288319,8438.347739
2692.661821,2757.943793,740.205942,8364.327145
2692.662150,1685.410096,592.164754,8068.244768
2692.662480,0.000000,814.226536,9030.512492
2692.662809,-1072.533697,-888.247130,9474.636058
2692.663138,-1378.971896,-1480.411884,9474.636058
2692.663467,-1532.190996,-1184.329507,9992.780217
2692.663796,-1915.238745,-1998.556043,8734.430116
2692.664125,-1991.848295,-1110.308913,11843.295072
2692.664454,-1149.143247,-592.164754,9844.739029
2692.664784,0.000000,-222.061783,10066.800811
2692.665113,536.266849,1110.308913,8586.388927
2692.665442,2451.505594,1480.411884,7994.224174
2692.665771,3524.039291,1332.370696,7031.956449
2692.666100,3830.477490,2738.761985,6661.853478
2692.666429,2987.772442,296.082377,8512.368333
2692.666758,2298.286494,1332.370696,7402.059420
2692.667088,1608.800546,962.267725,8660.409521
2692.667417,-612.876398,592.164754,10436.903782
2692.667746,-2298.286494,-1998.556043,10140.821405
2692.668075,-2757.943793,-2960.823768,11399.171507
2692.668404,-2528.115143,-1776.494261,10807.006753
2692.668733,-1838.629195,-2368.659014,9474.636058
2692.669062,-2528.115143,-2294.638420,10214.842000
2692.669392,-1685.410096,-592.164754,11547.212695
2692.669721,-1072.533697,-444.123565,10066.800811
2692.670050,-153.219100,-444.123565,9326.594869
2692.670379,1685.410096,1036.288319,7624.121203
2692.670708,3524.039291,962.267725,8216.285956
2692.671037,2834.553343,1184.329507,7328.038826
2692.671366,3907.087040,1480.411884,7624.121203
2692.671696,2757.943793,1480.411884,6587.832884
2692.672025,2068.457845,2368.659014,7105.977043
2692.672354,1302.362347,888.247130,8364.327145
2692.672683,-459.657299,-740.205942,8142.265362
2692.673012,-2221.676944,-1406.391290,10066.800811
2692.673341,-1685.410096,-1628.453072,9548.656652
2692.673670,-2834.553343,-2590.720797,11103.089130
2692.674000,-2298.286494,-3182.885551,11177.109724
2692.674329,-1991.848295,-1406.391290,9770.718434
2692.674658,-2451.505594,-666.185348,10066.800811
2692.674987,-536.266849,-740.205942,10214.842000
2692.675316,1378.971896,888.247130,8438.347739
2692.675645,1762.019645,1628.453072,7846.182985
2692.675974,3140.991542,1776.494261,7550.100608
2692.676304,2681.334243,814.226536,7402.059420
2692.676633,2681.334243,2368.659014,7105.977043
2692.676962,2298.286494,1702.473667,7031.956449
2692.677291,612.876398,444.123565,7994.224174
2692.677620,-536.266849,-888.247130,9252.574275
2692.677949,-1225.752797,-1332.370696,10066.800811
2692.678278,-2528.115143,-2368.659014,10807.006753
2692.678608,-2757.943793,-3182.885551,11473.192101
2692.678937,-2681.334243,-2812.782580,11473.192101
2692.679266,-2374.896044,-1184.329507,11103.089130
2692.679595,-1762.019645,-962.267725,10584.944971
2692.679924,-766.095498,-518.144159,9474.636058
2692.680253,919.314598,-0.000000,10881.027347
2692.680582,2451.505594,1036.288319,7550.100608
2692.680912,3370.820191,1628.453072,7328.038826
2692.681241,3907.087040,1850.514855,6587.832884
2692.681570,3983.696590,2590.720797,5773.606348
2692.681899,2068.457845,2368.659014,7328.038826
2692.682228,842.705048,1184.329507,7328.038826
2692.682557,459.657299,518.144159,8438.347739
2692.682886,-2451.505594,-592.164754,9104.533087
2692.683216,-3140.991542,-2072.576638,10214.842000
2692.683545,-4213.525239,-3108.864956,11029.068536
2692.683874,-4903.011187,-2664.741391,10362.883188
2692.684203,-4366.744339,-1924.535449,11621.233289
2692.684532,-4443.353888,-1628.453072,10288.862594
2692.684861,-4060.306139,-518.144159,9474.636058
2692.685190,-2451.505594,-444.123565,8956.491898
2692.685520,-842.705048,1258.350101,8512.368333
2692.685849,-1532.190996,-148.041188,8882.471304
2692.686178,-306.438199,296.082377,8512.368333
2692.686507,459.657299,1850.514855,7402.059420
2692.686836,612.876398,2886.803174,7105.977043
2692.687165,-383.047749,518.144159,6883.915261
2692.687494,-1302.362347,-148.041188,8586.388927
2692.687824,-2604.724693,-0.000000,8882.471304
2692.688153,-2604.724693,296.082377,8808.450710
2692.688482,-3294.210641,-1406.391290,9548.656652
2692.688811,-5669.106685,-666.185348,9548.656652
2692.689140,-5898.935335,-2442.679609,12213.398043
2692.689469,-4979.620737,-2072.576638,10732.986159
2692.689798,-4519.963438,-1332.370696,10288.862594
2692.690128,-3830.477490,-518.144159,9622.677246
2692.690457,-2757.943793,444.123565,8956.491898
2692.690786,-1838.629195,1332.370696,8734.430116
2692.691115,-1608.800546,-0.000000,7476.080014
2692.691444,-1991.848295,-0.000000,9844.739029
2692.691773,-1378.971896,962.267725,8068.244768
2692.692102,-306.438199,962.267725,6217.729913
2692.692432,-1608.800546,888.247130,6957.935855
2692.692761,-2451.505594,666.185348,8438.347739
2692.693090,-3447.429741,-1036.288319,9918.759623
2692.693419,-3907.087040,-0.000000,9178.553681
2692.693748,-2604.724693,-222.061783,8364.327145
2692.694077,-4443.353888,-740.205942,8364.327145
2692.694406,-5669.106685,-2220.617826,10955.047942
2692.694736,-6052.154434,-2516.700203,11325.150913
2692.695065,-4749.792088,-666.185348,9992.780217
2692.695394,-3983.696590,-1332.370696,9696.697840
2692.695723,-3753.867940,-592.164754,10066.800811
2692.696052,-3217.601092,148.041188,10436.903782
2692.696381,-2451.505594,370.102971,8586.388927
2692.696710,-995.924147,518.144159,7994.224174
2692.697040,-536.266849,-148.041188,9104.533087
2692.697369,-76.609550,-1554.432478,9770.718434
2692.697698,-153.219100,1110.308913,7254.018232
2692.698027,306.438199,1110.308913,7105.977043
2692.698356,0.000000,1332.370696,6661.853478
2692.698685,-612.876398,814.226536,9400.615463
2692.699014,-2145.067394,-370.102971,10140.821405
2692.699344,-2298.286494,-1110.308913,10066.800811
2692.699673,-1915.238745,-1258.350101,9992.780217
2692.700002,-1991.848295,-0.000000,8512.368333
2692.700331,-2374.896044,-1258.350101,9474.636058
2692.700660,-3064.381992,-1628.453072,10288.862594
2692.700989,-2221.676944,-888.247130,10140.821405
2692.701318,-1685.410096,-1036.288319,9474.636058
2692.701648,-1685.410096,296.082377,8956.491898
2692.701977,-1608.800546,888.247130,8290.306550
2692.702306,-2221.676944,-518.144159,8808.450710
2692.702635,-1762.019645,-0.000000,8290.306550
2692.702964,-1378.971896,296.082377,8290.306550
2692.703293,-1225.752797,1184.329507,7476.080014
2692.703622,-1608.800546,1184.329507,7624.121203
2692.703952,-2221.676944,370.102971,8882.471304
2692.704281,-3447.429741,-1480.411884,9252.574275
2692.704610,-3217.601092,-1924.535449,9548.656652
2692.704939,-3064.381992,-296.082377,9474.636058
2692.705268,-3294.210641,1332.370696,8512.368333
2692.705597,-3217.601092,1184.329507,7846.182985
2692.705926,-3370.820191,-0.000000,9030.512492
2692.706256,-4060.306139,-1480.411884,9992.780217
2692.706585,-3677.258390,-1110.308913,9400.615463
2692.706914,-4826.401637,-1110.308913,9770.718434
2692.707243,-3753.867940,-1850.514855,9474.636058
2692.707572,-3370.820191,-814.226536,9178.553681
2692.707901,-3064.381992,-1480.411884,9474.636058
2692.708230,-2911.162892,-814.226536,9474.636058
2692.708560,-1915.238745,-0.000000,9104.533087
2692.708889,-1838.629195,222.061783,8734.430116
2692.709218,-2221.676944,1036.288319,8956.491898
2692.709547,-2911.162892,-0.000000,8808.450710
2692.709876,-2757.943793,1480.411884,9030.512492
2692.710205,-2834.553343,444.123565,9400.615463
2692.710534,-3064.381992,296.082377,9326.594869
2692.710864,-2604.724693,-592.164754,9178.553681
2692.711193,-2911.162892,-814.226536,9178.553681
2692.711522,-3753.867940,-592.164754,9178.553681
2692.711851,-3447.429741,-666.185348,9622.677246
2692.712180,-2834.553343,-222.061783,8956.491898
2692.712509,-2374.896044,-370.102971,8660.409521
2692.712838,-1915.238745,-0.000000,8734.430116
2692.713168,-2528.115143,-1258.350101,9104.533087
2692.713497,-2528.115143,-370.102971,9548.656652
2692.713826,-3064.381992,-444.123565,8956.491898
2692.714155,-2757.943793,-0.000000,9252.574275
2692.714484,-3217.601092,-0.000000,9474.636058
2692.714813,-3524.039291,888.247130,9474.636058
2692.715142,-3907.087040,222.061783,9104.533087
2692.715472,-3677.258390,296.082377,9252.574275
2692.715801,-2604.724693,-592.164754,9104.533087
2692.716130,-2374.896044,-1332.370696,9400.615463
2692.716459,-1762.019645,-1628.453072,9030.512492
2692.716788,-1302.362347,-888.247130,8216.285956
2692.717117,-1225.752797,222.061783,7772.162391
2692.717446,-612.876398,-222.061783,9178.553681
2692.717776,229.828649,666.185348,7994.224174
2692.718105,1225.752797,1702.473667,6957.935855
2692.718434,612.876398,1332.370696,7179.997637
2692.718763,-1072.533697,740.205942,7328.038826
2692.719092,-1991.848295,370.102971,9178.553681
2692.719421,-2834.553343,-740.205942,9104.533087
2692.719750,-2451.505594,-1110.308913,10362.883188
2692.720080,-3983.696590,-1406.391290,8808.450710
2692.720409,-4443.353888,-2072.576638,10807.006753
2692.720738,-6128.763984,-1924.535449,11177.109724
2692.721067,-5056.230287,-1184.329507,11029.068536
2692.721396,-3983.696590,-1332.370696,10658.965565
2692.721725,-2451.505594,-296.082377,9400.615463
2692.722054,-1532.190996,222.061783,8512.368333
2692.722384,-1149.143247,1480.411884,7179.997637
2692.722713,-1532.190996,888.247130,8142.265362
2692.723042,0.000000,-0.000000,10658.965565
2692.723371,1072.533697,1332.370696,6069.688724
2692.723700,1838.629195,666.185348,8068.244768
2692.724029,-229.828649,518.144159,6587.832884
2692.724358,-766.095498,296.082377,8660.409521
2692.724688,-2374.896044,-1258.350101,10066.800811
2692.725017,-2374.896044,-444.123565,9400.615463
2692.725346,-1991.848295,-888.247130,10881.027347
2692.725675,-3677.258390,-0.000000,8512.368333
2692.726004,-4443.353888,-814.226536,9474.636058
2692.726333,-5439.278036,-740.205942,9992.780217
2692.726662,-3830.477490,-0.000000,9326.594869
2692.726992,-4136.915689,-814.226536,9326.594869
2692.727321,-3600.648841,-666.185348,9178.553681
2692.727650,-3677.258390,-518.144159,8882.471304
2692.727979,-4060.306139,-2146.597232,8438.347739
2692.728308,-3907.087040,-1258.350101,9178.553681
2692.728637,-3370.820191,-888.247130,9178.553681
2692.728966,-2681.334243,-1628.453072,9548.656652
2692.729296,-3217.601092,-74.020594,9178.553681
2692.729625,-3064.381992,-296.082377,9474.636058
2692.729954,-3907.087040,-222.061783,9252.574275
2692.730283,-3064.381992,222.061783,9474.636058
2692.730612,-2374.896044,1036.288319,8882.471304
2692.730941,-1915.238745,1480.411884,9030.512492
2692.731270,-1302.362347,1850.514855,7994.224174
2692.731600,-2068.457845,1184.329507,7402.059420
2692.731929,-1915.238745,1776.494261,7402.059420
2692.732258,-1378.971896,1110.308913,7476.080014
2692.732587,-1838.629195,814.226536,7624.121203
2692.732916,-2374.896044,370.102971,7920.203579
2692.733245,-3217.601092,-0.000000,8586.388927
2692.733574,-2911.162892,296.082377,8734.430116
2692.733904,-2987.772442,888.247130,8808.450710
2692.734233,-3294.210641,1110.308913,9474.636058
2692.734562,-3677.258390,1258.350101,9992.780217
2692.734891,-3983.696590,1184.329507,10584.944971
2692.735220,-4903.011187,370.102971,11251.130318
2692.735549,-4443.353888,296.082377,11621.233289
2692.735878,-3064.381992,222.061783,11473.192101
2692.736208,-1762.019645,740.205942,9252.574275
2692.736537,-689.485948,814.226536,9918.759623
2692.736866,-919.314598,2146.597232,8068.244768
2692.737195,0.000000,-0.000000,11991.336260
2692.737524,1762.019645,2368.659014,7920.203579
2692.737853,3677.258390,3330.926739,5551.544565
2692.738182,4060.306139,3775.050304,6587.832884
2692.738512,2911.162892,5107.421000,5773.606348
2692.738841,3753.867940,4737.318029,8956.491898
2692.739170,2374.896044,3923.091493,7031.956449
2692.739499,3140.991542,3849.070898,8808.450710
2692.739828,919.314598,1850.514855,9918.759623
2692.740157,-306.438199,1850.514855,10066.800811
2692.740486,-1991.848295,666.185348,11843.295072
2692.740816,-1608.800546,1332.370696,10584.944971
2692.741145,-995.924147,1184.329507,11621.233289
2692.741474,-995.924147,1554.432478,11399.171507
2692.741803,919.314598,3404.947333,9400.615463
2692.742132,1302.362347,3108.864956,7846.182985
2692.742461,2451.505594,2368.659014,7550.100608
2692.742790,2834.553343,4959.379811,6143.709319
2692.743120,2604.724693,4367.215058,7624.121203
2692.743449,1838.629195,4737.318029,7031.956449
2692.743778,919.314598,4441.235652,6735.874072
2692.744107,-766.095498,2442.679609,9474.636058
2692.744436,-2681.334243,1850.514855,9474.636058
2692.744765,-2987.772442,666.185348,11177.109724
2692.745094,-3677.258390,740.205942,10362.883188
2692.745424,-2987.772442,3108.864956,9474.636058
2692.745753,-2834.553343,2812.782580,10658.965565
2692.746082,-3907.087040,1924.535449,11251.130318
2692.746411,-2987.772442,1924.535449,12139.377449
2692.746740,-2221.676944,2072.576638,9770.718434
2692.747069,-689.485948,2590.720797,8586.388927
2692.747398,-995.924147,3256.906145,7846.182985
2692.747728,-919.314598,2812.782580,9474.636058
2692.748057,-995.924147,1776.494261,11547.212695
2692.748386,2374.896044,2590.720797,8142.265362
2692.748715,3907.087040,4219.173869,6513.812290
2692.749044,3830.477490,5403.503377,5403.503377
2692.749373,2987.772442,6513.812290,6365.771101
2692.749702,2757.943793,6735.874072,8734.430116
2692.750032,2145.067394,6069.688724,7105.977043
2692.750361,1608.800546,6217.729913,7698.141797
2692.750690,76.609550,5107.421000,8660.409521
2692.751019,0.000000,5477.523971,7550.100608
2692.751348,-1608.800546,1628.453072,10584.944971
2692.751677,-2528.115143,-1332.370696,11251.130318
2692.752006,-1838.629195,296.082377,10436.903782
2692.752336,-1685.410096,-814.226536,11473.192101
2692.752665,-919.314598,1184.329507,10288.862594
2692.752994,-612.876398,3108.864956,11325.150913
2692.753323,1455.581446,2738.761985,8512.368333
2692.753652,1838.629195,5255.462188,8142.265362
2692.753981,2987.772442,4145.153275,7476.080014
2692.754310,3983.696590,5255.462188,7772.162391
2692.754640,2374.896044,5625.565159,7031.956449
2692.754969,1991.848295,4811.338623,7328.038826
2692.755298,153.219100,2960.823768,9030.512492
2692.755627,-1225.752797,740.205942,12065.356855
2692.755956,-2374.896044,-0.000000,11177.109724
2692.756285,-2451.505594,1258.350101,12065.356855
2692.756614,-2528.115143,-444.123565,10288.862594
2692.756944,-1762.019645,1332.370696,9918.759623
2692.757273,-1838.629195,2368.659014,9918.759623
2692.757602,-1225.752797,1332.370696,9844.739029
2692.757931,-229.828649,740.205942,11843.295072
2692.758260,2911.162892,1036.288319,8734.430116
2692.758589,4519.963438,3034.844362,6883.915261
2692.758918,3294.210641,3997.112087,6291.750507
2692.759248,2757.943793,3923.091493,6143.709319
2692.759577,3753.867940,5107.421000,8956.491898
2692.759906,1991.848295,5255.462188,7624.121203
2692.760235,2834.553343,4219.173869,6883.915261
2692.760564,1225.752797,4737.318029,8068.244768
2692.760893,-842.705048,1702.473667,8216.285956
2692.761223,-3294.210641,-3256.906145,13323.706956
2692.761552,-3753.867940,-666.185348,11325.150913
2692.761881,-2987.772442,-1110.308913,11991.336260
2692.762210,-2987.772442,-444.123565,9844.739029
2692.762539,-2145.067394,3330.926739,10066.800811
2692.762868,383.047749,2664.741391,7920.203579
2692.763198,-153.219100,3997.112087,7846.182985
2692.763527,3217.601092,2368.659014,12065.356855
2692.763856,2757.943793,3182.885551,5847.626942
2692.764185,4213.525239,3627.009116,8290.306550
2692.764514,3447.429741,5921.647536,3552.988522
2692.764843,4596.572988,4663.297435,5699.585753
2692.765173,2528.115143,3034.844362,7328.038826
2692.765502,3140.991542,4589.276840,6735.874072
2692.765831,2604.724693,4219.173869,8068.244768
2692.766160,-842.705048,5625.565159,6809.894666
2692.766489,-3600.648841,-0.000000,10955.047942
2692.766819,-5286.058936,-2960.823768,13841.851115
2692.767148,-2757.943793,2664.741391,9918.759623
2692.767477,-2298.286494,-3256.906145,11991.336260
2692.767806,-3600.648841,-1406.391290,10362.883188
2692.768135,-1608.800546,2738.761985,12879.583391
2692.768464,-1072.533697,1480.411884,8512.368333
2692.768794,-2451.505594,4219.173869,9548.656652
2692.769123,1072.533697,814.226536,12805.562797
2692.769452,3064.381992,4071.132681,7846.182985
2692.769781,3294.210641,6365.771101,8438.347739
2692.770110,2604.724693,4663.297435,4885.359217
2692.770439,2681.334243,5921.647536,6587.832884
2692.770769,995.924147,6143.709319,9252.574275
2692.771098,0.000000,4811.338623,7550.100608
2692.771427,689.485948,5921.647536,10362.883188
2692.771756,-229.828649,4219.173869,7846.182985
2692.772085,-1072.533697,2590.720797,9770.718434
2692.772414,-3447.429741,1036.288319,12879.583391
2692.772744,-1762.019645,-444.123565,11029.068536
2692.773073,-1149.143247,222.061783,10807.006753
2692.773402,0.000000,-1184.329507,10955.047942
2692.773731,-2068.457845,2590.720797,8216.285956
2692.774060,0.000000,1628.453072,10140.821405
2692.774390,919.314598,5107.421000,8068.244768
2692.774719,2757.943793,6661.853478,8364.327145
2692.775048,3217.601092,5551.544565,7179.997637
2692.775377,1149.143247,4885.359217,9474.636058
2692.775706,0.000000,5921.647536,9548.656652
2692.776035,306.438199,4885.359217,7105.977043
2692.776365,1072.533697,2738.761985,8956.491898
2692.776694,995.924147,740.205942,10955.047942
2692.777023,76.609550,-0.000000,12287.418637
2692.777352,-1302.362347,1924.535449,9622.677246
2692.777681,-536.266849,666.185348,9622.677246
2692.778010,76.609550,2960.823768,8882.471304
2692.778340,1302.362347,4737.318029,9548.656652
2692.778669,383.047749,4441.235652,7476.080014
2692.778998,919.314598,3552.988522,8512.368333
2692.779327,2911.162892,3701.029710,7254.018232
2692.779656,3447.429741,4367.215058,7994.224174
2692.779985,2068.457845,4071.132681,8660.409521
2692.780315,919.314598,3108.864956,8438.347739
2692.780644,1532.190996,2738.761985,8438.347739
2692.780973,1225.752797,3701.029710,8068.244768
2692.781302,153.219100,2516.700203,10362.883188
2692.781631,-1838.629195,1702.473667,10955.047942
2692.781961,-2604.724693,1998.556043,10066.800811
2692.782290,-1685.410096,-592.164754,11325.150913
2692.782619,-1915.238745,-666.185348,10362.883188
2692.782948,-1302.362347,-74.020594,10955.047942
2692.783277,-842.705048,592.164754,10214.842000
2692.783606,919.314598,1924.535449,9030.512492
2692.783936,3217.601092,2072.576638,6735.874072
2692.784265,3447.429741,4515.256246,6513.812290
2692.784594,689.485948,3701.029710,8364.327145
2692.784923,689.485948,3034.844362,7698.141797
2692.785252,2145.067394,3034.844362,7254.018232
2692.785581,3140.991542,3849.070898,7179.997637
2692.785911,1225.752797,4515.256246,6809.894666
2692.786240,536.266849,2368.659014,9696.697840
2692.786569,-766.095498,-1036.288319,10288.862594
2692.786898,-1225.752797,-1110.308913,10066.800811
2692.787227,-2834.553343,814.226536,10214.842000
2692.787556,-3830.477490,-2368.659014,12361.439231
2692.787886,-4366.744339,-962.267725,10436.903782
2692.788215,-1455.581446,-0.000000,9400.615463
2692.788544,-1915.238745,370.102971,8512.368333
2692.788873,-1838.629195,814.226536,10066.800811
2692.789202,919.314598,740.205942,9178.553681
2692.789532,1991.848295,2442.679609,6957.935855
2692.789861,2068.457845,1406.391290,6957.935855
2692.790190,2451.505594,-0.000000,8734.430116
2692.790519,2221.676944,296.082377,9030.512492
2692.790848,2451.505594,1702.473667,8586.388927
2692.791177,1762.019645,1628.453072,8808.450710
2692.791507,766.095498,1850.514855,9622.677246
2692.791836,306.438199,666.185348,10214.842000
2692.792165,-766.095498,1776.494261,9696.697840
2692.792494,-1532.190996,-0.000000,10362.883188
2692.792823,-689.485948,-1036.288319,10584.944971
2692.793152,0.000000,-222.061783,9918.759623
2692.793482,306.438199,-296.082377,9474.636058
2692.793811,229.828649,-1036.288319,8734.430116
2692.794140,229.828649,-0.000000,8512.368333
2692.794469,383.047749,740.205942,7402.059420
2692.794798,1915.238745,1998.556043,7328.038826
2692.795128,1915.238745,1480.411884,7994.224174
2692.795457,2604.724693,962.267725,8586.388927
2692.795786,2068.457845,962.267725,8290.306550
2692.796115,919.314598,-1110.308913,8734.430116
2692.796444,0.000000,-962.267725,9844.739029
2692.796773,383.047749,-1184.329507,11103.089130
2692.797103,-919.314598,-296.082377,10066.800811
2692.797432,-689.485948,-296.082377,9770.718434
2692.797761,-383.047749,-518.144159,10288.862594
2692.798090,536.266849,518.144159,8734.430116
2692.798419,459.657299,666.185348,8216.285956
2692.798748,306.438199,-0.000000,8216.285956
2692.799078,1149.143247,-962.267725,8882.471304
2692.799407,1225.752797,296.082377,7254.018232
2692.799736,536.266849,-296.082377,8290.306550
2692.800065,842.705048,-1702.473667,9030.512492
2692.800394,842.705048,-1406.391290,8734.430116
2692.800723,842.705048,-0.000000,9474.636058
2692.801053,-229.828649,-518.144159,9474.636058
2692.801382,-459.657299,-444.123565,10066.800811
2692.801711,0.000000,222.061783,9622.677246
2692.802040,229.828649,740.205942,8512.368333
2692.802369,-766.095498,222.061783,8956.491898
2692.802699,153.219100,-888.247130,10066.800811
2692.803028,919.314598,-518.144159,9104.533087
2692.803357,229.828649,740.205942,8438.347739
2692.803686,0.000000,-888.247130,8438.347739
2692.804015,919.314598,-1258.350101,8882.471304
2692.804344,766.095498,592.164754,7772.162391
2692.804674,995.924147,148.041188,7254.018232
2692.805003,459.657299,-444.123565,7328.038826
2692.805332,1302.362347,-666.185348,9104.533087
2692.805661,1072.533697,1332.370696,7994.224174
2692.805990,0.000000,-518.144159,9030.512492
2692.806319,76.609550,-888.247130,9770.718434
2692.806649,76.609550,-592.164754,9548.656652
2692.806978,-229.828649,1110.308913,9474.636058
2692.807307,-612.876398,-0.000000,9178.553681
2692.807636,383.047749,-0.000000,9918.759623
2692.807965,536.266849,962.267725,9548.656652
2692.808294,306.438199,592.164754,8882.471304
2692.808624,76.609550,-1554.432478,9252.574275
2692.808953,1149.143247,148.041188,8956.491898
2692.809282,1532.190996,1332.370696,7920.203579
2692.809611,383.047749,1036.288319,7624.121203
2692.809940,229.828649,-1406.391290,9400.615463
2692.810270,1302.362347,-296.082377,9178.553681
2692.810599,842.705048,296.082377,9030.512492
2692.810928,-306.438199,-888.247130,9770.718434
2692.811257,-306.438199,-2146.597232,10288.862594
2692.811586,-536.266849,-148.041188,10584.944971
2692.811915,-536.266849,592.164754,9918.759623
2692.812245,-766.095498,-518.144159,9474.636058
2692.812574,-306.438199,-592.164754,10362.883188
2692.812903,612.876398,74.020594,9696.697840
2692.813232,-536.266849,-592.164754,9622.677246
2692.813561,-689.485948,-1998.556043,9252.574275
2692.813890,536.266849,-1554.432478,8660.409521
2692.814220,306.438199,222.061783,7772.162391
2692.814549,0.000000,-0.000000,7994.224174
2692.814878,766.095498,-1628.453072,8438.347739
2692.815207,1225.752797,-444.123565,8734.430116
2692.815536,919.314598,222.061783,8364.327145
2692.815865,0.000000,-1554.432478,8512.368333
2692.816195,0.000000,-1406.391290,9548.656652
2692.816524,306.438199,-0.000000,9696.697840
2692.816853,0.000000,-518.144159,9030.512492
2692.817182,-383.047749,-1184.329507,9400.615463
2692.817511,1302.362347,-1406.391290,9696.697840
2692.817841,229.828649,592.164754,9030.512492
2692.818170,459.657299,222.061783,8290.306550
2692.818499,1302.362347,-444.123565,8808.450710
2692.818828,1762.019645,666.185348,8290.306550
2692.819157,1455.581446,2146.597232,7698.141797
2692.819486,842.705048,370.102971,7105.977043
2692.819816,1378.971896,-1628.453072,8660.409521
2692.820145,1532.190996,-370.102971,8882.471304
2692.820474,995.924147,-222.061783,8882.471304
2692.820803,0.000000,-1406.391290,9474.636058
2692.821132,-153.219100,-1184.329507,9918.759623
2692.821461,0.000000,666.185348,10140.821405
2692.821791,-536.266849,222.061783,9030.512492
2692.822120,76.609550,-1110.308913,10140.821405
2692.822449,689.485948,-370.102971,9548.656652
2692.822778,306.438199,1258.350101,9400.615463
2692.823107,0.000000,-74.020594,9400.615463
2692.823436,612.876398,-592.164754,9030.512492
2692.823766,1149.143247,1036.288319,7994.224174
2692.824095,612.876398,1702.473667,7772.162391
2692.824424,306.438199,-74.020594,7994.224174
2692.824753,1378.971896,-814.226536,8290.306550
2692.825082,919.314598,-592.164754,8586.388927
2692.825412,-842.705048,-740.205942,9400.615463
2692.825741,-1608.800546,-1850.514855,9400.615463
2692.826070,-1455.581446,-1998.556043,9696.697840
2692.826399,-1608.800546,-814.226536,9918.759623
2692.826728,-1532.190996,-1258.350101,9770.718434
2692.827057,-612.876398,-1628.453072,10066.800811
2692.827387,612.876398,-222.061783,10288.862594
2692.827716,229.828649,518.144159,9030.512492
2692.828045,536.266849,-666.185348,8660.409521
2692.828374,1685.410096,-518.144159,9030.512492
2692.828703,2374.896044,1554.432478,8142.265362
2692.829032,1762.019645,2072.576638,7402.059420
2692.829362,1302.362347,-148.041188,7772.162391
2692.829691,2681.334243,-370.102971,8660.409521
2692.830020,2068.457845,518.144159,8216.285956
2692.830349,536.266849,-814.226536,8808.450710
2692.830678,0.000000,-1850.514855,9992.780217
2692.831007,-229.828649,-1036.288319,9918.759623
2692.831337,-383.047749,-0.000000,9474.636058
2692.831666,-1532.190996,-444.123565,9770.718434
2692.831995,-306.438199,-2368.659014,10955.047942
2692.832324,1149.143247,518.144159,9696.697840
2692.832653,842.705048,370.102971,9252.574275
2692.832983,689.485948,-0.000000,9252.574275
2692.833312,2068.457845,740.205942,9844.739029
2692.833641,2834.553343,2442.679609,7846.182985
2692.833970,1532.190996,2886.803174,7105.977043
2692.834299,1608.800546,1184.329507,8364.327145
2692.834628,2221.676944,-0.000000,7994.224174
2692.834958,1838.629195,-0.000000,9252.574275
2692.835287,-689.485948,-518.144159,8068.244768
2692.835616,-1302.362347,-2442.679609,9400.615463
2692.835945,-1302.362347,-1480.411884,10881.027347
2692.836274,-1915.238745,-370.102971,9474.636058
2692.836603,-1762.019645,-1406.391290,9400.615463
2692.836933,-995.924147,-814.226536,10066.800811
2692.837262,-536.266849,-370.102971,10214.842000
2692.837591,-919.314598,-0.000000,9992.780217
2692.837920,153.219100,-1406.391290,9770.718434
2692.838249,1378.971896,-1332.370696,8956.491898
2692.838578,1225.752797,1554.432478,7772.162391
2692.838908,2068.457845,1628.453072,8068.244768
2692.839237,1915.238745,-0.000000,7254.018232
2692.839566,2451.505594,1406.391290,7550.100608
2692.839895,2374.896044,1036.288319,7624.121203
2692.840224,153.219100,-444.123565,7698.141797
2692.840554,-459.657299,-1924.535449,9844.739029
2692.840883,-612.876398,-1184.329507,9770.718434
2692.841212,-1838.629195,-1036.288319,9548.656652
2692.841541,-2451.505594,-2146.597232,10732.986159
2692.841870,-1455.581446,-3108.864956,11103.089130
2692.842199,-536.266849,-222.061783,10732.986159
2692.842529,-612.876398,-148.041188,9696.697840
2692.842858,0.000000,-1036.288319,9326.594869
2692.843187,1455.581446,518.144159,9770.718434
2692.843516,2374.896044,2294.638420,8290.306550
2692.843845,2374.896044,1480.411884,7476.080014
2692.844174,2681.334243,592.164754,7476.080014
2692.844504,4443.353888,888.247130,7994.224174
2692.844833,3370.820191,2072.576638,7254.018232
2692.845162,1302.362347,-0.000000,8142.265362
2692.845491,153.219100,-296.082377,9030.512492
2692.845820,-1225.752797,-0.000000,9030.512492
2692.846149,-2221.676944,222.061783,9918.759623
2692.846479,-2987.772442,-1628.453072,10510.924376
2692.846808,-1608.800546,-2294.638420,11103.089130
2692.847137,-1991.848295,-740.205942,10362.883188
2692.847466,-1915.238745,-1258.350101,11029.068536
2692.847795,-1302.362347,-1628.453072,10732.986159
2692.848125,689.485948,-666.185348,10288.862594
2692.848454,1608.800546,2294.638420,7994.224174
2692.848783,2068.457845,1850.514855,7402.059420
2692.849112,3524.039291,1036.288319,8142.265362
2692.849441,3677.258390,2072.576638,6587.832884
2692.849770,3064.381992,3182.885551,6735.874072
2692.850100,2145.067394,888.247130,7105.977043
2692.850429,995.924147,-814.226536,8586.388927
2692.850758,-153.219100,-222.061783,9252.574275
2692.851087,-1608.800546,-2220.617826,9696.697840
2692.851416,-2757.943793,-3404.947333,10436.903782
2692.851745,-2451.505594,-4293.194464,11251.130318
2692.852075,-2451.505594,-1702.473667,11177.109724
2692.852404,-2681.334243,-1702.473667,10584.944971
2692.852733,-2145.067394,-2368.659014,11177.109724
2692.853062,0.000000,-888.247130,10584.944971
2692.853391,1072.533697,1406.391290,8216.285956
2692.853720,2221.676944,444.123565,8438.347739
2692.854050,3677.258390,740.205942,7624.121203
2692.854379,4366.744339,1702.473667,7105.977043
2692.854708,3217.601092,2220.617826,7254.018232
2692.855037,2145.067394,592.164754,7476.080014
2692.855366,2834.553343,-0.000000,7624.121203
2692.855696,2145.067394,2146.597232,7328.038826
2692.856025,-1149.143247,-518.144159,9696.697840
2692.856354,-1991.848295,-2294.638420,10066.800811
2692.856683,-2221.676944,-2960.823768,11769.274478
2692.857012,-2757.943793,-2516.700203,11177.109724
2692.857341,-2451.505594,-1628.453072,10881.027347
2692.857671,-1378.971896,-1406.391290,10732.986159
2692.858000,-536.266849,-148.041188,10140.821405
2692.858329,0.000000,2294.638420,8512.368333
2692.858658,1455.581446,1110.308913,8586.388927
2692.858987,3370.820191,1554.432478,7550.100608
2692.859316,3524.039291,2960.823768,7179.997637
2692.859646,2068.457845,2442.679609,6661.853478
2692.859975,2451.505594,1110.308913,7105.977043
2692.860304,2451.505594,518.144159,8438.347739
2692.860633,995.924147,888.247130,8882.471304
2692.860962,-919.314598,-1036.288319,9474.636058
2692.861291,-1532.190996,-3108.864956,10881.027347
2692.861621,-1378.971896,-2516.700203,11029.068536
2692.861950,-2451.505594,-2072.576638,10955.047942
2692.862279,-2451.505594,-2516.700203,11843.295072
2692.862608,-1532.190996,-1110.308913,10436.903782
2692.862937,-459.657299,1776.494261,9400.615463
2692.863267,383.047749,2368.659014,7772.162391
2692.863596,1685.410096,444.123565,8290.306550
2692.863925,3294.210641,-222.061783,7698.141797
2692.864254,3677.258390,1628.453072,6735.874072
2692.864583,2374.896044,1480.411884,7179.997637
2692.864913,2068.457845,-1332.370696,8290.306550
2692.865242,1378.971896,-0.000000,8142.265362
2692.865571,459.657299,-444.123565,9030.512492
2692.865900,-1608.800546,-2072.576638,9918.759623
2692.866229,-1915.238745,-3182.885551,10584.944971
2692.866559,-1072.533697,-2072.576638,11473.192101
2692.866888,-2221.676944,-1554.432478,10510.924376
2692.867217,-2451.505594,-2072.576638,11769.274478
2692.867546,-383.047749,-1554.432478,11769.274478
2692.867875,842.705048,1554.432478,8586.388927
2692.868205,1455.581446,1702.473667,8068.244768
2692.868534,2681.334243,1184.329507,8142.265362
2692.868863,3753.867940,1258.350101,7772.162391
2692.869192,2987.772442,3034.844362,6883.915261
2692.869521,2604.724693,1702.473667,6661.853478
2692.869851,1915.238745,888.247130,8068.244768
2692.870180,1608.800546,370.102971,8216.285956
2692.870509,-383.047749,222.061783,7920.203579
2692.870838,-1608.800546,-3034.844362,10066.800811
2692.871167,-1455.581446,-2812.782580,11177.109724
2692.871497,-1762.019645,-1998.556043,10807.006753
2692.871826,-2911.162892,-1332.370696,11325.150913
2692.872155,-2681.334243,-1480.411884,11473.192101
2692.872484,-1532.190996,-814.226536,10658.965565
2692.872813,536.266849,2368.659014,9104.533087
2692.873143,1685.410096,2072.576638,7994.224174
2692.873472,2528.115143,740.205942,7920.203579
2692.873801,3677.258390,1702.473667,7328.038826
2692.874130,2987.772442,1776.494261,6883.915261
2692.874459,2374.896044,-0.000000,7179.997637
2692.874788,2145.067394,-0.000000,7328.038826
2692.875118,919.314598,1332.370696,8512.368333
2692.875447,-689.485948,-0.000000,8438.347739
2692.875776,-1762.019645,-2368.659014,9474.636058
2692.876105,-1608.800546,-3552.988522,11177.109724
2692.876434,-2298.286494,-2072.576638,11251.130318
2692.876764,-2757.943793,-2664.741391,10807.006753
2692.877093,-2681.334243,-3404.947333,11325.150913
2692.877422,-919.314598,-296.082377,11177.109724
2692.877751,0.000000,-0.000000,9696.697840
2692.878080,1072.533697,370.102971,8512.368333
2692.878410,3064.381992,-0.000000,8142.265362
2692.878739,3907.087040,2072.576638,6809.894666
2692.879068,3753.867940,1998.556043,7328.038826
2692.879397,2834.553343,666.185348,7476.080014
2692.879726,2298.286494,-0.000000,7698.141797
2692.880056,2298.286494,2368.659014,7328.038826
2692.880385,1302.362347,370.102971,6883.915261
2692.880714,-842.705048,-2886.803174,9474.636058
2692.881043,-842.705048,-2146.597232,10436.903782
2692.881372,-2451.505594,-1998.556043,11103.089130
2692.881702,-3524.039291,-3256.906145,11843.295072
2692.882031,-3064.381992,-2590.720797,11029.068536
2692.882360,-1302.362347,-666.185348,10881.027347
2692.882689,-1378.971896,1332.370696,9252.574275
2692.883018,153.219100,-0.000000,9400.615463
2692.883348,2528.115143,-592.164754,8734.430116
2692.883677,3830.477490,1554.432478,7254.018232
2692.884006,3600.648841,1480.411884,7328.038826
2692.884335,1685.410096,888.247130,6513.812290
2692.884664,1991.848295,1258.350101,7846.182985
2692.884994,1915.238745,3552.988522,6513.812290
2692.885323,1149.143247,2072.576638,6661.853478
2692.885652,0.000000,-444.123565,8882.471304
2692.885981,-383.047749,-2442.679609,10288.862594
2692.886310,-2221.676944,-1332.370696,10584.944971
2692.886640,-4136.915689,-4441.235652,12139.377449
2692.886969,-3447.429741,-4071.132681,11695.253884
2692.887298,-2298.286494,-518.144159,11325.150913
2692.887627,-1685.410096,296.082377,9770.718434
2692.887956,-229.828649,740.205942,9400.615463
2692.888286,2068.457845,888.247130,10066.800811
2692.888615,3294.210641,1998.556043,7772.162391
2692.888944,3217.601092,2886.803174,7772.162391
2692.889273,2834.553343,518.144159,7624.121203
2692.889602,2451.505594,1332.370696,7846.182985
2692.889932,2451.505594,2960.823768,7772.162391
2692.890261,1915.238745,296.082377,7179.997637
2692.890590,2145.067394,-740.205942,8290.306550
2692.890919,459.657299,-1110.308913,9696.697840
2692.891248,-766.095498,-2664.741391,11029.068536
2692.891578,-3294.210641,-2294.638420,11251.130318
2692.891907,-2374.896044,-4441.235652,12435.459826
2692.892236,-3064.381992,-444.123565,9918.759623
2692.892565,-1838.629195,-222.061783,11177.109724
2692.892894,-612.876398,-814.226536,9696.697840
2692.893224,1532.190996,-1036.288319,10362.883188
2692.893553,2911.162892,1554.432478,7994.224174
2692.893882,3140.991542,1850.514855,7105.977043
2692.894211,2451.505594,1110.308913,8512.368333
2692.894540,2374.896044,2072.576638,6439.791695
2692.894870,1838.629195,2368.659014,6661.853478
2692.895199,995.924147,1258.350101,6957.935855
2692.895528,1838.629195,-518.144159,7476.080014
2692.895857,0.000000,-296.082377,9326.594869
2692.896186,-1685.410096,-1924.535449,10362.883188
2692.896515,-3140.991542,-3182.885551,10732.986159
2692.896845,-3064.381992,-4515.256246,11843.295072
2692.897174,-2604.724693,-592.164754,10066.800811
2692.897503,-1915.238745,-2072.576638,9992.780217
2692.897832,-536.266849,-222.061783,9474.636058
2692.898161,1378.971896,444.123565,8512.368333
2692.898491,2145.067394,2072.576638,8142.265362
2692.898820,1915.238745,962.267725,7328.038826
2692.899149,2451.505594,-296.082377,7624.121203
2692.899478,1991.848295,2294.638420,7105.977043
2692.899807,1838.629195,1554.432478,6883.915261
2692.900137,919.314598,-592.164754,7624.121203
2692.900466,229.828649,-1628.453072,9178.553681
2692.900795,229.828649,-1924.535449,9992.780217
2692.901124,-1991.848295,-2368.659014,9992.780217
2692.901453,-2604.724693,-3330.926739,11103.089130
2692.901783,-1762.019645,-2072.576638,11399.171507
2692.902112,-1532.190996,222.061783,10140.821405
2692.902441,-919.314598,-370.102971,10066.800811
2692.902770,1072.533697,-1480.411884,9992.780217
2692.903099,2604.724693,-0.000000,9770.718434
2692.903429,2528.115143,1258.350101,7772.162391
2692.903758,2145.067394,-74.020594,8512.368333
2692.904087,2451.505594,148.041188,8808.450710
2692.904416,2221.676944,2368.659014,7105.977043
2692.904745,1302.362347,1776.494261,7698.141797
2692.905075,1455.581446,-74.020594,8068.244768
2692.905404,1455.581446,-444.123565,8068.244768
2692.905733,153.219100,-370.102971,8956.491898
2692.906062,-1532.190996,-2294.638420,9548.656652
2692.906391,-1762.019645,-3701.029710,11547.212695
2692.906721,-1455.581446,-1924.535449,11325.150913
2692.907050,-1072.533697,-0.000000,9770.718434
2692.907379,-766.095498,-888.247130,9474.636058
2692.907708,306.438199,148.041188,9474.636058
2692.908037,1991.848295,1110.308913,8438.347739
2692.908367,1838.629195,2220.617826,8290.306550
2692.908696,1532.190996,888.247130,7698.141797
2692.909025,2145.067394,1406.391290,7994.224174
2692.909354,1455.581446,2294.638420,8586.388927
2692.909683,612.876398,148.041188,8364.327145
2692.910013,383.047749,-1258.350101,8734.430116
2692.910342,229.828649,-1776.494261,8586.388927
2692.910671,-612.876398,-962.267725,9770.718434
2692.911000,-1991.848295,-1554.432478,10288.862594
2692.911329,-1532.190996,-3627.009116,10881.027347
2692.911659,-1378.971896,-0.000000,9770.718434
2692.911988,-1149.143247,740.205942,8438.347739
2692.912317,0.000000,-444.123565,8956.491898
2692.912646,1762.019645,-222.061783,9622.677246
2692.912975,2298.286494,592.164754,8734.430116
2692.913305,1608.800546,666.185348,8068.244768
2692.913634,1532.190996,-74.020594,8586.388927
2692.913963,1991.848295,-0.000000,8660.409521
2692.914292,1149.143247,1924.535449,8216.285956
2692.914621,229.828649,518.144159,7994.224174
2692.914951,383.047749,-222.061783,8512.368333
2692.915280,459.657299,-0.000000,9474.636058
2692.915609,-459.657299,148.041188,9400.615463
2692.915938,-1608.800546,-1332.370696,9178.553681
2692.916267,-1762.019645,-2886.803174,10584.944971
2692.916596,-842.705048,-370.102971,10214.842000
2692.916926,0.000000,592.164754,9104.533087
2692.917255,459.657299,-740.205942,9252.574275
2692.917584,1608.800546,592.164754,8882.471304
2692.917913,2298.286494,2072.576638,8142.265362
2692.918242,1608.800546,1184.329507,7994.224174
2692.918572,1608.800546,666.185348,8808.450710
2692.918901,1455.581446,1480.411884,8808.450710
2692.919230,76.609550,1850.514855,8216.285956
2692.919559,-689.485948,-222.061783,9252.574275
2692.919888,-229.828649,-1702.473667,9770.718434
2692.920218,-612.876398,-1702.473667,9844.739029
2692.920547,-2298.286494,-1480.411884,9770.718434
2692.920876,-1991.848295,-1850.514855,10584.944971
2692.921205,-1225.752797,-1998.556043,10955.047942
2692.921534,-612.876398,592.164754,9104.533087
2692.921864,-459.657299,518.144159,8512.368333
2692.922193,766.095498,-814.226536,9030.512492
2692.922522,2221.676944,-0.000000,9104.533087
2692.922851,2298.286494,888.247130,7698.141797
2692.923180,1685.410096,-0.000000,8808.450710
2692.923510,1685.410096,296.082377,9400.615463
2692.923839,919.314598,962.267725,8734.430116
2692.924168,76.609550,740.205942,8586.388927
2692.924497,-536.266849,-740.205942,8882.471304
2692.924826,0.000000,-1406.391290,9474.636058
2692.925156,-306.438199,-888.247130,9474.636058
2692.925485,-842.705048,-2072.576638,9622.677246
2692.925814,-1455.581446,-3256.906145,9918.759623
2692.926143,-689.485948,-2442.679609,10436.903782
2692.926472,-383.047749,-74.020594,8512.368333
2692.926802,153.219100,296.082377,7994.224174
2692.927131,1225.752797,-444.123565,9178.553681
2692.927460,2757.943793,-222.061783,7994.224174
2692.927789,2987.772442,1776.494261,7698.141797
2692.928118,1838.629195,296.082377,7846.182985
2692.928448,1915.238745,296.082377,8586.388927
2692.928777,1685.410096,1406.391290,8660.409521
2692.929106,153.219100,888.247130,7698.141797
2692.929435,76.609550,-1036.288319,9400.615463
2692.929764,842.705048,-1258.350101,9696.697840
2692.930094,0.000000,-592.164754,9252.574275
2692.930423,-1072.533697,-518.144159,9400.615463
2692.930752,-1378.971896,-1850.514855,10214.842000
2692.931081,-306.438199,-962.267725,10066.800811
2692.931410,-229.828649,1480.411884,8882.471304
2692.931740,0.000000,-370.102971,8512.368333
2692.932069,1225.752797,-0.000000,9178.553681
2692.932398,2451.505594,1036.288319,9474.636058
2692.932727,1455.581446,1258.350101,8290.306550
2692.933056,229.828649,518.144159,9252.574275
2692.933386,536.266849,888.247130,9326.594869
2692.933715,306.438199,1258.350101,9474.636058
2692.934044,-383.047749,1406.391290,9030.512492
2692.934373,0.000000,-1258.350101,9622.677246
2692.934702,612.876398,-1184.329507,10214.842000
2692.935032,-306.438199,-296.082377,9178.553681
2692.935361,-766.095498,-1332.370696,10288.862594
2692.935690,-766.095498,-1702.473667,9992.780217
2692.936019,0.000000,-74.020594,8882.471304
2692.936348,0.000000,1554.432478,7994.224174
2692.936678,0.000000,518.144159,8290.306550
2692.937007,1072.533697,-74.020594,9104.533087
2692.937336,1225.752797,-0.000000,8660.409521
2692.937665,459.657299,-0.000000,8734.430116
2692.937994,0.000000,-1776.494261,9474.636058
2692.938323,76.609550,-296.082377,9104.533087
2692.938653,0.000000,888.247130,9326.594869
2692.938982,-766.095498,-666.185348,8956.491898
2692.939311,-153.219100,-1628.453072,9696.697840
2692.939640,1072.533697,-814.226536,9474.636058
2692.939969,536.266849,-0.000000,8512.368333
2692.940299,76.609550,-74.020594,8882.471304
2692.940628,459.657299,-666.185348,9326.594869
2692.940957,995.924147,1258.350101,8438.347739
2692.941286,612.876398,2368.659014,7920.203579
2692.941615,459.657299,-0.000000,7994.224174
2692.941945,1532.190996,-888.247130,9104.533087
2692.942274,1532.190996,592.164754,8808.450710
2692.942603,536.266849,-1110.308913,8882.471304
2692.942932,-612.876398,-1776.494261,9770.718434
2692.943261,0.000000,-0.000000,9474.636058
2692.943591,-459.657299,962.267725,9252.574275
2692.943920,-612.876398,296.082377,9992.780217
2692.944249,536.266849,-1184.329507,9770.718434
2692.944578,1302.362347,-444.123565,9548.656652
2692.944907,766.095498,1036.288319,9104.533087
2692.945237,383.047749,-814.226536,9104.533087
2692.945566,842.705048,-0.000000,9474.636058
2692.945895,995.924147,1184.329507,8512.368333
2692.946224,766.095498,962.267725,7920.203579
2692.946553,1072.533697,-0.000000,8660.409521
2692.946883,2145.067394,148.041188,8364.327145
2692.947212,766.095498,592.164754,9178.553681
2692.947541,-383.047749,-74.020594,9104.533087
2692.947870,-612.876398,-2516.700203,9696.697840
2692.948199,-689.485948,-0.000000,9770.718434
2692.948529,-536.266849,-666.185348,9400.615463
2692.948858,-1608.800546,-2442.679609,10436.903782
2692.949187,306.438199,-2442.679609,9844.739029
2692.949516,689.485948,-592.164754,9326.594869
2692.949845,153.219100,-74.020594,8882.471304
2692.950175,229.828649,-296.082377,9178.553681
2692.950504,1302.362347,-0.000000,8586.388927
2692.950833,995.924147,2072.576638,7846.182985
2692.951162,1378.971896,2220.617826,7846.182985
2692.951491,1685.410096,-666.185348,7550.100608
2692.951821,1991.848295,-0.000000,8882.471304
2692.952150,1455.581446,-0.000000,8216.285956
2692.952479,76.609550,-1480.411884,8882.471304
2692.952808,-1149.143247,-1850.514855,9696.697840
2692.953137,-842.705048,-888.247130,9844.739029
2692.953467,-1378.971896,-1036.288319,8586.388927
2692.953796,-1302.362347,-1332.370696,9770.718434
2692.954125,0.000000,-814.226536,9844.739029
2692.954454,-383.047749,592.164754,9104.533087
2692.954783,0.000000,370.102971,9400.615463
2692.955113,689.485948,-592.164754,9696.697840
2692.955442,1685.410096,888.247130,9252.574275
2692.955771,1455.581446,2368.659014,7920.203579
2692.956100,1225.752797,1332.370696,8068.244768
2692.956429,2068.457845,740.205942,8216.285956
2692.956759,2528.115143,1406.391290,7994.224174
2692.957088,1532.190996,1258.350101,8142.265362
2692.957417,0.000000,-0.000000,8290.306550
2692.957746,-459.657299,-814.226536,10066.800811
2692.958075,-995.924147,-0.000000,9622.677246
2692.958405,-1915.238745,-666.185348,9548.656652
2692.958734,-2451.505594,-2368.659014,11103.089130
2692.959063,-1225.752797,-1776.494261,10881.027347
2692.959392,-1225.752797,-518.144159,9844.739029
2692.959721,-1149.143247,-592.164754,9400.615463
2692.960050,-229.828649,-1776.494261,10362.883188
2692.960380,536.266849,444.123565,9844.739029
2692.960709,1072.533697,1628.453072,7624.121203
2692.961038,1685.410096,222.061783,7772.162391
2692.961367,2604.724693,-0.000000,7846.182985
2692.961696,3294.210641,814.226536,7698.141797
2692.962025,2374.896044,1110.308913,7031.956449
2692.962354,459.657299,-666.185348,8142.265362
2692.962683,766.095498,-1110.308913,9030.512492
2692.963012,-459.657299,-592.164754,8438.347739
2692.963342,-1455.581446,-444.123565,9326.594869
2692.963671,-1685.410096,-2812.782580,10362.883188
2692.964000,-1225.752797,-1628.453072,10584.944971
2692.964329,-1378.971896,-1258.350101,10140.821405
2692.964658,-1685.410096,-1184.329507,9696.697840
2692.964987,76.609550,-1776.494261,10510.924376
2692.965316,1455.581446,-0.000000,9696.697840
2692.965645,1072.533697,1406.391290,7846.182985
2692.965974,2298.286494,962.267725,8290.306550
2692.966303,3140.991542,296.082377,7994.224174
2692.966632,2987.772442,2516.700203,7846.182985
2692.966961,3217.601092,2368.659014,7402.059420
2692.967290,1455.581446,592.164754,7550.100608
2692.967620,1838.629195,1850.514855,9178.553681
2692.967949,76.609550,962.267725,9326.594869
2692.968278,-1762.019645,-148.041188,9104.533087
2692.968607,-1685.410096,-2072.576638,10584.944971
2692.968936,-1302.362347,-1998.556043,10881.027347
2692.969265,-2451.505594,-1480.411884,11399.171507
2692.969594,-2221.676944,-1702.473667,10214.842000
2692.969923,-1378.971896,-2146.597232,10510.924376
2692.970252,0.000000,962.267725,9622.677246
2692.970581,612.876398,1332.370696,8068.244768
2692.970910,1915.238745,444.123565,8734.430116
2692.971239,3140.991542,1110.308913,7550.100608
2692.971568,3447.429741,1924.535449,7476.080014
2692.971898,2068.457845,1628.453072,6513.812290
2692.972227,1915.238745,-74.020594,8142.265362
2692.972556,1225.752797,518.144159,8142.265362
2692.972885,0.000000,1258.350101,8290.306550
2692.973214,-1838.629195,-1554.432478,9622.677246
2692.973543,-1838.629195,-2442.679609,9992.780217
2692.973872,-1762.019645,-1702.473667,10214.842000
2692.974201,-3294.210641,-2146.597232,10881.027347
2692.974530,-2451.505594,-3108.864956,11473.192101
2692.974859,-1225.752797,-3256.906145,10436.903782
2692.975188,-229.828649,222.061783,9178.553681
2692.975517,689.485948,1110.308913,8808.450710
2692.975846,1762.019645,-0.000000,7920.203579
2692.976176,3600.648841,1184.329507,7994.224174
2692.976505,3907.087040,2072.576638,7920.203579
2692.976834,2298.286494,962.267725,7105.977043
2692.977163,2145.067394,-0.000000,8290.306550
2692.977492,2604.724693,1406.391290,7846.182985
2692.977821,1072.533697,1628.453072,7846.182985
2692.978150,-766.095498,-1850.514855,9770.718434
2692.978479,-689.485948,-3775.050304,10807.006753
2692.978808,-1225.752797,-2220.617826,10955.047942
2692.979137,-2528.115143,-1776.494261,10658.965565
2692.979466,-1838.629195,-1776.494261,10732.986159
2692.979795,-766.095498,-814.226536,10584.944971
2692.980124,-306.438199,1480.411884,9474.636058
2692.980454,229.828649,1036.288319,8364.327145
2692.980783,2145.067394,-296.082377,8734.430116
2692.981112,3600.648841,1036.288319,7105.977043
2692.981441,3140.991542,1850.514855,6513.812290
2692.981770,1378.971896,-0.000000,7698.141797
2692.982099,2068.457845,-888.247130,8142.265362
2692.982428,1225.752797,814.226536,8216.285956
2692.982757,-153.219100,962.267725,7698.141797
2692.983086,-1302.362347,-1258.350101,9326.594869
2692.983415,-995.924147,-2886.803174,10955.047942
2692.983744,-1762.019645,-2886.803174,10732.986159
2692.984073,-2757.943793,-2812.782580,10584.944971
2692.984402,-2145.067394,-3256.906145,10955.047942
2692.984732,-766.095498,-1406.391290,10066.800811
2692.985061,-153.219100,1776.494261,8882.471304
2692.985390,1532.190996,1184.329507,7698.141797
2692.985719,2451.505594,-0.000000,7772.162391
2692.986048,3294.210641,1332.370696,8068.244768
2692.986377,2298.286494,1998.556043,6809.894666
2692.986706,1762.019645,370.102971,7105.977043
2692.987035,1838.629195,-148.041188,8734.430116
2692.987364,995.924147,148.041188,8142.265362
2692.987693,-919.314598,-1258.350101,9178.553681
2692.988022,-919.314598,-3108.864956,9844.739029
2692.988351,-1149.143247,-3404.947333,11177.109724
2692.988681,-1838.629195,-1702.473667,10807.006753
2692.989010,-2374.896044,-1406.391290,10362.883188
2692.989339,-1378.971896,-1480.411884,10510.924376
2692.989668,0.000000,888.247130,9474.636058
2692.989997,1378.971896,2072.576638,9178.553681
2692.990326,2298.286494,1110.308913,7920.203579
2692.990655,3064.381992,-0.000000,7994.224174
2692.990984,3753.867940,1702.473667,8068.244768
2692.991313,2451.505594,1924.535449,7476.080014
2692.991642,1991.848295,962.267725,7994.224174
2692.991971,1762.019645,666.185348,7476.080014
2692.992300,995.924147,1628.453072,8438.347739
2692.992629,-612.876398,-0.000000,9474.636058
2692.992959,-1225.752797,-3404.947333,9844.739029
2692.993288,-1378.971896,-2516.700203,10436.903782
2692.993617,-2221.676944,-2072.576638,10658.965565
2692.993946,-3064.381992,-2220.617826,11251.130318
2692.994275,-1915.238745,-2220.617826,11621.233289
2692.994604,-229.828649,592.164754,9178.553681
2692.994933,766.095498,2146.597232,8734.430116
2692.995262,1838.629195,296.082377,8216.285956
2692.995591,3294.210641,-0.000000,7920.203579
2692.995920,3524.039291,1998.556043,8068.244768
2692.996249,2298.286494,1850.514855,6513.812290
2692.996578,1532.190996,888.247130,7476.080014
2692.996907,1915.238745,1406.391290,7772.162391
2692.997237,1608.800546,1406.391290,7698.141797
2692.997566,-1302.362347,-1332.370696,9252.574275
2692.997895,-919.314598,-3997.112087,10436.903782
2692.998224,-1838.629195,-2442.679609,10584.944971
2692.998553,-2911.162892,-1998.556043,11177.109724
2692.998882,-3677.258390,-2664.741391,10881.027347
2692.999211,-2451.505594,-2664.741391,11621.233289
2692.999540,-995.924147,-0.000000,9770.718434
2692.999869,0.000000,592.164754,7698.141797
2693.000198,1838.629195,-518.144159,8734.430116
2693.000527,3370.820191,1184.329507,7624.121203
2693.000856,3830.477490,2294.638420,7179.997637
2693.001185,2068.457845,1924.535449,7105.977043
2693.001515,1149.143247,518.144159,7624.121203
2693.001844,2221.676944,2146.597232,7624.121203
2693.002173,1685.410096,2960.823768,6957.935855
2693.002502,689.485948,1110.308913,7920.203579
2693.002831,459.657299,-1332.370696,9178.553681
2693.003160,-919.314598,-2294.638420,10140.821405
2693.003489,-2451.505594,-666.185348,10214.842000
2693.003818,-3064.381992,-3478.967927,11843.295072
2693.004147,-2604.724693,-2368.659014,11251.130318
2693.004476,-1762.019645,-0.000000,10288.862594
2693.004805,-919.314598,-0.000000,9844.739029
2693.005134,0.000000,-888.247130,9474.636058
2693.005463,2528.115143,-148.041188,8882.471304
2693.005793,3600.648841,2368.659014,7624.121203
2693.006122,2604.724693,1332.370696,7624.121203
2693.006451,1762.019645,592.164754,8290.306550
2693.006780,1072.533697,2072.576638,7105.977043
2693.007109,1149.143247,2738.761985,7994.224174
2693.007438,536.266849,222.061783,7624.121203
2693.007767,459.657299,-740.205942,9104.533087
2693.008096,-612.876398,-1628.453072,9918.759623
2693.008425,-2298.286494,-2220.617826,11103.089130
2693.008754,-3447.429741,-3849.070898,11473.192101
2693.009083,-2451.505594,-3849.070898,11177.109724
2693.009412,-1991.848295,-148.041188,10584.944971
2693.009741,-919.314598,-0.000000,9178.553681
2693.010071,459.657299,-1110.308913,9104.533087
2693.010400,2451.505594,1184.329507,8512.368333
2693.010729,2987.772442,2072.576638,7550.100608
2693.011058,2681.334243,222.061783,8216.285956
2693.011387,2528.115143,-0.000000,7476.080014
2693.011716,2145.067394,1036.288319,7846.182985
2693.012045,1608.800546,1924.535449,7105.977043
2693.012374,1072.533697,222.061783,7920.203579
2693.012703,1225.752797,-444.123565,8882.471304
2693.013032,0.000000,-666.185348,9548.656652
2693.013361,-1455.581446,-1480.411884,10510.924376
2693.013690,-1685.410096,-3108.864956,10807.006753
2693.014020,-1149.143247,-1332.370696,10584.944971
2693.014349,-1455.581446,-0.000000,10066.800811
2693.014678,-229.828649,592.164754,9252.574275
2693.015007,1378.971896,-1258.350101,10362.883188
2693.015336,2757.943793,1110.308913,8364.327145
2693.015665,3064.381992,888.247130,7846.182985
2693.015994,2451.505594,1110.308913,8290.306550
2693.016323,2068.457845,592.164754,7476.080014
2693.016652,1762.019645,2368.659014,7105.977043
2693.016981,842.705048,2146.597232,7402.059420
2693.017310,995.924147,-444.123565,8438.347739
2693.017639,536.266849,-1110.308913,9400.615463
2693.017968,-612.876398,-1776.494261,9770.718434
2693.018298,-2374.896044,-2516.700203,10658.965565
2693.018627,-2757.943793,-3849.070898,11917.315666
2693.018956,-2298.286494,-2368.659014,10955.047942
2693.019285,-1225.752797,-296.082377,9326.594869
2693.019614,-383.047749,-222.061783,9474.636058
2693.019943,1225.752797,-0.000000,8882.471304
2693.020272,2604.724693,1480.411884,8364.327145
2693.020601,2145.067394,2072.576638,7476.080014
2693.020930,1225.752797,148.041188,7994.224174
2693.021259,1532.190996,-148.041188,8734.430116
2693.021588,1149.143247,518.144159,7254.018232
2693.021917,-306.438199,-296.082377,7772.162391
2693.022246,0.000000,-2146.597232,9400.615463
2693.022576,-383.047749,-2442.679609,9992.780217
2693.022905,-1685.410096,-1702.473667,9992.780217
2693.023234,-2757.943793,-2368.659014,10584.944971
2693.023563,-2145.067394,-2220.617826,10807.006753
2693.023892,-1455.581446,-0.000000,9474.636058
2693.024221,-612.876398,1184.329507,9326.594869
2693.024550,842.705048,-370.102971,9178.553681
2693.024879,2145.067394,-370.102971,9104.533087
2693.025208,1991.848295,1554.432478,9030.512492
2693.025537,2145.067394,2146.597232,7254.018232
2693.025866,1608.800546,1184.329507,8142.265362
2693.026195,2145.067394,1850.514855,8512.368333
2693.026524,1762.019645,2220.617826,7994.224174
2693.026854,689.485948,1628.453072,7402.059420
2693.027183,76.609550,-814.226536,8438.347739
2693.027512,-229.828649,-888.247130,9918.759623
2693.027841,-1915.238745,-814.226536,9770.718434
2693.028170,-2911.162892,-2812.782580,10807.006753
2693.028499,-2451.505594,-3552.988522,11917.315666
2693.028828,-1532.190996,-592.164754,10658.965565
2693.029157,-1532.190996,-0.000000,9030.512492
2693.029486,0.000000,-0.000000,8660.409521
2693.029815,2221.676944,814.226536,8882.471304
2693.030144,2987.772442,1998.556043,8512.368333
2693.030473,1608.800546,2294.638420,7698.141797
2693.030802,1685.410096,444.123565,8290.306550
2693.031132,1991.848295,1554.432478,7624.121203
2693.031461,1915.238745,2368.659014,7846.182985
2693.031790,536.266849,-222.061783,8068.244768
2693.032119,612.876398,-1258.350101,9326.594869
2693.032448,0.000000,-0.000000,9548.656652
2693.032777,-2221.676944,-592.164754,9844.739029
2693.033106,-2604.724693,-1850.514855,11251.130318
2693.033435,-2145.067394,-2294.638420,10732.986159
2693.033764,-1991.848295,-518.144159,9622.677246
2693.034093,-1225.752797,-0.000000,9696.697840
2693.034422,-153.219100,-1480.411884,9696.697840
2693.034751,1838.629195,-296.082377,9992.780217
2693.035080,2068.457845,1036.288319,8364.327145
2693.035410,1991.848295,666.185348,8290.306550
2693.035739,2298.286494,-0.000000,8660.409521
2693.036068,2528.115143,962.267725,7994.224174
2693.036397,1838.629195,1998.556043,7624.121203
2693.036726,1608.800546,592.164754,7624.121203
2693.037055,2145.067394,222.061783,8216.285956
2693.037384,1532.190996,592.164754,9104.533087
2693.037713,-306.438199,-740.205942,9030.512492
2693.038042,-1455.581446,-2368.659014,9844.739029
2693.038371,-1225.752797,-1332.370696,10510.924376
2693.038700,-1072.533697,-1036.288319,9918.759623
2693.039029,-1225.752797,-888.247130,9844.739029
2693.039358,153.219100,-1850.514855,9696.697840
2693.039688,842.705048,-0.000000,9474.636058
2693.040017,995.924147,962.267725,8586.388927
2693.040346,1072.533697,444.123565,8068.244768
2693.040675,1991.848295,518.144159,9326.594869
2693.041004,1915.238745,2146.597232,7846.182985
2693.041333,1302.362347,740.205942,8142.265362
2693.041662,1455.581446,-1184.329507,8660.409521
2693.041991,1762.019645,-1406.391290,8290.306550
2693.042320,842.705048,222.061783,9030.512492
2693.042649,-1225.752797,-1036.288319,8882.471304
2693.042978,-1225.752797,-1850.514855,9696.697840
2693.043307,-995.924147,-1184.329507,10658.965565
2693.043637,-1149.143247,-0.000000,8808.450710
2693.043966,-1225.752797,-1184.329507,9326.594869
2693.044295,0.000000,-2368.659014,10066.800811
2693.044624,459.657299,-1628.453072,9252.574275
2693.044953,536.266849,-1332.370696,9622.677246
2693.045282,229.828649,-1776.494261,8882.471304
2693.045611,1149.143247,-370.102971,9252.574275
2693.045940,1149.143247,1110.308913,9104.533087
2693.046269,76.609550,1258.350101,7031.956449
2693.046598,842.705048,-0.000000,9030.512492
2693.046927,1685.410096,296.082377,9030.512492
2693.047256,612.876398,1184.329507,7994.224174
2693.047585,-766.095498,-1480.411884,9326.594869
2693.047915,-383.047749,-2442.679609,10362.883188
2693.048244,-689.485948,-1258.350101,9326.594869
2693.048573,-919.314598,-888.247130,9178.553681
2693.048902,-229.828649,-888.247130,8882.471304
2693.049231,459.657299,-1332.370696,9178.553681
2693.049560,995.924147,814.226536,8660.409521
2693.049889,306.438199,1036.288319,7994.224174
2693.050218,459.657299,-444.123565,9178.553681
2693.050547,536.266849,1110.308913,8808.450710
2693.050876,689.485948,1036.288319,8882.471304
2693.051205,383.047749,-74.020594,9178.553681
2693.051534,1225.752797,-1110.308913,8882.471304
2693.051863,1608.800546,222.061783,9474.636058
2693.052193,919.314598,666.185348,9178.553681
2693.052522,383.047749,370.102971,8882.471304
2693.052851,612.876398,-296.082377,9178.553681
2693.053180,1072.533697,2072.576638,8660.409521
2693.053509,0.000000,1554.432478,8290.306550
2693.053838,536.266849,-74.020594,8882.471304
2693.054167,842.705048,-0.000000,8882.471304
2693.054496,919.314598,-0.000000,9918.759623
2693.054825,-306.438199,-666.185348,9326.594869
2693.055154,-689.485948,-1258.350101,10066.800811
2693.055483,306.438199,-518.144159,10510.924376
2693.055812,-689.485948,370.102971,9622.677246
2693.056141,-536.266849,-296.082377,9696.697840
2693.056471,689.485948,-1184.329507,9548.656652
2693.056800,1149.143247,962.267725,8882.471304
2693.057129,383.047749,814.226536,9400.615463
2693.057458,76.609550,-518.144159,9474.636058
2693.057787,842.705048,-814.226536,9400.615463
2693.058116,1225.752797,814.226536,8438.347739
2693.058445,612.876398,962.267725,7920.203579
2693.058774,459.657299,-370.102971,8586.388927
2693.059103,1149.143247,-370.102971,9474.636058
2693.059432,919.314598,1258.350101,8290.306550
2693.059761,-306.438199,-444.123565,8808.450710
2693.060090,-536.266849,-1776.494261,10214.842000
2693.060419,-536.266849,-1480.411884,10584.944971
2693.060749,-536.266849,-814.226536,9326.594869
2693.061078,-995.924147,-1554.432478,9104.533087
2693.061407,383.047749,-1406.391290,10066.800811
2693.061736,995.924147,592.164754,8438.347739
2693.062065,76.609550,296.082377,9178.553681
2693.062394,229.828649,-518.144159,9178.553681
2693.062723,1762.019645,666.185348,8216.285956
2693.063052,1838.629195,2072.576638,7550.100608
2693.063381,1608.800546,888.247130,7328.038826
2693.063710,1838.629195,-888.247130,8438.347739
2693.064039,2221.676944,-740.205942,8438.347739
2693.064368,1608.800546,-222.061783,7624.121203
2693.064697,0.000000,-666.185348,8808.450710
2693.065026,-689.485948,-1110.308913,9622.677246
2693.065355,-612.876398,-740.205942,10510.924376
2693.065684,-1608.800546,-666.185348,9474.636058
2693.066013,-1302.362347,-2368.659014,9992.780217
2693.066342,0.000000,-1924.535449,10807.006753
2693.066671,0.000000,-740.205942,10140.821405
2693.067000,-229.828649,-740.205942,10066.800811
2693.067329,842.705048,-1702.473667,9548.656652
2693.067658,1455.581446,-0.000000,8216.285956
2693.067987,1225.752797,2368.659014,7476.080014
2693.068316,1455.581446,1258.350101,7624.121203
2693.068645,1915.238745,148.041188,7920.203579
2693.068974,2298.286494,814.226536,7698.141797
2693.069303,1149.143247,-0.000000,8438.347739
2693.069632,-766.095498,-2368.659014,9178.553681
2693.069961,-995.924147,-1776.494261,9696.697840
2693.070290,-1302.362347,-1850.514855,9622.677246
2693.070619,-2451.505594,-1406.391290,9548.656652
2693.070948,-1838.629195,-2294.638420,10584.944971
2693.071277,-459.657299,-1924.535449,9918.759623
2693.071606,-919.314598,1258.350101,9474.636058
2693.071935,-766.095498,-222.061783,9696.697840
2693.072264,459.657299,-222.061783,8734.430116
2693.072593,1762.019645,1258.350101,8512.368333
2693.072922,2145.067394,2220.617826,7624.121203
2693.073251,1378.971896,518.144159,7105.977043
2693.073580,2298.286494,-0.000000,8734.430116
2693.073909,2911.162892,1332.370696,7179.997637
2693.074238,1915.238745,1184.329507,7328.038826
2693.074567,536.266849,-518.144159,8882.471304
2693.074896,612.876398,-518.144159,9252.574275
2693.075225,-306.438199,-296.082377,9992.780217
2693.075554,-1225.752797,-1036.288319,9252.574275
2693.075883,-306.438199,-2442.679609,10214.842000
2693.076212,0.000000,-296.082377,11325.150913
2693.076541,-842.705048,444.123565,10140.821405
2693.076870,-689.485948,370.102971,9474.636058
2693.077199,689.485948,-444.123565,9844.739029
2693.077528,1608.800546,2368.659014,8956.491898
2693.077857,1072.533697,2960.823768,8660.409521
2693.078186,1225.752797,1036.288319,7846.182985
2693.078515,2987.772442,370.102971,8290.306550
2693.078844,2221.676944,1628.453072,8808.450710
2693.079173,612.876398,-0.000000,8142.265362
2693.079502,-306.438199,-1258.350101,8956.491898
2693.079831,0.000000,-444.123565,9770.718434
2693.080160,-612.876398,666.185348,9178.553681
2693.080489,-1608.800546,-1628.453072,10066.800811
2693.080818,-1455.581446,-1924.535449,10584.944971
2693.081147,-229.828649,-962.267725,10584.944971
2693.081476,-1455.581446,-0.000000,10288.862594
2693.081805,-1149.143247,-1110.308913,9326.594869
2693.082134,229.828649,-592.164754,9474.636058
2693.082463,995.924147,1036.288319,9326.594869
2693.082792,1225.752797,1480.411884,7550.100608
2693.083121,842.705048,-370.102971,8438.347739
2693.083450,2145.067394,888.247130,7402.059420
2693.083779,2068.457845,2072.576638,7105.977043
2693.084108,689.485948,444.123565,8364.327145
2693.084437,-229.828649,-1184.329507,8586.388927
2693.084766,0.000000,-222.061783,9178.553681
2693.085095,-1072.533697,-222.061783,9474.636058
2693.085424,-995.924147,-1480.411884,9844.739029
2693.085753,-229.828649,-2442.679609,11547.212695
2693.086082,76.609550,-0.000000,9844.739029
2693.086411,-383.047749,1110.308913,9474.636058
2693.086740,0.000000,-222.061783,10436.903782
2693.087069,1302.362347,666.185348,9548.656652
2693.087398,2757.943793,2072.576638,8290.306550
2693.087727,2145.067394,1776.494261,8216.285956
2693.088056,2145.067394,-444.123565,8512.368333
2693.088385,2374.896044,1332.370696,7328.038826
2693.088714,2604.724693,1184.329507,7624.121203
2693.089043,1302.362347,-0.000000,8216.285956
2693.089372,536.266849,-1998.556043,8882.471304
2693.089701,536.266849,-222.061783,9326.594869
2693.090030,-766.095498,-74.020594,9696.697840
2693.090359,-2068.457845,-2072.576638,9696.697840
2693.090688,-1455.581446,-2368.659014,10881.027347
2693.091017,-1149.143247,-962.267725,10807.006753
2693.091346,-1685.410096,-1184.329507,10066.800811
2693.091675,-995.924147,-2072.576638,10140.821405
2693.092004,995.924147,-814.226536,9178.553681
2693.092333,919.314598,888.247130,8512.368333
2693.092662,1608.800546,740.205942,7550.100608
2693.092991,2221.676944,-370.102971,7624.121203
2693.093320,2528.115143,1406.391290,7772.162391
2693.093649,2298.286494,1850.514855,6365.771101
2693.093978,1072.533697,-370.102971,7254.018232
2693.094307,842.705048,-1554.432478,8734.430116
2693.094637,-536.266849,-1480.411884,9474.636058
2693.094966,-1455.581446,-2220.617826,9696.697840
2693.095295,-2451.505594,-3552.988522,9992.780217
2693.095624,-1532.190996,-2664.741391,11177.109724
2693.095953,-1608.800546,-1258.350101,10436.903782
2693.096282,-2221.676944,-1628.453072,10362.883188
2693.096611,-1149.143247,-2812.782580,10732.986159
2693.096940,689.485948,-1776.494261,9474.636058
2693.097269,2068.457845,518.144159,8808.450710
2693.097598,2221.676944,-148.041188,7846.182985
2693.097927,2681.334243,-814.226536,7846.182985
2693.098256,3600.648841,1036.288319,7550.100608
2693.098585,2911.162892,814.226536,6957.935855
2693.098914,1455.581446,-888.247130,8142.265362
2693.099243,1302.362347,-1184.329507,8882.471304
2693.099572,612.876398,-740.205942,9030.512492
2693.099901,-1455.581446,-1776.494261,9696.697840
2693.100230,-2528.115143,-3627.009116,9918.759623
2693.100559,-2604.724693,-4663.297435,12435.459826
2693.100888,-1915.238745,-2516.700203,11103.089130
2693.101217,-1991.848295,-3478.967927,9770.718434
2693.101546,-1149.143247,-3775.050304,10436.903782
2693.101875,383.047749,-1998.556043,11325.150913
2693.102204,2298.286494,-1036.288319,8660.409521
2693.102533,1915.238745,592.164754,6957.935855
2693.102862,2528.115143,-962.267725,7994.224174
2693.103191,2911.162892,814.226536,7254.018232
2693.103520,3600.648841,666.185348,6365.771101
2693.103849,2451.505594,-1110.308913,7031.956449
2693.104178,995.924147,-2886.803174,7994.224174
2693.104507,0.000000,-2960.823768,9622.677246
2693.104836,-919.314598,-4367.215058,9400.615463
2693.105165,-3140.991542,-3997.112087,9178.553681
2693.105494,-3600.648841,-4663.297435,11769.274478
2693.105823,-3753.867940,-4367.215058,11029.068536
2693.106152,-1838.629195,-3627.009116,10732.986159
