#time,accel_x,accel_y,accel_z
2676.161078,-306.438199,-0.000000,9178.553681
2676.161407,459.657299,-0.000000,8956.491898
2676.161737,383.047749,-148.041188,9104.533087
2676.162066,306.438199,-74.020594,8956.491898
2676.162395,229.828649,-148.041188,9030.512492
2676.162724,229.828649,-222.061783,9178.553681
2676.163053,229.828649,-592.164754,9474.636058
2676.163382,229.828649,-296.082377,9400.615463
2676.163711,229.828649,-370.102971,8882.471304
2676.164040,306.438199,296.082377,9104.533087
2676.164369,383.047749,-222.061783,9178.553681
2676.164698,459.657299,-148.041188,9178.553681
2676.165027,536.266849,-148.041188,9178.553681
2676.165356,919.314598,-370.102971,9400.615463
2676.165686,459.657299,-148.041188,9400.615463
2676.166015,-306.438199,-222.061783,9474.636058
2676.166344,306.438199,-444.123565,9400.615463
2676.166673,76.609550,-148.041188,9178.553681
2676.167002,0.000000,-370.102971,9104.533087
2676.167331,0.000000,-74.020594,9178.553681
2676.167660,76.609550,-0.000000,9474.636058
2676.167989,919.314598,-0.000000,9474.636058
2676.168318,459.657299,-222.061783,9252.574275
2676.168647,536.266849,-148.041188,8956.491898
2676.168976,76.609550,-0.000000,8956.491898
2676.169305,306.438199,-74.020594,9104.533087
2676.169635,383.047749,-0.000000,8734.430116
2676.169964,612.876398,148.041188,8956.491898
2676.170293,459.657299,-222.061783,8660.409521
2676.170622,459.657299,-296.082377,8734.430116
2676.170951,536.266849,-222.061783,8808.450710
2676.171280,76.609550,-74.020594,8882.471304
2676.171609,229.828649,-222.061783,8956.491898
2676.171938,229.828649,-296.082377,8882.471304
2676.172267,76.609550,-370.102971,8956.491898
2676.172596,0.000000,-518.144159,9178.553681
2676.172925,612.876398,-296.082377,9030.512492
2676.173255,459.657299,-296.082377,8734.430116
2676.173584,383.047749,-74.020594,8808.450710
2676.173913,153.219100,-0.000000,8882.471304
2676.174242,612.876398,-0.000000,9252.574275
2676.174571,612.876398,-74.020594,9104.533087
2676.174900,766.095498,-0.000000,9400.615463
2676.175229,306.438199,-370.102971,8882.471304
2676.175558,-459.657299,-222.061783,9474.636058
2676.175887,76.609550,-296.082377,9104.533087
2676.176216,229.828649,-222.061783,9252.574275
2676.176545,306.438199,-518.144159,9326.594869
2676.176874,689.485948,-148.041188,9400.615463
2676.177204,383.047749,-222.061783,9474.636058
2676.177533,1302.362347,-370.102971,9474.636058
2676.177862,536.266849,-0.000000,9252.574275
2676.178191,383.047749,-0.000000,9104.533087
2676.178520,153.219100,-0.000000,8956.491898
2676.178849,306.438199,-0.000000,8956.491898
2676.179178,995.924147,-74.020594,9474.636058
2676.179507,766.095498,-444.123565,9178.553681
2676.179836,536.266849,-518.144159,9178.553681
2676.180165,229.828649,-74.020594,9178.553681
2676.180494,76.609550,-222.061783,8956.491898
2676.180823,229.828649,-148.041188,8956.491898
2676.181153,536.266849,-0.000000,8956.491898
2676.181482,0.000000,-74.020594,8956.491898
2676.181811,459.657299,-74.020594,8808.450710
2676.182140,689.485948,-0.000000,8882.471304
2676.182469,459.657299,-222.061783,8438.347739
2676.182798,383.047749,-0.000000,8734.430116
2676.183127,229.828649,-0.000000,8808.450710
2676.183456,306.438199,-74.020594,9030.512492
2676.183785,153.219100,-370.102971,9178.553681
2676.184114,306.438199,-666.185348,9252.574275
2676.184443,-306.438199,-444.123565,9178.553681
2676.184772,-383.047749,-222.061783,9548.656652
2676.185102,229.828649,-0.000000,9326.594869
2676.185431,229.828649,-74.020594,8882.471304
2676.185760,383.047749,-0.000000,9178.553681
2676.186089,995.924147,-148.041188,9178.553681
2676.186418,536.266849,-370.102971,9326.594869
2676.186747,229.828649,-148.041188,9474.636058
2676.187076,229.828649,-148.041188,9030.512492
2676.187405,229.828649,-222.061783,9326.594869
2676.187734,0.000000,-296.082377,9252.574275
2676.188063,229.828649,-370.102971,9474.636058
2676.188392,153.219100,-296.082377,9474.636058
2676.188722,459.657299,-222.061783,9548.656652
2676.189051,306.438199,-444.123565,9252.574275
2676.189380,536.266849,-0.000000,8956.491898
2676.189709,383.047749,-0.000000,8956.491898
2676.190038,536.266849,222.061783,9178.553681
2676.190367,383.047749,-0.000000,8882.471304
2676.190696,536.266849,-222.061783,8882.471304
2676.191025,229.828649,-148.041188,9030.512492
2676.191354,612.876398,-222.061783,8956.491898
2676.191683,153.219100,-74.020594,9178.553681
2676.192012,0.000000,-296.082377,9030.512492
2676.192341,76.609550,-296.082377,8808.450710
2676.192671,153.219100,-296.082377,9104.533087
2676.193000,306.438199,-0.000000,9474.636058
2676.193329,153.219100,-518.144159,9326.594869
2676.193658,459.657299,-148.041188,9104.533087
2676.193987,306.438199,-0.000000,8734.430116
2676.194316,153.219100,148.041188,8808.450710
2676.194645,229.828649,-0.000000,8956.491898
2676.194974,459.657299,-0.000000,8956.491898
2676.195303,306.438199,-296.082377,9030.512492
2676.195632,0.000000,-148.041188,9104.533087
2676.195961,0.000000,-518.144159,9030.512492
2676.196290,-229.828649,-518.144159,9400.615463
2676.196620,306.438199,-370.102971,9252.574275
2676.196949,153.219100,-518.144159,9178.553681
2676.197278,153.219100,-222.061783,9326.594869
2676.197607,383.047749,-370.102971,9178.553681
2676.197936,459.657299,-0.000000,9104.533087
2676.198265,612.876398,-0.000000,9104.533087
2676.198594,459.657299,-0.000000,9252.574275
2676.198923,459.657299,-740.205942,9178.553681
2676.199252,459.657299,-370.102971,9104.533087
2676.199581,612.876398,-888.247130,9696.697840
2676.199910,1072.533697,-1110.308913,9622.677246
2676.200240,1149.143247,-740.205942,9474.636058
2676.200569,1302.362347,-666.185348,9622.677246
2676.200898,2451.505594,-444.123565,9252.574275
2676.201227,2834.553343,-0.000000,9104.533087
2676.201556,3447.429741,222.061783,9030.512492
2676.201885,4290.134789,-148.041188,8808.450710
2676.202214,3447.429741,518.144159,8290.306550
2676.202543,3370.820191,740.205942,8364.327145
2676.202872,2911.162892,370.102971,8512.368333
2676.203201,3370.820191,-0.000000,9400.615463
2676.203530,2681.334243,-518.144159,8734.430116
2676.203859,1838.629195,-666.185348,9918.759623
2676.204189,2221.676944,-1924.535449,9844.739029
2676.204518,2528.115143,-814.226536,9178.553681
2676.204847,1991.848295,-518.144159,9474.636058
2676.205176,2757.943793,-1480.411884,9844.739029
2676.205505,2681.334243,-296.082377,9178.553681
2676.205834,4596.572988,666.185348,9326.594869
2676.206163,5745.716235,444.123565,7254.018232
2676.206492,4443.353888,1480.411884,8808.450710
2676.206821,5132.839837,1110.308913,8734.430116
2676.207150,4443.353888,888.247130,7105.977043
2676.207479,3830.477490,-0.000000,8882.471304
2676.207808,3064.381992,-0.000000,8734.430116
2676.208138,2221.676944,592.164754,9474.636058
2676.208467,1685.410096,-1110.308913,9548.656652
2676.208796,1378.971896,-962.267725,9548.656652
2676.209125,1225.752797,-1036.288319,9992.780217
2676.209454,383.047749,-1036.288319,9770.718434
2676.209783,1532.190996,-296.082377,9770.718434
2676.210112,2374.896044,-370.102971,10362.883188
2676.210441,2298.286494,370.102971,7920.203579
2676.210770,4136.915689,222.061783,10436.903782
2676.211099,4213.525239,1110.308913,8512.368333
2676.211428,4519.963438,666.185348,8364.327145
2676.211757,4366.744339,962.267725,8586.388927
2676.212087,4290.134789,518.144159,8956.491898
2676.212416,4443.353888,-0.000000,9104.533087
2676.212745,3294.210641,-1332.370696,9696.697840
2676.213074,3294.210641,-740.205942,9770.718434
2676.213403,2374.896044,-1554.432478,9992.780217
2676.213732,2374.896044,-1554.432478,9770.718434
2676.214061,2451.505594,-1628.453072,9770.718434
2676.214390,2528.115143,-370.102971,9548.656652
2676.214719,3447.429741,-0.000000,8956.491898
2676.215048,3830.477490,444.123565,8512.368333
2676.215377,3677.258390,1702.473667,8438.347739
2676.215707,4519.963438,2294.638420,7920.203579
2676.216036,4366.744339,2368.659014,7328.038826
2676.216365,3907.087040,2220.617826,7846.182985
2676.216694,3677.258390,1258.350101,7920.203579
2676.217023,2987.772442,-518.144159,8438.347739
2676.217352,2528.115143,-1110.308913,9622.677246
2676.217681,2528.115143,-2812.782580,9474.636058
2676.218010,1991.848295,-2738.761985,10510.924376
2676.218339,2145.067394,-2886.803174,10732.986159
2676.218668,3140.991542,-2368.659014,10436.903782
2676.218997,4213.525239,-1258.350101,10140.821405
2676.219326,5592.497135,-0.000000,9326.594869
2676.219656,6052.154434,666.185348,8808.450710
2676.219985,6205.373534,1480.411884,8364.327145
2676.220314,5209.449386,2664.741391,7994.224174
2676.220643,4979.620737,3256.906145,7105.977043
2676.220972,4136.915689,3182.885551,7105.977043
2676.221301,3370.820191,1184.329507,7624.121203
2676.221630,1302.362347,-444.123565,8882.471304
2676.221959,383.047749,-3627.009116,9992.780217
2676.222288,-919.314598,-3923.091493,10881.027347
2676.222617,-1378.971896,-5255.462188,11991.336260
2676.222946,-1225.752797,-3404.947333,10732.986159
2676.223275,0.000000,-2294.638420,10955.047942
2676.223605,306.438199,-962.267725,10436.903782
2676.223934,2145.067394,444.123565,10584.944971
2676.224263,4903.011187,1480.411884,9030.512492
2676.224592,7354.516781,1924.535449,8364.327145
2676.224921,7277.907231,1110.308913,7698.141797
2676.225250,6358.592633,1924.535449,6587.832884
2676.225579,6052.154434,2590.720797,6735.874072
2676.225908,5975.544884,1776.494261,6957.935855
2676.226237,5669.106685,3108.864956,6069.688724
2676.226566,4903.011187,2738.761985,7031.956449
2676.226895,4290.134789,2146.597232,6217.729913
2676.227224,3294.210641,-1480.411884,8068.244768
2676.227554,153.219100,-5329.482782,11473.192101
2676.227883,-689.485948,-6291.750507,11843.295072
2676.228212,-2145.067394,-3997.112087,12213.398043
2676.228541,-1532.190996,-7920.203579,14063.912898
2676.228870,-1838.629195,-1406.391290,10732.986159
2676.229199,1608.800546,-814.226536,11769.274478
2676.229528,3064.381992,1110.308913,9622.677246
2676.229857,5669.106685,2368.659014,9252.574275
2676.230186,8044.002729,740.205942,9548.656652
2676.230515,7354.516781,3034.844362,7624.121203
2676.230844,8580.269578,3552.988522,7179.997637
2676.231174,8120.612279,4145.153275,5181.441594
2676.231503,8427.050478,1110.308913,6365.771101
2676.231832,7201.297681,3775.050304,5403.503377
2676.232161,6588.421283,962.267725,7402.059420
2676.232490,3907.087040,2442.679609,4959.379811
2676.232819,4213.525239,-740.205942,8512.368333
2676.233148,0.000000,-4811.338623,13693.809927
2676.233477,-2451.505594,-6735.874072,12879.583391
2676.233806,-2451.505594,-0.000000,13027.624579
2676.234135,-1455.581446,-7772.162391,12139.377449
2676.234464,-1915.238745,-0.000000,11251.130318
2676.234793,1762.019645,-0.000000,12583.501014
2676.235123,842.705048,1480.411884,9844.739029
2676.235452,-536.266849,1332.370696,11547.212695
2676.235781,6435.202183,-1850.514855,13175.665768
2676.236110,8044.002729,2516.700203,5551.544565
2676.236439,7584.345430,2146.597232,8808.450710
2676.236768,6894.859482,-1184.329507,4293.194464
2676.237097,7967.393179,3701.029710,4811.338623
2676.237426,7277.907231,-0.000000,8364.327145
2676.237755,6052.154434,4737.318029,2664.741391
2676.238084,5439.278036,2220.617826,9548.656652
2676.238413,1762.019645,-888.247130,7476.080014
2676.238742,3983.696590,3701.029710,7328.038826
2676.239072,2528.115143,-148.041188,8586.388927
2676.239401,2145.067394,-1998.556043,10510.924376
2676.239730,612.876398,-3627.009116,12139.377449
2676.240059,383.047749,-3923.091493,11547.212695
2676.240388,-383.047749,-3552.988522,11177.109724
2676.240717,-919.314598,-1480.411884,11177.109724
2676.241046,1762.019645,-0.000000,11103.089130
2676.241375,1455.581446,2220.617826,8290.306550
2676.241704,2528.115143,1036.288319,8734.430116
2676.242033,3524.039291,1184.329507,8512.368333
2676.242362,4596.572988,2072.576638,8364.327145
2676.242691,4596.572988,518.144159,7920.203579
2676.243021,4136.915689,-1776.494261,6735.874072
2676.243350,3447.429741,-3923.091493,9992.780217
2676.243679,2681.334243,-1850.514855,10584.944971
2676.244008,2374.896044,-296.082377,9548.656652
2676.244337,2068.457845,-222.061783,10510.924376
2676.244666,3370.820191,962.267725,9474.636058
2676.244995,4060.306139,1554.432478,9474.636058
2676.245324,3830.477490,-0.000000,8882.471304
2676.245653,4366.744339,888.247130,8290.306550
2676.245983,5209.449386,1332.370696,8956.491898
2676.246312,5362.668486,1702.473667,8438.347739
2676.246641,4826.401637,814.226536,8438.347739
2676.246970,3907.087040,-296.082377,7846.182985
2676.247299,2451.505594,222.061783,7994.224174
2676.247629,2298.286494,-0.000000,8512.368333
2676.247958,919.314598,-518.144159,9992.780217
2676.248287,0.000000,-1480.411884,10658.965565
2676.248616,229.828649,-1628.453072,10584.944971
2676.248945,1072.533697,-1850.514855,10362.883188
2676.249274,919.314598,-1406.391290,9548.656652
2676.249604,1072.533697,-1776.494261,10881.027347
2676.249933,3217.601092,148.041188,10436.903782
2676.250262,4749.792088,1406.391290,8512.368333
2676.250591,6511.811733,2072.576638,7105.977043
2676.250920,4749.792088,1850.514855,9030.512492
2676.251250,4673.182538,740.205942,8364.327145
2676.251579,4673.182538,2886.803174,6365.771101
2676.251908,5209.449386,1258.350101,7105.977043
2676.252237,4903.011187,444.123565,7254.018232
2676.252566,2911.162892,592.164754,8290.306550
2676.252895,76.609550,-1554.432478,9770.718434
2676.253225,-995.924147,-1184.329507,8068.244768
2676.253554,-2451.505594,-3108.864956,11695.253884
2676.253883,-2298.286494,-2220.617826,12583.501014
2676.254212,-2528.115143,-1406.391290,9400.615463
2676.254541,-2987.772442,-222.061783,10140.821405
2676.254871,-2145.067394,-1480.411884,9400.615463
2676.255200,-1685.410096,-1258.350101,10732.986159
2676.255529,-995.924147,-296.082377,10288.862594
2676.255858,-842.705048,-222.061783,8882.471304
2676.256187,-153.219100,-444.123565,10510.924376
2676.256516,-1608.800546,-666.185348,9252.574275
2676.256846,1532.190996,-296.082377,10066.800811
2676.257175,2987.772442,814.226536,5921.647536
2676.257504,3677.258390,1776.494261,6661.853478
2676.257833,2834.553343,1480.411884,6069.688724
2676.258162,3370.820191,1850.514855,7698.141797
2676.258492,536.266849,518.144159,7402.059420
2676.258821,383.047749,222.061783,6883.915261
2676.259150,-995.924147,-1110.308913,9696.697840
2676.259479,-2451.505594,-1554.432478,10881.027347
2676.259808,-1302.362347,-888.247130,9252.574275
2676.260137,-919.314598,-1628.453072,10214.842000
2676.260467,-1455.581446,-1998.556043,9992.780217
2676.260796,-842.705048,-1406.391290,10732.986159
2676.261125,-459.657299,-1776.494261,10362.883188
2676.261454,-153.219100,518.144159,8956.491898
2676.261783,1225.752797,-888.247130,9696.697840
2676.262113,1838.629195,888.247130,8142.265362
2676.262442,3370.820191,1184.329507,7402.059420
2676.262771,3907.087040,1998.556043,6513.812290
2676.263100,2911.162892,1924.535449,6217.729913
2676.263429,1685.410096,666.185348,8660.409521
2676.263758,919.314598,-0.000000,7994.224174
2676.264088,-229.828649,592.164754,9400.615463
2676.264417,-2298.286494,-2368.659014,10584.944971
2676.264746,-2757.943793,-1480.411884,10214.842000
2676.265075,-2068.457845,-666.185348,9918.759623
2676.265404,-1225.752797,-1036.288319,9918.759623
2676.265734,-1608.800546,-1998.556043,10955.047942
2676.266063,-919.314598,-814.226536,11917.315666
2676.266392,-153.219100,-666.185348,10362.883188
2676.266721,-306.438199,-444.123565,9326.594869
2676.267050,-612.876398,-666.185348,10881.027347
2676.267379,842.705048,1332.370696,9548.656652
2676.267709,2221.676944,2220.617826,7031.956449
2676.268038,3524.039291,1702.473667,7846.182985
2676.268367,2604.724693,1406.391290,6439.791695
2676.268696,2604.724693,1036.288319,7920.203579
2676.269025,689.485948,518.144159,8068.244768
2676.269355,459.657299,148.041188,8512.368333
2676.269684,-1302.362347,-1406.391290,9696.697840
2676.270013,-1149.143247,-592.164754,10140.821405
2676.270342,-919.314598,-296.082377,8660.409521
2676.270671,-536.266849,-1628.453072,9400.615463
2676.271000,-995.924147,-1776.494261,10362.883188
2676.271330,-306.438199,-1036.288319,10510.924376
2676.271659,306.438199,-1332.370696,10510.924376
2676.271988,306.438199,-0.000000,9030.512492
2676.272317,0.000000,-518.144159,9918.759623
2676.272646,536.266849,-0.000000,10362.883188
2676.272976,1685.410096,1258.350101,7254.018232
2676.273305,3753.867940,888.247130,7105.977043
2676.273634,2604.724693,814.226536,7105.977043
2676.273963,2528.115143,888.247130,7328.038826
2676.274292,1685.410096,-518.144159,8142.265362
2676.274622,306.438199,-148.041188,7846.182985
2676.274951,-612.876398,-1184.329507,9252.574275
2676.275280,-1149.143247,-518.144159,10140.821405
2676.275609,-766.095498,-962.267725,10807.006753
2676.275938,-612.876398,-1406.391290,9548.656652
2676.276267,-689.485948,-1554.432478,10362.883188
2676.276597,-919.314598,-1776.494261,10732.986159
2676.276926,612.876398,-962.267725,10362.883188
2676.277255,0.000000,-370.102971,10288.862594
2676.277584,-766.095498,-0.000000,9252.574275
2676.277913,1149.143247,1406.391290,9622.677246
2676.278243,1455.581446,666.185348,8068.244768
2676.278572,2145.067394,1258.350101,6587.832884
2676.278901,1991.848295,1036.288319,7476.080014
2676.279230,1455.581446,-0.000000,7698.141797
2676.279559,229.828649,444.123565,8142.265362
2676.279888,0.000000,-814.226536,7772.162391
2676.280218,-995.924147,-888.247130,9474.636058
2676.280547,-1072.533697,-0.000000,9992.780217
2676.280876,-689.485948,222.061783,9030.512492
2676.281205,0.000000,-666.185348,9104.533087
2676.281534,-536.266849,-370.102971,9770.718434
2676.281864,0.000000,-1110.308913,11103.089130
2676.282193,459.657299,-518.144159,10214.842000
2676.282522,153.219100,518.144159,9252.574275
2676.282851,0.000000,296.082377,9474.636058
2676.283180,-842.705048,370.102971,9844.739029
2676.283509,306.438199,-148.041188,9992.780217
2676.283839,1072.533697,296.082377,7772.162391
2676.284168,1072.533697,-222.061783,7772.162391
2676.284497,1149.143247,-444.123565,7920.203579
2676.284826,842.705048,296.082377,7179.997637
2676.285155,383.047749,-444.123565,7772.162391
2676.285485,-459.657299,-666.185348,9474.636058
2676.285814,-1149.143247,-888.247130,10955.047942
2676.286143,-842.705048,-1036.288319,10732.986159
2676.286472,-689.485948,-814.226536,9474.636058
2676.286801,-766.095498,-1184.329507,10732.986159
2676.287130,-689.485948,-962.267725,10214.842000
2676.287460,1608.800546,-370.102971,10584.944971
2676.287789,1685.410096,592.164754,9178.553681
2676.288118,2681.334243,1184.329507,8364.327145
2676.288447,2987.772442,1924.535449,7031.956449
2676.288776,3140.991542,2368.659014,6883.915261
2676.289106,2911.162892,1110.308913,7846.182985
2676.289435,2298.286494,1480.411884,8216.285956
2676.289764,383.047749,-1184.329507,9104.533087
2676.290093,-766.095498,-740.205942,9770.718434
2676.290422,-2374.896044,-1480.411884,10066.800811
2676.290751,-2681.334243,-2146.597232,10658.965565
2676.291081,-2298.286494,-888.247130,10732.986159
2676.291410,-1378.971896,-666.185348,10362.883188
2676.291739,-153.219100,666.185348,9400.615463
2676.292068,0.000000,-666.185348,10658.965565
2676.292397,0.000000,-0.000000,10362.883188
2676.292727,229.828649,-296.082377,9474.636058
2676.293056,1608.800546,-0.000000,9400.615463
2676.293385,2145.067394,814.226536,6735.874072
2676.293714,3447.429741,2146.597232,7550.100608
2676.294043,4136.915689,1702.473667,6217.729913
2676.294372,3983.696590,1924.535449,5625.565159
2676.294702,1838.629195,592.164754,7105.977043
2676.295031,0.000000,592.164754,8216.285956
2676.295360,-995.924147,-1184.329507,9104.533087
2676.295689,-2374.896044,-2812.782580,10436.903782
2676.296018,-3600.648841,-1998.556043,9696.697840
2676.296348,-3064.381992,-1258.350101,10732.986159
2676.296677,-2451.505594,-2368.659014,10436.903782
2676.297006,-1455.581446,-1554.432478,9622.677246
2676.297335,-1991.848295,-1406.391290,10807.006753
2676.297664,0.000000,-2072.576638,10881.027347
2676.297993,306.438199,-888.247130,8290.306550
2676.298323,-153.219100,-0.000000,9178.553681
2676.298652,1149.143247,-444.123565,11029.068536
2676.298981,2757.943793,222.061783,7624.121203
2676.299310,4979.620737,1332.370696,6661.853478
2676.299639,5056.230287,1850.514855,5847.626942
2676.299969,3830.477490,1110.308913,6809.894666
2676.300298,2068.457845,1184.329507,8142.265362
2676.300627,2068.457845,-592.164754,8882.471304
2676.300956,-459.657299,-888.247130,8882.471304
2676.301285,-2374.896044,-1406.391290,10658.965565
2676.301614,-2145.067394,-1110.308913,11695.253884
2676.301944,-2221.676944,-1110.308913,10066.800811
2676.302273,-766.095498,-296.082377,9992.780217
2676.302602,-306.438199,-1406.391290,10288.862594
2676.302931,383.047749,-1110.308913,11399.171507
2676.303260,459.657299,-0.000000,10288.862594
2676.303590,153.219100,-370.102971,9030.512492
2676.303919,612.876398,-74.020594,9770.718434
2676.304248,1991.848295,1406.391290,8882.471304
2676.304577,3753.867940,1924.535449,7105.977043
2676.304906,3907.087040,1406.391290,6735.874072
2676.305235,3294.210641,1702.473667,6957.935855
2676.305565,2451.505594,-0.000000,8882.471304
2676.305894,1072.533697,-0.000000,7698.141797
2676.306223,-153.219100,-518.144159,7846.182985
2676.306552,-2528.115143,-1998.556043,11917.315666
2676.306881,-2681.334243,-1110.308913,10881.027347
2676.307211,-1991.848295,-148.041188,9400.615463
2676.307540,-1378.971896,-1110.308913,9474.636058
2676.307869,-1302.362347,-1480.411884,10214.842000
2676.308198,-689.485948,-1332.370696,10658.965565
2676.308527,-536.266849,-518.144159,9918.759623
2676.308856,-459.657299,-74.020594,9548.656652
2676.309186,-536.266849,296.082377,9326.594869
2676.309515,-306.438199,740.205942,9844.739029
2676.309844,1149.143247,296.082377,8512.368333
2676.310173,2451.505594,740.205942,6661.853478
2676.310502,2757.943793,-74.020594,7105.977043
2676.310832,1225.752797,888.247130,8586.388927
2676.311161,536.266849,740.205942,8216.285956
2676.311490,-229.828649,-444.123565,7920.203579
2676.311819,-1532.190996,-888.247130,9844.739029
2676.312148,-1302.362347,-666.185348,11029.068536
2676.312477,-1072.533697,-888.247130,8512.368333
2676.312807,-612.876398,-1036.288319,9474.636058
2676.313136,-1302.362347,-1554.432478,10288.862594
2676.313465,0.000000,-444.123565,9770.718434
2676.313794,842.705048,-1110.308913,10140.821405
2676.314123,229.828649,-0.000000,8956.491898
2676.314453,383.047749,-148.041188,9696.697840
2676.314782,1762.019645,518.144159,7994.224174
2676.315111,3140.991542,1480.411884,7328.038826
2676.315440,3524.039291,814.226536,7105.977043
2676.315769,2834.553343,370.102971,7328.038826
2676.316098,1685.410096,370.102971,8512.368333
2676.316428,1455.581446,444.123565,8290.306550
2676.316757,76.609550,-518.144159,8142.265362
2676.317086,-2068.457845,-2146.597232,9696.697840
2676.317415,-2145.067394,-2516.700203,12213.398043
2676.317744,-2374.896044,-1184.329507,9770.718434
2676.318074,-1378.971896,-1924.535449,9474.636058
2676.318403,-1149.143247,-1406.391290,10140.821405
2676.318732,-919.314598,-74.020594,10658.965565
2676.319061,-383.047749,-518.144159,9992.780217
2676.319390,842.705048,-74.020594,10510.924376
2676.319719,1685.410096,222.061783,9918.759623
2676.320049,2451.505594,2664.741391,7846.182985
2676.320378,3217.601092,2294.638420,8068.244768
2676.320707,2757.943793,1406.391290,7254.018232
2676.321036,2298.286494,1776.494261,8216.285956
2676.321365,919.314598,-0.000000,8882.471304
2676.321695,689.485948,-222.061783,8956.491898
2676.322024,-1302.362347,-962.267725,10732.986159
2676.322353,-2987.772442,-2886.803174,10807.006753
2676.322682,-2834.553343,-1628.453072,11325.150913
2676.323011,-1838.629195,-1184.329507,10955.047942
2676.323340,-1225.752797,-666.185348,9178.553681
2676.323670,-1302.362347,-1036.288319,10658.965565
2676.323999,-1149.143247,-0.000000,10584.944971
2676.324328,-459.657299,-0.000000,9696.697840
2676.324657,0.000000,-0.000000,9696.697840
2676.324986,1072.533697,1184.329507,9104.533087
2676.325316,2911.162892,1628.453072,6587.832884
2676.325645,3983.696590,2516.700203,6513.812290
2676.325974,3830.477490,1406.391290,6217.729913
2676.326303,3524.039291,1850.514855,6661.853478
2676.326632,1838.629195,814.226536,7624.121203
2676.326961,1455.581446,-0.000000,6291.750507
2676.327291,229.828649,-1702.473667,9548.656652
2676.327620,-3064.381992,-2738.761985,9918.759623
2676.327949,-2298.286494,-1628.453072,10436.903782
2676.328278,-1838.629195,-1924.535449,9918.759623
2676.328607,-1762.019645,-1480.411884,9030.512492
2676.328937,-459.657299,-1924.535449,10436.903782
2676.329266,-536.266849,-1332.370696,9770.718434
2676.329595,612.876398,-444.123565,9696.697840
2676.329924,1762.019645,-1258.350101,9770.718434
2676.330253,2681.334243,1628.453072,6883.915261
2676.330583,3294.210641,2368.659014,6957.935855
2676.330912,4749.792088,1924.535449,6291.750507
2676.331241,4060.306139,2442.679609,6365.771101
2676.331570,3064.381992,1554.432478,7698.141797
2676.331899,1608.800546,592.164754,7772.162391
2676.332228,1149.143247,-518.144159,8882.471304
2676.332558,-2145.067394,-1702.473667,9178.553681
2676.332887,-2374.896044,-2516.700203,11621.233289
2676.333216,-3753.867940,-2220.617826,10732.986159
2676.333545,-3140.991542,-518.144159,10140.821405
2676.333874,-2451.505594,-1776.494261,10362.883188
2676.334204,-2298.286494,-740.205942,10658.965565
2676.334533,-1302.362347,-888.247130,10436.903782
2676.334862,-229.828649,-814.226536,9992.780217
2676.335191,-766.095498,-296.082377,9474.636058
2676.335520,-1302.362347,1554.432478,9548.656652
2676.335849,-306.438199,296.082377,10510.924376
2676.336179,1762.019645,740.205942,9178.553681
2676.336508,3600.648841,888.247130,6069.688724
2676.336837,3447.429741,962.267725,7624.121203
2676.337166,1685.410096,1332.370696,7105.977043
2676.337495,2145.067394,1406.391290,8882.471304
2676.337825,0.000000,296.082377,7994.224174
2676.338154,-689.485948,-0.000000,9400.615463
2676.338483,-2298.286494,-222.061783,10362.883188
2676.338812,-1302.362347,-1258.350101,10066.800811
2676.339141,-2145.067394,-1406.391290,9474.636058
2676.339470,-995.924147,-1406.391290,10362.883188
2676.339800,-612.876398,-1776.494261,10214.842000
2676.340129,-306.438199,-1480.411884,11029.068536
2676.340458,-153.219100,-0.000000,9474.636058
2676.340787,-766.095498,148.041188,9178.553681
2676.341116,995.924147,-1332.370696,10807.006753
2676.341446,2681.334243,962.267725,7328.038826
2676.341775,4673.182538,962.267725,7698.141797
2676.342104,4290.134789,1258.350101,6661.853478
2676.342433,3753.867940,1332.370696,7254.018232
2676.342762,3677.258390,814.226536,7624.121203
2676.343091,1838.629195,1184.329507,6439.791695
2676.343421,383.047749,-370.102971,9770.718434
2676.343750,-1149.143247,-1480.411884,10807.006753
2676.344079,-1225.752797,-740.205942,9548.656652
2676.344408,-1608.800546,-1998.556043,10362.883188
2676.344737,-1685.410096,-1036.288319,8956.491898
2676.345066,-1072.533697,-2368.659014,10658.965565
2676.345395,-306.438199,-74.020594,9622.677246
2676.345724,76.609550,-296.082377,9918.759623
2676.346053,-842.705048,-962.267725,9918.759623
2676.346382,1378.971896,888.247130,9918.759623
2676.346711,2068.457845,1702.473667,7402.059420
2676.347040,2987.772442,1480.411884,6587.832884
2676.347369,4213.525239,1850.514855,7105.977043
2676.347698,2528.115143,1998.556043,6513.812290
2676.348027,2528.115143,1480.411884,7698.141797
2676.348356,766.095498,-148.041188,7624.121203
2676.348685,-306.438199,-592.164754,9104.533087
2676.349014,-2145.067394,-1776.494261,10955.047942
2676.349343,-1915.238745,-1184.329507,9696.697840
2676.349672,-2911.162892,-2072.576638,9104.533087
2676.350001,-2068.457845,-1776.494261,11103.089130
2676.350330,-1915.238745,-1480.411884,11029.068536
2676.350659,0.000000,-1036.288319,9992.780217
2676.350988,-842.705048,-0.000000,9104.533087
2676.351317,-689.485948,-666.185348,9400.615463
2676.351646,0.000000,-592.164754,10584.944971
2676.351975,1991.848295,518.144159,8956.491898
2676.352304,3140.991542,1110.308913,6735.874072
2676.352633,3600.648841,1332.370696,7402.059420
2676.352962,3217.601092,1110.308913,6809.894666
2676.353291,4290.134789,1776.494261,7846.182985
2676.353620,919.314598,888.247130,6735.874072
2676.353949,0.000000,-592.164754,8882.471304
2676.354278,-1532.190996,-962.267725,10362.883188
2676.354607,-1685.410096,-1776.494261,10288.862594
2676.354936,-2528.115143,-2590.720797,10658.965565
2676.355265,-1915.238745,-2738.761985,11325.150913
2676.355594,-689.485948,-2960.823768,11251.130318
2676.355923,-689.485948,-666.185348,11029.068536
2676.356252,229.828649,148.041188,9918.759623
2676.356581,-306.438199,296.082377,10362.883188
2676.356910,1608.800546,888.247130,10807.006753
2676.357239,3447.429741,2960.823768,6513.812290
2676.357568,4366.744339,962.267725,6735.874072
2676.357897,3983.696590,2146.597232,6217.729913
2676.358226,4443.353888,2072.576638,7476.080014
2676.358555,2604.724693,1332.370696,7476.080014
2676.358884,1225.752797,370.102971,6291.750507
2676.359213,-229.828649,-1258.350101,9696.697840
2676.359542,-2298.286494,-1332.370696,10140.821405
2676.359871,-1455.581446,-2072.576638,11103.089130
2676.360200,-1762.019645,-1332.370696,8512.368333
2676.360529,-1225.752797,-1702.473667,9844.739029
2676.360858,-1991.848295,-1776.494261,10955.047942
2676.361187,-842.705048,-296.082377,9474.636058
2676.361516,-612.876398,444.123565,9326.594869
2676.361845,-612.876398,-222.061783,8956.491898
2676.362174,0.000000,1332.370696,9696.697840
2676.362503,0.000000,-0.000000,9992.780217
2676.362832,1532.190996,370.102971,7994.224174
2676.363161,1838.629195,370.102971,7105.977043
2676.363490,1915.238745,222.061783,7254.018232
2676.363819,1991.848295,740.205942,7105.977043
2676.364148,1455.581446,518.144159,7698.141797
2676.364477,-1225.752797,-0.000000,8586.388927
2676.364806,-383.047749,-740.205942,9474.636058
2676.365135,-1455.581446,-888.247130,9992.780217
2676.365464,-1532.190996,-1406.391290,9474.636058
2676.365793,-1608.800546,-2442.679609,10362.883188
2676.366122,-1455.581446,-2146.597232,10732.986159
2676.366451,-229.828649,-962.267725,9474.636058
2676.366780,0.000000,-444.123565,9696.697840
2676.367109,-459.657299,-1110.308913,9918.759623
2676.367438,1149.143247,-0.000000,9918.759623
2676.367767,2757.943793,592.164754,8438.347739
2676.368096,2374.896044,1110.308913,7846.182985
2676.368425,2834.553343,592.164754,8142.265362
2676.368754,2757.943793,1110.308913,8734.430116
2676.369083,2374.896044,1110.308913,8364.327145
2676.369412,2145.067394,1332.370696,7328.038826
2676.369741,612.876398,-1184.329507,8364.327145
2676.370070,-2068.457845,444.123565,10214.842000
2676.370399,-1302.362347,-666.185348,11473.192101
2676.370728,-1302.362347,-1702.473667,9252.574275
2676.371057,-1762.019645,-1406.391290,8882.471304
2676.371386,-1302.362347,-1332.370696,10584.944971
2676.371715,229.828649,-0.000000,10288.862594
2676.372044,-229.828649,-1110.308913,9030.512492
2676.372373,0.000000,-0.000000,9992.780217
2676.372702,689.485948,296.082377,9474.636058
2676.373031,1455.581446,962.267725,8290.306550
2676.373360,2451.505594,888.247130,7994.224174
2676.373689,1838.629195,666.185348,7772.162391
2676.374018,1149.143247,1036.288319,8364.327145
2676.374347,2068.457845,1406.391290,8068.244768
2676.374676,536.266849,-148.041188,7105.977043
2676.375005,-689.485948,-592.164754,9844.739029
2676.375334,-1455.581446,-0.000000,9622.677246
2676.375663,-995.924147,-1036.288319,10214.842000
2676.375992,-1532.190996,-888.247130,8438.347739
2676.376321,-1378.971896,-1332.370696,9696.697840
2676.376650,-1378.971896,-1924.535449,10584.944971
2676.376979,-2068.457845,-518.144159,9104.533087
2676.377308,-536.266849,-666.185348,9992.780217
2676.377637,-919.314598,-1332.370696,9622.677246
2676.377966,-1149.143247,222.061783,10140.821405
2676.378295,229.828649,-1036.288319,9696.697840
2676.378624,-689.485948,-1110.308913,8364.327145
2676.378953,383.047749,-1406.391290,9770.718434
2676.379282,1838.629195,-0.000000,7920.203579
2676.379611,2757.943793,592.164754,7624.121203
2676.379940,2374.896044,962.267725,6883.915261
2676.380269,2451.505594,1998.556043,6809.894666
2676.380598,1685.410096,1110.308913,8216.285956
2676.380927,1532.190996,592.164754,7920.203579
2676.381256,1149.143247,296.082377,8068.244768
2676.381585,-229.828649,-1628.453072,9474.636058
2676.381914,0.000000,-1554.432478,9696.697840
2676.382243,0.000000,-1628.453072,10066.800811
2676.382572,0.000000,-1406.391290,9178.553681
2676.382901,0.000000,-888.247130,9696.697840
2676.383230,1072.533697,-592.164754,9992.780217
2676.383559,1915.238745,592.164754,8882.471304
2676.383888,2298.286494,-296.082377,8956.491898
2676.384217,1991.848295,592.164754,8956.491898
2676.384546,1991.848295,1258.350101,8734.430116
2676.384875,2068.457845,518.144159,7994.224174
2676.385204,1302.362347,1184.329507,8142.265362
2676.385533,459.657299,814.226536,9548.656652
2676.385862,-536.266849,370.102971,9474.636058
2676.386191,-536.266849,-888.247130,9696.697840
2676.386520,-1225.752797,-1702.473667,9104.533087
2676.386849,-1991.848295,-1406.391290,11177.109724
2676.387178,-1762.019645,-1332.370696,11103.089130
2676.387507,-1149.143247,-1036.288319,9548.656652
2676.387836,-842.705048,-0.000000,9326.594869
2676.388165,-842.705048,-74.020594,9844.739029
2676.388494,306.438199,814.226536,9696.697840
2676.388823,1225.752797,962.267725,9178.553681
2676.389152,1915.238745,518.144159,8364.327145
2676.389481,1225.752797,1036.288319,8882.471304
2676.389811,842.705048,666.185348,9474.636058
2676.390140,536.266849,814.226536,8660.409521
2676.390469,459.657299,962.267725,8364.327145
2676.390798,-1455.581446,-370.102971,9992.780217
2676.391127,-919.314598,-0.000000,9770.718434
2676.391456,-842.705048,-814.226536,9918.759623
2676.391785,-766.095498,-1702.473667,8660.409521
2676.392114,-766.095498,-1776.494261,9474.636058
2676.392443,-766.095498,-1628.453072,10732.986159
2676.392772,0.000000,-888.247130,9918.759623
2676.393101,1072.533697,-592.164754,9326.594869
2676.393430,1455.581446,-148.041188,8512.368333
2676.393759,2757.943793,1480.411884,7550.100608
2676.394088,3753.867940,1554.432478,7994.224174
2676.394417,3370.820191,962.267725,7328.038826
2676.394746,2757.943793,740.205942,8068.244768
2676.395075,2451.505594,518.144159,8512.368333
2676.395404,1991.848295,-740.205942,7994.224174
2676.395733,612.876398,-444.123565,7772.162391
2676.396062,-766.095498,-1110.308913,9252.574275
2676.396391,-1455.581446,-1628.453072,10214.842000
2676.396720,-689.485948,-1480.411884,9474.636058
2676.397049,-766.095498,-1406.391290,8438.347739
2676.397378,-306.438199,-2368.659014,9326.594869
2676.397707,0.000000,-1924.535449,9548.656652
2676.398036,612.876398,-1110.308913,8956.491898
2676.398365,1072.533697,-222.061783,8142.265362
2676.398694,1225.752797,74.020594,8290.306550
2676.399023,1915.238745,1776.494261,8808.450710
2676.399352,2298.286494,2368.659014,8142.265362
2676.399681,1762.019645,1258.350101,8290.306550
2676.400010,229.828649,740.205942,8956.491898
2676.400339,153.219100,-0.000000,9548.656652
2676.400668,-612.876398,370.102971,9104.533087
2676.400997,-1532.190996,-148.041188,9104.533087
2676.401326,-2298.286494,-1110.308913,10584.944971
2676.401655,-1915.238745,-592.164754,10436.903782
2676.401984,-919.314598,-222.061783,9252.574275
2676.402313,-919.314598,-1036.288319,9252.574275
2676.402642,-1072.533697,-1776.494261,9770.718434
2676.402971,-1149.143247,-1406.391290,10510.924376
2676.403300,-383.047749,-222.061783,9474.636058
2676.403629,229.828649,-296.082377,9104.533087
2676.403958,536.266849,-0.000000,8586.388927
2676.404287,1149.143247,888.247130,9400.615463
2676.404616,1532.190996,1554.432478,8364.327145
2676.404945,2604.724693,888.247130,7402.059420
2676.405274,1685.410096,370.102971,8512.368333
2676.405603,1225.752797,1110.308913,9104.533087
2676.405932,766.095498,518.144159,8734.430116
2676.406261,-689.485948,-296.082377,8290.306550
2676.406590,-1225.752797,-296.082377,10140.821405
2676.406919,-1149.143247,-1702.473667,11399.171507
2676.407248,-1378.971896,-1924.535449,10658.965565
2676.407577,-689.485948,-1850.514855,9696.697840
2676.407906,-766.095498,-3701.029710,9622.677246
2676.408235,-383.047749,-1850.514855,9992.780217
2676.408564,1302.362347,-740.205942,9844.739029
2676.408893,1991.848295,-222.061783,9326.594869
2676.409222,2528.115143,1258.350101,8364.327145
2676.409551,3217.601092,1554.432478,7994.224174
2676.409880,3600.648841,2146.597232,7772.162391
2676.410209,3907.087040,1036.288319,7476.080014
2676.410538,2911.162892,962.267725,8068.244768
2676.410867,1685.410096,-0.000000,9030.512492
2676.411196,306.438199,-444.123565,8808.450710
2676.411525,-1608.800546,-2368.659014,9104.533087
2676.411854,-2145.067394,-962.267725,9770.718434
2676.412183,-1991.848295,-2220.617826,11251.130318
2676.412512,-995.924147,-1628.453072,9104.533087
2676.412841,-1378.971896,-1184.329507,9252.574275
2676.413170,-995.924147,-1332.370696,9918.759623
2676.413499,0.000000,-0.000000,10140.821405
2676.413828,919.314598,666.185348,7920.203579
2676.414157,2987.772442,370.102971,8512.368333
2676.414486,2451.505594,2368.659014,7105.977043
2676.414815,2451.505594,2812.782580,7402.059420
2676.415144,2681.334243,740.205942,8216.285956
2676.415473,1762.019645,1628.453072,7402.059420
2676.415802,919.314598,592.164754,8290.306550
2676.416131,-153.219100,-0.000000,9474.636058
2676.416460,-2068.457845,-1258.350101,9474.636058
2676.416789,-2451.505594,-1110.308913,10362.883188
2676.417118,-1685.410096,-1480.411884,10214.842000
2676.417447,-2528.115143,-1258.350101,9770.718434
2676.417776,-1685.410096,-962.267725,9178.553681
2676.418105,-995.924147,-148.041188,8808.450710
2676.418434,-1378.971896,-1702.473667,9622.677246
2676.418763,-536.266849,-1184.329507,10658.965565
2676.419092,459.657299,-1776.494261,9844.739029
2676.419421,1378.971896,-0.000000,7476.080014
2676.419750,2145.067394,1332.370696,7994.224174
2676.420079,1991.848295,1258.350101,7846.182985
2676.420408,3140.991542,1776.494261,7994.224174
2676.420737,2681.334243,1480.411884,7624.121203
2676.421066,1532.190996,-0.000000,8956.491898
2676.421395,76.609550,-888.247130,9992.780217
2676.421724,-1378.971896,-740.205942,8808.450710
2676.422053,-2451.505594,-1850.514855,10140.821405
2676.422382,-2451.505594,-1850.514855,11399.171507
2676.422711,-1762.019645,-1110.308913,10140.821405
2676.423040,-1302.362347,-222.061783,9696.697840
2676.423369,153.219100,-1184.329507,8808.450710
2676.423698,-536.266849,-518.144159,9844.739029
2676.424027,689.485948,-814.226536,10732.986159
2676.424356,1685.410096,592.164754,7920.203579
2676.424685,2987.772442,1702.473667,7920.203579
2676.425014,2528.115143,1998.556043,7105.977043
2676.425343,3140.991542,2886.803174,7920.203579
2676.425672,3370.820191,1480.411884,8512.368333
2676.426001,2221.676944,888.247130,6809.894666
2676.426330,766.095498,-1258.350101,9474.636058
2676.426659,-1149.143247,-148.041188,9622.677246
2676.426988,-1838.629195,-1110.308913,10140.821405
2676.427317,-2604.724693,-1406.391290,9696.697840
2676.427646,-2451.505594,-1036.288319,9474.636058
2676.427975,-1915.238745,-0.000000,10140.821405
2676.428304,-2221.676944,-740.205942,8512.368333
2676.428633,-1532.190996,-888.247130,9030.512492
2676.428962,-1378.971896,-1628.453072,9992.780217
2676.429291,-842.705048,-1332.370696,10214.842000
2676.429620,383.047749,-1628.453072,10140.821405
2676.429949,1838.629195,370.102971,7772.162391
2676.430278,2221.676944,814.226536,8290.306550
2676.430607,1762.019645,2072.576638,7550.100608
2676.430936,3753.867940,1628.453072,7105.977043
2676.431265,2987.772442,592.164754,7772.162391
2676.431594,1915.238745,518.144159,7624.121203
2676.431923,383.047749,-296.082377,9548.656652
2676.432252,-536.266849,-740.205942,9104.533087
2676.432581,-1608.800546,-1702.473667,9104.533087
2676.432910,-3294.210641,-2072.576638,11547.212695
2676.433239,-1455.581446,-1480.411884,10881.027347
2676.433568,-306.438199,-1480.411884,9030.512492
2676.433897,-459.657299,-1258.350101,8512.368333
2676.434226,-612.876398,-2072.576638,10732.986159
2676.434555,919.314598,-2294.638420,10955.047942
2676.434884,1915.238745,-0.000000,7476.080014
2676.435213,3294.210641,814.226536,8142.265362
2676.435542,4213.525239,888.247130,7328.038826
2676.435871,4213.525239,1850.514855,7624.121203
2676.436200,4519.963438,2146.597232,7254.018232
2676.436529,4749.792088,2072.576638,6291.750507
2676.436858,3294.210641,1258.350101,7254.018232
2676.437187,2221.676944,518.144159,9104.533087
2676.437516,-229.828649,518.144159,9474.636058
2676.437845,-2451.505594,-1036.288319,10140.821405
2676.438174,-2604.724693,-2812.782580,12139.377449
2676.438503,-2451.505594,-1480.411884,11251.130318
2676.438832,-1378.971896,-1184.329507,9918.759623
2676.439161,-1838.629195,-666.185348,9252.574275
2676.439490,-2145.067394,-2294.638420,11029.068536
2676.439819,-1378.971896,-370.102971,10214.842000
2676.440148,-153.219100,222.061783,10732.986159
2676.440477,-383.047749,666.185348,9326.594869
2676.440806,-459.657299,444.123565,9696.697840
2676.441135,1072.533697,1036.288319,8882.471304
2676.441464,3064.381992,1184.329507,6735.874072
2676.441793,3524.039291,1258.350101,6957.935855
2676.442122,2451.505594,1258.350101,7254.018232
2676.442451,612.876398,1184.329507,9400.615463
2676.442780,-842.705048,888.247130,8142.265362
2676.443109,-1608.800546,-296.082377,8512.368333
2676.443438,-3140.991542,-1702.473667,11103.089130
2676.443767,-3294.210641,-814.226536,10288.862594
2676.444096,-2221.676944,-1850.514855,9622.677246
2676.444425,-2221.676944,-2294.638420,10288.862594
2676.444754,-2221.676944,-2368.659014,9770.718434
2676.445083,-1149.143247,-1036.288319,10584.944971
2676.445412,-1072.533697,-370.102971,9844.739029
2676.445741,0.000000,-1258.350101,10436.903782
2676.446073,1762.019645,740.205942,8512.368333
2676.446402,3370.820191,2516.700203,7254.018232
2676.446731,4749.792088,1554.432478,6735.874072
2676.447059,4213.525239,2812.782580,6513.812290
2676.447388,4903.011187,1702.473667,8068.244768
2676.447717,2757.943793,1332.370696,6809.894666
2676.448046,1532.190996,1554.432478,7624.121203
2676.448375,-383.047749,-1924.535449,9622.677246
2676.448704,-2528.115143,-2146.597232,10658.965565
2676.449033,-3600.648841,-2960.823768,11991.336260
2676.449362,-2221.676944,-2368.659014,9622.677246
2676.449691,-1455.581446,-3034.844362,9326.594869
2676.450020,-1608.800546,-2072.576638,10881.027347
2676.450349,-1149.143247,-1110.308913,10214.842000
2676.450678,995.924147,-1258.350101,11325.150913
2676.451007,2528.115143,296.082377,7920.203579
2676.451336,4903.011187,3330.926739,7550.100608
2676.451665,4290.134789,2812.782580,7105.977043
2676.451994,4749.792088,3330.926739,7031.956449
2676.452323,4519.963438,1998.556043,7550.100608
2676.452652,3217.601092,1998.556043,6291.750507
2676.452981,1762.019645,592.164754,8364.327145
2676.453310,-229.828649,-1406.391290,9992.780217
2676.453639,-3217.601092,-1924.535449,10510.924376
2676.453968,-3140.991542,-3775.050304,12953.603985
2676.454297,-3447.429741,-2738.761985,9696.697840
2676.454626,-2374.896044,-1480.411884,11103.089130
2676.454954,-2987.772442,-1998.556043,9918.759623
2676.455283,-2451.505594,-444.123565,10288.862594
2676.455612,-1685.410096,-2146.597232,11325.150913
2676.455941,-689.485948,-222.061783,9400.615463
2676.456270,-306.438199,74.020594,9548.656652
2676.456599,995.924147,888.247130,9252.574275
2676.456928,1608.800546,1998.556043,7550.100608
2676.457257,4826.401637,1480.411884,6883.915261
2676.457586,4060.306139,1924.535449,5551.544565
2676.457915,3217.601092,1406.391290,7846.182985
2676.458244,2987.772442,444.123565,8512.368333
2676.458573,1532.190996,1776.494261,6809.894666
2676.458902,-1149.143247,-1036.288319,9030.512492
2676.459231,-2451.505594,-1184.329507,10584.944971
2676.459560,-3294.210641,-2220.617826,11769.274478
2676.459889,-2298.286494,-1554.432478,9696.697840
2676.460218,-1608.800546,-2664.741391,9326.594869
2676.460547,-1915.238745,-2368.659014,10362.883188
2676.460876,-1302.362347,-1998.556043,10658.965565
2676.461205,-306.438199,-1110.308913,10510.924376
2676.461534,229.828649,-814.226536,10362.883188
2676.461863,1762.019645,1850.514855,7179.997637
2676.462192,3753.867940,2146.597232,8216.285956
2676.462521,4673.182538,2368.659014,7105.977043
2676.462849,4366.744339,1776.494261,6883.915261
2676.463178,4443.353888,1480.411884,7550.100608
2676.463507,3447.429741,1184.329507,7550.100608
2676.463836,1915.238745,1184.329507,7624.121203
2676.464165,-383.047749,-222.061783,8660.409521
2676.464494,-2528.115143,-2146.597232,10732.986159
2676.464823,-4060.306139,-2072.576638,11547.212695
2676.465152,-2298.286494,-2368.659014,10436.903782
2676.465481,-2374.896044,-2590.720797,9474.636058
2676.465810,-2681.334243,-2442.679609,10584.944971
2676.466139,-2221.676944,-1258.350101,10510.924376
2676.466468,-995.924147,-888.247130,10584.944971
2676.466797,-612.876398,-444.123565,9474.636058
2676.467126,536.266849,1184.329507,9474.636058
2676.467455,1915.238745,1480.411884,8734.430116
2676.467784,3907.087040,1036.288319,7920.203579
2676.468113,3983.696590,1184.329507,5995.668130
2676.468442,3524.039291,1702.473667,7550.100608
2676.468771,2374.896044,1184.329507,7920.203579
2676.469100,1302.362347,1924.535449,7328.038826
2676.469429,-842.705048,-296.082377,8734.430116
2676.469758,-3064.381992,-888.247130,10732.986159
2676.470087,-2451.505594,-2442.679609,11843.295072
2676.470415,-3294.210641,-1036.288319,9104.533087
2676.470744,-1838.629195,-1702.473667,9844.739029
2676.471073,-2451.505594,-2294.638420,10214.842000
2676.471402,-995.924147,-1036.288319,10140.821405
2676.471731,-689.485948,-592.164754,10658.965565
2676.472060,0.000000,-962.267725,9030.512492
2676.472389,766.095498,-592.164754,10214.842000
2676.472718,1532.190996,-0.000000,8290.306550
2676.473047,4749.792088,1702.473667,7105.977043
2676.473376,4979.620737,1776.494261,5625.565159
2676.473705,4596.572988,1406.391290,6661.853478
2676.474034,4366.744339,1850.514855,7624.121203
2676.474363,3907.087040,2072.576638,6735.874072
2676.474692,1455.581446,1184.329507,7994.224174
2676.475021,-612.876398,-1406.391290,9992.780217
2676.475350,-2604.724693,-1110.308913,10436.903782
2676.475679,-3064.381992,-2516.700203,11843.295072
2676.476008,-2528.115143,-3478.967927,10066.800811
2676.476337,-2298.286494,-2294.638420,10288.862594
2676.476666,-1762.019645,-2590.720797,11325.150913
2676.476995,-1302.362347,-962.267725,9400.615463
2676.477324,-1455.581446,-1554.432478,10510.924376
2676.477653,1302.362347,296.082377,9474.636058
2676.477982,3600.648841,2294.638420,7846.182985
2676.478310,4979.620737,2294.638420,7846.182985
2676.478639,4060.306139,2516.700203,6143.709319
2676.478968,4366.744339,1702.473667,8216.285956
2676.479297,4060.306139,2294.638420,8142.265362
2676.479626,3294.210641,2072.576638,6069.688724
2676.479955,0.000000,-0.000000,9030.512492
2676.480284,-2298.286494,-888.247130,10510.924376
2676.480613,-3370.820191,-2294.638420,11843.295072
2676.480942,-3983.696590,-2368.659014,9548.656652
2676.481271,-3140.991542,-2072.576638,10362.883188
2676.481600,-3753.867940,-3627.009116,11251.130318
2676.481929,-2757.943793,-814.226536,10658.965565
2676.482258,-766.095498,-444.123565,10140.821405
2676.482587,-1149.143247,-370.102971,9326.594869
2676.482916,-229.828649,-0.000000,9844.739029
2676.483245,2604.724693,518.144159,9770.718434
2676.483574,4060.306139,1702.473667,6513.812290
2676.483903,5286.058936,1184.329507,7105.977043
2676.484232,4213.525239,2072.576638,5847.626942
2676.484561,4213.525239,2516.700203,7920.203579
2676.484890,2374.896044,2072.576638,6957.935855
2676.485219,919.314598,1036.288319,6809.894666
2676.485548,-842.705048,-1406.391290,10510.924376
2676.485877,-2374.896044,-1406.391290,10214.842000
2676.486205,-2681.334243,-2664.741391,12287.418637
2676.486534,-3294.210641,-3108.864956,9770.718434
2676.486863,-2451.505594,-3108.864956,11251.130318
2676.487192,-2374.896044,-2812.782580,11325.150913
2676.487521,-842.705048,-370.102971,9474.636058
2676.487850,-919.314598,-370.102971,9622.677246
2676.488179,229.828649,-222.061783,11769.274478
2676.488508,2145.067394,222.061783,9474.636058
2676.488837,3677.258390,2072.576638,7179.997637
2676.489166,4749.792088,1554.432478,6587.832884
2676.489495,3677.258390,1554.432478,6661.853478
2676.489824,4519.963438,2590.720797,7994.224174
2676.490153,2757.943793,2220.617826,6143.709319
2676.490482,1608.800546,1258.350101,6735.874072
2676.490811,-842.705048,148.041188,9474.636058
2676.491140,-2911.162892,-1110.308913,9770.718434
2676.491469,-2757.943793,-2442.679609,11769.274478
2676.491798,-3447.429741,-2516.700203,9474.636058
2676.492127,-2987.772442,-3627.009116,10807.006753
2676.492456,-3140.991542,-1998.556043,10955.047942
2676.492785,-1608.800546,-296.082377,9770.718434
2676.493114,-1149.143247,-740.205942,9104.533087
2676.493443,-1225.752797,296.082377,9252.574275
2676.493772,229.828649,1258.350101,9844.739029
2676.494100,1455.581446,-518.144159,10881.027347
2676.494429,2451.505594,814.226536,7105.977043
2676.494758,3600.648841,1480.411884,7254.018232
2676.495087,3830.477490,1998.556043,6735.874072
2676.495416,3830.477490,1924.535449,6439.791695
2676.495745,2374.896044,1332.370696,7698.141797
2676.496074,919.314598,1850.514855,7994.224174
2676.496403,0.000000,-370.102971,9474.636058
2676.496732,-1455.581446,-888.247130,10214.842000
2676.497061,-3140.991542,-3404.947333,10584.944971
2676.497390,-3064.381992,-3849.070898,11547.212695
2676.497719,-2451.505594,-2738.761985,10658.965565
2676.498048,-1072.533697,-1998.556043,10510.924376
2676.498377,-1608.800546,-1406.391290,9622.677246
2676.498706,-536.266849,370.102971,9696.697840
2676.499035,306.438199,-666.185348,11103.089130
2676.499364,2528.115143,222.061783,8290.306550
2676.499693,4366.744339,1480.411884,7476.080014
2676.500022,4673.182538,1332.370696,6735.874072
2676.500351,4136.915689,2072.576638,7846.182985
2676.500680,4366.744339,1554.432478,7105.977043
2676.501009,3217.601092,1924.535449,6587.832884
2676.501338,2374.896044,1258.350101,8290.306550
2676.501667,459.657299,-0.000000,9548.656652
2676.501995,-1225.752797,-592.164754,9474.636058
2676.502324,-2681.334243,-2368.659014,10955.047942
2676.502653,-3140.991542,-2812.782580,11251.130318
2676.502982,-2528.115143,-2960.823768,10436.903782
2676.503311,-1838.629195,-1258.350101,10436.903782
2676.503640,-1149.143247,740.205942,9252.574275
2676.503969,-1149.143247,-0.000000,9326.594869
2676.504298,383.047749,-74.020594,10881.027347
2676.504627,1762.019645,740.205942,9992.780217
2676.504956,2451.505594,666.185348,8068.244768
2676.505285,2298.286494,518.144159,8142.265362
2676.505614,1532.190996,1628.453072,6439.791695
2676.505943,2834.553343,2442.679609,8068.244768
2676.506272,1838.629195,1850.514855,7179.997637
2676.506601,1149.143247,814.226536,8216.285956
2676.506930,153.219100,888.247130,9178.553681
2676.507259,-1302.362347,-1184.329507,8734.430116
2676.507588,-2374.896044,-1776.494261,9770.718434
2676.507917,-2834.553343,-2886.803174,10510.924376
2676.508246,-2681.334243,-2738.761985,10732.986159
2676.508575,-2145.067394,-1184.329507,10214.842000
2676.508904,-2068.457845,-888.247130,9696.697840
2676.509233,-2451.505594,-1850.514855,9474.636058
2676.509562,306.438199,-1036.288319,10140.821405
2676.509890,1762.019645,592.164754,8660.409521
2676.510219,2221.676944,-370.102971,8290.306550
2676.510548,2757.943793,666.185348,7328.038826
2676.510877,2757.943793,1406.391290,7550.100608
2676.511206,2451.505594,1480.411884,7179.997637
2676.511535,2145.067394,1110.308913,7624.121203
2676.511864,995.924147,740.205942,8512.368333
2676.512193,-919.314598,962.267725,9400.615463
2676.512522,76.609550,-1258.350101,9696.697840
2676.512851,-2145.067394,-1850.514855,9696.697840
2676.513180,-3064.381992,-3108.864956,11621.233289
2676.513509,-1991.848295,-2146.597232,11251.130318
2676.513838,-919.314598,-1406.391290,9844.739029
2676.514167,-536.266849,-518.144159,9178.553681
2676.514496,536.266849,-0.000000,9844.739029
2676.514825,1225.752797,814.226536,9178.553681
2676.515154,3370.820191,666.185348,7772.162391
2676.515483,4290.134789,740.205942,7772.162391
2676.515812,3600.648841,1480.411884,7476.080014
2676.516141,3677.258390,1628.453072,7624.121203
2676.516470,3370.820191,1924.535449,7105.977043
2676.516799,2068.457845,666.185348,7624.121203
2676.517128,1532.190996,888.247130,9326.594869
2676.517457,-306.438199,296.082377,9696.697840
2676.517785,-1455.581446,-296.082377,9696.697840
2676.518114,-2528.115143,-1776.494261,9992.780217
2676.518443,-3064.381992,-2146.597232,11843.295072
2676.518772,-2834.553343,-1776.494261,10732.986159
2676.519101,-1225.752797,-148.041188,9474.636058
2676.519430,-842.705048,-592.164754,9178.553681
2676.519759,-536.266849,444.123565,9548.656652
2676.520088,229.828649,666.185348,10288.862594
2676.520417,2068.457845,-518.144159,9178.553681
2676.520746,2298.286494,-0.000000,8586.388927
2676.521075,2221.676944,666.185348,8142.265362
2676.521404,2451.505594,666.185348,7920.203579
2676.521733,2298.286494,518.144159,8512.368333
2676.522062,1455.581446,740.205942,7772.162391
2676.522391,383.047749,-74.020594,9178.553681
2676.522720,-919.314598,-0.000000,9622.677246
2676.523049,-1149.143247,-1184.329507,10140.821405
2676.523378,-1532.190996,-1628.453072,9548.656652
2676.523707,-2374.896044,-1850.514855,10288.862594
2676.524036,-1915.238745,-1924.535449,10955.047942
2676.524365,-689.485948,-962.267725,9548.656652
2676.524694,-383.047749,-296.082377,8882.471304
2676.525023,76.609550,-0.000000,8956.491898
2676.525352,1378.971896,592.164754,7994.224174
2676.525680,2451.505594,-0.000000,8364.327145
2676.526009,3447.429741,370.102971,8216.285956
2676.526338,2911.162892,444.123565,7179.997637
2676.526667,2298.286494,296.082377,8290.306550
2676.526996,2451.505594,1258.350101,8068.244768
2676.527325,1302.362347,370.102971,7476.080014
2676.527654,383.047749,148.041188,9030.512492
2676.527983,0.000000,222.061783,9918.759623
2676.528312,-995.924147,-444.123565,9400.615463
2676.528641,-689.485948,-962.267725,10658.965565
2676.528970,-1072.533697,-1554.432478,9030.512492
2676.529299,-1762.019645,-1924.535449,9992.780217
2676.529628,-536.266849,-296.082377,8808.450710
2676.529957,-153.219100,-222.061783,8586.388927
2676.530286,459.657299,-296.082377,9770.718434
2676.530615,1149.143247,-0.000000,8734.430116
2676.530944,2145.067394,518.144159,8660.409521
2676.531273,1685.410096,-296.082377,8734.430116
2676.531602,1838.629195,-0.000000,8364.327145
2676.531931,1378.971896,296.082377,8882.471304
2676.532260,1302.362347,888.247130,8216.285956
2676.532589,536.266849,370.102971,8808.450710
2676.532918,-153.219100,-148.041188,9474.636058
2676.533247,-919.314598,-444.123565,10362.883188
2676.533575,-842.705048,-962.267725,10066.800811
2676.533904,-1762.019645,-1110.308913,8882.471304
2676.534233,-2528.115143,-888.247130,9918.759623
2676.534562,-1302.362347,-1406.391290,10140.821405
2676.534891,-1225.752797,-0.000000,8586.388927
2676.535220,-995.924147,-296.082377,9474.636058
2676.535549,-536.266849,-74.020594,9844.739029
2676.535878,229.828649,-0.000000,9400.615463
2676.536207,766.095498,-0.000000,8290.306550
2676.536536,1302.362347,-444.123565,8882.471304
2676.536865,1302.362347,-296.082377,9400.615463
2676.537194,842.705048,-0.000000,9252.574275
2676.537523,1378.971896,518.144159,8808.450710
2676.537852,306.438199,-0.000000,7846.182985
2676.538181,-919.314598,-296.082377,9770.718434
2676.538510,0.000000,-0.000000,9474.636058
2676.538839,229.828649,-0.000000,8512.368333
2676.539168,459.657299,-814.226536,8586.388927
2676.539497,919.314598,-518.144159,8512.368333
2676.539826,1455.581446,-592.164754,8956.491898
2676.540155,1762.019645,-666.185348,8290.306550
2676.540484,1378.971896,222.061783,7698.141797
2676.540813,1225.752797,-0.000000,8586.388927
2676.541141,1149.143247,296.082377,8438.347739
2676.541470,1762.019645,-148.041188,8512.368333
2676.541799,842.705048,-592.164754,9030.512492
2676.542128,459.657299,-962.267725,10436.903782
2676.542457,306.438199,-1554.432478,10584.944971
2676.542786,0.000000,-0.000000,9252.574275
2676.543115,0.000000,-222.061783,9770.718434
2676.543444,-842.705048,148.041188,9992.780217
2676.543773,-306.438199,888.247130,9030.512492
2676.544102,0.000000,814.226536,9326.594869
2676.544431,919.314598,-1036.288319,7846.182985
2676.544760,-459.657299,-0.000000,8882.471304
2676.545089,536.266849,-740.205942,9696.697840
2676.545419,689.485948,-74.020594,7846.182985
2676.545748,536.266849,296.082377,8660.409521
2676.546077,0.000000,740.205942,8512.368333
2676.546406,689.485948,592.164754,8808.450710
2676.546735,842.705048,-222.061783,9696.697840
2676.547064,536.266849,-296.082377,9030.512492
2676.547393,383.047749,-666.185348,9770.718434
2676.547723,-919.314598,-0.000000,10510.924376
2676.548052,-76.609550,-0.000000,9844.739029
2676.548381,-612.876398,296.082377,9400.615463
2676.548710,-536.266849,-0.000000,9844.739029
2676.549039,0.000000,222.061783,9326.594869
2676.549368,536.266849,444.123565,9178.553681
2676.549698,536.266849,-518.144159,8364.327145
2676.550027,536.266849,-666.185348,8882.471304
2676.550356,689.485948,-148.041188,8364.327145
2676.550685,1149.143247,222.061783,8364.327145
2676.551014,1072.533697,-222.061783,8734.430116
2676.551343,689.485948,-0.000000,9326.594869
2676.551673,1532.190996,-222.061783,9030.512492
2676.552002,1915.238745,-370.102971,9918.759623
2676.552331,1149.143247,-740.205942,9992.780217
2676.552660,995.924147,-814.226536,9474.636058
2676.552989,459.657299,-148.041188,9400.615463
2676.553318,995.924147,592.164754,9474.636058
2676.553647,0.000000,-222.061783,9548.656652
2676.553977,-1378.971896,-0.000000,9548.656652
2676.554306,0.000000,-74.020594,9474.636058
2676.554635,1072.533697,-666.185348,8956.491898
2676.554964,-459.657299,-666.185348,8290.306550
2676.555293,306.438199,-1554.432478,9622.677246
2676.555622,689.485948,-1036.288319,9104.533087
2676.555952,536.266849,370.102971,7254.018232
2676.556281,1685.410096,-666.185348,8068.244768
2676.556610,766.095498,222.061783,8734.430116
2676.556939,1149.143247,1036.288319,8660.409521
2676.557268,2374.896044,-74.020594,8364.327145
2676.557597,766.095498,296.082377,7920.203579
2676.557927,76.609550,-148.041188,9992.780217
2676.558256,153.219100,148.041188,8956.491898
2676.558585,-842.705048,592.164754,9252.574275
2676.558914,-1455.581446,-444.123565,9030.512492
2676.559243,-2145.067394,148.041188,9474.636058
2676.559572,-2374.896044,-592.164754,10288.862594
2676.559901,-1225.752797,-518.144159,8734.430116
2676.560231,-1225.752797,-1332.370696,8586.388927
2676.560560,-1991.848295,-1776.494261,9474.636058
2676.560889,306.438199,-1110.308913,9474.636058
2676.561218,766.095498,-814.226536,9030.512492
2676.561547,919.314598,-592.164754,8512.368333
2676.561876,1378.971896,1036.288319,7772.162391
2676.562206,2374.896044,296.082377,8808.450710
2676.562535,2374.896044,962.267725,8216.285956
2676.562864,2298.286494,370.102971,8364.327145
2676.563193,766.095498,-370.102971,8882.471304
2676.563522,0.000000,-148.041188,8956.491898
2676.563851,-153.219100,-148.041188,9252.574275
2676.564181,-1149.143247,-1110.308913,9474.636058
2676.564510,-2374.896044,-1628.453072,10288.862594
2676.564839,-1532.190996,-1406.391290,10288.862594
2676.565168,-1072.533697,-1702.473667,9770.718434
2676.565497,-536.266849,-814.226536,9326.594869
2676.565826,76.609550,-2368.659014,10436.903782
2676.566155,689.485948,-592.164754,8808.450710
2676.566485,2374.896044,-0.000000,8808.450710
2676.566814,3370.820191,444.123565,7994.224174
2676.567143,2911.162892,2146.597232,7624.121203
2676.567472,3600.648841,2294.638420,9030.512492
2676.567801,3753.867940,1628.453072,7624.121203
2676.568130,3600.648841,1332.370696,9178.553681
2676.568460,1149.143247,444.123565,9252.574275
2676.568789,383.047749,740.205942,9696.697840
2676.569118,-995.924147,-370.102971,10362.883188
2676.569447,-2604.724693,-1628.453072,10066.800811
2676.569776,-2145.067394,-962.267725,10881.027347
2676.570105,-1685.410096,-1036.288319,9474.636058
2676.570435,-1378.971896,-666.185348,9178.553681
2676.570764,-1149.143247,-518.144159,8512.368333
2676.571093,-229.828649,-814.226536,9474.636058
2676.571422,1532.190996,-0.000000,8216.285956
2676.571751,2604.724693,1184.329507,7402.059420
2676.572080,2911.162892,1258.350101,7624.121203
2676.572409,2451.505594,1554.432478,7698.141797
2676.572739,3064.381992,2368.659014,8586.388927
2676.573068,3140.991542,1406.391290,7698.141797
2676.573397,1915.238745,814.226536,8512.368333
2676.573726,153.219100,-296.082377,9474.636058
2676.574055,-1072.533697,-666.185348,9770.718434
2676.574384,-2451.505594,-1702.473667,9844.739029
2676.574714,-3294.210641,-2146.597232,10807.006753
2676.575043,-3370.820191,-2368.659014,11251.130318
2676.575372,-3140.991542,-1406.391290,10214.842000
2676.575701,-1685.410096,-1110.308913,9400.615463
2676.576030,-2068.457845,-1332.370696,7772.162391
2676.576359,-1149.143247,-1776.494261,10807.006753
2676.576689,383.047749,-1406.391290,9992.780217
2676.577018,2068.457845,-370.102971,7550.100608
2676.577347,2681.334243,-0.000000,8586.388927
2676.577676,2911.162892,1702.473667,7105.977043
2676.578005,3907.087040,1776.494261,7698.141797
2676.578334,4443.353888,2368.659014,7476.080014
2676.578663,3907.087040,962.267725,7254.018232
2676.578993,1838.629195,740.205942,8438.347739
2676.579322,1225.752797,296.082377,9548.656652
2676.579651,-1149.143247,-592.164754,9918.759623
2676.579980,-2987.772442,-2146.597232,10362.883188
2676.580309,-1915.238745,-2294.638420,11029.068536
2676.580638,-2834.553343,-2294.638420,11029.068536
2676.580968,-2068.457845,-1110.308913,9622.677246
2676.581297,-2068.457845,-1036.288319,8808.450710
2676.581626,-1302.362347,-1998.556043,9696.697840
2676.581955,689.485948,-888.247130,9770.718434
2676.582284,1378.971896,222.061783,8142.265362
2676.582613,2987.772442,740.205942,7179.997637
2676.582943,3294.210641,2220.617826,6809.894666
2676.583272,4060.306139,2590.720797,7698.141797
2676.583601,3830.477490,2368.659014,7846.182985
2676.583930,3370.820191,1702.473667,7476.080014
2676.584259,1608.800546,1258.350101,8438.347739
2676.584588,0.000000,1406.391290,9252.574275
2676.584917,-1838.629195,-740.205942,10140.821405
2676.585247,-3524.039291,-1628.453072,10732.986159
2676.585576,-3907.087040,-2220.617826,11843.295072
2676.585905,-3447.429741,-1998.556043,10881.027347
2676.586234,-2374.896044,-1554.432478,9474.636058
2676.586563,-2681.334243,-1850.514855,9326.594869
2676.586892,-2298.286494,-2368.659014,10807.006753
2676.587222,-1149.143247,-1406.391290,10288.862594
2676.587551,-459.657299,-666.185348,9622.677246
2676.587880,1378.971896,-888.247130,8956.491898
2676.588209,1838.629195,1258.350101,7550.100608
2676.588538,3524.039291,1924.535449,8142.265362
2676.588867,4903.011187,1554.432478,6587.832884
2676.589197,4749.792088,2146.597232,7624.121203
2676.589526,3370.820191,1406.391290,8068.244768
2676.589855,2834.553343,1776.494261,7254.018232
2676.590184,842.705048,1332.370696,8364.327145
2676.590513,-1302.362347,-666.185348,9400.615463
2676.590842,-2451.505594,-1924.535449,11621.233289
2676.591171,-3370.820191,-2294.638420,11177.109724
2676.591501,-1455.581446,-3034.844362,9474.636058
2676.591830,-2298.286494,-2738.761985,9104.533087
2676.592159,-1991.848295,-2516.700203,10362.883188
2676.592488,-1302.362347,-1998.556043,9770.718434
2676.592817,689.485948,-1184.329507,9844.739029
2676.593146,1225.752797,370.102971,7772.162391
2676.593476,3294.210641,1184.329507,7402.059420
2676.593805,4060.306139,2294.638420,7476.080014
2676.594134,4366.744339,2442.679609,6661.853478
2676.594463,4596.572988,2146.597232,6735.874072
2676.594792,3294.210641,2664.741391,7031.956449
2676.595121,2834.553343,2220.617826,7179.997637
2676.595450,1149.143247,1628.453072,7476.080014
2676.595780,-2604.724693,-370.102971,9326.594869
2676.596109,-4443.353888,-2294.638420,11621.233289
2676.596438,-4979.620737,-2072.576638,9844.739029
2676.596767,-6128.763984,-1628.453072,8808.450710
2676.597096,-7124.688131,-4071.132681,10510.924376
2676.597425,-7737.564530,-3330.926739,11325.150913
2676.597755,-7124.688131,-3701.029710,11769.274478
2676.598084,-5592.497135,-2146.597232,9696.697840
2676.598413,-3447.429741,-666.185348,9178.553681
2676.598742,-3370.820191,370.102971,10140.821405
2676.599071,-2451.505594,1554.432478,8734.430116
2676.599400,-1762.019645,1480.411884,8882.471304
2676.599730,153.219100,888.247130,8734.430116
2676.600059,153.219100,2368.659014,6587.832884
2676.600388,76.609550,1702.473667,7920.203579
2676.600717,-1608.800546,2220.617826,6883.915261
2676.601046,-1762.019645,1184.329507,8512.368333
2676.601375,-3447.429741,-1036.288319,10362.883188
2676.601704,-3907.087040,518.144159,8660.409521
2676.602034,-3600.648841,-518.144159,9326.594869
2676.602363,-4979.620737,-1036.288319,8512.368333
2676.602692,-4903.011187,-3034.844362,9178.553681
2676.603021,-5132.839837,-3552.988522,12657.521608
2676.603350,-5056.230287,-3701.029710,11769.274478
2676.603679,-3600.648841,-1480.411884,10436.903782
2676.604009,-2374.896044,-296.082377,10288.862594
2676.604338,-2298.286494,1110.308913,8882.471304
2676.604667,-1225.752797,1332.370696,9622.677246
2676.604996,-383.047749,1406.391290,9474.636058
2676.605325,1762.019645,888.247130,8956.491898
2676.605654,2221.676944,2812.782580,5033.400406
2676.605984,2528.115143,1850.514855,7105.977043
2676.606313,153.219100,1628.453072,5995.668130
2676.606642,0.000000,1184.329507,7328.038826
2676.606971,-2374.896044,1184.329507,7624.121203
2676.607300,-2681.334243,-1332.370696,9030.512492
2676.607629,-3064.381992,-2886.803174,10288.862594
2676.607958,-4596.572988,-592.164754,7105.977043
2676.608288,-5592.497135,-3552.988522,10362.883188
2676.608617,-7201.297681,-2960.823768,11029.068536
2676.608946,-4979.620737,-3552.988522,11991.336260
2676.609275,-5132.839837,-3478.967927,11547.212695
2676.609604,-3524.039291,-1998.556043,10807.006753
2676.609933,-2528.115143,-888.247130,9770.718434
2676.610263,-1915.238745,1184.329507,7624.121203
2676.610592,-1149.143247,2960.823768,9030.512492
2676.610921,76.609550,1258.350101,9474.636058
2676.611250,1532.190996,1924.535449,6735.874072
2676.611579,2451.505594,2368.659014,7328.038826
2676.611908,1302.362347,2442.679609,6069.688724
2676.612238,306.438199,2220.617826,5551.544565
2676.612567,-612.876398,-74.020594,8216.285956
2676.612896,-1685.410096,-1036.288319,8956.491898
2676.613225,-3064.381992,-1850.514855,10140.821405
2676.613554,-4213.525239,-1628.453072,9548.656652
2676.613883,-4443.353888,-296.082377,8512.368333
2676.614212,-4903.011187,-74.020594,9696.697840
2676.614542,-5515.887586,-888.247130,10214.842000
2676.614871,-5515.887586,-2442.679609,11843.295072
2676.615200,-5439.278036,-814.226536,11547.212695
2676.615529,-5132.839837,1258.350101,9326.594869
2676.615858,-4366.744339,-0.000000,9104.533087
2676.616187,-3677.258390,222.061783,9030.512492
2676.616517,-2451.505594,-296.082377,9696.697840
2676.616846,-1455.581446,-222.061783,8512.368333
2676.617175,-1838.629195,-444.123565,8142.265362
2676.617504,-2221.676944,-74.020594,9252.574275
2676.617833,-2834.553343,-222.061783,8216.285956
2676.618162,-2757.943793,-0.000000,8142.265362
2676.618492,-3294.210641,-1332.370696,9178.553681
2676.618821,-2528.115143,-666.185348,9474.636058
2676.619150,-2451.505594,-0.000000,9696.697840
2676.619479,-2451.505594,-148.041188,9992.780217
2676.619808,-2221.676944,-148.041188,8956.491898
2676.620137,-2374.896044,-222.061783,9400.615463
2676.620466,-2451.505594,-74.020594,9326.594869
2676.620796,-2374.896044,-74.020594,9622.677246
2676.621125,-1915.238745,-0.000000,9326.594869
2676.621454,-1378.971896,592.164754,8290.306550
2676.621783,-2374.896044,-0.000000,8512.368333
2676.622112,-1915.238745,-888.247130,8068.244768
2676.622441,-2757.943793,-444.123565,7846.182985
2676.622771,-3064.381992,-518.144159,8734.430116
2676.623100,-3370.820191,-0.000000,9104.533087
2676.623429,-3600.648841,740.205942,8808.450710
2676.623758,-3447.429741,592.164754,9326.594869
2676.624087,-3830.477490,1036.288319,9178.553681
2676.624416,-3830.477490,-148.041188,9178.553681
2676.624746,-3830.477490,-2220.617826,10066.800811
2676.625075,-3064.381992,-1850.514855,10288.862594
2676.625404,-1838.629195,-1702.473667,10362.883188
2676.625733,-1149.143247,-296.082377,8660.409521
2676.626062,-1149.143247,592.164754,8216.285956
2676.626391,-689.485948,-0.000000,10214.842000
2676.626720,1072.533697,962.267725,7624.121203
2676.627050,1685.410096,2664.741391,6513.812290
2676.627379,1149.143247,2294.638420,6143.709319
2676.627708,0.000000,2368.659014,6587.832884
2676.628037,-1302.362347,444.123565,8660.409521
2676.628366,-4136.915689,-666.185348,8882.471304
2676.628695,-3447.429741,-2886.803174,11251.130318
2676.629025,-4826.401637,-1554.432478,9474.636058
2676.629354,-5592.497135,-1702.473667,9918.759623
2676.629683,-6665.030833,-2812.782580,11843.295072
2676.630012,-6128.763984,-1554.432478,11325.150913
2676.630341,-4519.963438,-1924.535449,11325.150913
2676.630670,-3447.429741,-1258.350101,10140.821405
2676.631000,-766.095498,666.185348,8586.388927
2676.631329,-919.314598,1924.535449,6809.894666
2676.631658,-612.876398,-148.041188,10288.862594
2676.631987,1532.190996,518.144159,8660.409521
2676.632316,2987.772442,2368.659014,5255.462188
2676.632645,2757.943793,1258.350101,6365.771101
2676.632974,153.219100,2368.659014,6365.771101
2676.633304,459.657299,1036.288319,9474.636058
2676.633633,-3140.991542,-148.041188,8216.285956
2676.633962,-2528.115143,-1702.473667,9992.780217
2676.634291,-3677.258390,-1628.453072,11103.089130
2676.634620,-5056.230287,-0.000000,7328.038826
2676.634949,-6665.030833,-2960.823768,11843.295072
2676.635279,-7431.126331,-1480.411884,10807.006753
2676.635608,-5209.449386,-1184.329507,10955.047942
2676.635937,-5286.058936,-2368.659014,10288.862594
2676.636266,-4290.134789,-370.102971,9104.533087
2676.636595,-3447.429741,-1184.329507,9474.636058
2676.636924,-2834.553343,-1110.308913,7920.203579
2676.637254,-1608.800546,962.267725,8364.327145
2676.637583,-1455.581446,-148.041188,8956.491898
2676.637912,-1608.800546,-0.000000,8808.450710
2676.638241,-2451.505594,518.144159,9326.594869
2676.638570,-2374.896044,740.205942,8512.368333
2676.638899,-2911.162892,666.185348,7920.203579
2676.639228,-2451.505594,444.123565,8512.368333
2676.639558,-2451.505594,1554.432478,9252.574275
2676.639887,-2681.334243,1406.391290,8512.368333
2676.640216,-3140.991542,444.123565,7772.162391
2676.640545,-3217.601092,370.102971,8290.306550
2676.640874,-2834.553343,148.041188,8216.285956
2676.641203,-2528.115143,-0.000000,7772.162391
2676.641533,-2451.505594,-0.000000,8216.285956
2676.641862,-2681.334243,370.102971,8290.306550
2676.642191,-2681.334243,296.082377,9030.512492
2676.642520,-3447.429741,1776.494261,8586.388927
2676.642849,-2987.772442,1258.350101,8956.491898
2676.643178,-3217.601092,1184.329507,9770.718434
2676.643508,-3447.429741,1554.432478,9770.718434
2676.643837,-3447.429741,444.123565,10436.903782
2676.644166,-3907.087040,-0.000000,11029.068536
2676.644495,-2451.505594,74.020594,10584.944971
2676.644824,-2068.457845,592.164754,9326.594869
2676.645153,-689.485948,1184.329507,9400.615463
2676.645482,-536.266849,1258.350101,9178.553681
2676.645812,0.000000,-0.000000,11843.295072
2676.646141,1532.190996,2146.597232,8512.368333
2676.646470,3600.648841,3701.029710,6809.894666
2676.646799,4290.134789,3923.091493,5921.647536
2676.647128,3830.477490,4663.297435,5699.585753
2676.647457,3907.087040,4515.256246,8364.327145
2676.647787,3064.381992,4589.276840,7254.018232
2676.648116,2681.334243,3849.070898,9030.512492
2676.648445,995.924147,2072.576638,9548.656652
2676.648774,-306.438199,2664.741391,9992.780217
2676.649103,-1915.238745,370.102971,12361.439231
2676.649432,-919.314598,1554.432478,10658.965565
2676.649761,-1225.752797,1258.350101,10807.006753
2676.650091,-766.095498,1554.432478,11029.068536
2676.650420,536.266849,3256.906145,9844.739029
2676.650749,1225.752797,3034.844362,7994.224174
2676.651078,2298.286494,3108.864956,7402.059420
2676.651407,2757.943793,5625.565159,7031.956449
2676.651736,2834.553343,4145.153275,6143.709319
2676.652065,2298.286494,5033.400406,7402.059420
2676.652395,995.924147,4441.235652,7772.162391
2676.652724,-689.485948,2886.803174,8660.409521
2676.653053,-2604.724693,1480.411884,9696.697840
2676.653382,-3830.477490,592.164754,11029.068536
2676.653711,-3370.820191,222.061783,12065.356855
2676.654040,-3677.258390,2220.617826,9622.677246
2676.654369,-3830.477490,2146.597232,9844.739029
2676.654699,-3983.696590,1850.514855,11769.274478
2676.655028,-3524.039291,2146.597232,10881.027347
2676.655357,-2374.896044,1998.556043,10881.027347
2676.655686,-1225.752797,2812.782580,8808.450710
2676.656015,-766.095498,2960.823768,8142.265362
2676.656344,-1072.533697,3627.009116,8882.471304
2676.656674,-612.876398,1480.411884,11843.295072
2676.657003,1915.238745,2516.700203,8512.368333
2676.657332,4673.182538,4811.338623,6883.915261
2676.657661,4366.744339,5033.400406,4811.338623
2676.657990,2681.334243,5477.523971,6217.729913
2676.658319,2987.772442,6661.853478,8364.327145
2676.658648,1915.238745,6439.791695,6957.935855
2676.658978,2221.676944,5255.462188,8364.327145
2676.659307,-153.219100,5477.523971,8290.306550
2676.659636,-153.219100,4885.359217,7254.018232
2676.659965,-1608.800546,1480.411884,10140.821405
2676.660294,-2068.457845,-444.123565,10955.047942
2676.660623,-1225.752797,592.164754,10288.862594
2676.660952,-1838.629195,-1406.391290,11325.150913
2676.661282,-1608.800546,2368.659014,9474.636058
2676.661611,0.000000,2886.803174,11029.068536
2676.661940,2298.286494,3478.967927,8512.368333
2676.662269,2604.724693,6439.791695,7550.100608
2676.662598,3677.258390,4145.153275,7846.182985
2676.662927,3830.477490,5329.482782,8216.285956
2676.663257,3447.429741,5033.400406,7031.956449
2676.663586,2068.457845,4071.132681,7328.038826
2676.663915,459.657299,4071.132681,7550.100608
2676.664244,-766.095498,1554.432478,9992.780217
2676.664573,-2374.896044,-1036.288319,11917.315666
2676.664902,-2834.553343,1406.391290,10881.027347
2676.665231,-2604.724693,-666.185348,11473.192101
2676.665561,-3600.648841,740.205942,10436.903782
2676.665890,-1915.238745,2960.823768,10955.047942
2676.666219,-842.705048,962.267725,9770.718434
2676.666548,-1378.971896,2664.741391,9696.697840
2676.666877,2681.334243,814.226536,11029.068536
2676.667206,3447.429741,3330.926739,5033.400406
2676.667535,3600.648841,3256.906145,9548.656652
2676.667865,2604.724693,3330.926739,6365.771101
2676.668194,3907.087040,4071.132681,6883.915261
2676.668523,1915.238745,5107.421000,7698.141797
2676.668852,2374.896044,4145.153275,5921.647536
2676.669181,1149.143247,4959.379811,8290.306550
2676.669510,-842.705048,2442.679609,7254.018232
2676.669840,-2911.162892,-3552.988522,12731.542202
2676.670169,-4903.011187,-222.061783,11325.150913
2676.670498,-2374.896044,-814.226536,11769.274478
2676.670827,-3753.867940,-814.226536,10362.883188
2676.671156,-2451.505594,2738.761985,10362.883188
2676.671485,-306.438199,3034.844362,7698.141797
2676.671814,229.828649,3330.926739,8068.244768
2676.672144,2145.067394,2294.638420,12213.398043
2676.672473,3140.991542,1628.453072,8216.285956
2676.672802,4903.011187,3849.070898,7254.018232
2676.673131,3600.648841,7179.997637,2220.617826
2676.673460,4443.353888,4071.132681,5773.606348
2676.673789,2911.162892,4737.318029,7624.121203
2676.674118,2834.553343,4293.194464,7105.977043
2676.674448,3370.820191,3330.926739,6513.812290
2676.674777,-1225.752797,6291.750507,7254.018232
2676.675106,-2068.457845,1702.473667,11177.109724
2676.675435,-5822.325785,-3404.947333,15618.345376
2676.675764,-4673.182538,1480.411884,10658.965565
2676.676093,-2528.115143,592.164754,12583.501014
2676.676422,-2834.553343,-4145.153275,12213.398043
2676.676752,-3370.820191,2294.638420,11103.089130
2676.677081,-995.924147,740.205942,8216.285956
2676.677410,-3217.601092,4219.173869,7994.224174
2676.677739,0.000000,2294.638420,14137.933492
2676.678068,3753.867940,2590.720797,8364.327145
2676.678397,4060.306139,5773.606348,7846.182985
2676.678727,2681.334243,4811.338623,5921.647536
2676.679056,3217.601092,4219.173869,5477.523971
2676.679385,2298.286494,5403.503377,9992.780217
2676.679714,0.000000,5995.668130,6809.894666
2676.680043,919.314598,6291.750507,10288.862594
2676.680372,-1302.362347,5403.503377,7846.182985
2676.680701,-842.705048,1258.350101,10066.800811
2676.681031,-2987.772442,1258.350101,14582.057057
2676.681360,-2834.553343,-148.041188,10140.821405
2676.681689,-1762.019645,-296.082377,11695.253884
2676.682018,-995.924147,-1998.556043,12583.501014
2676.682347,-1838.629195,3108.864956,7698.141797
2676.682676,383.047749,1406.391290,11325.150913
2676.683005,766.095498,5329.482782,7254.018232
2676.683335,2987.772442,6957.935855,8364.327145
2676.683664,3294.210641,5477.523971,8142.265362
2676.683993,3217.601092,5329.482782,8956.491898
2676.684322,-153.219100,5773.606348,10288.862594
2676.684651,-153.219100,4737.318029,7254.018232
2676.684980,306.438199,4293.194464,8216.285956
2676.685310,1915.238745,2664.741391,9252.574275
2676.685639,1302.362347,1110.308913,10436.903782
2676.685968,-229.828649,296.082377,11177.109724
2676.686297,-612.876398,518.144159,9400.615463
2676.686626,-536.266849,1702.473667,10214.842000
2676.686955,76.609550,3108.864956,8660.409521
2676.687284,0.000000,5107.421000,8364.327145
2676.687614,536.266849,3923.091493,8364.327145
2676.687943,1685.410096,3330.926739,8290.306550
2676.688272,3677.258390,3997.112087,7550.100608
2676.688601,2987.772442,3701.029710,8068.244768
2676.688930,1838.629195,1480.411884,8216.285956
2676.689259,1608.800546,1850.514855,8438.347739
2676.689588,153.219100,2146.597232,8882.471304
2676.689918,-459.657299,1702.473667,10955.047942
2676.690247,-1302.362347,2368.659014,10140.821405
2676.690576,-2068.457845,1924.535449,10362.883188
2676.690905,-2221.676944,296.082377,9696.697840
2676.691234,-1225.752797,-888.247130,11029.068536
2676.691563,-383.047749,-1406.391290,10362.883188
2676.691892,-1225.752797,-0.000000,9548.656652
2676.692222,383.047749,1628.453072,8882.471304
2676.692551,2987.772442,962.267725,7624.121203
2676.692880,3447.429741,2738.761985,6513.812290
2676.693209,1762.019645,2960.823768,7402.059420
2676.693538,0.000000,2886.803174,7328.038826
2676.693867,1302.362347,1184.329507,8512.368333
2676.694197,2068.457845,592.164754,8216.285956
2676.694526,383.047749,-888.247130,8734.430116
2676.694855,-2604.724693,-740.205942,10214.842000
2676.695184,-3217.601092,-3256.906145,11547.212695
2676.695513,-2604.724693,-2368.659014,11251.130318
2676.695842,-2987.772442,-0.000000,10362.883188
2676.696171,-2834.553343,-296.082377,10140.821405
2676.696501,-2911.162892,-0.000000,9992.780217
2676.696830,0.000000,-518.144159,9030.512492
2676.697159,1762.019645,1332.370696,7105.977043
2676.697488,1455.581446,1036.288319,7105.977043
2676.697817,1225.752797,1332.370696,7846.182985
2676.698146,2451.505594,666.185348,8290.306550
2676.698475,3064.381992,1480.411884,6883.915261
2676.698805,1608.800546,518.144159,7031.956449
2676.699134,766.095498,-370.102971,10066.800811
2676.699463,459.657299,-666.185348,10288.862594
2676.699792,306.438199,-814.226536,10288.862594
2676.700121,-689.485948,-148.041188,9770.718434
2676.700450,-1991.848295,-814.226536,10584.944971
2676.700780,-2068.457845,-740.205942,11473.192101
2676.701109,-766.095498,-0.000000,9548.656652
2676.701438,0.000000,-74.020594,9400.615463
2676.701767,0.000000,-74.020594,9178.553681
2676.702096,995.924147,-1036.288319,9844.739029
2676.702425,1762.019645,-1258.350101,8512.368333
2676.702754,2298.286494,-0.000000,7105.977043
2676.703084,1302.362347,-0.000000,7550.100608
2676.703413,1685.410096,444.123565,8068.244768
2676.703742,2681.334243,1332.370696,7846.182985
2676.704071,2451.505594,1406.391290,7698.141797
2676.704400,766.095498,666.185348,8808.450710
2676.704729,1225.752797,-222.061783,9770.718434
2676.705058,1072.533697,-666.185348,10140.821405
2676.705388,0.000000,-222.061783,9696.697840
2676.705717,-919.314598,-444.123565,9992.780217
2676.706046,-689.485948,-962.267725,10881.027347
2676.706375,76.609550,222.061783,8882.471304
2676.706704,0.000000,1184.329507,9030.512492
2676.707033,-1302.362347,444.123565,8882.471304
2676.707362,153.219100,-0.000000,8512.368333
2676.707692,1302.362347,-518.144159,7920.203579
2676.708021,612.876398,-296.082377,7550.100608
2676.708350,0.000000,-296.082377,9104.533087
2676.708679,383.047749,-1480.411884,9992.780217
2676.709008,995.924147,-444.123565,8586.388927
2676.709337,919.314598,740.205942,8216.285956
2676.709667,459.657299,666.185348,9178.553681
2676.709996,612.876398,370.102971,10807.006753
2676.710325,842.705048,814.226536,9474.636058
2676.710654,612.876398,962.267725,8364.327145
2676.710983,-536.266849,1628.453072,9474.636058
2676.711312,-229.828649,-296.082377,10658.965565
2676.711641,0.000000,-0.000000,9474.636058
2676.711971,-1149.143247,370.102971,8956.491898
2676.712300,-2145.067394,-222.061783,8808.450710
2676.712629,-689.485948,-1554.432478,10362.883188
2676.712958,0.000000,-1184.329507,9474.636058
2676.713287,0.000000,-888.247130,7624.121203
2676.713616,-383.047749,-444.123565,8734.430116
2676.713945,459.657299,-518.144159,9548.656652
2676.714275,1455.581446,666.185348,8660.409521
2676.714604,2068.457845,1628.453072,7994.224174
2676.714933,1225.752797,1924.535449,8290.306550
2676.715262,2068.457845,1406.391290,9474.636058
2676.715591,2681.334243,1110.308913,8956.491898
2676.715920,1532.190996,888.247130,8364.327145
2676.716250,76.609550,518.144159,9252.574275
2676.716579,76.609550,-518.144159,9474.636058
2676.716908,383.047749,-962.267725,9104.533087
2676.717237,0.000000,-296.082377,8512.368333
2676.717566,-1302.362347,-1036.288319,9474.636058
2676.717895,-1302.362347,-2146.597232,9622.677246
2676.718224,-153.219100,-1924.535449,9252.574275
2676.718554,153.219100,-1776.494261,8808.450710
2676.718883,-612.876398,-1406.391290,8956.491898
2676.719212,1149.143247,-1110.308913,9992.780217
2676.719541,2145.067394,-0.000000,8364.327145
2676.719870,2221.676944,1258.350101,7254.018232
2676.720199,1685.410096,1036.288319,9326.594869
2676.720528,1838.629195,518.144159,8364.327145
2676.720858,1838.629195,444.123565,8956.491898
2676.721187,1225.752797,666.185348,9326.594869
2676.721516,-229.828649,-814.226536,9696.697840
2676.721845,-1532.190996,-2294.638420,10881.027347
2676.722174,-1378.971896,-2220.617826,9992.780217
2676.722503,-1608.800546,-1184.329507,9252.574275
2676.722832,-2528.115143,-2220.617826,9992.780217
2676.723162,-1991.848295,-2590.720797,9770.718434
2676.723491,0.000000,-2812.782580,9326.594869
2676.723820,76.609550,-1258.350101,7920.203579
2676.724149,383.047749,-1702.473667,8364.327145
2676.724478,1225.752797,-444.123565,8882.471304
2676.724807,2145.067394,1036.288319,7846.182985
2676.725137,2451.505594,1998.556043,7179.997637
2676.725466,1608.800546,1036.288319,8364.327145
2676.725795,1915.238745,148.041188,9104.533087
2676.726124,2298.286494,-592.164754,8290.306550
2676.726453,766.095498,-518.144159,8808.450710
2676.726782,-459.657299,-370.102971,9400.615463
2676.727111,-612.876398,-1480.411884,9696.697840
2676.727441,-689.485948,-888.247130,9252.574275
2676.727770,-766.095498,-222.061783,8808.450710
2676.728099,-1532.190996,-814.226536,9178.553681
2676.728428,0.000000,-1258.350101,9252.574275
2676.728757,766.095498,-1406.391290,8660.409521
2676.729086,1149.143247,-1110.308913,7920.203579
2676.729415,689.485948,-0.000000,8660.409521
2676.729745,1685.410096,-222.061783,9178.553681
2676.730074,2145.067394,1628.453072,8142.265362
2676.730403,2374.896044,2738.761985,7846.182985
2676.730732,1608.800546,2738.761985,8142.265362
2676.731061,2298.286494,1110.308913,9622.677246
2676.731390,1915.238745,222.061783,9696.697840
2676.731720,536.266849,-74.020594,9030.512492
2676.732049,-1378.971896,-296.082377,9918.759623
2676.732378,-1762.019645,-1776.494261,11177.109724
2676.732707,-1532.190996,-1776.494261,10288.862594
2676.733036,-1685.410096,-444.123565,9696.697840
2676.733365,-1838.629195,-888.247130,9548.656652
2676.733694,-919.314598,-444.123565,9474.636058
2676.734024,306.438199,370.102971,9030.512492
2676.734353,459.657299,740.205942,8142.265362
2676.734682,76.609550,666.185348,8660.409521
2676.735011,995.924147,-444.123565,8882.471304
2676.735340,1685.410096,888.247130,7550.100608
2676.735669,1302.362347,1258.350101,8438.347739
2676.735998,536.266849,370.102971,8290.306550
2676.736328,612.876398,-222.061783,9326.594869
2676.736657,766.095498,-0.000000,9844.739029
2676.736986,-383.047749,-0.000000,8068.244768
2676.737315,-2451.505594,-74.020594,9474.636058
2676.737644,-2145.067394,-1184.329507,10436.903782
2676.737973,0.000000,-2146.597232,9696.697840
2676.738302,-1149.143247,-888.247130,8512.368333
2676.738632,-1149.143247,-1998.556043,9474.636058
2676.738961,-306.438199,-1850.514855,9696.697840
2676.739290,919.314598,-888.247130,9104.533087
2676.739619,1685.410096,-370.102971,7920.203579
2676.739948,689.485948,-74.020594,8512.368333
2676.740277,2374.896044,1110.308913,8808.450710
2676.740607,3140.991542,1480.411884,7328.038826
2676.740936,2604.724693,2442.679609,7402.059420
2676.741265,1532.190996,1332.370696,7994.224174
2676.741594,1915.238745,-0.000000,9474.636058
2676.741923,1072.533697,-666.185348,9474.636058
2676.742252,459.657299,-1554.432478,9326.594869
2676.742581,-842.705048,-888.247130,9696.697840
2676.742911,-1685.410096,-2072.576638,11325.150913
2676.743240,-1072.533697,-666.185348,10214.842000
2676.743569,-689.485948,-0.000000,9030.512492
2676.743898,-1302.362347,444.123565,9548.656652
2676.744227,612.876398,-0.000000,9696.697840
2676.744556,1838.629195,666.185348,9252.574275
2676.744885,1762.019645,-0.000000,8512.368333
2676.745215,1762.019645,592.164754,8586.388927
2676.745544,2145.067394,296.082377,8734.430116
2676.745873,2451.505594,1406.391290,8290.306550
2676.746202,1991.848295,1776.494261,7624.121203
2676.746531,766.095498,1406.391290,8808.450710
2676.746860,1685.410096,-0.000000,9400.615463
2676.747189,842.705048,-1554.432478,9696.697840
2676.747518,-842.705048,-1258.350101,9474.636058
2676.747847,-2298.286494,-1480.411884,9696.697840
2676.748176,-2451.505594,-2960.823768,10955.047942
2676.748505,-2221.676944,-1924.535449,10288.862594
2676.748834,-1762.019645,-1110.308913,9178.553681
2676.749163,-1915.238745,-1332.370696,9326.594869
2676.749492,-536.266849,-814.226536,9548.656652
2676.749821,1302.362347,-740.205942,8660.409521
2676.750151,1455.581446,296.082377,7328.038826
2676.750480,1302.362347,-0.000000,8438.347739
2676.750809,2298.286494,666.185348,8734.430116
2676.751138,2528.115143,1776.494261,7254.018232
2676.751467,2374.896044,1924.535449,6809.894666
2676.751796,1838.629195,740.205942,8068.244768
2676.752125,2068.457845,-1406.391290,9104.533087
2676.752454,995.924147,-1480.411884,9474.636058
2676.752783,-612.876398,-592.164754,8808.450710
2676.753112,-2451.505594,-962.267725,9770.718434
2676.753441,-2451.505594,-1776.494261,11029.068536
2676.753770,-1838.629195,-1554.432478,10066.800811
2676.754099,-1915.238745,-888.247130,9474.636058
2676.754428,-1378.971896,-740.205942,9474.636058
2676.754757,-153.219100,-740.205942,9844.739029
2676.755086,1455.581446,-74.020594,9770.718434
2676.755416,2068.457845,-0.000000,7846.182985
2676.755745,1685.410096,370.102971,8290.306550
2676.756074,2911.162892,1184.329507,8660.409521
2676.756403,3907.087040,2368.659014,7105.977043
2676.756732,3753.867940,2368.659014,7254.018232
2676.757061,2374.896044,3256.906145,8068.244768
2676.757390,2451.505594,2368.659014,8068.244768
2676.757719,2528.115143,1332.370696,8734.430116
2676.758048,306.438199,518.144159,8734.430116
2676.758377,-1532.190996,-74.020594,9622.677246
2676.758706,-2298.286494,-962.267725,11103.089130
2676.759035,-2145.067394,-3034.844362,11325.150913
2676.759364,-3524.039291,-1110.308913,8586.388927
2676.759693,-2834.553343,-1480.411884,10881.027347
2676.760022,-2451.505594,-1628.453072,10288.862594
2676.760351,-1225.752797,-1554.432478,9844.739029
2676.760681,306.438199,-296.082377,8882.471304
2676.761010,1685.410096,-222.061783,8882.471304
2676.761339,2681.334243,1110.308913,8512.368333
2676.761668,3447.429741,1702.473667,7328.038826
2676.761997,3447.429741,2072.576638,7328.038826
2676.762326,1838.629195,1776.494261,7328.038826
2676.762655,3447.429741,1258.350101,8290.306550
2676.762984,3064.381992,1554.432478,6883.915261
2676.763313,229.828649,-370.102971,9178.553681
2676.763642,-2298.286494,-592.164754,9696.697840
2676.763971,-2451.505594,-2516.700203,10807.006753
2676.764300,-3370.820191,-2812.782580,11695.253884
2676.764629,-3370.820191,-1850.514855,10436.903782
2676.764958,-3524.039291,-2072.576638,10362.883188
2676.765287,-3064.381992,-2368.659014,11177.109724
2676.765616,-1762.019645,-1332.370696,9918.759623
2676.765946,-1378.971896,-2146.597232,9696.697840
2676.766275,459.657299,-1406.391290,10288.862594
2676.766604,2451.505594,962.267725,7698.141797
2676.766933,4903.011187,1998.556043,7328.038826
2676.767262,2757.943793,2072.576638,7105.977043
2676.767591,3140.991542,2146.597232,8586.388927
2676.767920,3753.867940,2442.679609,8512.368333
2676.768249,4290.134789,2812.782580,6143.709319
2676.768578,2911.162892,1480.411884,7105.977043
2676.768907,1302.362347,3849.070898,7179.997637
2676.769236,1915.238745,222.061783,8438.347739
2676.769565,-766.095498,-518.144159,7920.203579
2676.769894,-1685.410096,-3849.070898,10140.821405
2676.770223,-3140.991542,-592.164754,9622.677246
2676.770552,-2987.772442,-5107.421000,12879.583391
2676.770881,-3447.429741,-3330.926739,9548.656652
2676.771211,-2834.553343,-2072.576638,11695.253884
2676.771540,-1302.362347,-1924.535449,11769.274478
2676.771869,306.438199,518.144159,9918.759623
2676.772198,3830.477490,1480.411884,8512.368333
2676.772527,4519.963438,2146.597232,6883.915261
2676.772856,2757.943793,2220.617826,7328.038826
2676.773185,3677.258390,1850.514855,8142.265362
2676.773514,3677.258390,2960.823768,6735.874072
2676.773843,3524.039291,1850.514855,7624.121203
2676.774172,1455.581446,2442.679609,5625.565159
2676.774501,2298.286494,3701.029710,7846.182985
2676.774830,1302.362347,-1480.411884,8956.491898
2676.775159,-2987.772442,-3775.050304,11547.212695
2676.775488,-3753.867940,-5847.626942,10584.944971
2676.775817,-3447.429741,-4737.318029,13027.624579
2676.776146,-3753.867940,-7105.977043,13471.748144
2676.776476,-4673.182538,-2738.761985,8364.327145
2676.776805,-2604.724693,-2886.803174,10732.986159
2676.777134,-2451.505594,-296.082377,10658.965565
2676.777463,1838.629195,-0.000000,9770.718434
2676.777792,3830.477490,1406.391290,6513.812290
2676.778121,3600.648841,2146.597232,7920.203579
2676.778450,3140.991542,1554.432478,8216.285956
2676.778779,3677.258390,2368.659014,5403.503377
2676.779108,3140.991542,1776.494261,7476.080014
2676.779437,2451.505594,1554.432478,7105.977043
2676.779766,2298.286494,2368.659014,7105.977043
2676.780095,1685.410096,1776.494261,7550.100608
2676.780424,-1608.800546,-2590.720797,10288.862594
2676.780753,-3294.210641,-3256.906145,10955.047942
2676.781082,-3140.991542,-3330.926739,11029.068536
2676.781411,-2451.505594,-4293.194464,11769.274478
2676.781740,-3983.696590,-1406.391290,9400.615463
2676.782070,-2298.286494,-2220.617826,11991.336260
2676.782399,0.000000,-1776.494261,11769.274478
2676.782728,1455.581446,2442.679609,7994.224174
2676.783057,4136.915689,1776.494261,7328.038826
2676.783386,3677.258390,2516.700203,8142.265362
2676.783715,3447.429741,2886.803174,8290.306550
2676.784044,3753.867940,3627.009116,6809.894666
2676.784373,2298.286494,2812.782580,6143.709319
2676.784702,1302.362347,1406.391290,8142.265362
2676.785031,2451.505594,2812.782580,7254.018232
2676.785360,2757.943793,1924.535449,7105.977043
2676.785689,-1378.971896,-1332.370696,8512.368333
2676.786018,-2834.553343,-4441.235652,11843.295072
2676.786347,-2834.553343,-2294.638420,10732.986159
2676.786676,-2681.334243,-4515.256246,11325.150913
2676.787005,-3983.696590,-1924.535449,9696.697840
2676.787335,-3064.381992,-1850.514855,13175.665768
2676.787664,-383.047749,-1554.432478,10288.862594
2676.787993,383.047749,1850.514855,8438.347739
2676.788322,2604.724693,592.164754,7772.162391
2676.788651,2987.772442,1184.329507,8364.327145
2676.788980,3600.648841,1554.432478,8438.347739
2676.789309,3447.429741,1480.411884,6069.688724
2676.789638,1762.019645,1184.329507,5847.626942
2676.789967,1685.410096,1184.329507,9400.615463
2676.790296,1378.971896,-0.000000,8586.388927
2676.790625,0.000000,-888.247130,9696.697840
2676.790954,-2681.334243,-1924.535449,9474.636058
2676.791283,-3294.210641,-3034.844362,11547.212695
2676.791612,-3983.696590,-3404.947333,11769.274478
2676.791941,-2145.067394,-2590.720797,10807.006753
2676.792270,-1838.629195,-592.164754,9548.656652
2676.792600,-919.314598,-1332.370696,10214.842000
2676.792929,919.314598,-1110.308913,9474.636058
2676.793258,2987.772442,888.247130,7402.059420
2676.793587,2757.943793,1184.329507,6735.874072
2676.793916,2757.943793,1184.329507,7698.141797
2676.794245,3140.991542,1776.494261,8364.327145
2676.794574,3294.210641,2664.741391,7698.141797
2676.794903,2604.724693,2146.597232,6513.812290
2676.795232,1378.971896,1998.556043,6957.935855
2676.795561,2145.067394,2294.638420,7550.100608
2676.795890,1378.971896,-370.102971,8290.306550
2676.796219,-1455.581446,-2886.803174,10955.047942
2676.796548,-2911.162892,-1184.329507,10214.842000
2676.796877,-1915.238745,-3256.906145,12361.439231
2676.797206,-2298.286494,-2294.638420,9844.739029
2676.797535,-2068.457845,-370.102971,10288.862594
2676.797865,-383.047749,-444.123565,9770.718434
2676.798194,-459.657299,740.205942,8808.450710
2676.798523,1685.410096,1036.288319,8068.244768
2676.798852,2834.553343,444.123565,8216.285956
2676.799181,2757.943793,1480.411884,8142.265362
2676.799510,2987.772442,666.185348,7402.059420
2676.799839,2911.162892,666.185348,6735.874072
2676.800168,1762.019645,740.205942,8142.265362
2676.800497,689.485948,-0.000000,8512.368333
2676.800826,-306.438199,-296.082377,9696.697840
2676.801155,-1608.800546,-2146.597232,9622.677246
2676.801484,-2374.896044,-2368.659014,10214.842000
2676.801813,-3830.477490,-1998.556043,11103.089130
2676.802142,-3600.648841,-4145.153275,11843.295072
2676.802471,-2681.334243,-2368.659014,9992.780217
2676.802800,-1915.238745,-1776.494261,9474.636058
2676.803130,-1378.971896,-1850.514855,9696.697840
2676.803459,689.485948,-1332.370696,9474.636058
2676.803788,1915.238745,-0.000000,8438.347739
2676.804117,2298.286494,666.185348,6735.874072
2676.804446,2068.457845,1480.411884,7624.121203
2676.804775,2834.553343,1036.288319,8142.265362
2676.805104,3753.867940,2220.617826,6809.894666
2676.805433,2451.505594,2368.659014,6439.791695
2676.805762,689.485948,444.123565,8956.491898
2676.806091,-229.828649,-740.205942,9696.697840
2676.806420,-842.705048,-2442.679609,10807.006753
2676.806749,-2451.505594,-1258.350101,9844.739029
2676.807078,-2911.162892,-1850.514855,10436.903782
2676.807407,-2681.334243,-2368.659014,10955.047942
2676.807736,-1149.143247,-1110.308913,9992.780217
2676.808065,-689.485948,-0.000000,9400.615463
2676.808395,229.828649,-296.082377,9178.553681
2676.808724,1608.800546,666.185348,9178.553681
2676.809053,3064.381992,1184.329507,8438.347739
2676.809382,3064.381992,1332.370696,7402.059420
2676.809711,2068.457845,370.102971,7328.038826
2676.810040,2681.334243,1110.308913,8216.285956
2676.810369,3447.429741,2590.720797,8142.265362
2676.810698,2604.724693,1776.494261,7105.977043
2676.811027,1532.190996,2664.741391,7624.121203
2676.811356,1838.629195,2294.638420,9030.512492
2676.811685,229.828649,-148.041188,9474.636058
2676.812014,-1378.971896,-1406.391290,9400.615463
2676.812343,-2987.772442,-2516.700203,10955.047942
2676.812672,-2374.896044,-4367.215058,12731.542202
2676.813001,-2911.162892,-3182.885551,10288.862594
2676.813330,-2451.505594,-3108.864956,9844.739029
2676.813660,-2451.505594,-1036.288319,10288.862594
2676.813989,0.000000,-518.144159,10362.883188
2676.814318,2221.676944,370.102971,8068.244768
2676.814647,1991.848295,1924.535449,7920.203579
2676.814976,2145.067394,1554.432478,8216.285956
2676.815305,2681.334243,1110.308913,8142.265362
2676.815634,3064.381992,1332.370696,7328.038826
2676.815963,2298.286494,296.082377,7624.121203
2676.816292,995.924147,-74.020594,8512.368333
2676.816621,383.047749,-518.144159,9326.594869
2676.816950,76.609550,-1110.308913,9622.677246
2676.817279,-2374.896044,-962.267725,8882.471304
2676.817608,-3217.601092,-888.247130,10362.883188
2676.817937,-2757.943793,-2220.617826,10881.027347
2676.818266,-2374.896044,-1184.329507,9474.636058
2676.818595,-2681.334243,-1628.453072,9474.636058
2676.818924,-2145.067394,-2442.679609,11029.068536
2676.819254,229.828649,-2368.659014,11251.130318
2676.819583,1685.410096,-370.102971,8290.306550
2676.819912,2681.334243,814.226536,7031.956449
2676.820241,2298.286494,1554.432478,8068.244768
2676.820570,2911.162892,1184.329507,8882.471304
2676.820899,3830.477490,2442.679609,7254.018232
2676.821228,3064.381992,3034.844362,5773.606348
2676.821557,1532.190996,1554.432478,7846.182985
2676.821886,1532.190996,1258.350101,8068.244768
2676.822215,2604.724693,1776.494261,7550.100608
2676.822544,612.876398,-222.061783,7920.203579
2676.822873,-1608.800546,-2294.638420,10214.842000
2676.823202,-1532.190996,-2146.597232,10436.903782
2676.823531,-1685.410096,-3034.844362,11251.130318
2676.823860,-2528.115143,-2516.700203,10066.800811
2676.824189,-2451.505594,-1850.514855,11251.130318
2676.824519,-689.485948,-1184.329507,10955.047942
2676.824848,306.438199,1554.432478,9178.553681
2676.825177,1532.190996,1850.514855,7624.121203
2676.825506,2221.676944,1332.370696,8808.450710
2676.825835,4060.306139,666.185348,8808.450710
2676.826164,3677.258390,1258.350101,7105.977043
2676.826493,2911.162892,1258.350101,7105.977043
2676.826822,1149.143247,666.185348,8586.388927
2676.827151,2221.676944,888.247130,8290.306550
2676.827480,1838.629195,592.164754,8216.285956
2676.827809,-536.266849,-1184.329507,8586.388927
2676.828138,-2451.505594,-1332.370696,9622.677246
2676.828467,-2757.943793,-3404.947333,11843.295072
2676.828796,-2987.772442,-3552.988522,11325.150913
2676.829125,-3600.648841,-2146.597232,11251.130318
2676.829454,-3064.381992,-3034.844362,11177.109724
2676.829784,-1991.848295,-1036.288319,10510.924376
2676.830113,536.266849,-0.000000,9770.718434
2676.830442,1149.143247,592.164754,8068.244768
2676.830771,2451.505594,-0.000000,7920.203579
2676.831100,3217.601092,1110.308913,8068.244768
2676.831429,3370.820191,1554.432478,7698.141797
2676.831758,2604.724693,2072.576638,7254.018232
2676.832087,1762.019645,1184.329507,6957.935855
2676.832416,2374.896044,1776.494261,7994.224174
2676.832745,1915.238745,740.205942,7920.203579
2676.833074,-229.828649,-1184.329507,9696.697840
2676.833403,-2068.457845,-1110.308913,10066.800811
2676.833732,-1685.410096,-1924.535449,11251.130318
2676.834061,-1991.848295,-2516.700203,10881.027347
2676.834390,-2298.286494,-518.144159,10214.842000
2676.834719,-1532.190996,-962.267725,10362.883188
2676.835049,-1072.533697,370.102971,9474.636058
2676.835378,1225.752797,1332.370696,9400.615463
2676.835707,1762.019645,740.205942,7994.224174
2676.836036,2145.067394,1924.535449,7328.038826
2676.836365,2757.943793,1036.288319,8438.347739
2676.836694,3064.381992,1554.432478,7031.956449
2676.837023,2451.505594,1628.453072,7550.100608
2676.837352,1608.800546,1036.288319,7328.038826
2676.837681,1915.238745,888.247130,8586.388927
2676.838010,536.266849,666.185348,9252.574275
2676.838339,-306.438199,-888.247130,9400.615463
2676.838668,-2221.676944,-370.102971,9770.718434
2676.838997,-2068.457845,-2738.761985,11473.192101
2676.839326,-2221.676944,-1998.556043,10510.924376
2676.839655,-2374.896044,-1776.494261,10288.862594
2676.839984,-2068.457845,-1702.473667,10214.842000
2676.840314,-459.657299,-1776.494261,9992.780217
2676.840643,1225.752797,-296.082377,8438.347739
2676.840972,766.095498,-296.082377,7920.203579
2676.841301,1149.143247,444.123565,8216.285956
2676.841630,2221.676944,-296.082377,8512.368333
2676.841959,2834.553343,-0.000000,7402.059420
2676.842288,1608.800546,444.123565,7179.997637
2676.842617,689.485948,-0.000000,9030.512492
2676.842946,536.266849,-1184.329507,9252.574275
2676.843275,459.657299,-592.164754,9474.636058
2676.843604,-842.705048,-0.000000,9326.594869
2676.843933,-1838.629195,-592.164754,10140.821405
2676.844262,-1455.581446,-1554.432478,10955.047942
2676.844591,-536.266849,-814.226536,9548.656652
2676.844920,-995.924147,-592.164754,9104.533087
2676.845249,-383.047749,-592.164754,9844.739029
2676.845579,76.609550,-740.205942,9474.636058
2676.845908,1608.800546,296.082377,8586.388927
2676.846237,1455.581446,1332.370696,7772.162391
2676.846566,1378.971896,666.185348,8068.244768
2676.846895,2221.676944,222.061783,9030.512492
2676.847224,2911.162892,1184.329507,8808.450710
2676.847553,1991.848295,740.205942,7846.182985
2676.847882,229.828649,1110.308913,8660.409521
2676.848211,536.266849,370.102971,9474.636058
2676.848540,612.876398,222.061783,9770.718434
2676.848869,-229.828649,740.205942,8586.388927
2676.849198,-689.485948,-666.185348,9104.533087
2676.849527,76.609550,-222.061783,9770.718434
2676.849857,689.485948,148.041188,9474.636058
2676.850186,766.095498,-370.102971,8142.265362
2676.850515,76.609550,-74.020594,8956.491898
2676.850844,842.705048,-0.000000,9400.615463
2676.851173,1378.971896,-0.000000,8364.327145
2676.851502,536.266849,666.185348,7920.203579
2676.851831,0.000000,-148.041188,9178.553681
2676.852160,1149.143247,-740.205942,9474.636058
2676.852489,1149.143247,-962.267725,8882.471304
2676.852818,0.000000,-740.205942,9104.533087
2676.853148,-995.924147,-296.082377,9474.636058
2676.853477,-536.266849,-518.144159,10066.800811
2676.853806,-459.657299,-444.123565,9474.636058
2676.854135,-229.828649,-148.041188,9326.594869
2676.854464,-995.924147,-962.267725,9696.697840
2676.854793,0.000000,-1702.473667,9992.780217
2676.855122,306.438199,-444.123565,8808.450710
2676.855451,306.438199,-1258.350101,8808.450710
2676.855780,-229.828649,-0.000000,8512.368333
2676.856109,306.438199,-888.247130,10140.821405
2676.856439,612.876398,148.041188,8290.306550
2676.856768,-306.438199,-0.000000,8142.265362
2676.857097,-383.047749,-518.144159,9548.656652
2676.857426,0.000000,-1776.494261,9844.739029
2676.857755,306.438199,-962.267725,9030.512492
2676.858084,-612.876398,-370.102971,8438.347739
2676.858413,-766.095498,-0.000000,9400.615463
2676.858742,-842.705048,-370.102971,10362.883188
2676.859071,536.266849,-0.000000,9104.533087
2676.859400,612.876398,1184.329507,8142.265362
2676.859729,383.047749,1184.329507,8364.327145
2676.860059,1302.362347,444.123565,9178.553681
2676.860388,1991.848295,222.061783,9104.533087
2676.860717,1455.581446,592.164754,7624.121203
2676.861046,1532.190996,148.041188,8882.471304
2676.861375,1685.410096,444.123565,9474.636058
2676.861704,2221.676944,1110.308913,7920.203579
2676.862033,1455.581446,1480.411884,7624.121203
2676.862362,306.438199,962.267725,8734.430116
2676.862691,612.876398,-740.205942,9696.697840
2676.863020,689.485948,-370.102971,9178.553681
2676.863350,-306.438199,-0.000000,8660.409521
2676.863679,-919.314598,-0.000000,9696.697840
2676.864008,-383.047749,-296.082377,9918.759623
2676.864337,0.000000,-222.061783,9326.594869
2676.864666,0.000000,592.164754,9104.533087
2676.864995,0.000000,-0.000000,9178.553681
2676.865324,306.438199,-888.247130,9474.636058
2676.865653,1838.629195,-222.061783,8734.430116
2676.865982,1378.971896,222.061783,9178.553681
2676.866311,612.876398,-518.144159,9548.656652
2676.866641,689.485948,-740.205942,9178.553681
2676.866970,1608.800546,444.123565,8586.388927
2676.867299,689.485948,814.226536,7920.203579
2676.867628,0.000000,-0.000000,8956.491898
2676.867957,306.438199,-1480.411884,9326.594869
2676.868286,0.000000,-1776.494261,9844.739029
2676.868615,-536.266849,-1702.473667,9178.553681
2676.868944,-1915.238745,-1776.494261,9622.677246
2676.869273,-1302.362347,-2294.638420,10807.006753
2676.869602,-612.876398,-962.267725,9252.574275
2676.869931,-689.485948,-222.061783,8882.471304
2676.870261,-459.657299,148.041188,9474.636058
2676.870590,306.438199,-370.102971,9548.656652
2676.870919,1685.410096,-0.000000,8364.327145
2676.871248,1455.581446,740.205942,8068.244768
2676.871577,1302.362347,-0.000000,8882.471304
2676.871906,1685.410096,592.164754,8956.491898
2676.872235,1762.019645,1184.329507,8364.327145
2676.872564,1838.629195,1110.308913,7328.038826
2676.872893,383.047749,740.205942,8882.471304
2676.873222,689.485948,-518.144159,9844.739029
2676.873552,766.095498,-222.061783,8438.347739
2676.873881,-612.876398,-0.000000,8586.388927
2676.874210,-1685.410096,-518.144159,9548.656652
2676.874539,-995.924147,-1110.308913,10510.924376
2676.874868,-383.047749,-74.020594,9474.636058
2676.875197,-766.095498,-444.123565,8734.430116
2676.875526,-536.266849,-222.061783,9252.574275
2676.875855,0.000000,-148.041188,9474.636058
2676.876184,1608.800546,-222.061783,8808.450710
2676.876513,1455.581446,814.226536,8142.265362
2676.876842,1225.752797,666.185348,8808.450710
2676.877172,2068.457845,740.205942,8734.430116
2676.877501,2068.457845,1480.411884,8290.306550
2676.877830,1225.752797,814.226536,7846.182985
2676.878159,612.876398,-148.041188,8734.430116
2676.878488,689.485948,-1332.370696,9474.636058
2676.878817,-229.828649,-2516.700203,9474.636058
2676.879146,-1608.800546,-1776.494261,9474.636058
2676.879475,-2374.896044,-2368.659014,10140.821405
2676.879804,-2221.676944,-2960.823768,10584.944971
2676.880133,-1608.800546,-1036.288319,9548.656652
2676.880463,-1762.019645,-518.144159,8882.471304
2676.880792,-2298.286494,-888.247130,9326.594869
2676.881121,-306.438199,-1628.453072,10436.903782
2676.881450,1225.752797,-1554.432478,8956.491898
2676.881779,995.924147,-962.267725,7846.182985
2676.882108,0.000000,-296.082377,8882.471304
2676.882437,2068.457845,-74.020594,9252.574275
2676.882766,2681.334243,1628.453072,7402.059420
2676.883095,2068.457845,1702.473667,7179.997637
2676.883424,1149.143247,1850.514855,8216.285956
2676.883754,1455.581446,1110.308913,8216.285956
2676.884083,1302.362347,-0.000000,8660.409521
2676.884412,-689.485948,-666.185348,8882.471304
2676.884741,-2068.457845,-1184.329507,9696.697840
2676.885070,-1762.019645,-2368.659014,11251.130318
2676.885399,-1762.019645,-1998.556043,10214.842000
2676.885728,-2374.896044,-370.102971,9918.759623
2676.886057,-1302.362347,-1110.308913,10066.800811
2676.886386,-459.657299,-740.205942,9918.759623
2676.886715,1455.581446,-0.000000,8882.471304
2676.887044,2604.724693,962.267725,7994.224174
2676.887374,2145.067394,1110.308913,8290.306550
2676.887703,2987.772442,1776.494261,9474.636058
2676.888032,3600.648841,1480.411884,8068.244768
2676.888361,2834.553343,2294.638420,7698.141797
2676.888690,2374.896044,2146.597232,8290.306550
2676.889019,2604.724693,2146.597232,8290.306550
2676.889348,2911.162892,1850.514855,7920.203579
2676.889677,1915.238745,2072.576638,6735.874072
2676.890006,842.705048,592.164754,8734.430116
2676.890335,-536.266849,-1998.556043,11547.212695
2676.890665,-1915.238745,-1702.473667,9918.759623
2676.890994,-3217.601092,-2294.638420,10362.883188
2676.891323,-4366.744339,-3478.967927,11621.233289
2676.891652,-3524.039291,-2516.700203,11621.233289
2676.891981,-1532.190996,-2294.638420,10658.965565
2676.892310,-1685.410096,-1406.391290,9326.594869
2676.892639,306.438199,-962.267725,9696.697840
2676.892968,1991.848295,-0.000000,9178.553681
2676.893297,3830.477490,1184.329507,7550.100608
2676.893626,2757.943793,888.247130,6883.915261
2676.893956,1685.410096,666.185348,7254.018232
2676.894285,2298.286494,1702.473667,7624.121203
2676.894614,2987.772442,1480.411884,7031.956449
2676.894943,1149.143247,1628.453072,7105.977043
2676.895272,0.000000,962.267725,8216.285956
2676.895601,-1455.581446,-1628.453072,10140.821405
2676.895930,-2681.334243,-2812.782580,10288.862594
2676.896259,-3753.867940,-1406.391290,9918.759623
2676.896588,-3907.087040,-4515.256246,12435.459826
2676.896917,-4903.011187,-3404.947333,11843.295072
2676.897246,-2604.724693,-2516.700203,9696.697840
2676.897576,-2451.505594,-1924.535449,9844.739029
2676.897905,-229.828649,-1184.329507,10881.027347
2676.898234,2834.553343,444.123565,8882.471304
2676.898563,5056.230287,1998.556043,8586.388927
2676.898892,2911.162892,2294.638420,7031.956449
2676.899221,3294.210641,1850.514855,8512.368333
2676.899550,3524.039291,3108.864956,7624.121203
2676.899879,3983.696590,2442.679609,7846.182985
2676.900208,2604.724693,2960.823768,6587.832884
2676.900537,1455.581446,3404.947333,7624.121203
2676.900867,1149.143247,2146.597232,8142.265362
2676.901196,1762.019645,2072.576638,7105.977043
2676.901525,0.000000,-1110.308913,9104.533087
2676.901854,-1915.238745,-4737.318029,11843.295072
2676.902183,-2528.115143,-1998.556043,10658.965565
2676.902512,-2834.553343,-4145.153275,11769.274478
2676.902841,-3830.477490,-4885.359217,11251.130318
2676.903170,-2451.505594,-1332.370696,12361.439231
2676.903499,612.876398,-1036.288319,9770.718434
2676.903828,1302.362347,1110.308913,8216.285956
2676.904157,2757.943793,1628.453072,7402.059420
2676.904487,3600.648841,2072.576638,8216.285956
2676.904816,3140.991542,1850.514855,7698.141797
2676.905145,3600.648841,2886.803174,5477.523971
2676.905474,2298.286494,592.164754,7105.977043
2676.905803,919.314598,666.185348,8438.347739
2676.906132,1608.800546,1776.494261,7254.018232
2676.906461,2145.067394,-814.226536,8290.306550
2676.906790,-2757.943793,-3256.906145,9474.636058
2676.907119,-2604.724693,-4441.235652,11547.212695
2676.907448,-3217.601092,-2886.803174,11325.150913
2676.907778,-3217.601092,-6439.791695,12287.418637
2676.908107,-5362.668486,-2886.803174,8956.491898
2676.908436,-2298.286494,-3404.947333,13323.706956
2676.908765,-1072.533697,-1332.370696,11325.150913
2676.909094,2298.286494,1480.411884,8290.306550
2676.909423,3907.087040,1628.453072,7328.038826
2676.909752,3217.601092,962.267725,8142.265362
2676.910081,3370.820191,1406.391290,9104.533087
2676.910410,2757.943793,2294.638420,5477.523971
2676.910739,2298.286494,2960.823768,7994.224174
2676.911069,1915.238745,1406.391290,7846.182985
2676.911398,1838.629195,2368.659014,7105.977043
2676.911727,1762.019645,1110.308913,7920.203579
2676.912056,-1225.752797,-2072.576638,8364.327145
2676.912385,-1762.019645,-3775.050304,11843.295072
2676.912714,-1991.848295,-1924.535449,10288.862594
2676.913043,-1608.800546,-4145.153275,11177.109724
2676.913372,-3600.648841,-592.164754,9696.697840
2676.913701,-1302.362347,-518.144159,12065.356855
2676.914030,153.219100,148.041188,10288.862594
2676.914359,1838.629195,3404.947333,8364.327145
2676.914689,3753.867940,1850.514855,7476.080014
2676.915018,3447.429741,1406.391290,9030.512492
2676.915347,3370.820191,666.185348,9030.512492
2676.915676,2604.724693,1554.432478,6439.791695
2676.916005,1378.971896,2072.576638,6735.874072
2676.916334,1072.533697,1924.535449,8956.491898
2676.916663,1685.410096,2442.679609,7031.956449
2676.916992,2221.676944,666.185348,7846.182985
2676.917321,-1762.019645,-1776.494261,9474.636058
2676.917650,-2681.334243,-4293.194464,11473.192101
2676.917980,-3294.210641,-3108.864956,11473.192101
2676.918309,-2834.553343,-5033.400406,11473.192101
2676.918638,-4060.306139,-2368.659014,9770.718434
2676.918967,-1991.848295,-2368.659014,12731.542202
2676.919296,76.609550,-370.102971,9918.759623
2676.919625,1608.800546,1480.411884,8438.347739
2676.919954,2298.286494,962.267725,7328.038826
2676.920283,3600.648841,1702.473667,8142.265362
2676.920612,3447.429741,296.082377,8660.409521
2676.920941,3294.210641,1480.411884,6143.709319
2676.921271,1915.238745,592.164754,7328.038826
2676.921600,1302.362347,1258.350101,7920.203579
2676.921929,1225.752797,296.082377,7031.956449
2676.922258,153.219100,-740.205942,9178.553681
2676.922587,-2604.724693,-2664.741391,10436.903782
2676.922916,-3830.477490,-1184.329507,10362.883188
2676.923245,-3140.991542,-3404.947333,11325.150913
2676.923574,-3447.429741,-2294.638420,9696.697840
2676.923903,-3064.381992,-370.102971,11251.130318
2676.924232,-1685.410096,-2220.617826,10584.944971
2676.924561,0.000000,222.061783,10140.821405
2676.924891,2298.286494,814.226536,8438.347739
2676.925220,3524.039291,1110.308913,7698.141797
2676.925549,2911.162892,1480.411884,8660.409521
2676.925878,3447.429741,1332.370696,8512.368333
2676.926207,2911.162892,3701.029710,6365.771101
2676.926536,2451.505594,3330.926739,7698.141797
2676.926865,1302.362347,3330.926739,7179.997637
2676.927194,1455.581446,2886.803174,8290.306550
2676.927523,536.266849,2146.597232,6661.853478
2676.927852,1455.581446,1850.514855,7105.977043
2676.928182,0.000000,-1628.453072,10214.842000
2676.928511,-2145.067394,-4737.318029,11695.253884
2676.928840,-2911.162892,-1332.370696,9474.636058
2676.929169,-2681.334243,-2590.720797,11325.150913
2676.929498,-3677.258390,-3478.967927,11843.295072
2676.929827,-1762.019645,-888.247130,11029.068536
2676.930156,1149.143247,-888.247130,9326.594869
2676.930485,842.705048,1110.308913,8586.388927
2676.930814,2528.115143,1036.288319,8512.368333
2676.931143,4826.401637,1036.288319,8364.327145
2676.931472,3600.648841,2146.597232,7402.059420
2676.931802,1991.848295,1998.556043,7550.100608
2676.932131,1302.362347,962.267725,7402.059420
2676.932460,1302.362347,1332.370696,8808.450710
2676.932789,1455.581446,1332.370696,8068.244768
2676.933118,-1225.752797,-518.144159,9696.697840
2676.933447,-3370.820191,-3330.926739,10732.986159
2676.933776,-3447.429741,-3330.926739,11843.295072
2676.934105,-2604.724693,-5181.441594,11325.150913
2676.934434,-4519.963438,-2220.617826,9844.739029
2676.934763,-3140.991542,-2664.741391,12065.356855
2676.935093,-1608.800546,-2146.597232,10955.047942
2676.935422,919.314598,-74.020594,9992.780217
2676.935751,2757.943793,888.247130,7772.162391
2676.936080,3907.087040,1332.370696,8290.306550
2676.936409,3370.820191,814.226536,8660.409521
2676.936738,4673.182538,1776.494261,6587.832884
2676.937067,2451.505594,2960.823768,7328.038826
2676.937396,1685.410096,2220.617826,7476.080014
2676.937725,1532.190996,2294.638420,7550.100608
2676.938054,1915.238745,2664.741391,7698.141797
2676.938384,995.924147,740.205942,6439.791695
2676.938713,-536.266849,-1258.350101,9770.718434
2676.939042,-1455.581446,-4589.276840,11399.171507
2676.939371,-1685.410096,-3701.029710,10140.821405
2676.939700,-2911.162892,-3182.885551,10807.006753
2676.940029,-2681.334243,-3330.926739,11029.068536
2676.940358,-1072.533697,-888.247130,11473.192101
2676.940687,1532.190996,370.102971,8216.285956
2676.941016,1302.362347,1480.411884,7476.080014
2676.941345,2987.772442,1406.391290,9030.512492
2676.941674,4060.306139,444.123565,8512.368333
2676.942004,4136.915689,1554.432478,7254.018232
2676.942333,2145.067394,2368.659014,7476.080014
2676.942662,995.924147,1110.308913,7698.141797
2676.942991,1762.019645,1184.329507,7846.182985
2676.943320,2528.115143,1776.494261,7254.018232
2676.943649,919.314598,1332.370696,8068.244768
2676.943978,0.000000,-1258.350101,8956.491898
2676.944307,-1991.848295,-3923.091493,11325.150913
2676.944636,-1915.238745,-3182.885551,9844.739029
2676.944965,-3140.991542,-2664.741391,10362.883188
2676.945295,-3907.087040,-3478.967927,11991.336260
2676.945624,-2528.115143,-1406.391290,11547.212695
2676.945953,-229.828649,-370.102971,9622.677246
2676.946282,-766.095498,962.267725,8882.471304
2676.946611,1302.362347,-0.000000,9474.636058
2676.946940,3524.039291,-0.000000,9178.553681
2676.947269,3753.867940,2220.617826,6513.812290
2676.947598,2145.067394,1850.514855,7328.038826
2676.947927,842.705048,1924.535449,8438.347739
2676.948256,1762.019645,1554.432478,8290.306550
2676.948585,1762.019645,-0.000000,7846.182985
2676.948915,-1072.533697,-888.247130,8956.491898
2676.949244,-2145.067394,-1924.535449,9992.780217
2676.949573,-2528.115143,-3034.844362,11103.089130
2676.949902,-2068.457845,-3256.906145,10658.965565
2676.950231,-2911.162892,-1110.308913,9992.780217
2676.950560,-2068.457845,-1480.411884,10510.924376
2676.950889,-995.924147,-518.144159,9844.739029
2676.951218,1225.752797,740.205942,8660.409521
2676.951547,1762.019645,962.267725,8142.265362
2676.951876,2374.896044,1554.432478,8660.409521
2676.952205,3294.210641,370.102971,9030.512492
2676.952535,3217.601092,592.164754,7624.121203
2676.952864,3447.429741,962.267725,7624.121203
2676.953193,1302.362347,1480.411884,8142.265362
2676.953522,1838.629195,2294.638420,8512.368333
2676.953851,1225.752797,1850.514855,7920.203579
2676.954180,-459.657299,-592.164754,9326.594869
2676.954509,-1225.752797,-814.226536,9696.697840
2676.954838,-1915.238745,-1332.370696,10881.027347
2676.955167,-1838.629195,-2368.659014,10288.862594
2676.955496,-2451.505594,-814.226536,8734.430116
2676.955825,-1378.971896,-888.247130,10658.965565
2676.956154,-306.438199,-74.020594,9548.656652
2676.956484,459.657299,888.247130,8438.347739
2676.956813,689.485948,1110.308913,8586.388927
2676.957142,1685.410096,1258.350101,9030.512492
2676.957471,2068.457845,1110.308913,8808.450710
2676.957800,2451.505594,444.123565,7476.080014
2676.958129,1455.581446,1110.308913,7994.224174
2676.958458,0.000000,740.205942,9178.553681
2676.958787,536.266849,-74.020594,9622.677246
2676.959116,76.609550,-0.000000,8438.347739
2676.959445,-995.924147,-666.185348,8586.388927
2676.959774,-1225.752797,-740.205942,9474.636058
2676.960104,-1532.190996,-1628.453072,10881.027347
2676.960433,-1302.362347,-1406.391290,8882.471304
2676.960762,-1225.752797,-1036.288319,9104.533087
2676.961091,-1302.362347,-1406.391290,9770.718434
2676.961420,0.000000,-1776.494261,9326.594869
2676.961749,689.485948,-148.041188,9178.553681
2676.962078,536.266849,-740.205942,8216.285956
2676.962407,1149.143247,518.144159,9474.636058
2676.962736,2068.457845,-888.247130,9474.636058
2676.963065,2451.505594,-222.061783,8142.265362
2676.963394,1762.019645,888.247130,8512.368333
2676.963724,1378.971896,370.102971,8882.471304
2676.964053,919.314598,-518.144159,9474.636058
2676.964382,1072.533697,-444.123565,8586.388927
2676.964711,0.000000,-222.061783,8882.471304
2676.965040,-383.047749,-148.041188,9548.656652
2676.965369,0.000000,-370.102971,9474.636058
2676.965698,459.657299,-962.267725,8734.430116
2676.966027,-229.828649,444.123565,8290.306550
2676.966356,306.438199,-1036.288319,9622.677246
2676.966685,689.485948,-1110.308913,8734.430116
2676.967014,1302.362347,-74.020594,8734.430116
2676.967343,766.095498,962.267725,8438.347739
2676.967673,1072.533697,370.102971,8586.388927
2676.968002,1302.362347,888.247130,9474.636058
2676.968331,2145.067394,-74.020594,8734.430116
2676.968660,1225.752797,888.247130,8068.244768
2676.968989,229.828649,-0.000000,9252.574275
2676.969318,383.047749,-1110.308913,9918.759623
2676.969647,383.047749,-222.061783,8956.491898
2676.969976,-459.657299,-592.164754,9030.512492
2676.970305,-612.876398,-518.144159,9548.656652
2676.970634,-229.828649,-962.267725,9474.636058
2676.970963,0.000000,-814.226536,8956.491898
2676.971293,-306.438199,-222.061783,8216.285956
2676.971622,-766.095498,-370.102971,8808.450710
2676.971951,-383.047749,-1406.391290,9548.656652
2676.972280,383.047749,-518.144159,8808.450710
2676.972609,0.000000,-666.185348,9326.594869
2676.972938,0.000000,-592.164754,8808.450710
2676.973267,536.266849,-1184.329507,9474.636058
2676.973596,1302.362347,-0.000000,9696.697840
2676.973925,689.485948,-222.061783,8364.327145
2676.974254,153.219100,518.144159,9622.677246
2676.974583,536.266849,-148.041188,9918.759623
2676.974913,689.485948,-0.000000,9178.553681
2676.975242,-306.438199,666.185348,8882.471304
2676.975571,0.000000,-296.082377,8808.450710
2676.975900,383.047749,-666.185348,9474.636058
2676.976229,766.095498,-518.144159,8734.430116
2676.976558,383.047749,-1554.432478,8734.430116
2676.976887,-689.485948,-1036.288319,9844.739029
2676.977216,459.657299,-888.247130,9252.574275
2676.977545,919.314598,444.123565,8512.368333
2676.977874,0.000000,1110.308913,8438.347739
2676.978203,76.609550,1036.288319,9474.636058
2676.978533,842.705048,444.123565,9326.594869
2676.978862,919.314598,1184.329507,9030.512492
2676.979191,995.924147,666.185348,9030.512492
2676.979520,306.438199,-296.082377,9474.636058
2676.979849,689.485948,-666.185348,10140.821405
2676.980178,842.705048,518.144159,8290.306550
2676.980507,0.000000,592.164754,8290.306550
