#time,accel_x,accel_y,accel_z
2570.712729,383.047749,-592.164754,9326.594869
2570.713058,76.609550,-0.000000,9474.636058
2570.713387,383.047749,-74.020594,9400.615463
2570.713716,153.219100,-222.061783,9326.594869
2570.714045,76.609550,-444.123565,9252.574275
2570.714374,459.657299,-444.123565,9326.594869
2570.714703,306.438199,-222.061783,9400.615463
2570.715032,383.047749,370.102971,9252.574275
2570.715361,0.000000,-0.000000,9326.594869
2570.715690,536.266849,-0.000000,9104.533087
2570.716019,689.485948,-222.061783,9030.512492
2570.716348,689.485948,-148.041188,8956.491898
2570.716677,536.266849,-74.020594,9178.553681
2570.717006,612.876398,-296.082377,9326.594869
2570.717335,383.047749,-444.123565,9400.615463
2570.717664,229.828649,-222.061783,9178.553681
2570.717993,153.219100,-222.061783,9030.512492
2570.718322,229.828649,-74.020594,8956.491898
2570.718651,383.047749,-0.000000,8734.430116
2570.718980,306.438199,-222.061783,8882.471304
2570.719308,153.219100,-296.082377,9104.533087
2570.719637,459.657299,-0.000000,8956.491898
2570.719966,459.657299,296.082377,8882.471304
2570.720295,153.219100,-0.000000,8808.450710
2570.720624,383.047749,-0.000000,9104.533087
2570.720953,153.219100,-148.041188,8808.450710
2570.721282,229.828649,-0.000000,9178.553681
2570.721611,153.219100,-444.123565,9178.553681
2570.721940,76.609550,74.020594,9030.512492
2570.722269,0.000000,-296.082377,9326.594869
2570.722598,306.438199,-148.041188,9104.533087
2570.722927,383.047749,-0.000000,9326.594869
2570.723256,306.438199,-222.061783,9030.512492
2570.723585,612.876398,-222.061783,9326.594869
2570.723914,919.314598,-296.082377,9474.636058
2570.724243,383.047749,-666.185348,9178.553681
2570.724572,306.438199,-444.123565,9326.594869
2570.724901,153.219100,-222.061783,9178.553681
2570.725230,306.438199,-148.041188,9252.574275
2570.725559,306.438199,-222.061783,9178.553681
2570.725888,306.438199,-222.061783,9326.594869
2570.726217,306.438199,-222.061783,9326.594869
2570.726546,612.876398,-222.061783,9400.615463
2570.726875,842.705048,-444.123565,9252.574275
2570.727204,383.047749,-0.000000,9030.512492
2570.727533,383.047749,-74.020594,9252.574275
2570.727861,383.047749,-74.020594,8882.471304
2570.728190,383.047749,-0.000000,8808.450710
2570.728519,229.828649,-148.041188,9178.553681
2570.728848,306.438199,-370.102971,9326.594869
2570.729177,76.609550,-148.041188,9252.574275
2570.729506,0.000000,-0.000000,9104.533087
2570.729835,153.219100,-148.041188,8956.491898
2570.730164,229.828649,-0.000000,8956.491898
2570.730493,689.485948,-74.020594,8438.347739
2570.730822,459.657299,-0.000000,8956.491898
2570.731151,383.047749,-370.102971,8956.491898
2570.731480,306.438199,-74.020594,8956.491898
2570.731809,459.657299,-0.000000,8956.491898
2570.732138,383.047749,-74.020594,8956.491898
2570.732467,153.219100,-74.020594,9030.512492
2570.732796,306.438199,-370.102971,9104.533087
2570.733125,0.000000,-444.123565,9252.574275
2570.733454,383.047749,-222.061783,9326.594869
2570.733783,153.219100,-0.000000,9104.533087
2570.734112,383.047749,-222.061783,9104.533087
2570.734441,229.828649,-222.061783,9104.533087
2570.734770,306.438199,-296.082377,8956.491898
2570.735099,536.266849,-296.082377,9474.636058
2570.735428,306.438199,-74.020594,9030.512492
2570.735757,229.828649,-370.102971,9252.574275
2570.736086,766.095498,-518.144159,9178.553681
2570.736414,153.219100,-296.082377,9104.533087
2570.736743,459.657299,-148.041188,9400.615463
2570.737072,153.219100,-222.061783,9400.615463
2570.737401,153.219100,-74.020594,9178.553681
2570.737730,153.219100,-0.000000,9178.553681
2570.738059,306.438199,-74.020594,9178.553681
2570.738388,306.438199,-74.020594,8734.430116
2570.738717,0.000000,-74.020594,9400.615463
2570.739046,0.000000,-74.020594,9474.636058
2570.739375,306.438199,-0.000000,9030.512492
2570.739704,306.438199,-148.041188,9104.533087
2570.740033,306.438199,-148.041188,9030.512492
2570.740362,306.438199,-74.020594,9030.512492
2570.740691,919.314598,-666.185348,9400.615463
2570.741020,1302.362347,-888.247130,9474.636058
2570.741349,1378.971896,-444.123565,9474.636058
2570.741678,1991.848295,-296.082377,9178.553681
2570.742007,2221.676944,-0.000000,8660.409521
2570.742336,3217.601092,444.123565,8586.388927
2570.742665,3830.477490,-0.000000,8882.471304
2570.742994,4749.792088,-148.041188,8586.388927
2570.743323,3600.648841,518.144159,8660.409521
2570.743652,3600.648841,592.164754,8142.265362
2570.743981,2911.162892,-74.020594,8808.450710
2570.744310,2987.772442,-370.102971,9326.594869
2570.744639,1762.019645,-592.164754,9030.512492
2570.744967,1149.143247,-1184.329507,10066.800811
2570.745296,2298.286494,-2516.700203,9918.759623
2570.745625,2757.943793,-666.185348,9622.677246
2570.745954,2451.505594,-1184.329507,9844.739029
2570.746283,2757.943793,-1110.308913,9696.697840
2570.746612,3217.601092,-0.000000,9326.594869
2570.746941,4903.011187,962.267725,8956.491898
2570.747270,5439.278036,962.267725,7254.018232
2570.747599,5056.230287,1406.391290,8734.430116
2570.747928,5286.058936,1110.308913,8734.430116
2570.748257,4290.134789,814.226536,7698.141797
2570.748586,3983.696590,518.144159,9252.574275
2570.748915,2757.943793,-0.000000,8808.450710
2570.749244,2068.457845,-0.000000,9548.656652
2570.749573,766.095498,-1332.370696,10066.800811
2570.749902,1302.362347,-888.247130,9844.739029
2570.750231,1225.752797,-1628.453072,9918.759623
2570.750560,1302.362347,-1628.453072,9770.718434
2570.750889,1455.581446,-592.164754,9474.636058
2570.751218,2757.943793,-0.000000,9770.718434
2570.751547,3064.381992,222.061783,7476.080014
2570.751876,4443.353888,1184.329507,9622.677246
2570.752205,4826.401637,1332.370696,8142.265362
2570.752534,4826.401637,1258.350101,8068.244768
2570.752863,4596.572988,740.205942,8660.409521
2570.753192,4213.525239,296.082377,8660.409521
2570.753520,3677.258390,-222.061783,8956.491898
2570.753849,2834.553343,-1554.432478,9548.656652
2570.754178,2145.067394,-1258.350101,10066.800811
2570.754507,1991.848295,-2368.659014,9992.780217
2570.754836,995.924147,-1776.494261,10140.821405
2570.755165,2221.676944,-1702.473667,10362.883188
2570.755494,2604.724693,-296.082377,9548.656652
2570.755823,3600.648841,-0.000000,8808.450710
2570.756152,4136.915689,888.247130,8364.327145
2570.756481,4060.306139,1850.514855,7772.162391
2570.756810,4903.011187,2442.679609,7698.141797
2570.757139,4749.792088,2220.617826,6957.935855
2570.757468,4366.744339,2442.679609,8068.244768
2570.757797,3753.867940,1184.329507,8142.265362
2570.758126,2757.943793,-148.041188,8512.368333
2570.758455,2374.896044,-1258.350101,9622.677246
2570.758784,2145.067394,-2664.741391,10140.821405
2570.759113,1378.971896,-2812.782580,10510.924376
2570.759442,1608.800546,-3478.967927,10955.047942
2570.759771,2681.334243,-2294.638420,10658.965565
2570.760100,3753.867940,-1036.288319,10066.800811
2570.760429,4749.792088,370.102971,9400.615463
2570.760758,5975.544884,1480.411884,8734.430116
2570.761087,6052.154434,2664.741391,8290.306550
2570.761416,5362.668486,3034.844362,7550.100608
2570.761745,4903.011187,3404.947333,7179.997637
2570.762073,4673.182538,3330.926739,6957.935855
2570.762402,3217.601092,1480.411884,7698.141797
2570.762731,1225.752797,-740.205942,8734.430116
2570.763060,0.000000,-3478.967927,10584.944971
2570.763389,-995.924147,-3849.070898,10732.986159
2570.763718,-689.485948,-4885.359217,11843.295072
2570.764047,-612.876398,-2368.659014,10140.821405
2570.764376,76.609550,-1998.556043,11103.089130
2570.764705,689.485948,-666.185348,10584.944971
2570.765034,2451.505594,888.247130,10214.842000
2570.765363,5362.668486,1184.329507,9474.636058
2570.765692,7201.297681,2072.576638,8290.306550
2570.766021,5975.544884,1924.535449,7994.224174
2570.766350,5898.935335,888.247130,7772.162391
2570.766679,5669.106685,2664.741391,6735.874072
2570.767008,5592.497135,1850.514855,7624.121203
2570.767337,4903.011187,2664.741391,5921.647536
2570.767666,4826.401637,3034.844362,7179.997637
2570.767995,4213.525239,1258.350101,5921.647536
2570.768324,4749.792088,-0.000000,7550.100608
2570.768653,766.095498,-6069.688724,10362.883188
2570.768982,-612.876398,-6735.874072,11991.336260
2570.769311,-2451.505594,-2886.803174,11547.212695
2570.769640,-1838.629195,-7476.080014,13693.809927
2570.769969,-2451.505594,-1036.288319,9992.780217
2570.770298,842.705048,1036.288319,11769.274478
2570.770626,842.705048,666.185348,9622.677246
2570.770955,1991.848295,3108.864956,9992.780217
2570.771284,4903.011187,962.267725,8734.430116
2570.771613,6435.202183,3404.947333,7624.121203
2570.771942,4903.011187,2368.659014,6513.812290
2570.772271,4673.182538,1332.370696,6069.688724
2570.772600,4136.915689,2368.659014,5625.565159
2570.772929,4136.915689,1332.370696,6661.853478
2570.773258,3140.991542,-0.000000,6513.812290
2570.773587,76.609550,-1480.411884,9696.697840
2570.773916,-2374.896044,-3923.091493,10807.006753
2570.774245,-2145.067394,-4293.194464,11695.253884
2570.774574,-3217.601092,-3330.926739,9104.533087
2570.774903,-3064.381992,-1406.391290,10955.047942
2570.775232,-3600.648841,-222.061783,10140.821405
2570.775561,-2604.724693,296.082377,11251.130318
2570.775890,-995.924147,370.102971,11251.130318
2570.776219,76.609550,1480.411884,9622.677246
2570.776548,766.095498,1184.329507,8290.306550
2570.776877,0.000000,962.267725,8438.347739
2570.777206,919.314598,-1036.288319,12879.583391
2570.777535,3370.820191,1110.308913,6069.688724
2570.777864,6971.469032,2146.597232,6365.771101
2570.778193,4979.620737,370.102971,4589.276840
2570.778522,4749.792088,1184.329507,5625.565159
2570.778851,1455.581446,-74.020594,8882.471304
2570.779179,0.000000,-592.164754,7994.224174
2570.779508,-995.924147,-2072.576638,10732.986159
2570.779837,-2068.457845,-1036.288319,11843.295072
2570.780166,-2757.943793,-0.000000,9178.553681
2570.780495,-1915.238745,-1480.411884,11917.315666
2570.780824,-842.705048,-814.226536,9844.739029
2570.781153,-1149.143247,-814.226536,11177.109724
2570.781482,-842.705048,-0.000000,11695.253884
2570.781811,-995.924147,1702.473667,9326.594869
2570.782140,0.000000,-444.123565,9252.574275
2570.782469,-383.047749,222.061783,8808.450710
2570.782798,-995.924147,-962.267725,9400.615463
2570.783127,766.095498,-3182.885551,10288.862594
2570.783456,1532.190996,-740.205942,6957.935855
2570.783785,1762.019645,444.123565,7550.100608
2570.784114,536.266849,962.267725,7031.956449
2570.784443,0.000000,1110.308913,8290.306550
2570.784772,-1302.362347,-370.102971,9844.739029
2570.785101,-766.095498,370.102971,10436.903782
2570.785430,-995.924147,444.123565,9326.594869
2570.785759,-689.485948,-592.164754,9474.636058
2570.786088,-1532.190996,-518.144159,9992.780217
2570.786417,-1455.581446,-0.000000,10362.883188
2570.786746,-383.047749,296.082377,9030.512492
2570.787075,306.438199,-74.020594,9474.636058
2570.787404,1685.410096,-296.082377,9622.677246
2570.787733,1302.362347,592.164754,8512.368333
2570.788062,1225.752797,-814.226536,7624.121203
2570.788391,229.828649,-1332.370696,7846.182985
2570.788720,1225.752797,296.082377,8068.244768
2570.789049,153.219100,-0.000000,8882.471304
2570.789378,-1072.533697,-740.205942,9104.533087
2570.789707,-153.219100,-888.247130,10214.842000
2570.790036,-229.828649,-1036.288319,9992.780217
2570.790366,0.000000,-444.123565,8808.450710
2570.790695,-229.828649,-296.082377,10436.903782
2570.791024,536.266849,-222.061783,10584.944971
2570.791353,2068.457845,1110.308913,9622.677246
2570.791682,3677.258390,1480.411884,8068.244768
2570.792011,4213.525239,888.247130,7476.080014
2570.792340,4443.353888,962.267725,7550.100608
2570.792669,3830.477490,962.267725,7994.224174
2570.792999,2374.896044,740.205942,7846.182985
2570.793328,1225.752797,-222.061783,8956.491898
2570.793657,-766.095498,-518.144159,9770.718434
2570.793986,-1762.019645,-1406.391290,11251.130318
2570.794315,-1685.410096,-1850.514855,9696.697840
2570.794644,-1149.143247,-1702.473667,9474.636058
2570.794973,-842.705048,-2368.659014,11399.171507
2570.795302,-1455.581446,-592.164754,10288.862594
2570.795631,-229.828649,666.185348,11399.171507
2570.795961,-689.485948,666.185348,9178.553681
2570.796290,229.828649,962.267725,8586.388927
2570.796619,0.000000,370.102971,10362.883188
2570.796948,766.095498,-1332.370696,10066.800811
2570.797277,2145.067394,-518.144159,8216.285956
2570.797606,3140.991542,814.226536,6957.935855
2570.797935,3677.258390,962.267725,5477.523971
2570.798264,2068.457845,1776.494261,7328.038826
2570.798594,919.314598,1258.350101,8734.430116
2570.798923,-995.924147,-222.061783,8290.306550
2570.799252,-229.828649,-1924.535449,10362.883188
2570.799581,-919.314598,-370.102971,8882.471304
2570.799910,-383.047749,-888.247130,9622.677246
2570.800239,-1532.190996,-1258.350101,10732.986159
2570.800568,-1149.143247,-0.000000,10066.800811
2570.800897,-153.219100,-370.102971,10510.924376
2570.801226,306.438199,-222.061783,9400.615463
2570.801556,0.000000,222.061783,9030.512492
2570.801885,-1149.143247,-1036.288319,10214.842000
2570.802214,-1225.752797,-888.247130,9696.697840
2570.802543,-1072.533697,-888.247130,9104.533087
2570.802872,229.828649,-74.020594,7846.182985
2570.803201,0.000000,814.226536,7698.141797
2570.803530,-612.876398,444.123565,7994.224174
2570.803859,-153.219100,-222.061783,7994.224174
2570.804189,229.828649,-1628.453072,9474.636058
2570.804518,0.000000,-1480.411884,8808.450710
2570.804847,-306.438199,-0.000000,9326.594869
2570.805176,-766.095498,-0.000000,9696.697840
2570.805505,-689.485948,222.061783,9474.636058
2570.805834,306.438199,-0.000000,9844.739029
2570.806163,459.657299,-666.185348,9696.697840
2570.806492,536.266849,-222.061783,8734.430116
2570.806821,766.095498,444.123565,8364.327145
2570.807151,766.095498,888.247130,8364.327145
2570.807480,0.000000,1184.329507,7920.203579
2570.807809,-766.095498,666.185348,9104.533087
2570.808138,-1072.533697,-962.267725,9178.553681
2570.808467,-1072.533697,-1480.411884,8660.409521
2570.808796,-306.438199,-1554.432478,9030.512492
2570.809125,153.219100,-2072.576638,8586.388927
2570.809454,-536.266849,-1628.453072,10807.006753
2570.809784,229.828649,-888.247130,11177.109724
2570.810113,383.047749,666.185348,9030.512492
2570.810442,1455.581446,-148.041188,8142.265362
2570.810771,766.095498,-0.000000,9548.656652
2570.811100,1915.238745,-444.123565,10288.862594
2570.811429,2221.676944,518.144159,8290.306550
2570.811758,2911.162892,1258.350101,7402.059420
2570.812087,2068.457845,1480.411884,7179.997637
2570.812416,1149.143247,1702.473667,7994.224174
2570.812746,0.000000,296.082377,9030.512492
2570.813075,-536.266849,-1258.350101,9178.553681
2570.813404,-612.876398,-2294.638420,9770.718434
2570.813733,-153.219100,-1776.494261,9104.533087
2570.814062,-612.876398,-2590.720797,10658.965565
2570.814391,-459.657299,-1406.391290,10362.883188
2570.814720,842.705048,-296.082377,10584.944971
2570.815049,1072.533697,444.123565,10214.842000
2570.815379,1455.581446,-0.000000,10066.800811
2570.815708,2757.943793,666.185348,8734.430116
2570.816037,3447.429741,1258.350101,8142.265362
2570.816366,3370.820191,1702.473667,7105.977043
2570.816695,2911.162892,2072.576638,7402.059420
2570.817024,1685.410096,1332.370696,8216.285956
2570.817353,153.219100,444.123565,8734.430116
2570.817682,-612.876398,-1702.473667,9548.656652
2570.818011,-612.876398,-2812.782580,9696.697840
2570.818341,-153.219100,-3256.906145,8808.450710
2570.818670,-1072.533697,-2146.597232,10436.903782
2570.818999,-1072.533697,-666.185348,9474.636058
2570.819328,536.266849,-222.061783,9844.739029
2570.819657,995.924147,-0.000000,8660.409521
2570.819986,229.828649,-0.000000,8660.409521
2570.820315,0.000000,-1258.350101,9770.718434
2570.820644,459.657299,-222.061783,9474.636058
2570.820974,1685.410096,1110.308913,7031.956449
2570.821303,1991.848295,1554.432478,7624.121203
2570.821632,766.095498,2146.597232,6957.935855
2570.821961,-306.438199,1258.350101,8438.347739
2570.822290,-1149.143247,-0.000000,8364.327145
2570.822619,-842.705048,-888.247130,8512.368333
2570.822948,-459.657299,-2590.720797,8512.368333
2570.823277,-766.095498,-1850.514855,9474.636058
2570.823607,-1455.581446,-1628.453072,9918.759623
2570.823936,-995.924147,-962.267725,9918.759623
2570.824265,76.609550,-592.164754,9992.780217
2570.824594,0.000000,-0.000000,9474.636058
2570.824923,-229.828649,-592.164754,9474.636058
2570.825252,-306.438199,-814.226536,10066.800811
2570.825581,-459.657299,-814.226536,9178.553681
2570.825910,536.266849,1480.411884,8660.409521
2570.826239,0.000000,1332.370696,8734.430116
2570.826569,-383.047749,518.144159,8586.388927
2570.826898,-689.485948,740.205942,8882.471304
2570.827227,-229.828649,-888.247130,9030.512492
2570.827556,0.000000,-1776.494261,8290.306550
2570.827885,229.828649,-1554.432478,9918.759623
2570.828214,0.000000,-1184.329507,9918.759623
2570.828543,0.000000,-0.000000,9178.553681
2570.828872,76.609550,-0.000000,9622.677246
2570.829202,1302.362347,-0.000000,9696.697840
2570.829531,1762.019645,-0.000000,9400.615463
2570.829860,1762.019645,888.247130,8660.409521
2570.830189,2068.457845,1110.308913,7994.224174
2570.830518,2298.286494,1480.411884,8142.265362
2570.830847,842.705048,1998.556043,8290.306550
2570.831176,-612.876398,1184.329507,9178.553681
2570.831505,-1149.143247,-592.164754,9474.636058
2570.831834,-919.314598,-1036.288319,9252.574275
2570.832164,-459.657299,-1480.411884,8438.347739
2570.832493,-1532.190996,-2442.679609,9918.759623
2570.832822,-153.219100,-2442.679609,10066.800811
2570.833151,306.438199,-518.144159,9548.656652
2570.833480,536.266849,-74.020594,9696.697840
2570.833809,612.876398,-0.000000,9104.533087
2570.834138,536.266849,-518.144159,10362.883188
2570.834467,1455.581446,-740.205942,10881.027347
2570.834797,2068.457845,518.144159,7994.224174
2570.835126,3370.820191,1406.391290,7550.100608
2570.835455,2757.943793,2072.576638,7031.956449
2570.835784,2145.067394,2960.823768,8068.244768
2570.836113,612.876398,740.205942,8956.491898
2570.836442,0.000000,-444.123565,8438.347739
2570.836771,229.828649,-2368.659014,10214.842000
2570.837100,-689.485948,-1850.514855,9844.739029
2570.837429,-612.876398,-2442.679609,9548.656652
2570.837759,-536.266849,-2072.576638,10140.821405
2570.838088,689.485948,-518.144159,9400.615463
2570.838417,1225.752797,-74.020594,9474.636058
2570.838746,1838.629195,-222.061783,9400.615463
2570.839075,2374.896044,518.144159,7920.203579
2570.839404,2681.334243,518.144159,8364.327145
2570.839733,2145.067394,1258.350101,7179.997637
2570.840062,1455.581446,2072.576638,7846.182985
2570.840392,229.828649,1184.329507,8734.430116
2570.840721,-383.047749,148.041188,9030.512492
2570.841050,-995.924147,-1184.329507,9770.718434
2570.841379,-842.705048,-2072.576638,9178.553681
2570.841708,-1378.971896,-2220.617826,9030.512492
2570.842037,-1302.362347,-2368.659014,10140.821405
2570.842366,-919.314598,-518.144159,9474.636058
2570.842695,0.000000,296.082377,9474.636058
2570.843024,536.266849,-0.000000,9400.615463
2570.843354,383.047749,-0.000000,8734.430116
2570.843683,689.485948,-1332.370696,10881.027347
2570.844012,842.705048,-0.000000,8142.265362
2570.844341,2528.115143,1184.329507,7624.121203
2570.844670,2145.067394,1406.391290,7179.997637
2570.844999,1302.362347,2368.659014,7254.018232
2570.845328,-153.219100,814.226536,9326.594869
2570.845657,-919.314598,-370.102971,8586.388927
2570.845987,-229.828649,-1480.411884,9770.718434
2570.846316,-1915.238745,-1850.514855,10066.800811
2570.846645,-1378.971896,-1776.494261,9400.615463
2570.846974,-1455.581446,-1776.494261,10955.047942
2570.847303,-612.876398,-666.185348,9326.594869
2570.847632,306.438199,-0.000000,9474.636058
2570.847961,0.000000,-444.123565,9400.615463
2570.848290,76.609550,-74.020594,10214.842000
2570.848619,766.095498,-370.102971,9400.615463
2570.848949,2298.286494,666.185348,7772.162391
2570.849278,766.095498,1924.535449,7846.182985
2570.849607,919.314598,1850.514855,8216.285956
2570.849936,-229.828649,814.226536,9252.574275
2570.850265,-1225.752797,-148.041188,9252.574275
2570.850594,-612.876398,-1332.370696,9400.615463
2570.850923,-306.438199,-1998.556043,8956.491898
2570.851252,-612.876398,-1036.288319,9400.615463
2570.851582,-612.876398,-962.267725,10436.903782
2570.851911,-229.828649,-148.041188,9178.553681
2570.852240,612.876398,222.061783,9030.512492
2570.852569,842.705048,-592.164754,9844.739029
2570.852898,1378.971896,370.102971,8142.265362
2570.853227,2681.334243,444.123565,8808.450710
2570.853556,2528.115143,1036.288319,7328.038826
2570.853885,2145.067394,1998.556043,7920.203579
2570.854214,1149.143247,1628.453072,8734.430116
2570.854544,-536.266849,814.226536,9030.512492
2570.854873,-919.314598,-222.061783,9918.759623
2570.855202,-1225.752797,-1554.432478,9992.780217
2570.855531,-919.314598,-1998.556043,9178.553681
2570.855860,-1302.362347,-1850.514855,10214.842000
2570.856189,-1225.752797,-1036.288319,10362.883188
2570.856518,-306.438199,-74.020594,9474.636058
2570.856847,229.828649,-0.000000,9622.677246
2570.857177,0.000000,-0.000000,9326.594869
2570.857506,1532.190996,-1332.370696,9992.780217
2570.857835,1685.410096,222.061783,7994.224174
2570.858164,2068.457845,962.267725,7179.997637
2570.858493,1532.190996,962.267725,7846.182985
2570.858822,1608.800546,2368.659014,7624.121203
2570.859151,0.000000,1036.288319,9326.594869
2570.859480,-766.095498,-148.041188,9178.553681
2570.859809,-842.705048,-1628.453072,9696.697840
2570.860139,-612.876398,-2294.638420,10140.821405
2570.860468,-459.657299,-1924.535449,9548.656652
2570.860797,-1149.143247,-1406.391290,11029.068536
2570.861126,0.000000,-370.102971,9474.636058
2570.861455,689.485948,-0.000000,9696.697840
2570.861784,1149.143247,-0.000000,10214.842000
2570.862113,1991.848295,-0.000000,8142.265362
2570.862442,2911.162892,370.102971,8142.265362
2570.862772,2834.553343,1258.350101,7105.977043
2570.863101,2681.334243,2294.638420,7105.977043
2570.863430,2298.286494,1184.329507,8216.285956
2570.863759,612.876398,444.123565,8586.388927
2570.864088,-306.438199,-666.185348,9252.574275
2570.864417,-1149.143247,-1998.556043,9622.677246
2570.864746,-1225.752797,-2442.679609,9474.636058
2570.865075,-1225.752797,-1924.535449,9918.759623
2570.865404,-842.705048,-1184.329507,10066.800811
2570.865734,383.047749,-0.000000,9326.594869
2570.866063,995.924147,444.123565,9548.656652
2570.866392,1455.581446,740.205942,9770.718434
2570.866721,2068.457845,518.144159,8068.244768
2570.867050,2834.553343,592.164754,8142.265362
2570.867379,2451.505594,1332.370696,7105.977043
2570.867708,2221.676944,1628.453072,7772.162391
2570.868037,536.266849,1480.411884,8808.450710
2570.868367,-1302.362347,962.267725,8882.471304
2570.868696,-1455.581446,-1406.391290,10288.862594
2570.869025,-1685.410096,-1406.391290,9696.697840
2570.869354,-2374.896044,-2072.576638,9770.718434
2570.869683,-1915.238745,-2886.803174,10881.027347
2570.870012,-1225.752797,-1332.370696,10658.965565
2570.870341,-842.705048,-592.164754,10140.821405
2570.870670,-306.438199,-148.041188,10066.800811
2570.870999,-383.047749,222.061783,8956.491898
2570.871329,0.000000,-370.102971,9918.759623
2570.871658,1378.971896,-962.267725,10288.862594
2570.871987,1991.848295,962.267725,6957.935855
2570.872316,3370.820191,962.267725,7624.121203
2570.872645,2068.457845,2368.659014,6587.832884
2570.872974,919.314598,1776.494261,7994.224174
2570.873303,-689.485948,592.164754,8586.388927
2570.873632,-612.876398,-740.205942,8808.450710
2570.873962,-612.876398,-2442.679609,10288.862594
2570.874291,-1532.190996,-1480.411884,8438.347739
2570.874620,-1455.581446,-1628.453072,10436.903782
2570.874949,-1149.143247,-1184.329507,9696.697840
2570.875278,536.266849,518.144159,8808.450710
2570.875607,76.609550,-0.000000,9326.594869
2570.875936,-229.828649,-0.000000,8882.471304
2570.876265,306.438199,-296.082377,9622.677246
2570.876594,612.876398,-592.164754,7550.100608
2570.876924,1455.581446,1480.411884,7550.100608
2570.877253,536.266849,1036.288319,7698.141797
2570.877582,0.000000,1036.288319,7994.224174
2570.877911,-995.924147,-148.041188,9252.574275
2570.878240,-1225.752797,-814.226536,9252.574275
2570.878569,-536.266849,-1776.494261,9030.512492
2570.878898,-229.828649,-2146.597232,8808.450710
2570.879227,-766.095498,-1998.556043,10510.924376
2570.879557,-1455.581446,-814.226536,10140.821405
2570.879886,0.000000,-518.144159,9696.697840
2570.880215,766.095498,-740.205942,10436.903782
2570.880544,1685.410096,-370.102971,9474.636058
2570.880873,1838.629195,-0.000000,7846.182985
2570.881202,3140.991542,-0.000000,7846.182985
2570.881531,2834.553343,1184.329507,7179.997637
2570.881860,2757.943793,2442.679609,7846.182985
2570.882189,1302.362347,2368.659014,8660.409521
2570.882519,-459.657299,814.226536,9770.718434
2570.882848,-689.485948,-888.247130,10288.862594
2570.883177,-842.705048,-2294.638420,10214.842000
2570.883506,-995.924147,-2738.761985,10362.883188
2570.883835,-306.438199,-2368.659014,10955.047942
2570.884164,383.047749,-518.144159,10510.924376
2570.884493,766.095498,592.164754,9474.636058
2570.884822,1685.410096,592.164754,9918.759623
2570.885152,2068.457845,370.102971,9400.615463
2570.885481,3753.867940,148.041188,7994.224174
2570.885810,3830.477490,1332.370696,6957.935855
2570.886139,2757.943793,1702.473667,6809.894666
2570.886468,2834.553343,1850.514855,8290.306550
2570.886798,766.095498,1776.494261,8068.244768
2570.887127,0.000000,518.144159,8290.306550
2570.887456,-1302.362347,-1332.370696,10066.800811
2570.887785,-919.314598,-1998.556043,9548.656652
2570.888115,-842.705048,-1702.473667,9104.533087
2570.888444,-842.705048,-2442.679609,10955.047942
2570.888773,-459.657299,-962.267725,10066.800811
2570.889103,612.876398,-1036.288319,9844.739029
2570.889432,306.438199,-148.041188,9918.759623
2570.889761,383.047749,-148.041188,9252.574275
2570.890091,995.924147,-1184.329507,9918.759623
2570.890420,1378.971896,-0.000000,8512.368333
2570.890749,2451.505594,1332.370696,7624.121203
2570.891078,2987.772442,1702.473667,7105.977043
2570.891408,1991.848295,2146.597232,6735.874072
2570.891737,612.876398,814.226536,8586.388927
2570.892066,-689.485948,-0.000000,8512.368333
2570.892396,-689.485948,-1332.370696,9104.533087
2570.892725,-842.705048,-2590.720797,9918.759623
2570.893054,-1608.800546,-1554.432478,8882.471304
2570.893384,-1608.800546,-1258.350101,10362.883188
2570.893713,-842.705048,-1332.370696,9400.615463
2570.894042,306.438199,-444.123565,9918.759623
2570.894372,0.000000,-0.000000,9474.636058
2570.894701,-383.047749,-0.000000,9178.553681
2570.895030,-1225.752797,-1184.329507,10140.821405
2570.895359,-612.876398,-592.164754,9696.697840
2570.895689,-536.266849,1036.288319,8512.368333
2570.896018,-689.485948,888.247130,8956.491898
2570.896347,-1072.533697,1258.350101,8512.368333
2570.896677,-1225.752797,740.205942,9030.512492
2570.897006,-919.314598,-0.000000,8734.430116
2570.897335,-536.266849,-814.226536,8068.244768
2570.897665,-766.095498,-1628.453072,9474.636058
2570.897994,0.000000,-1036.288319,10066.800811
2570.898323,0.000000,-296.082377,9178.553681
2570.898653,306.438199,-296.082377,9622.677246
2570.898982,2221.676944,-370.102971,9252.574275
2570.899311,2528.115143,1110.308913,8364.327145
2570.899640,2298.286494,1036.288319,7698.141797
2570.899970,2528.115143,888.247130,7179.997637
2570.900299,2374.896044,814.226536,7920.203579
2570.900628,306.438199,1850.514855,8660.409521
2570.900958,-459.657299,222.061783,8956.491898
2570.901287,-2298.286494,-1036.288319,10140.821405
2570.901616,-1915.238745,-1998.556043,10881.027347
2570.901946,-1302.362347,-2072.576638,9696.697840
2570.902275,-1532.190996,-3182.885551,10214.842000
2570.902604,-689.485948,-1702.473667,9992.780217
2570.902934,306.438199,-296.082377,9844.739029
2570.903263,459.657299,444.123565,9696.697840
2570.903592,1072.533697,-148.041188,9992.780217
2570.903921,2451.505594,-74.020594,9474.636058
2570.904251,3370.820191,814.226536,7994.224174
2570.904580,3294.210641,1184.329507,6809.894666
2570.904909,2451.505594,1406.391290,7402.059420
2570.905239,2145.067394,2072.576638,8660.409521
2570.905568,842.705048,1332.370696,8808.450710
2570.905897,-536.266849,-0.000000,9400.615463
2570.906227,-1608.800546,-1184.329507,10066.800811
2570.906556,-1149.143247,-2220.617826,9918.759623
2570.906885,-1302.362347,-2294.638420,9252.574275
2570.907215,-995.924147,-2072.576638,10584.944971
2570.907544,76.609550,-1924.535449,9474.636058
2570.907873,536.266849,-74.020594,9622.677246
2570.908202,612.876398,370.102971,9104.533087
2570.908532,1455.581446,-888.247130,9918.759623
2570.908861,2298.286494,-222.061783,8438.347739
2570.909190,3217.601092,1924.535449,8142.265362
2570.909520,2987.772442,962.267725,7105.977043
2570.909849,2681.334243,2368.659014,7031.956449
2570.910178,2145.067394,1554.432478,8660.409521
2570.910508,306.438199,1036.288319,8290.306550
2570.910837,-459.657299,-814.226536,9326.594869
2570.911166,-995.924147,-1998.556043,9770.718434
2570.911495,-1378.971896,-2590.720797,10066.800811
2570.911825,-2145.067394,-1110.308913,10732.986159
2570.912154,-1225.752797,-888.247130,9622.677246
2570.912483,-153.219100,-814.226536,9474.636058
2570.912813,229.828649,222.061783,9104.533087
2570.913142,536.266849,-370.102971,9474.636058
2570.913471,842.705048,-814.226536,8734.430116
2570.913801,1608.800546,-444.123565,7920.203579
2570.914130,1685.410096,1628.453072,7772.162391
2570.914459,766.095498,1184.329507,7994.224174
2570.914789,-306.438199,1554.432478,8734.430116
2570.915118,-1225.752797,296.082377,9474.636058
2570.915447,-1225.752797,-666.185348,9844.739029
2570.915776,-1149.143247,-1480.411884,9474.636058
2570.916106,-689.485948,-1702.473667,9326.594869
2570.916435,-1455.581446,-2072.576638,10584.944971
2570.916764,-1072.533697,-148.041188,9992.780217
2570.917094,153.219100,-0.000000,9992.780217
2570.917423,76.609550,-0.000000,9474.636058
2570.917752,153.219100,444.123565,8660.409521
2570.918082,612.876398,-592.164754,9918.759623
2570.918411,1149.143247,-666.185348,7994.224174
2570.918740,2145.067394,592.164754,8068.244768
2570.919070,1915.238745,1332.370696,7698.141797
2570.919399,766.095498,1998.556043,8216.285956
2570.919728,-459.657299,740.205942,9178.553681
2570.920057,-766.095498,148.041188,8882.471304
2570.920387,-612.876398,-1184.329507,9326.594869
2570.920716,-229.828649,-1850.514855,9770.718434
2570.921045,-536.266849,-1110.308913,9622.677246
2570.921375,-1149.143247,-666.185348,10140.821405
2570.921704,229.828649,-0.000000,8882.471304
2570.922033,459.657299,-0.000000,9474.636058
2570.922363,1072.533697,-666.185348,10288.862594
2570.922692,1302.362347,-0.000000,8216.285956
2570.923021,1838.629195,-222.061783,8068.244768
2570.923351,1991.848295,296.082377,7476.080014
2570.923680,1455.581446,1406.391290,8142.265362
2570.924009,306.438199,814.226536,9030.512492
2570.924338,-919.314598,444.123565,9104.533087
2570.924668,-1532.190996,-740.205942,9918.759623
2570.924997,-1149.143247,-1258.350101,10066.800811
2570.925326,-536.266849,-1628.453072,8882.471304
2570.925656,0.000000,-2960.823768,11103.089130
2570.925985,-383.047749,-1406.391290,9844.739029
2570.926314,306.438199,-222.061783,9918.759623
2570.926644,153.219100,-74.020594,9400.615463
2570.926973,919.314598,-296.082377,9474.636058
2570.927302,1685.410096,-370.102971,9622.677246
2570.927632,2374.896044,666.185348,6957.935855
2570.927961,3140.991542,888.247130,7624.121203
2570.928290,2528.115143,1628.453072,6735.874072
2570.928619,2757.943793,2294.638420,7846.182985
2570.928949,689.485948,1258.350101,8438.347739
2570.929278,0.000000,222.061783,8660.409521
2570.929607,-842.705048,-1702.473667,10066.800811
2570.929937,-536.266849,-2590.720797,9918.759623
2570.930266,-612.876398,-1998.556043,9474.636058
2570.930595,-919.314598,-1480.411884,10510.924376
2570.930925,-1072.533697,-666.185348,8808.450710
2570.931254,1225.752797,-0.000000,9178.553681
2570.931583,536.266849,814.226536,8216.285956
2570.931912,306.438199,-1110.308913,9844.739029
2570.932242,2298.286494,-1258.350101,9474.636058
2570.932571,2681.334243,1702.473667,7328.038826
2570.932900,1225.752797,888.247130,7254.018232
2570.933230,1455.581446,2220.617826,7179.997637
2570.933559,76.609550,518.144159,9104.533087
2570.933888,-153.219100,592.164754,8512.368333
2570.934218,-229.828649,-1110.308913,9178.553681
2570.934547,-612.876398,-2146.597232,9622.677246
2570.934876,-1455.581446,-2368.659014,8956.491898
2570.935206,-1302.362347,-1406.391290,11621.233289
2570.935535,-995.924147,-1406.391290,9104.533087
2570.935864,842.705048,-222.061783,9622.677246
2570.936193,229.828649,-444.123565,9918.759623
2570.936523,459.657299,-0.000000,9548.656652
2570.936852,1149.143247,-888.247130,9326.594869
2570.937181,1532.190996,296.082377,8142.265362
2570.937511,2298.286494,1628.453072,7254.018232
2570.937840,1685.410096,2368.659014,7476.080014
2570.938169,842.705048,1406.391290,8438.347739
2570.938499,-383.047749,-0.000000,8808.450710
2570.938828,-306.438199,-666.185348,9030.512492
2570.939157,-612.876398,-2442.679609,9548.656652
2570.939487,-995.924147,-2812.782580,9474.636058
2570.939816,-612.876398,-1480.411884,10362.883188
2570.940145,0.000000,-74.020594,9326.594869
2570.940474,229.828649,148.041188,8512.368333
2570.940804,689.485948,-222.061783,10066.800811
2570.941133,1608.800546,296.082377,9622.677246
2570.941462,2145.067394,148.041188,7179.997637
2570.941792,2298.286494,-0.000000,8290.306550
2570.942121,1378.971896,1110.308913,7105.977043
2570.942450,1532.190996,2146.597232,8142.265362
2570.942780,-306.438199,1332.370696,8290.306550
2570.943109,-1149.143247,-296.082377,8734.430116
2570.943438,-1072.533697,-1480.411884,10214.842000
2570.943768,-842.705048,-1184.329507,8216.285956
2570.944097,-1302.362347,-2294.638420,9326.594869
2570.944426,-1149.143247,-2516.700203,10362.883188
2570.944755,-689.485948,-592.164754,9696.697840
2570.945085,0.000000,-0.000000,10214.842000
2570.945414,0.000000,296.082377,9400.615463
2570.945743,-459.657299,-0.000000,9252.574275
2570.946073,-766.095498,-962.267725,10436.903782
2570.946402,153.219100,-370.102971,9992.780217
2570.946731,1072.533697,518.144159,8068.244768
2570.947061,2298.286494,1406.391290,7920.203579
2570.947390,1072.533697,2146.597232,7328.038826
2570.947719,76.609550,1110.308913,8660.409521
2570.948048,-612.876398,-0.000000,9030.512492
2570.948378,-306.438199,-1702.473667,9104.533087
2570.948707,-612.876398,-2368.659014,9770.718434
2570.949036,-1302.362347,-1480.411884,9474.636058
2570.949366,-689.485948,-1554.432478,9770.718434
2570.949695,-383.047749,-444.123565,9770.718434
2570.950024,842.705048,-296.082377,9918.759623
2570.950354,1532.190996,-0.000000,9474.636058
2570.950683,2068.457845,518.144159,8808.450710
2570.951012,1838.629195,1406.391290,7772.162391
2570.951342,1762.019645,1406.391290,8142.265362
2570.951671,995.924147,1554.432478,8364.327145
2570.952000,-306.438199,1628.453072,8660.409521
2570.952329,-689.485948,-74.020594,9252.574275
2570.952659,-1608.800546,-1406.391290,10066.800811
2570.952988,-1225.752797,-1628.453072,9400.615463
2570.953317,-1072.533697,-2590.720797,9844.739029
2570.953647,-689.485948,-2664.741391,9770.718434
2570.953976,-306.438199,-1332.370696,9770.718434
2570.954305,0.000000,-0.000000,9400.615463
2570.954635,766.095498,-0.000000,9474.636058
2570.954964,2068.457845,-296.082377,10288.862594
2570.955293,2681.334243,370.102971,8438.347739
2570.955623,3983.696590,962.267725,7624.121203
2570.955952,3907.087040,1110.308913,6883.915261
2570.956281,3677.258390,2516.700203,7105.977043
2570.956610,2681.334243,1850.514855,7994.224174
2570.956940,612.876398,962.267725,8808.450710
2570.957269,-306.438199,-296.082377,9474.636058
2570.957598,-1378.971896,-2146.597232,10362.883188
2570.957928,-919.314598,-2368.659014,10807.006753
2570.958257,-1991.848295,-2664.741391,10881.027347
2570.958586,-842.705048,-2368.659014,10510.924376
2570.958916,-306.438199,-518.144159,9992.780217
2570.959245,536.266849,296.082377,9622.677246
2570.959574,1225.752797,296.082377,10066.800811
2570.959904,2451.505594,-148.041188,8882.471304
2570.960233,3524.039291,370.102971,7920.203579
2570.960562,2298.286494,1998.556043,7105.977043
2570.960891,2451.505594,2072.576638,7105.977043
2570.961221,1149.143247,1554.432478,8290.306550
2570.961550,0.000000,888.247130,8512.368333
2570.961879,-919.314598,-1110.308913,9400.615463
2570.962209,-1532.190996,-2294.638420,10214.842000
2570.962538,-1608.800546,-2072.576638,9474.636058
2570.962867,-1838.629195,-2146.597232,10288.862594
2570.963197,-995.924147,-1110.308913,9696.697840
2570.963526,-689.485948,-0.000000,9474.636058
2570.963855,0.000000,-148.041188,9548.656652
2570.964185,153.219100,296.082377,8882.471304
2570.964514,153.219100,-518.144159,9474.636058
2570.964843,1455.581446,-518.144159,8882.471304
2570.965172,1991.848295,962.267725,7105.977043
2570.965502,2298.286494,1480.411884,7994.224174
2570.965831,1378.971896,2146.597232,7328.038826
2570.966160,306.438199,1110.308913,8734.430116
2570.966490,-612.876398,-0.000000,8734.430116
2570.966819,-229.828649,-666.185348,8956.491898
2570.967148,-842.705048,-2368.659014,9474.636058
2570.967478,-1532.190996,-1850.514855,9696.697840
2570.967807,-689.485948,-1480.411884,10807.006753
2570.968136,-1302.362347,-444.123565,9326.594869
2570.968465,0.000000,-0.000000,9104.533087
2570.968795,229.828649,-74.020594,9696.697840
2570.969124,1149.143247,-0.000000,9030.512492
2570.969453,1455.581446,-0.000000,8290.306550
2570.969783,1072.533697,-444.123565,8216.285956
2570.970112,459.657299,1184.329507,7994.224174
2570.970441,0.000000,1110.308913,8586.388927
2570.970771,-1072.533697,740.205942,9474.636058
2570.971100,-1838.629195,-666.185348,9696.697840
2570.971429,-1608.800546,-1554.432478,10362.883188
2570.971759,-1225.752797,-1480.411884,8882.471304
2570.972088,-1378.971896,-2590.720797,10214.842000
2570.972417,-612.876398,-1184.329507,9992.780217
2570.972746,-229.828649,-0.000000,9548.656652
2570.973076,0.000000,444.123565,9474.636058
2570.973405,766.095498,-148.041188,9252.574275
2570.973734,1685.410096,-0.000000,9622.677246
2570.974064,2145.067394,592.164754,7994.224174
2570.974393,3064.381992,444.123565,8142.265362
2570.974722,2298.286494,814.226536,7105.977043
2570.975052,2451.505594,1998.556043,8142.265362
2570.975381,459.657299,1184.329507,8956.491898
2570.975710,-383.047749,296.082377,8956.491898
2570.976040,-459.657299,-1036.288319,9548.656652
2570.976369,0.000000,-2368.659014,9696.697840
2570.976698,-689.485948,-1776.494261,9992.780217
2570.977027,-383.047749,-1702.473667,9844.739029
2570.977357,76.609550,-962.267725,9400.615463
2570.977686,1302.362347,296.082377,9400.615463
2570.978015,3064.381992,592.164754,8734.430116
2570.978345,3524.039291,1184.329507,7920.203579
2570.978674,3524.039291,1036.288319,7550.100608
2570.979003,3677.258390,1332.370696,7328.038826
2570.979333,2911.162892,1406.391290,7105.977043
2570.979662,1608.800546,962.267725,8068.244768
2570.979991,-306.438199,-74.020594,9474.636058
2570.980321,-1532.190996,-740.205942,9992.780217
2570.980650,-1608.800546,-2368.659014,11103.089130
2570.980979,-1302.362347,-2590.720797,9770.718434
2570.981308,-1838.629195,-2442.679609,10807.006753
2570.981638,-766.095498,-1998.556043,10658.965565
2570.981967,-153.219100,-296.082377,9844.739029
2570.982296,153.219100,-0.000000,9622.677246
2570.982626,536.266849,-0.000000,9474.636058
2570.982955,1685.410096,-444.123565,10288.862594
2570.983284,2145.067394,296.082377,7328.038826
2570.983614,3217.601092,222.061783,7031.956449
2570.983943,3447.429741,962.267725,6365.771101
2570.984272,2757.943793,2812.782580,6957.935855
2570.984602,612.876398,962.267725,8142.265362
2570.984931,-842.705048,-222.061783,8734.430116
2570.985260,-1225.752797,-1554.432478,9770.718434
2570.985589,-995.924147,-2220.617826,10214.842000
2570.985919,-1838.629195,-1110.308913,8290.306550
2570.986248,-1532.190996,-1110.308913,11103.089130
2570.986577,-1072.533697,-592.164754,9992.780217
2570.986907,0.000000,888.247130,9178.553681
2570.987236,0.000000,444.123565,9770.718434
2570.987565,153.219100,-0.000000,8660.409521
2570.987895,-689.485948,-1184.329507,10066.800811
2570.988224,612.876398,-370.102971,8882.471304
2570.988553,1455.581446,814.226536,6809.894666
2570.988882,1072.533697,1036.288319,7402.059420
2570.989211,536.266849,1628.453072,7328.038826
2570.989541,76.609550,1406.391290,9104.533087
2570.989870,-1149.143247,-0.000000,8586.388927
2570.990199,-689.485948,-1110.308913,9178.553681
2570.990528,-1149.143247,-2442.679609,10362.883188
2570.990857,-1838.629195,-444.123565,9844.739029
2570.991186,-1532.190996,-888.247130,10881.027347
2570.991516,-1302.362347,-518.144159,10214.842000
2570.991845,0.000000,-0.000000,9992.780217
2570.992174,0.000000,-148.041188,10140.821405
2570.992503,689.485948,-444.123565,9474.636058
2570.992832,536.266849,-0.000000,8290.306550
2570.993161,1532.190996,740.205942,8586.388927
2570.993490,1302.362347,2516.700203,7476.080014
2570.993820,689.485948,2072.576638,8364.327145
2570.994149,-536.266849,296.082377,8956.491898
2570.994478,-536.266849,-222.061783,9104.533087
2570.994807,-306.438199,-1480.411884,9474.636058
2570.995136,-536.266849,-2442.679609,9252.574275
2570.995465,-995.924147,-1480.411884,10214.842000
2570.995795,-459.657299,-888.247130,10214.842000
2570.996124,0.000000,-0.000000,9400.615463
2570.996453,1072.533697,-0.000000,9992.780217
2570.996782,2221.676944,148.041188,8956.491898
2570.997111,2681.334243,740.205942,7994.224174
2570.997440,3830.477490,962.267725,7105.977043
2570.997770,3140.991542,1702.473667,6883.915261
2570.998099,2757.943793,2146.597232,7328.038826
2570.998428,1378.971896,1480.411884,8142.265362
2570.998757,0.000000,518.144159,8734.430116
2570.999086,-1532.190996,-1184.329507,9992.780217
2570.999415,-1225.752797,-2368.659014,10288.862594
2570.999745,-306.438199,-2072.576638,9326.594869
2571.000074,-766.095498,-2960.823768,10436.903782
2571.000403,-842.705048,-1554.432478,9992.780217
2571.000732,76.609550,-0.000000,9622.677246
2571.001061,153.219100,370.102971,9548.656652
2571.001390,306.438199,-148.041188,9474.636058
2571.001720,2145.067394,-1184.329507,10066.800811
2571.002049,2298.286494,518.144159,7254.018232
2571.002378,2987.772442,296.082377,7994.224174
2571.002707,2911.162892,1258.350101,7105.977043
2571.003036,2834.553343,2442.679609,7254.018232
2571.003365,919.314598,1036.288319,8438.347739
2571.003695,0.000000,-0.000000,8512.368333
2571.004024,-306.438199,-1406.391290,9548.656652
2571.004353,-919.314598,-2368.659014,10140.821405
2571.004682,-1072.533697,-2294.638420,9326.594869
2571.005011,-1302.362347,-1628.453072,10140.821405
2571.005340,-536.266849,-1406.391290,9770.718434
2571.005670,153.219100,-0.000000,9474.636058
2571.005999,689.485948,148.041188,10140.821405
2571.006328,1378.971896,-0.000000,9030.512492
2571.006657,1378.971896,-0.000000,8734.430116
2571.006986,1991.848295,1036.288319,8290.306550
2571.007315,1302.362347,1776.494261,7328.038826
2571.007645,1072.533697,1776.494261,8512.368333
2571.007974,-229.828649,1332.370696,8882.471304
2571.008303,-766.095498,-0.000000,9326.594869
2571.008632,-1302.362347,-1776.494261,9474.636058
2571.008961,-1455.581446,-1850.514855,9400.615463
2571.009290,-1302.362347,-2442.679609,10066.800811
2571.009620,-1838.629195,-1480.411884,9844.739029
2571.009949,-1225.752797,-518.144159,9252.574275
2571.010278,0.000000,-148.041188,9252.574275
2571.010607,306.438199,148.041188,9400.615463
2571.010936,1608.800546,148.041188,9326.594869
2571.011265,1915.238745,296.082377,7550.100608
2571.011595,2374.896044,740.205942,7698.141797
2571.011924,2298.286494,1406.391290,7105.977043
2571.012253,1762.019645,1776.494261,8364.327145
2571.012582,0.000000,1258.350101,8512.368333
2571.012911,-1532.190996,-296.082377,8734.430116
2571.013240,-1532.190996,-1628.453072,10362.883188
2571.013570,-1302.362347,-1554.432478,9770.718434
2571.013899,-1608.800546,-2516.700203,9326.594869
2571.014228,-1532.190996,-2368.659014,10658.965565
2571.014557,-306.438199,-148.041188,10214.842000
2571.014886,-383.047749,-0.000000,8882.471304
2571.015215,995.924147,-0.000000,9622.677246
2571.015544,1608.800546,-518.144159,9178.553681
2571.015874,2834.553343,740.205942,7402.059420
2571.016203,3447.429741,1406.391290,7105.977043
2571.016532,2298.286494,1554.432478,7105.977043
2571.016861,1991.848295,1850.514855,8290.306550
2571.017190,153.219100,1406.391290,8882.471304
2571.017519,-1225.752797,-74.020594,9178.553681
2571.017849,-1991.848295,-1850.514855,10436.903782
2571.018178,-306.438199,-2368.659014,9992.780217
2571.018507,-1608.800546,-2886.803174,9770.718434
2571.018836,-1991.848295,-2294.638420,10510.924376
2571.019165,-1225.752797,-1628.453072,9474.636058
2571.019494,0.000000,-148.041188,9548.656652
2571.019824,229.828649,370.102971,8734.430116
2571.020153,1225.752797,-222.061783,10140.821405
2571.020482,919.314598,-0.000000,8364.327145
2571.020811,3753.867940,1480.411884,7476.080014
2571.021140,2987.772442,1332.370696,6883.915261
2571.021469,2911.162892,2294.638420,7179.997637
2571.021799,1762.019645,1850.514855,8660.409521
2571.022128,306.438199,740.205942,8734.430116
2571.022457,-612.876398,-888.247130,9548.656652
2571.022786,-995.924147,-2072.576638,9770.718434
2571.023115,-1072.533697,-2442.679609,11547.212695
2571.023444,-1685.410096,-1776.494261,10436.903782
2571.023774,-229.828649,-1998.556043,9696.697840
2571.024103,76.609550,-296.082377,9400.615463
2571.024432,1991.848295,-814.226536,10584.944971
2571.024761,2911.162892,592.164754,8142.265362
2571.025090,3600.648841,296.082377,7402.059420
2571.025419,3983.696590,1184.329507,7105.977043
2571.025749,3447.429741,2368.659014,6661.853478
2571.026078,1762.019645,2072.576638,7994.224174
2571.026407,0.000000,1110.308913,8808.450710
2571.026736,-1455.581446,-74.020594,10140.821405
2571.027065,-2681.334243,-1998.556043,11251.130318
2571.027394,-919.314598,-2368.659014,10214.842000
2571.027724,-1302.362347,-2664.741391,9992.780217
2571.028053,-1378.971896,-2072.576638,10732.986159
2571.028382,-1149.143247,-592.164754,10214.842000
2571.028711,0.000000,-0.000000,10066.800811
2571.029040,306.438199,1036.288319,8142.265362
2571.029369,536.266849,-444.123565,9918.759623
2571.029699,1915.238745,-1258.350101,9696.697840
2571.030028,1685.410096,1480.411884,6143.709319
2571.030357,2451.505594,370.102971,8216.285956
2571.030686,1991.848295,1702.473667,6513.812290
2571.031015,1838.629195,2368.659014,8142.265362
2571.031344,-842.705048,962.267725,8808.450710
2571.031674,-612.876398,-0.000000,8734.430116
2571.032003,-1225.752797,-2294.638420,10955.047942
2571.032332,-1149.143247,-1628.453072,9474.636058
2571.032661,-1762.019645,-1702.473667,9770.718434
2571.032990,-1915.238745,-1406.391290,10732.986159
2571.033319,-153.219100,-518.144159,9178.553681
2571.033649,459.657299,148.041188,9548.656652
2571.033978,689.485948,-592.164754,9326.594869
2571.034307,1378.971896,-0.000000,8216.285956
2571.034636,2374.896044,-0.000000,8216.285956
2571.034965,2221.676944,1702.473667,6365.771101
2571.035294,1455.581446,1924.535449,7105.977043
2571.035624,612.876398,1480.411884,8660.409521
2571.035953,-919.314598,888.247130,9104.533087
2571.036282,-1302.362347,-592.164754,9992.780217
2571.036611,-1225.752797,-2220.617826,10436.903782
2571.036940,-1838.629195,-2294.638420,9400.615463
2571.037269,-919.314598,-2442.679609,11399.171507
2571.037598,-995.924147,-1110.308913,10584.944971
2571.037928,-383.047749,-740.205942,9696.697840
2571.038257,0.000000,-74.020594,9474.636058
2571.038586,153.219100,-0.000000,9474.636058
2571.038915,1072.533697,-888.247130,9918.759623
2571.039244,2068.457845,-74.020594,7328.038826
2571.039573,3677.258390,1184.329507,7254.018232
2571.039903,2681.334243,1554.432478,6957.935855
2571.040232,1608.800546,2738.761985,8068.244768
2571.040561,0.000000,1480.411884,9030.512492
2571.040890,-766.095498,-0.000000,9178.553681
2571.041219,-995.924147,-1406.391290,10140.821405
2571.041548,-1072.533697,-2220.617826,9474.636058
2571.041878,-1378.971896,-2146.597232,9104.533087
2571.042207,-1302.362347,-1554.432478,10807.006753
2571.042536,-612.876398,-814.226536,9252.574275
2571.042865,229.828649,370.102971,9548.656652
2571.043194,229.828649,-0.000000,9474.636058
2571.043523,919.314598,-370.102971,9696.697840
2571.043853,1762.019645,-666.185348,8364.327145
2571.044182,2604.724693,814.226536,7328.038826
2571.044511,2374.896044,1554.432478,7105.977043
2571.044840,1991.848295,2664.741391,7254.018232
2571.045169,612.876398,1554.432478,8512.368333
2571.045498,-306.438199,444.123565,9104.533087
2571.045828,0.000000,-888.247130,9326.594869
2571.046157,-995.924147,-2516.700203,9474.636058
2571.046486,-1149.143247,-3034.844362,10584.944971
2571.046815,-1378.971896,-1776.494261,10584.944971
2571.047144,-842.705048,-1406.391290,10288.862594
2571.047473,0.000000,-518.144159,9918.759623
2571.047803,1302.362347,-444.123565,10362.883188
2571.048132,2068.457845,444.123565,8586.388927
2571.048461,2911.162892,370.102971,8142.265362
2571.048790,3600.648841,592.164754,7624.121203
2571.049119,3677.258390,2072.576638,7105.977043
2571.049448,2451.505594,2146.597232,8216.285956
2571.049778,536.266849,1850.514855,8586.388927
2571.050107,0.000000,296.082377,9326.594869
2571.050436,-1072.533697,-1110.308913,10214.842000
2571.050765,-842.705048,-2590.720797,10214.842000
2571.051094,-919.314598,-2886.803174,9918.759623
2571.051423,-842.705048,-1924.535449,10807.006753
2571.051753,-766.095498,-814.226536,9992.780217
2571.052082,-229.828649,-0.000000,9030.512492
2571.052411,153.219100,518.144159,9548.656652
2571.052740,1225.752797,-370.102971,10066.800811
2571.053069,2298.286494,592.164754,7328.038826
2571.053398,3140.991542,1332.370696,7328.038826
2571.053728,2681.334243,1406.391290,6513.812290
2571.054057,2757.943793,2590.720797,7105.977043
2571.054386,842.705048,2072.576638,8216.285956
2571.054715,-612.876398,296.082377,8882.471304
2571.055044,-1225.752797,-888.247130,10066.800811
2571.055373,-995.924147,-1850.514855,10288.862594
2571.055703,-1302.362347,-2368.659014,8660.409521
2571.056032,-2451.505594,-2590.720797,11251.130318
2571.056361,-919.314598,-1480.411884,9844.739029
2571.056690,153.219100,-74.020594,10066.800811
2571.057019,-229.828649,-0.000000,9474.636058
2571.057348,-766.095498,-0.000000,9030.512492
2571.057678,0.000000,-1554.432478,10362.883188
2571.058007,1302.362347,-222.061783,8734.430116
2571.058336,1838.629195,1036.288319,7254.018232
2571.058665,1532.190996,962.267725,7772.162391
2571.058994,1149.143247,1924.535449,7105.977043
2571.059323,0.000000,1036.288319,9030.512492
2571.059652,-689.485948,-74.020594,9030.512492
2571.059982,-536.266849,-1184.329507,9030.512492
2571.060311,-1225.752797,-2812.782580,10362.883188
2571.060640,-842.705048,-1554.432478,9696.697840
2571.060969,-1149.143247,-814.226536,10066.800811
2571.061298,-306.438199,-592.164754,9548.656652
2571.061627,306.438199,-0.000000,9548.656652
2571.061957,536.266849,-0.000000,9622.677246
2571.062286,995.924147,444.123565,8216.285956
2571.062615,1608.800546,148.041188,8068.244768
2571.062944,2068.457845,1184.329507,7328.038826
2571.063273,1455.581446,1924.535449,7846.182985
2571.063602,0.000000,1332.370696,8290.306550
2571.063932,-1302.362347,222.061783,8882.471304
2571.064261,-1608.800546,-1036.288319,9770.718434
2571.064590,-1302.362347,-1998.556043,9548.656652
2571.064919,-1991.848295,-2368.659014,9326.594869
2571.065248,-612.876398,-2886.803174,10510.924376
2571.065577,-612.876398,-1184.329507,9770.718434
2571.065907,-612.876398,518.144159,9326.594869
2571.066236,76.609550,-0.000000,9918.759623
2571.066565,1838.629195,-148.041188,10066.800811
2571.066894,2528.115143,1036.288319,7624.121203
2571.067223,3830.477490,1258.350101,7772.162391
2571.067552,3447.429741,1332.370696,6735.874072
2571.067882,3600.648841,2442.679609,7624.121203
2571.068211,2298.286494,2294.638420,8216.285956
2571.068540,-306.438199,740.205942,8734.430116
2571.068869,-1762.019645,-1406.391290,10362.883188
2571.069198,-1685.410096,-2368.659014,10584.944971
2571.069527,-1608.800546,-3034.844362,10140.821405
2571.069857,-2145.067394,-2368.659014,11325.150913
2571.070186,-842.705048,-2368.659014,10881.027347
2571.070515,-306.438199,-148.041188,10140.821405
2571.070844,0.000000,1036.288319,9622.677246
2571.071173,2681.334243,370.102971,9918.759623
2571.071502,3294.210641,814.226536,6365.771101
2571.071832,3370.820191,2072.576638,8216.285956
2571.072161,4136.915689,1332.370696,7254.018232
2571.072490,3064.381992,2368.659014,6957.935855
2571.072819,1685.410096,2146.597232,7476.080014
2571.073148,919.314598,1480.411884,8290.306550
2571.073477,-842.705048,-1628.453072,9548.656652
2571.073807,-1991.848295,-1702.473667,9918.759623
2571.074136,-1072.533697,-3775.050304,10066.800811
2571.074465,-2604.724693,-2960.823768,9992.780217
2571.074794,-1685.410096,-2294.638420,9844.739029
2571.075123,-842.705048,-740.205942,9548.656652
2571.075452,0.000000,-148.041188,8956.491898
2571.075782,1149.143247,592.164754,9622.677246
2571.076111,1991.848295,-296.082377,8290.306550
2571.076440,2911.162892,666.185348,7698.141797
2571.076769,3830.477490,666.185348,6439.791695
2571.077098,2987.772442,1628.453072,6957.935855
2571.077427,1762.019645,2146.597232,7846.182985
2571.077757,536.266849,1036.288319,8142.265362
2571.078086,-536.266849,-518.144159,9030.512492
2571.078415,-1378.971896,-1850.514855,10214.842000
2571.078744,-1378.971896,-2664.741391,10214.842000
2571.079073,-2221.676944,-2664.741391,9918.759623
2571.079402,-1915.238745,-2072.576638,10732.986159
2571.079732,-995.924147,-1406.391290,9252.574275
2571.080061,0.000000,-74.020594,9400.615463
2571.080390,-306.438199,-0.000000,9400.615463
2571.080719,919.314598,-814.226536,9992.780217
2571.081048,995.924147,-0.000000,7920.203579
2571.081377,2145.067394,888.247130,7920.203579
2571.081706,1915.238745,1554.432478,7624.121203
2571.082036,1225.752797,1998.556043,8586.388927
2571.082365,0.000000,296.082377,9104.533087
2571.082694,-612.876398,-0.000000,9548.656652
2571.083023,-1378.971896,-1110.308913,9918.759623
2571.083352,-1455.581446,-1998.556043,9770.718434
2571.083681,-1838.629195,-2294.638420,9474.636058
2571.084011,-1455.581446,-1332.370696,10140.821405
2571.084340,-306.438199,-962.267725,9104.533087
2571.084669,76.609550,-74.020594,9178.553681
2571.084998,0.000000,-444.123565,10066.800811
2571.085327,1149.143247,444.123565,8660.409521
2571.085656,2145.067394,296.082377,7698.141797
2571.085986,2374.896044,1332.370696,7476.080014
2571.086315,1991.848295,1850.514855,7254.018232
2571.086644,1991.848295,2294.638420,8734.430116
2571.086973,306.438199,1406.391290,8586.388927
2571.087302,-766.095498,888.247130,9474.636058
2571.087631,-1532.190996,-1184.329507,10362.883188
2571.087961,-1225.752797,-1332.370696,9474.636058
2571.088290,-1455.581446,-1776.494261,9696.697840
2571.088619,-1149.143247,-2146.597232,10732.986159
2571.088948,-766.095498,-814.226536,10066.800811
2571.089277,-306.438199,-222.061783,9474.636058
2571.089606,229.828649,-296.082377,9178.553681
2571.089935,1302.362347,-592.164754,9918.759623
2571.090264,1838.629195,-148.041188,7994.224174
2571.090594,3064.381992,1628.453072,7328.038826
2571.090923,2834.553343,962.267725,6957.935855
2571.091252,2757.943793,2368.659014,7772.162391
2571.091581,1532.190996,1998.556043,8808.450710
2571.091910,-229.828649,370.102971,9474.636058
2571.092239,-842.705048,-814.226536,9918.759623
2571.092568,-995.924147,-1998.556043,10362.883188
2571.092897,-1302.362347,-2886.803174,10436.903782
2571.093227,-1762.019645,-1998.556043,10140.821405
2571.093556,-536.266849,-1776.494261,9770.718434
2571.093885,0.000000,-518.144159,9696.697840
2571.094214,1302.362347,-444.123565,10140.821405
2571.094543,1991.848295,592.164754,7402.059420
2571.094872,3140.991542,-0.000000,7698.141797
2571.095201,3294.210641,1110.308913,6957.935855
2571.095530,3600.648841,1998.556043,6809.894666
2571.095860,2451.505594,1554.432478,7920.203579
2571.096189,153.219100,1628.453072,8216.285956
2571.096518,-306.438199,-296.082377,10066.800811
2571.096847,-2145.067394,-1702.473667,10436.903782
2571.097176,-1225.752797,-2516.700203,9992.780217
2571.097505,-1378.971896,-2368.659014,9326.594869
2571.097834,-459.657299,-2146.597232,10140.821405
2571.098163,-612.876398,-962.267725,9622.677246
2571.098493,76.609550,-0.000000,9622.677246
2571.098822,229.828649,-518.144159,9326.594869
2571.099151,766.095498,-1036.288319,9548.656652
2571.099480,1532.190996,-0.000000,7994.224174
2571.099809,2298.286494,740.205942,6957.935855
2571.100138,2451.505594,962.267725,7105.977043
2571.100467,2145.067394,2368.659014,7105.977043
2571.100796,995.924147,1850.514855,8438.347739
2571.101126,-919.314598,888.247130,9030.512492
2571.101455,-1455.581446,-592.164754,9622.677246
2571.101784,-1378.971896,-2442.679609,10732.986159
2571.102113,-1838.629195,-2368.659014,9178.553681
2571.102442,-1608.800546,-2072.576638,10807.006753
2571.102771,-1302.362347,-2220.617826,10732.986159
2571.103100,0.000000,-888.247130,10066.800811
2571.103429,-459.657299,222.061783,9696.697840
2571.103759,153.219100,-0.000000,9400.615463
2571.104088,1225.752797,-1258.350101,9844.739029
2571.104417,2221.676944,518.144159,7772.162391
2571.104746,3140.991542,1850.514855,7105.977043
2571.105075,2528.115143,1850.514855,7402.059420
2571.105404,2451.505594,2886.803174,7920.203579
2571.105733,536.266849,1554.432478,8660.409521
2571.106062,-306.438199,518.144159,9104.533087
2571.106392,-1149.143247,-1110.308913,9622.677246
2571.106721,-995.924147,-2664.741391,10732.986159
2571.107050,-1532.190996,-1924.535449,10066.800811
2571.107379,-689.485948,-592.164754,10955.047942
2571.107708,-919.314598,-1184.329507,9474.636058
2571.108037,-229.828649,518.144159,9548.656652
2571.108366,536.266849,-0.000000,9992.780217
2571.108696,1302.362347,370.102971,8512.368333
2571.109025,2298.286494,-222.061783,7772.162391
2571.109354,2298.286494,1258.350101,7254.018232
2571.109683,1532.190996,1702.473667,7105.977043
2571.110012,689.485948,1406.391290,8660.409521
2571.110341,-612.876398,740.205942,8734.430116
2571.110670,-1149.143247,-74.020594,8956.491898
2571.110999,-1302.362347,-1702.473667,10362.883188
2571.111329,-1225.752797,-2072.576638,9104.533087
2571.111658,-1608.800546,-2368.659014,10140.821405
2571.111987,-1532.190996,-1776.494261,10436.903782
2571.112316,-689.485948,-666.185348,9474.636058
2571.112645,0.000000,-296.082377,9844.739029
2571.112974,76.609550,-296.082377,9992.780217
2571.113303,1532.190996,-444.123565,9622.677246
2571.113632,2145.067394,148.041188,7698.141797
2571.113962,3140.991542,740.205942,7328.038826
2571.114291,2911.162892,1258.350101,7179.997637
2571.114620,2451.505594,2960.823768,7476.080014
2571.114949,1072.533697,1480.411884,8216.285956
2571.115278,-229.828649,-0.000000,8808.450710
2571.115607,-689.485948,-1184.329507,9844.739029
2571.115936,-1302.362347,-2442.679609,10066.800811
2571.116265,-1762.019645,-3034.844362,10881.027347
2571.116595,-1455.581446,-2146.597232,10362.883188
2571.116924,0.000000,-1036.288319,10510.924376
2571.117253,306.438199,-666.185348,9844.739029
2571.117582,1225.752797,592.164754,9696.697840
2571.117911,2068.457845,518.144159,8216.285956
2571.118240,3294.210641,1036.288319,7476.080014
2571.118569,2911.162892,1406.391290,6809.894666
2571.118898,3217.601092,1998.556043,7624.121203
2571.119228,2298.286494,2294.638420,8068.244768
2571.119557,0.000000,814.226536,8364.327145
2571.119886,-1149.143247,-444.123565,9696.697840
2571.120215,-1838.629195,-1554.432478,10140.821405
2571.120544,-1455.581446,-2738.761985,9992.780217
2571.120873,-1915.238745,-3256.906145,9104.533087
2571.121202,-1225.752797,-2220.617826,10066.800811
2571.121531,-995.924147,-888.247130,8660.409521
2571.121861,0.000000,-0.000000,9474.636058
2571.122190,1455.581446,222.061783,10955.047942
2571.122519,2757.943793,-74.020594,7624.121203
2571.122848,4519.963438,1702.473667,7328.038826
2571.123177,4290.134789,1332.370696,6735.874072
2571.123506,3983.696590,2368.659014,6587.832884
2571.123835,3217.601092,2442.679609,7624.121203
2571.124164,1302.362347,1332.370696,7994.224174
2571.124494,-383.047749,-444.123565,9326.594869
2571.124823,-2145.067394,-1628.453072,10732.986159
2571.125152,-2068.457845,-3034.844362,11621.233289
2571.125481,-2834.553343,-3182.885551,10658.965565
2571.125810,-1915.238745,-2368.659014,10658.965565
2571.126139,-1455.581446,-1480.411884,10362.883188
2571.126468,-689.485948,222.061783,10066.800811
2571.126797,-229.828649,814.226536,9474.636058
2571.127127,766.095498,-740.205942,11103.089130
2571.127456,1915.238745,-0.000000,7624.121203
2571.127785,3064.381992,1850.514855,7698.141797
2571.128114,2604.724693,1554.432478,6291.750507
2571.128443,2145.067394,2442.679609,7105.977043
2571.128772,919.314598,2072.576638,8808.450710
2571.129101,-459.657299,592.164754,8808.450710
2571.129431,-1608.800546,-592.164754,9400.615463
2571.129760,-1915.238745,-1924.535449,10066.800811
2571.130089,-2374.896044,-2812.782580,9548.656652
2571.130418,-2757.943793,-2072.576638,9992.780217
2571.130747,-1608.800546,-1258.350101,9918.759623
2571.131076,-612.876398,-592.164754,8882.471304
2571.131405,-612.876398,370.102971,9844.739029
2571.131734,459.657299,-148.041188,9622.677246
2571.132064,1455.581446,-296.082377,8882.471304
2571.132393,1991.848295,444.123565,7179.997637
2571.132722,3140.991542,2294.638420,7254.018232
2571.133051,2298.286494,2220.617826,6587.832884
2571.133380,2298.286494,2960.823768,8734.430116
2571.133709,612.876398,1036.288319,8808.450710
2571.134038,-306.438199,-222.061783,8586.388927
2571.134367,-1149.143247,-1998.556043,10140.821405
2571.134697,-1762.019645,-2516.700203,10288.862594
2571.135026,-2528.115143,-3404.947333,10362.883188
2571.135355,-1915.238745,-1258.350101,10732.986159
2571.135684,-536.266849,-1110.308913,9474.636058
2571.136013,0.000000,-740.205942,10066.800811
2571.136342,1838.629195,-296.082377,10066.800811
2571.136671,2221.676944,1184.329507,7105.977043
2571.137000,3140.991542,370.102971,7920.203579
2571.137330,2374.896044,1702.473667,6513.812290
2571.137659,2451.505594,2368.659014,7624.121203
2571.137988,459.657299,1776.494261,8882.471304
2571.138317,-995.924147,148.041188,8882.471304
2571.138646,-1685.410096,-1184.329507,10807.006753
2571.138975,-1915.238745,-2960.823768,10436.903782
2571.139304,-1915.238745,-3256.906145,9918.759623
2571.139633,-2451.505594,-2812.782580,10362.883188
2571.139963,-919.314598,-1924.535449,10288.862594
2571.140292,0.000000,-518.144159,9252.574275
2571.140621,1532.190996,-74.020594,10140.821405
2571.140950,2451.505594,-0.000000,8882.471304
2571.141279,4519.963438,518.144159,6809.894666
2571.141608,4826.401637,1702.473667,6217.729913
2571.141937,4443.353888,2368.659014,5699.585753
2571.142266,4290.134789,2072.576638,7402.059420
2571.142596,2298.286494,2812.782580,7846.182985
2571.142925,842.705048,962.267725,8808.450710
2571.143254,-995.924147,-814.226536,10288.862594
2571.143583,-1685.410096,-2368.659014,10214.842000
2571.143912,-2145.067394,-3404.947333,11547.212695
2571.144241,-2374.896044,-2960.823768,10732.986159
2571.144570,-1378.971896,-1924.535449,10658.965565
2571.144899,-995.924147,-666.185348,9548.656652
2571.145229,229.828649,444.123565,9400.615463
2571.145558,766.095498,222.061783,10288.862594
2571.145887,2757.943793,296.082377,7698.141797
2571.146216,4290.134789,1406.391290,7550.100608
2571.146545,3294.210641,2072.576638,6217.729913
2571.146874,3217.601092,2294.638420,7179.997637
2571.147203,1302.362347,2146.597232,8364.327145
2571.147532,76.609550,740.205942,8808.450710
2571.147862,-1532.190996,-962.267725,10732.986159
2571.148191,-3217.601092,-2294.638420,11547.212695
2571.148520,-2834.553343,-2664.741391,10288.862594
2571.148849,-2451.505594,-3108.864956,11103.089130
2571.149178,-2221.676944,-1998.556043,10584.944971
2571.149507,-1685.410096,-1110.308913,10140.821405
2571.149836,0.000000,296.082377,10288.862594
2571.150166,-766.095498,370.102971,8808.450710
2571.150495,612.876398,-740.205942,10436.903782
2571.150824,1838.629195,-222.061783,7994.224174
2571.151153,3140.991542,1554.432478,6809.894666
2571.151482,2987.772442,1480.411884,6809.894666
2571.151811,2451.505594,2590.720797,6587.832884
2571.152140,1149.143247,1628.453072,7920.203579
2571.152469,-766.095498,740.205942,9104.533087
2571.152799,-612.876398,-962.267725,9104.533087
2571.153128,-1762.019645,-2590.720797,10732.986159
2571.153457,-2145.067394,-1998.556043,9178.553681
2571.153786,-2221.676944,-1554.432478,10584.944971
2571.154115,-2068.457845,-814.226536,9770.718434
2571.154444,-689.485948,-444.123565,9030.512492
2571.154773,-383.047749,296.082377,9844.739029
2571.155102,229.828649,-222.061783,9474.636058
2571.155432,612.876398,-962.267725,8586.388927
2571.155761,1762.019645,-0.000000,7994.224174
2571.156090,1378.971896,1850.514855,6661.853478
2571.156419,842.705048,1480.411884,7698.141797
2571.156748,153.219100,1480.411884,8808.450710
2571.157077,-1225.752797,-0.000000,9474.636058
2571.157406,-1302.362347,-592.164754,9548.656652
2571.157735,-1532.190996,-2368.659014,9548.656652
2571.158065,-1762.019645,-2664.741391,9918.759623
2571.158394,-1685.410096,-2072.576638,10881.027347
2571.158723,-1685.410096,-296.082377,10066.800811
2571.159052,-306.438199,-814.226536,10066.800811
2571.159381,1685.410096,-296.082377,10584.944971
2571.159710,1685.410096,740.205942,8438.347739
2571.160039,3064.381992,888.247130,7476.080014
2571.160368,3294.210641,888.247130,7105.977043
2571.160698,3524.039291,2146.597232,7179.997637
2571.161027,2911.162892,2072.576638,8068.244768
2571.161356,612.876398,1924.535449,8438.347739
2571.161685,-229.828649,296.082377,9622.677246
2571.162014,-1149.143247,-1036.288319,10510.924376
2571.162343,-1378.971896,-2368.659014,10140.821405
2571.162672,-1149.143247,-3404.947333,11177.109724
2571.163001,-1225.752797,-2368.659014,10584.944971
2571.163331,-536.266849,-518.144159,10584.944971
2571.163660,229.828649,-444.123565,9918.759623
2571.163989,2528.115143,740.205942,8956.491898
2571.164318,3524.039291,888.247130,7920.203579
2571.164647,4136.915689,1480.411884,6735.874072
2571.164976,4290.134789,1998.556043,6365.771101
2571.165305,3524.039291,1480.411884,6735.874072
2571.165634,2451.505594,2220.617826,7105.977043
2571.165964,76.609550,1554.432478,8586.388927
2571.166293,-689.485948,-592.164754,10288.862594
2571.166622,-2374.896044,-1850.514855,10658.965565
2571.166951,-1455.581446,-2516.700203,11399.171507
2571.167280,-1991.848295,-2442.679609,9400.615463
2571.167609,-1915.238745,-2664.741391,11029.068536
2571.167938,-1455.581446,-1924.535449,10658.965565
2571.168267,-153.219100,222.061783,9474.636058
2571.168597,0.000000,296.082377,9474.636058
2571.168926,689.485948,-1258.350101,10214.842000
2571.169255,1685.410096,-296.082377,9030.512492
2571.169584,3064.381992,1258.350101,7105.977043
2571.169913,3370.820191,1258.350101,6661.853478
2571.170242,2604.724693,2220.617826,6439.791695
2571.170571,2834.553343,2072.576638,7772.162391
2571.170901,612.876398,1776.494261,8290.306550
2571.171230,0.000000,-370.102971,9178.553681
2571.171559,-1532.190996,-1850.514855,10362.883188
2571.171888,-1915.238745,-2960.823768,10436.903782
2571.172217,-2298.286494,-2368.659014,10288.862594
2571.172546,-1915.238745,-1554.432478,10436.903782
2571.172875,-766.095498,-1184.329507,9844.739029
2571.173204,0.000000,-0.000000,9474.636058
2571.173534,-153.219100,592.164754,9548.656652
2571.173863,0.000000,-666.185348,10066.800811
2571.174192,1072.533697,-0.000000,8142.265362
2571.174521,2145.067394,2294.638420,7105.977043
2571.174850,1608.800546,1702.473667,6587.832884
2571.175179,1149.143247,2294.638420,7698.141797
2571.175508,76.609550,1110.308913,8734.430116
2571.175837,-1455.581446,-0.000000,9400.615463
2571.176167,-1378.971896,-1480.411884,9474.636058
2571.176496,-1455.581446,-2812.782580,9474.636058
2571.176825,-2221.676944,-2368.659014,9770.718434
2571.177154,-1762.019645,-1776.494261,10955.047942
2571.177483,-995.924147,-444.123565,9474.636058
2571.177812,0.000000,-74.020594,9696.697840
2571.178141,1378.971896,-370.102971,10584.944971
2571.178470,2068.457845,1036.288319,7624.121203
2571.178800,2987.772442,740.205942,7550.100608
2571.179129,3217.601092,1110.308913,6957.935855
2571.179458,2681.334243,2812.782580,6883.915261
2571.179787,1532.190996,2072.576638,8586.388927
2571.180116,153.219100,444.123565,9030.512492
2571.180445,-919.314598,-1110.308913,10214.842000
2571.180774,-1915.238745,-1850.514855,10510.924376
2571.181103,-1915.238745,-3034.844362,10510.924376
2571.181433,-2068.457845,-2886.803174,10362.883188
2571.181762,-1302.362347,-1850.514855,11103.089130
2571.182091,-995.924147,-148.041188,9770.718434
2571.182420,842.705048,518.144159,10807.006753
2571.182749,2145.067394,-74.020594,9622.677246
2571.183078,3140.991542,1184.329507,7031.956449
2571.183407,4519.963438,1554.432478,7105.977043
2571.183736,3217.601092,2146.597232,5995.668130
2571.184066,3447.429741,1998.556043,7920.203579
2571.184395,1608.800546,2368.659014,7994.224174
2571.184724,-306.438199,814.226536,8734.430116
2571.185053,-1532.190996,-1554.432478,10658.965565
2571.185382,-2451.505594,-2516.700203,10510.924376
2571.185711,-2221.676944,-3256.906145,10362.883188
2571.186040,-2451.505594,-3182.885551,10436.903782
2571.186369,-1225.752797,-1924.535449,9696.697840
2571.186699,-1072.533697,-814.226536,10140.821405
2571.187028,306.438199,444.123565,9696.697840
2571.187357,842.705048,-296.082377,10214.842000
2571.187686,2987.772442,-148.041188,8290.306550
2571.188015,4443.353888,1184.329507,6883.915261
2571.188344,4290.134789,1924.535449,5625.565159
2571.188673,4060.306139,2294.638420,6439.791695
2571.189002,3217.601092,2738.761985,7698.141797
2571.189332,1225.752797,1554.432478,8364.327145
2571.189661,536.266849,-370.102971,9474.636058
2571.189990,-1685.410096,-1628.453072,10732.986159
2571.190319,-2757.943793,-2738.761985,11103.089130
2571.190648,-2451.505594,-3404.947333,11547.212695
2571.190978,-1991.848295,-2368.659014,10658.965565
2571.191307,-766.095498,-1998.556043,10288.862594
2571.191636,-536.266849,-148.041188,9770.718434
2571.191965,1455.581446,666.185348,10214.842000
2571.192294,2528.115143,222.061783,7772.162391
2571.192623,3830.477490,888.247130,7105.977043
2571.192953,3524.039291,1776.494261,6587.832884
2571.193282,2757.943793,2072.576638,6809.894666
2571.193611,1302.362347,1554.432478,8512.368333
2571.193940,-689.485948,1184.329507,8734.430116
2571.194269,-1838.629195,-962.267725,10066.800811
2571.194598,-3217.601092,-2294.638420,11029.068536
2571.194928,-2451.505594,-2590.720797,9992.780217
2571.195257,-2528.115143,-2886.803174,10510.924376
2571.195586,-2221.676944,-2146.597232,10362.883188
2571.195915,-1149.143247,-814.226536,9770.718434
2571.196244,-536.266849,-0.000000,10066.800811
2571.196573,-536.266849,962.267725,8882.471304
2571.196903,1149.143247,-1332.370696,10510.924376
2571.197232,1991.848295,-74.020594,7105.977043
2571.197561,3600.648841,1332.370696,6883.915261
2571.197890,3447.429741,1258.350101,6217.729913
2571.198219,3064.381992,2960.823768,6883.915261
2571.198549,1991.848295,1480.411884,8290.306550
2571.198878,0.000000,888.247130,8660.409521
2571.199207,-766.095498,-962.267725,9696.697840
2571.199536,-1915.238745,-2368.659014,10288.862594
2571.199865,-1838.629195,-2664.741391,10436.903782
2571.200194,-2374.896044,-1850.514855,10584.944971
2571.200524,-1302.362347,-1258.350101,10510.924376
2571.200853,-153.219100,-74.020594,9622.677246
2571.201182,612.876398,-0.000000,10288.862594
2571.201511,1685.410096,518.144159,8882.471304
2571.201840,2757.943793,222.061783,6957.935855
2571.202169,3447.429741,1184.329507,7254.018232
2571.202499,2374.896044,2664.741391,6439.791695
2571.202828,2145.067394,1924.535449,8512.368333
2571.203157,-229.828649,1406.391290,9178.553681
2571.203486,-919.314598,-222.061783,9622.677246
2571.203815,-2451.505594,-1776.494261,10288.862594
2571.204144,-2298.286494,-2590.720797,10881.027347
2571.204474,-2145.067394,-2812.782580,9548.656652
2571.204803,-2068.457845,-2590.720797,11695.253884
2571.205132,-1532.190996,-1554.432478,10140.821405
2571.205461,-536.266849,-74.020594,10066.800811
2571.205790,-306.438199,296.082377,9992.780217
2571.206120,-383.047749,-666.185348,9918.759623
2571.206449,1915.238745,-1036.288319,9474.636058
2571.206778,2681.334243,740.205942,6661.853478
2571.207107,4060.306139,740.205942,7031.956449
2571.207436,3677.258390,2146.597232,6439.791695
2571.207765,3524.039291,2886.803174,7550.100608
2571.208095,306.438199,1702.473667,8364.327145
2571.208424,-229.828649,-0.000000,9178.553681
2571.208753,-1072.533697,-1776.494261,10436.903782
2571.209082,-1608.800546,-3182.885551,10510.924376
2571.209411,-1762.019645,-2442.679609,10436.903782
2571.209740,-1302.362347,-1554.432478,10140.821405
2571.210070,-766.095498,-888.247130,9918.759623
2571.210399,153.219100,370.102971,10658.965565
2571.210728,2221.676944,592.164754,9252.574275
2571.211057,2757.943793,1184.329507,6735.874072
2571.211386,3983.696590,666.185348,7476.080014
2571.211715,3064.381992,2294.638420,6217.729913
2571.212045,3064.381992,2146.597232,7550.100608
2571.212374,1149.143247,1110.308913,8364.327145
2571.212703,-536.266849,-0.000000,9030.512492
2571.213032,-1302.362347,-888.247130,10288.862594
2571.213361,-1838.629195,-3108.864956,10955.047942
2571.213691,-1608.800546,-3627.009116,10140.821405
2571.214020,-1608.800546,-3108.864956,10807.006753
2571.214349,-1225.752797,-1924.535449,10362.883188
2571.214678,-995.924147,-74.020594,9696.697840
2571.215007,-229.828649,222.061783,10214.842000
2571.215336,612.876398,-444.123565,10510.924376
2571.215666,1072.533697,-296.082377,8734.430116
2571.215995,3524.039291,1406.391290,7328.038826
2571.216324,3907.087040,1110.308913,5847.626942
2571.216653,3294.210641,2516.700203,6957.935855
2571.216982,2681.334243,3108.864956,8068.244768
2571.217311,229.828649,1776.494261,8290.306550
2571.217641,-689.485948,296.082377,9474.636058
2571.217970,-2068.457845,-2220.617826,11029.068536
2571.218299,-1378.971896,-3404.947333,10362.883188
2571.218628,-2145.067394,-3034.844362,10288.862594
2571.218957,-1685.410096,-1998.556043,10881.027347
2571.219286,-1149.143247,-1110.308913,9548.656652
2571.219616,0.000000,888.247130,9622.677246
2571.219945,-383.047749,666.185348,9326.594869
2571.220274,1915.238745,-444.123565,9696.697840
2571.220603,2681.334243,-0.000000,7105.977043
2571.220932,4060.306139,2368.659014,6735.874072
2571.221262,2528.115143,2146.597232,6439.791695
2571.221591,2145.067394,2368.659014,7402.059420
2571.221920,459.657299,1702.473667,8142.265362
2571.222249,-1225.752797,74.020594,9030.512492
2571.222578,-1225.752797,-1998.556043,10436.903782
2571.222907,-1608.800546,-2738.761985,9918.759623
2571.223237,-2221.676944,-2886.803174,9474.636058
2571.223566,-1915.238745,-2220.617826,11325.150913
2571.223895,-1532.190996,-1332.370696,9474.636058
2571.224224,-612.876398,-666.185348,10362.883188
2571.224553,-842.705048,222.061783,9252.574275
2571.224882,153.219100,222.061783,9326.594869
2571.225212,76.609550,-2294.638420,10807.006753
2571.225541,1378.971896,962.267725,7105.977043
2571.225870,2374.896044,1480.411884,7920.203579
2571.226199,1685.410096,1998.556043,6587.832884
2571.226528,1378.971896,2738.761985,7624.121203
2571.226857,383.047749,962.267725,9400.615463
2571.227187,-689.485948,444.123565,9030.512492
2571.227516,-1378.971896,-2294.638420,10436.903782
2571.227845,-1532.190996,-3256.906145,10584.944971
2571.228174,-2068.457845,-1702.473667,9844.739029
2571.228503,-1991.848295,-1776.494261,10881.027347
2571.228833,-995.924147,-592.164754,9548.656652
2571.229162,-153.219100,-0.000000,9844.739029
2571.229491,1378.971896,222.061783,9548.656652
2571.229820,1915.238745,1036.288319,7179.997637
2571.230149,3370.820191,370.102971,8216.285956
2571.230478,2451.505594,2368.659014,6661.853478
2571.230808,2374.896044,2590.720797,7550.100608
2571.231137,536.266849,1924.535449,8512.368333
2571.231466,-153.219100,444.123565,8882.471304
2571.231795,-1838.629195,-1480.411884,10881.027347
2571.232124,-1685.410096,-2442.679609,9844.739029
2571.232453,-1532.190996,-3701.029710,10214.842000
2571.232783,-2068.457845,-2442.679609,10510.924376
2571.233112,-383.047749,-1702.473667,10362.883188
2571.233441,306.438199,370.102971,9326.594869
2571.233770,2221.676944,592.164754,8660.409521
2571.234099,3600.648841,592.164754,7328.038826
2571.234428,4366.744339,962.267725,7624.121203
2571.234758,4749.792088,1924.535449,6513.812290
2571.235087,3983.696590,1702.473667,7476.080014
2571.235416,2528.115143,1628.453072,8216.285956
2571.235745,995.924147,1702.473667,8808.450710
2571.236074,-1149.143247,444.123565,10584.944971
2571.236404,-2451.505594,-2812.782580,11695.253884
2571.236733,-1991.848295,-3034.844362,11843.295072
2571.237062,-1762.019645,-3404.947333,10140.821405
2571.237391,-1149.143247,-2664.741391,10881.027347
2571.237720,-1149.143247,-1184.329507,10066.800811
2571.238049,0.000000,-0.000000,9918.759623
2571.238379,2221.676944,-74.020594,9696.697840
2571.238708,3983.696590,1406.391290,6661.853478
2571.239037,5209.449386,1924.535449,6809.894666
2571.239366,4290.134789,2146.597232,5329.482782
2571.239695,4673.182538,2368.659014,6809.894666
2571.240024,2374.896044,2220.617826,7031.956449
2571.240354,766.095498,1850.514855,7698.141797
2571.240683,-1225.752797,-1184.329507,9918.759623
2571.241012,-3140.991542,-2072.576638,11177.109724
2571.241341,-2987.772442,-3256.906145,11325.150913
2571.241670,-3140.991542,-3256.906145,9918.759623
2571.241999,-2834.553343,-3256.906145,11177.109724
2571.242329,-2681.334243,-1406.391290,10584.944971
2571.242658,-1072.533697,-222.061783,10140.821405
2571.242987,-995.924147,592.164754,8808.450710
2571.243316,612.876398,222.061783,8512.368333
2571.243645,1685.410096,-518.144159,9918.759623
2571.243974,1991.848295,1406.391290,5107.421000
2571.244304,3830.477490,1036.288319,7105.977043
2571.244633,2298.286494,2368.659014,5625.565159
2571.244962,2528.115143,2368.659014,7328.038826
2571.245291,0.000000,1332.370696,8808.450710
2571.245620,-459.657299,518.144159,8882.471304
2571.245950,-1685.410096,-2146.597232,10658.965565
2571.246279,-2145.067394,-2960.823768,10955.047942
2571.246608,-3064.381992,-2516.700203,10584.944971
2571.246937,-2911.162892,-2146.597232,11547.212695
2571.247266,-1455.581446,-888.247130,10066.800811
2571.247595,-306.438199,296.082377,9400.615463
2571.247925,459.657299,962.267725,9548.656652
2571.248254,2834.553343,296.082377,7772.162391
2571.248583,2834.553343,740.205942,7105.977043
2571.248912,2068.457845,1998.556043,7179.997637
2571.249241,1608.800546,1924.535449,7994.224174
2571.249570,536.266849,1554.432478,9104.533087
2571.249900,-1378.971896,370.102971,8956.491898
2571.250229,-1225.752797,-592.164754,10362.883188
2571.250558,-2757.943793,-2812.782580,10362.883188
2571.250887,-1991.848295,-2072.576638,10288.862594
2571.251216,-2145.067394,-2886.803174,10807.006753
2571.251545,-2298.286494,-1184.329507,10658.965565
2571.251875,-1149.143247,-0.000000,9326.594869
2571.252204,229.828649,296.082377,10362.883188
2571.252533,1685.410096,-0.000000,9030.512492
2571.252862,4136.915689,1480.411884,6069.688724
2571.253191,4596.572988,962.267725,6661.853478
2571.253521,3907.087040,1850.514855,5699.585753
2571.253850,3600.648841,1776.494261,7476.080014
2571.254179,1532.190996,1998.556043,7920.203579
2571.254508,0.000000,518.144159,8956.491898
2571.254837,-1455.581446,-1480.411884,11029.068536
2571.255166,-2145.067394,-2220.617826,10658.965565
2571.255496,-1991.848295,-4219.173869,11843.295072
2571.255825,-1838.629195,-3256.906145,10807.006753
2571.256154,-1762.019645,-2072.576638,10807.006753
2571.256483,-536.266849,-740.205942,9918.759623
2571.256812,2068.457845,666.185348,9474.636058
2571.257141,3370.820191,1480.411884,7328.038826
2571.257471,6205.373534,962.267725,6957.935855
2571.257800,5669.106685,2368.659014,5773.606348
2571.258129,4519.963438,2146.597232,6217.729913
2571.258458,4136.915689,1702.473667,7254.018232
2571.258787,1915.238745,1924.535449,7772.162391
2571.259116,76.609550,-0.000000,9622.677246
2571.259446,-2451.505594,-1480.411884,10510.924376
2571.259775,-3140.991542,-3478.967927,12287.418637
2571.260104,-2451.505594,-4145.153275,11769.274478
2571.260433,-2145.067394,-3627.009116,10584.944971
2571.260762,-1991.848295,-2960.823768,10362.883188
2571.261092,-1762.019645,-666.185348,10140.821405
2571.261421,-842.705048,1184.329507,9326.594869
2571.261750,842.705048,-0.000000,10362.883188
2571.262079,2911.162892,814.226536,7328.038826
2571.262408,4673.182538,1110.308913,6587.832884
2571.262737,3907.087040,1554.432478,5551.544565
2571.263067,3370.820191,1332.370696,6291.750507
2571.263396,2298.286494,1998.556043,8142.265362
2571.263725,0.000000,1554.432478,7846.182985
2571.264054,-1149.143247,-0.000000,9474.636058
2571.264383,-2298.286494,-1998.556043,11325.150913
2571.264712,-2451.505594,-2738.761985,10140.821405
2571.265042,-2374.896044,-3627.009116,10955.047942
2571.265371,-2374.896044,-1702.473667,11029.068536
2571.265700,-1915.238745,-1332.370696,10140.821405
2571.266029,-919.314598,-0.000000,10214.842000
2571.266358,-229.828649,1998.556043,8660.409521
2571.266687,1532.190996,-888.247130,10214.842000
2571.267017,1378.971896,-0.000000,7698.141797
2571.267346,3294.210641,1850.514855,6661.853478
2571.267675,2834.553343,2442.679609,6661.853478
2571.268004,1685.410096,2220.617826,7031.956449
2571.268333,306.438199,1628.453072,8882.471304
2571.268663,-1378.971896,666.185348,9178.553681
2571.268992,-1838.629195,-1480.411884,10066.800811
2571.269321,-2145.067394,-3034.844362,11177.109724
2571.269650,-2221.676944,-3478.967927,10140.821405
2571.269979,-2221.676944,-2220.617826,11547.212695
2571.270308,-1838.629195,-1406.391290,10510.924376
2571.270638,-1302.362347,-740.205942,9696.697840
2571.270967,-459.657299,148.041188,10584.944971
2571.271296,1762.019645,740.205942,9252.574275
2571.271625,2757.943793,370.102971,6735.874072
2571.271954,3370.820191,740.205942,8290.306550
2571.272283,3140.991542,2442.679609,6291.750507
2571.272613,2681.334243,2738.761985,7328.038826
2571.272942,689.485948,1628.453072,8438.347739
2571.273271,0.000000,1036.288319,8586.388927
2571.273600,-1149.143247,-814.226536,10288.862594
2571.273929,-1915.238745,-2886.803174,10584.944971
2571.274258,-1532.190996,-3849.070898,11251.130318
2571.274588,-2451.505594,-2664.741391,10658.965565
2571.274917,-995.924147,-814.226536,9992.780217
2571.275246,-766.095498,-518.144159,9326.594869
2571.275575,306.438199,444.123565,9770.718434
2571.275904,1762.019645,592.164754,8956.491898
2571.276234,3830.477490,814.226536,7105.977043
2571.276563,4136.915689,1184.329507,6143.709319
2571.276892,3370.820191,1924.535449,6291.750507
2571.277221,3753.867940,1998.556043,7476.080014
2571.277550,995.924147,2294.638420,7550.100608
2571.277879,76.609550,518.144159,8586.388927
2571.278209,-1072.533697,-1406.391290,10140.821405
2571.278538,-1532.190996,-1998.556043,9918.759623
2571.278867,-1685.410096,-3997.112087,11843.295072
2571.279196,-2451.505594,-3552.988522,10584.944971
2571.279525,-1302.362347,-2368.659014,10362.883188
2571.279854,-766.095498,-814.226536,9992.780217
2571.280184,229.828649,-0.000000,10288.862594
2571.280513,1378.971896,-0.000000,9400.615463
2571.280842,4136.915689,444.123565,7031.956449
2571.281171,4673.182538,1110.308913,7105.977043
2571.281500,3600.648841,1110.308913,6513.812290
2571.281829,3753.867940,2368.659014,7476.080014
2571.282159,1532.190996,2368.659014,7550.100608
2571.282488,689.485948,1258.350101,8512.368333
2571.282817,-766.095498,-1036.288319,10436.903782
2571.283146,-1915.238745,-2590.720797,11251.130318
2571.283475,-1685.410096,-4145.153275,12139.377449
2571.283805,-3140.991542,-3404.947333,10807.006753
2571.284134,-1685.410096,-2368.659014,10732.986159
2571.284463,-1225.752797,-1110.308913,10140.821405
2571.284792,-383.047749,1184.329507,9104.533087
2571.285121,1149.143247,592.164754,9992.780217
2571.285450,2451.505594,518.144159,7920.203579
2571.285780,3830.477490,1406.391290,7105.977043
2571.286109,4060.306139,2442.679609,6365.771101
2571.286438,2834.553343,2442.679609,6143.709319
2571.286767,1915.238745,2146.597232,8068.244768
2571.287096,-306.438199,1850.514855,8290.306550
2571.287425,-766.095498,-444.123565,9622.677246
2571.287755,-1838.629195,-1924.535449,11473.192101
2571.288084,-2145.067394,-2886.803174,10436.903782
2571.288413,-2528.115143,-2812.782580,10436.903782
2571.288742,-2221.676944,-2146.597232,11103.089130
2571.289071,-1838.629195,-1258.350101,9770.718434
2571.289400,-459.657299,222.061783,9548.656652
2571.289730,0.000000,370.102971,9252.574275
2571.290059,1608.800546,-962.267725,9696.697840
2571.290388,3064.381992,370.102971,6809.894666
2571.290717,3294.210641,1776.494261,7179.997637
2571.291046,2221.676944,1924.535449,6513.812290
2571.291376,2528.115143,2886.803174,7846.182985
2571.291705,153.219100,1850.514855,8290.306550
2571.292035,-612.876398,222.061783,9696.697840
2571.292364,-2145.067394,-1924.535449,11029.068536
2571.292693,-1915.238745,-2886.803174,10362.883188
2571.293022,-2221.676944,-3997.112087,11103.089130
2571.293351,-2451.505594,-2368.659014,10955.047942
2571.293680,-1149.143247,-1480.411884,9770.718434
2571.294010,-1149.143247,-222.061783,9844.739029
2571.294339,995.924147,814.226536,10066.800811
2571.294668,1762.019645,1406.391290,7846.182985
2571.294997,4060.306139,592.164754,7254.018232
2571.295326,3907.087040,1998.556043,6513.812290
2571.295656,2757.943793,2516.700203,6957.935855
2571.295985,2451.505594,1480.411884,7846.182985
2571.296314,-383.047749,1332.370696,8512.368333
2571.296643,-1608.800546,-222.061783,9844.739029
2571.296972,-2451.505594,-1628.453072,10362.883188
2571.297301,-2451.505594,-3478.967927,10881.027347
2571.297631,-2987.772442,-3108.864956,10955.047942
2571.297960,-1838.629195,-2886.803174,11103.089130
2571.298289,-1685.410096,-1628.453072,9622.677246
2571.298618,-536.266849,-0.000000,9918.759623
2571.298947,1072.533697,592.164754,9918.759623
2571.299276,2145.067394,518.144159,7994.224174
2571.299606,4213.525239,1036.288319,6735.874072
2571.299935,4826.401637,1998.556043,5847.626942
2571.300264,3524.039291,1998.556043,6661.853478
2571.300593,3600.648841,2516.700203,7402.059420
2571.300922,1149.143247,1998.556043,7772.162391
2571.301251,-612.876398,-222.061783,9400.615463
2571.301581,-2451.505594,-1998.556043,10955.047942
2571.301910,-2374.896044,-3404.947333,11325.150913
2571.302239,-2374.896044,-4589.276840,11769.274478
2571.302568,-1915.238745,-2590.720797,10510.924376
2571.302897,-1149.143247,-2072.576638,10584.944971
2571.303227,-766.095498,-222.061783,9474.636058
2571.303556,1072.533697,1258.350101,10288.862594
2571.303885,2987.772442,888.247130,7550.100608
2571.304214,4749.792088,518.144159,6735.874072
2571.304543,3983.696590,3108.864956,6883.915261
2571.304872,4136.915689,1406.391290,6957.935855
2571.305202,3140.991542,1924.535449,6661.853478
2571.305531,1072.533697,2738.761985,8512.368333
2571.305860,-766.095498,-222.061783,9844.739029
2571.306189,-2451.505594,-1702.473667,10584.944971
2571.306518,-2834.553343,-3404.947333,11769.274478
2571.306847,-2374.896044,-3923.091493,10288.862594
2571.307177,-2451.505594,-2812.782580,11103.089130
2571.307506,-1225.752797,-1702.473667,10510.924376
2571.307835,-1149.143247,296.082377,9400.615463
2571.308164,459.657299,740.205942,10140.821405
2571.308493,2374.896044,-0.000000,8956.491898
2571.308822,3830.477490,1998.556043,6217.729913
2571.309152,4290.134789,1406.391290,8142.265362
2571.309481,4060.306139,2146.597232,5699.585753
2571.309810,3983.696590,2590.720797,7179.997637
2571.310139,995.924147,1998.556043,7624.121203
2571.310468,229.828649,592.164754,8734.430116
2571.310797,-1762.019645,-1332.370696,10955.047942
2571.311127,-2451.505594,-3182.885551,10436.903782
2571.311456,-2451.505594,-3552.988522,10732.986159
2571.311785,-2681.334243,-3404.947333,11251.130318
2571.312114,-1685.410096,-1258.350101,10807.006753
2571.312443,-919.314598,-814.226536,10288.862594
2571.312773,-459.657299,1110.308913,9104.533087
2571.313102,919.314598,-0.000000,10066.800811
2571.313431,2374.896044,-222.061783,7550.100608
2571.313760,4366.744339,1332.370696,7254.018232
2571.314089,3524.039291,2072.576638,5551.544565
2571.314418,2681.334243,2294.638420,7179.997637
2571.314748,1302.362347,2072.576638,8660.409521
2571.315077,-229.828649,1480.411884,8734.430116
2571.315406,-1455.581446,-1110.308913,10066.800811
2571.315735,-2298.286494,-2368.659014,10881.027347
2571.316064,-2451.505594,-3552.988522,10510.924376
2571.316393,-2298.286494,-2812.782580,10362.883188
2571.316723,-1302.362347,-2072.576638,10658.965565
2571.317052,-1455.581446,-1332.370696,9474.636058
2571.317381,-383.047749,296.082377,9474.636058
2571.317710,153.219100,666.185348,9548.656652
2571.318039,1455.581446,-444.123565,8216.285956
2571.318368,3447.429741,740.205942,7179.997637
2571.318698,2987.772442,2072.576638,6587.832884
2571.319027,2298.286494,2442.679609,6809.894666
2571.319356,1685.410096,2146.597232,8290.306550
2571.319685,0.000000,1702.473667,8660.409521
2571.320014,-842.705048,-148.041188,9474.636058
2571.320344,-1915.238745,-1924.535449,10362.883188
2571.320673,-1302.362347,-3849.070898,10140.821405
2571.321002,-2221.676944,-2886.803174,10436.903782
2571.321331,-1532.190996,-1332.370696,9548.656652
2571.321660,-919.314598,-888.247130,9992.780217
2571.321989,-689.485948,-370.102971,8882.471304
2571.322319,0.000000,814.226536,9918.759623
2571.322648,1225.752797,-814.226536,9178.553681
2571.322977,2834.553343,-222.061783,5995.668130
2571.323306,3064.381992,1850.514855,7031.956449
2571.323635,2145.067394,1628.453072,7105.977043
2571.323964,1685.410096,2516.700203,8364.327145
2571.324294,76.609550,1332.370696,9326.594869
2571.324623,-536.266849,-0.000000,9326.594869
2571.324952,-1685.410096,-1406.391290,10510.924376
2571.325281,-2298.286494,-3182.885551,10807.006753
2571.325610,-1762.019645,-3849.070898,11547.212695
2571.325939,-1378.971896,-1776.494261,11177.109724
2571.326269,-306.438199,-666.185348,9992.780217
2571.326598,0.000000,-74.020594,9992.780217
2571.326927,2221.676944,518.144159,9918.759623
2571.327256,3294.210641,1406.391290,7105.977043
2571.327585,4749.792088,962.267725,6661.853478
2571.327915,3677.258390,2146.597232,6365.771101
2571.328244,4136.915689,2516.700203,7179.997637
2571.328573,2451.505594,2738.761985,8068.244768
2571.328902,229.828649,1332.370696,8882.471304
2571.329231,-1072.533697,-888.247130,10510.924376
2571.329560,-2374.896044,-2442.679609,11103.089130
2571.329890,-2145.067394,-3997.112087,11991.336260
2571.330219,-1608.800546,-3330.926739,10214.842000
2571.330548,-995.924147,-2368.659014,10807.006753
2571.330877,-766.095498,-518.144159,9548.656652
2571.331206,459.657299,888.247130,8956.491898
2571.331535,1838.629195,666.185348,9474.636058
2571.331865,3370.820191,666.185348,6513.812290
2571.332194,5132.839837,1850.514855,6661.853478
2571.332523,4443.353888,1850.514855,5329.482782
2571.332852,3294.210641,2294.638420,6809.894666
2571.333181,1608.800546,1924.535449,7920.203579
2571.333510,-306.438199,1998.556043,7994.224174
2571.333840,-2298.286494,-592.164754,10288.862594
2571.334169,-2528.115143,-2146.597232,11769.274478
2571.334498,-2145.067394,-3108.864956,10288.862594
2571.334827,-1915.238745,-3478.967927,11103.089130
2571.335156,-2298.286494,-2738.761985,10362.883188
2571.335486,-1455.581446,-1628.453072,10066.800811
2571.335815,-842.705048,-222.061783,10214.842000
2571.336144,-612.876398,1184.329507,8512.368333
2571.336473,153.219100,-1850.514855,10732.986159
2571.336802,1991.848295,-962.267725,9770.718434
2571.337131,2757.943793,592.164754,6143.709319
2571.337461,3600.648841,1184.329507,7550.100608
2571.337790,2911.162892,3256.906145,5995.668130
2571.338119,2451.505594,3330.926739,7624.121203
2571.338448,459.657299,1776.494261,8438.347739
2571.338777,-612.876398,370.102971,8216.285956
2571.339106,-689.485948,-2738.761985,10436.903782
2571.339436,-1532.190996,-3552.988522,10584.944971
2571.339765,-2451.505594,-3256.906145,10732.986159
2571.340094,-2451.505594,-2368.659014,11029.068536
2571.340423,-1378.971896,-666.185348,9918.759623
2571.340752,-995.924147,370.102971,9622.677246
2571.341081,-536.266849,814.226536,9326.594869
2571.341411,919.314598,-0.000000,9548.656652
2571.341740,1149.143247,-0.000000,6513.812290
2571.342069,2987.772442,1924.535449,7624.121203
2571.342398,919.314598,2516.700203,6809.894666
2571.342727,689.485948,1480.411884,8364.327145
2571.343057,-612.876398,1258.350101,8956.491898
2571.343386,-1072.533697,222.061783,8586.388927
2571.343715,-1455.581446,-2146.597232,9992.780217
2571.344044,-1532.190996,-2294.638420,9918.759623
2571.344373,-1532.190996,-2442.679609,10214.842000
2571.344702,-1915.238745,-1702.473667,10510.924376
2571.345032,-766.095498,-518.144159,9400.615463
2571.345361,0.000000,-814.226536,10584.944971
2571.345690,1302.362347,-0.000000,9400.615463
2571.346019,2681.334243,1628.453072,7031.956449
2571.346348,3217.601092,-0.000000,7179.997637
2571.346677,3600.648841,1850.514855,7328.038826
2571.347007,2987.772442,2368.659014,7994.224174
2571.347336,1225.752797,2072.576638,8660.409521
2571.347665,153.219100,1184.329507,9474.636058
2571.347994,-766.095498,-1184.329507,10584.944971
2571.348323,-1608.800546,-2294.638420,10658.965565
2571.348652,-1762.019645,-3404.947333,10807.006753
2571.348982,-1532.190996,-3775.050304,10807.006753
2571.349311,-842.705048,-1850.514855,10584.944971
2571.349640,153.219100,-148.041188,10510.924376
2571.349969,1685.410096,222.061783,9104.533087
2571.350298,2987.772442,888.247130,8364.327145
2571.350628,4213.525239,962.267725,7105.977043
2571.350957,4366.744339,1702.473667,6587.832884
2571.351286,3983.696590,1628.453072,6883.915261
2571.351615,3140.991542,1850.514855,7105.977043
2571.351944,1608.800546,1924.535449,8512.368333
2571.352273,-689.485948,1110.308913,9400.615463
2571.352603,-1991.848295,-1628.453072,10807.006753
2571.352932,-2221.676944,-2516.700203,10955.047942
2571.353261,-1762.019645,-2886.803174,10214.842000
2571.353590,-1608.800546,-2516.700203,10140.821405
2571.353919,-2145.067394,-1850.514855,10214.842000
2571.354248,-689.485948,-444.123565,9400.615463
2571.354578,76.609550,-222.061783,9696.697840
2571.354907,1762.019645,-0.000000,9474.636058
2571.355236,3370.820191,962.267725,6439.791695
2571.355565,4290.134789,1554.432478,6957.935855
2571.355894,3370.820191,2146.597232,6143.709319
2571.356223,3907.087040,2146.597232,7476.080014
2571.356553,1685.410096,3552.988522,7772.162391
2571.356882,229.828649,1036.288319,8512.368333
2571.357211,-1685.410096,-962.267725,10732.986159
2571.357540,-2528.115143,-2590.720797,10955.047942
2571.357869,-2298.286494,-3404.947333,10881.027347
2571.358198,-2604.724693,-2812.782580,9992.780217
2571.358528,-2451.505594,-1924.535449,10584.944971
2571.358857,-1915.238745,-1406.391290,9918.759623
2571.359186,-766.095498,740.205942,9252.574275
2571.359515,-383.047749,518.144159,9104.533087
2571.359844,1608.800546,-1036.288319,9548.656652
2571.360174,2298.286494,1184.329507,6809.894666
2571.360503,2451.505594,1406.391290,7105.977043
2571.360832,1991.848295,1406.391290,6809.894666
2571.361161,1225.752797,2072.576638,8364.327145
2571.361490,-229.828649,1332.370696,8882.471304
2571.361819,-1915.238745,-222.061783,9474.636058
2571.362149,-1915.238745,-1554.432478,10288.862594
2571.362478,-2298.286494,-2812.782580,9844.739029
2571.362807,-2374.896044,-3404.947333,10288.862594
2571.363136,-2298.286494,-1702.473667,11177.109724
2571.363465,-1532.190996,-1036.288319,9474.636058
2571.363794,-1532.190996,-296.082377,8734.430116
2571.364124,153.219100,444.123565,9474.636058
2571.364453,1455.581446,-0.000000,9104.533087
2571.364782,2604.724693,-0.000000,7179.997637
2571.365111,2987.772442,1036.288319,7624.121203
2571.365440,2911.162892,2590.720797,7254.018232
2571.365769,3064.381992,3034.844362,7550.100608
2571.366099,689.485948,1332.370696,8586.388927
2571.366428,0.000000,370.102971,9252.574275
2571.366757,-1072.533697,-1554.432478,10362.883188
2571.367086,-2068.457845,-2738.761985,10066.800811
2571.367415,-1455.581446,-3552.988522,11251.130318
2571.367745,-1991.848295,-1998.556043,10732.986159
2571.368074,-1072.533697,-1036.288319,10214.842000
2571.368403,-229.828649,-814.226536,10066.800811
2571.368732,1991.848295,1036.288319,8586.388927
2571.369061,3294.210641,1258.350101,7994.224174
2571.369390,4060.306139,962.267725,6735.874072
2571.369720,3677.258390,1850.514855,6809.894666
2571.370049,3140.991542,1850.514855,7772.162391
2571.370378,2451.505594,1924.535449,7994.224174
2571.370707,306.438199,1406.391290,9326.594869
2571.371036,-1762.019645,-814.226536,10288.862594
2571.371365,-2451.505594,-2072.576638,10732.986159
2571.371695,-2068.457845,-4367.215058,11991.336260
2571.372024,-2374.896044,-3330.926739,10140.821405
2571.372353,-1532.190996,-2738.761985,11177.109724
2571.372682,-1762.019645,-1480.411884,10066.800811
2571.373011,153.219100,444.123565,9326.594869
2571.373340,1225.752797,-592.164754,10955.047942
2571.373670,3064.381992,-0.000000,7031.956449
2571.373999,4903.011187,1332.370696,7476.080014
2571.374328,4213.525239,1628.453072,5477.523971
2571.374657,3983.696590,1776.494261,5995.668130
2571.374986,3447.429741,2738.761985,7402.059420
2571.375316,1685.410096,2664.741391,6957.935855
2571.375645,153.219100,296.082377,9474.636058
2571.375974,-1991.848295,-1628.453072,10584.944971
2571.376303,-2221.676944,-3034.844362,10881.027347
2571.376632,-2604.724693,-4441.235652,11473.192101
2571.376961,-1991.848295,-2442.679609,9770.718434
2571.377291,-1378.971896,-1998.556043,10436.903782
2571.377620,-1378.971896,296.082377,9770.718434
2571.377949,153.219100,1184.329507,9178.553681
2571.378278,1685.410096,-444.123565,9474.636058
2571.378607,2834.553343,370.102971,6291.750507
2571.378936,3830.477490,1480.411884,7105.977043
2571.379266,2298.286494,1776.494261,5847.626942
2571.379595,2298.286494,1184.329507,7994.224174
2571.379924,689.485948,1554.432478,7550.100608
2571.380253,-1149.143247,518.144159,8512.368333
2571.380582,-1915.238745,-1850.514855,11251.130318
2571.380911,-2451.505594,-2812.782580,11103.089130
2571.381241,-2604.724693,-3552.988522,10881.027347
2571.381570,-2911.162892,-2368.659014,11177.109724
2571.381899,-1991.848295,-1628.453072,10584.944971
2571.382228,-1915.238745,-222.061783,10732.986159
2571.382557,-306.438199,518.144159,9844.739029
2571.382887,1532.190996,1036.288319,9474.636058
2571.383216,2604.724693,888.247130,6735.874072
2571.383545,3370.820191,2146.597232,7550.100608
2571.383874,2911.162892,2072.576638,6735.874072
2571.384203,3447.429741,2812.782580,7772.162391
2571.384532,689.485948,2738.761985,7846.182985
2571.384862,76.609550,666.185348,9178.553681
2571.385191,-1532.190996,-1258.350101,10214.842000
2571.385520,-2528.115143,-2590.720797,10807.006753
2571.385849,-2145.067394,-3627.009116,10881.027347
2571.386178,-2145.067394,-2368.659014,10584.944971
2571.386507,-1378.971896,-1036.288319,10510.924376
2571.386837,-1455.581446,-74.020594,9918.759623
2571.387166,153.219100,370.102971,9992.780217
2571.387495,2145.067394,962.267725,8882.471304
2571.387824,3294.210641,518.144159,6439.791695
2571.388153,4060.306139,962.267725,7105.977043
2571.388482,3064.381992,1850.514855,6439.791695
2571.388812,3064.381992,1702.473667,7624.121203
2571.389141,612.876398,2442.679609,7772.162391
2571.389470,0.000000,370.102971,8734.430116
2571.389799,-2221.676944,-1036.288319,10436.903782
2571.390128,-2528.115143,-2812.782580,11325.150913
2571.390457,-2604.724693,-4071.132681,10658.965565
2571.390787,-2681.334243,-2960.823768,10807.006753
2571.391116,-1685.410096,-2294.638420,10807.006753
2571.391445,-1838.629195,-1258.350101,9992.780217
2571.391774,-536.266849,740.205942,10214.842000
2571.392103,766.095498,-296.082377,10584.944971
2571.392432,2451.505594,-148.041188,7624.121203
2571.392762,3753.867940,1332.370696,6661.853478
2571.393091,3677.258390,1480.411884,5921.647536
2571.393420,3524.039291,2516.700203,7031.956449
2571.393749,2298.286494,2368.659014,7994.224174
2571.394078,459.657299,1406.391290,8216.285956
2571.394407,-383.047749,-296.082377,9400.615463
2571.394736,-1302.362347,-1850.514855,10510.924376
2571.395066,-2298.286494,-3552.988522,10584.944971
2571.395395,-1915.238745,-4367.215058,11547.212695
2571.395724,-1532.190996,-2368.659014,10214.842000
2571.396053,-766.095498,-666.185348,10214.842000
2571.396382,0.000000,-0.000000,9548.656652
2571.396711,1838.629195,1628.453072,8512.368333
2571.397041,3830.477490,1036.288319,7328.038826
2571.397370,4596.572988,1258.350101,5921.647536
2571.397699,4136.915689,1998.556043,6513.812290
2571.398028,3447.429741,2516.700203,7179.997637
2571.398357,1762.019645,1480.411884,8290.306550
2571.398686,-612.876398,1036.288319,9104.533087
2571.399015,-2068.457845,-814.226536,10066.800811
2571.399345,-2681.334243,-2516.700203,11029.068536
2571.399674,-2298.286494,-3627.009116,11103.089130
2571.400003,-1915.238745,-2886.803174,9992.780217
2571.400332,-1378.971896,-2146.597232,11029.068536
2571.400661,-1225.752797,-740.205942,9696.697840
2571.400990,76.609550,148.041188,10140.821405
2571.401319,1838.629195,296.082377,9474.636058
2571.401649,3524.039291,1332.370696,6291.750507
2571.401978,4903.011187,1480.411884,7031.956449
2571.402307,4136.915689,1702.473667,5773.606348
2571.402636,4136.915689,2294.638420,7698.141797
2571.402965,2145.067394,2146.597232,7698.141797
2571.403294,0.000000,1110.308913,8808.450710
2571.403624,-1991.848295,-888.247130,11251.130318
2571.403953,-2681.334243,-2146.597232,11325.150913
2571.404282,-2604.724693,-3552.988522,11843.295072
2571.404611,-2987.772442,-3034.844362,10510.924376
2571.404940,-1991.848295,-2294.638420,11251.130318
2571.405269,-1608.800546,-814.226536,10066.800811
2571.405598,-76.609550,592.164754,9770.718434
2571.405928,1302.362347,592.164754,9622.677246
2571.406257,2681.334243,814.226536,6587.832884
2571.406586,4749.792088,1480.411884,7328.038826
2571.406915,3830.477490,1850.514855,5403.503377
2571.407244,3600.648841,2072.576638,7328.038826
2571.407573,1608.800546,1924.535449,7920.203579
2571.407903,-612.876398,1554.432478,8512.368333
2571.408232,-2145.067394,-740.205942,10288.862594
2571.408561,-2911.162892,-1998.556043,10807.006753
2571.408890,-2834.553343,-2960.823768,10140.821405
2571.409219,-3217.601092,-3330.926739,10881.027347
2571.409548,-2451.505594,-2442.679609,10881.027347
2571.409877,-2987.772442,-1554.432478,9844.739029
2571.410207,-919.314598,222.061783,9548.656652
2571.410536,-306.438199,1258.350101,8290.306550
2571.410865,2451.505594,-740.205942,9400.615463
2571.411194,2681.334243,1258.350101,5995.668130
2571.411523,4213.525239,1776.494261,6883.915261
2571.411852,3677.258390,2072.576638,6365.771101
2571.412182,2987.772442,3034.844362,7105.977043
2571.412511,1149.143247,1850.514855,7846.182985
2571.412840,-1072.533697,222.061783,8808.450710
2571.413169,-2145.067394,-1776.494261,10881.027347
2571.413498,-2451.505594,-3182.885551,11103.089130
2571.413827,-2757.943793,-3552.988522,11177.109724
2571.414156,-2757.943793,-2368.659014,11325.150913
2571.414486,-2145.067394,-1480.411884,10732.986159
2571.414815,-1378.971896,-370.102971,9548.656652
2571.415144,0.000000,740.205942,9474.636058
2571.415473,1455.581446,-0.000000,9992.780217
2571.415802,2528.115143,-296.082377,7031.956449
2571.416131,3907.087040,1110.308913,7254.018232
2571.416461,3217.601092,2220.617826,5699.585753
2571.416790,2528.115143,2072.576638,7476.080014
2571.417119,306.438199,1924.535449,8956.491898
2571.417448,-995.924147,814.226536,9326.594869
2571.417777,-1532.190996,-1554.432478,10362.883188
2571.418106,-2068.457845,-2368.659014,10584.944971
2571.418435,-2221.676944,-3997.112087,10881.027347
2571.418765,-3064.381992,-2960.823768,11473.192101
2571.419094,-536.266849,-1036.288319,9696.697840
2571.419423,-459.657299,-222.061783,9770.718434
2571.419752,1072.533697,-0.000000,10214.842000
2571.420081,2757.943793,1036.288319,8290.306550
2571.420410,4366.744339,518.144159,6809.894666
2571.420739,4519.963438,888.247130,5921.647536
2571.421069,3753.867940,1850.514855,6809.894666
2571.421398,4136.915689,2812.782580,8068.244768
2571.421727,2068.457845,3849.070898,7328.038826
2571.422056,995.924147,1110.308913,8660.409521
2571.422385,-689.485948,-1554.432478,10732.986159
2571.422714,-1455.581446,-2072.576638,10214.842000
2571.423044,-1838.629195,-4589.276840,11769.274478
2571.423373,-1378.971896,-3108.864956,11399.171507
2571.423702,-1149.143247,-1998.556043,10510.924376
2571.424031,-919.314598,-444.123565,9992.780217
2571.424360,1072.533697,666.185348,9400.615463
2571.424689,2681.334243,740.205942,8512.368333
2571.425018,4519.963438,814.226536,7328.038826
2571.425348,4903.011187,1924.535449,6217.729913
2571.425677,3907.087040,1258.350101,6883.915261
2571.426006,2987.772442,2516.700203,6957.935855
2571.426335,1378.971896,2368.659014,8068.244768
2571.426664,-842.705048,444.123565,9252.574275
2571.426993,-2298.286494,-1184.329507,10288.862594
2571.427323,-2757.943793,-3182.885551,11917.315666
2571.427652,-2604.724693,-4663.297435,10881.027347
2571.427981,-2068.457845,-3182.885551,10510.924376
2571.428310,-2221.676944,-2886.803174,10140.821405
2571.428639,-2451.505594,-296.082377,9622.677246
2571.428968,-842.705048,1184.329507,9326.594869
2571.429297,612.876398,-0.000000,10510.924376
2571.429627,2757.943793,518.144159,7550.100608
2571.429956,4136.915689,1332.370696,6883.915261
2571.430285,3753.867940,1480.411884,5551.544565
2571.430614,3294.210641,2146.597232,6291.750507
2571.430943,2451.505594,2220.617826,7179.997637
2571.431272,0.000000,1702.473667,8438.347739
2571.431602,-1072.533697,-148.041188,9474.636058
2571.431931,-2221.676944,-2442.679609,11103.089130
2571.432260,-2451.505594,-3108.864956,10288.862594
2571.432589,-3140.991542,-3627.009116,10584.944971
2571.432918,-2451.505594,-1776.494261,10955.047942
2571.433247,-1455.581446,-1110.308913,9844.739029
2571.433576,-383.047749,-0.000000,9178.553681
2571.433906,-459.657299,1702.473667,9178.553681
2571.434235,1838.629195,-740.205942,9474.636058
2571.434564,2374.896044,-0.000000,6143.709319
2571.434893,3370.820191,1924.535449,6735.874072
2571.435222,1838.629195,1998.556043,6365.771101
2571.435551,1378.971896,2294.638420,7920.203579
2571.435881,0.000000,1480.411884,8734.430116
2571.436210,-1608.800546,-0.000000,9400.615463
2571.436539,-2298.286494,-2072.576638,11029.068536
2571.436868,-2451.505594,-2960.823768,10510.924376
2571.437197,-2681.334243,-3478.967927,10436.903782
2571.437526,-3294.210641,-2072.576638,11399.171507
2571.437855,-2221.676944,-1110.308913,10066.800811
2571.438185,-612.876398,444.123565,9548.656652
2571.438514,-383.047749,1258.350101,9104.533087
2571.438843,0.000000,296.082377,9326.594869
2571.439172,689.485948,-370.102971,8512.368333
2571.439501,1532.190996,1332.370696,7328.038826
2571.439830,1072.533697,1850.514855,6587.832884
2571.440159,306.438199,2664.741391,7254.018232
2571.440489,-1149.143247,1554.432478,8808.450710
2571.440818,-2834.553343,666.185348,9918.759623
2571.441147,-3140.991542,-1036.288319,10510.924376
2571.441476,-2451.505594,-1924.535449,9474.636058
2571.441805,-2834.553343,-2516.700203,9178.553681
2571.442134,-3294.210641,-2294.638420,10955.047942
2571.442464,-3447.429741,-814.226536,9992.780217
2571.442793,-1532.190996,-1258.350101,10881.027347
2571.443122,-1991.848295,222.061783,9178.553681
2571.443451,-1149.143247,1628.453072,7328.038826
2571.443780,-1455.581446,-370.102971,9178.553681
2571.444109,-1378.971896,-1406.391290,9696.697840
2571.444438,-306.438199,-0.000000,7994.224174
2571.444768,0.000000,1110.308913,7550.100608
2571.445097,-1685.410096,1258.350101,7846.182985
2571.445426,-2221.676944,814.226536,8364.327145
2571.445755,-3064.381992,518.144159,9474.636058
2571.446084,-2604.724693,-592.164754,9326.594869
2571.446413,-2221.676944,-1110.308913,8364.327145
2571.446743,-1991.848295,-962.267725,9844.739029
2571.447072,-2451.505594,-1332.370696,9252.574275
2571.447401,-1915.238745,-1406.391290,10658.965565
2571.447730,-1455.581446,-1258.350101,10140.821405
2571.448059,-1838.629195,-222.061783,8956.491898
2571.448388,-1762.019645,74.020594,9622.677246
2571.448717,-1685.410096,518.144159,9178.553681
2571.449047,-306.438199,444.123565,7624.121203
2571.449376,-842.705048,1184.329507,7402.059420
2571.449705,-1302.362347,1554.432478,6883.915261
2571.450034,-2374.896044,-148.041188,8290.306550
2571.450363,-4443.353888,-814.226536,9474.636058
2571.450692,-3830.477490,-962.267725,8586.388927
2571.451022,-4749.792088,-1998.556043,7402.059420
2571.451351,-6128.763984,-3108.864956,10658.965565
2571.451680,-7507.735880,-3627.009116,11843.295072
2571.452009,-6588.421283,-1702.473667,13101.645173
2571.452338,-5898.935335,-1406.391290,10807.006753
2571.452667,-3677.258390,-296.082377,9548.656652
2571.452996,-1915.238745,1036.288319,9474.636058
2571.453326,-995.924147,3627.009116,6069.688724
2571.453655,-919.314598,1998.556043,7698.141797
2571.453984,1225.752797,1480.411884,9844.739029
2571.454313,1838.629195,3923.091493,3701.029710
2571.454642,2604.724693,1702.473667,7328.038826
2571.454971,-1149.143247,1850.514855,5773.606348
2571.455301,-1378.971896,-74.020594,9178.553681
2571.455630,-3830.477490,-2220.617826,9918.759623
2571.455959,-2681.334243,-1776.494261,10214.842000
2571.456288,-3064.381992,-3108.864956,10732.986159
2571.456617,-5132.839837,-1406.391290,10362.883188
2571.456946,-6511.811733,-2368.659014,11399.171507
2571.457275,-6741.640382,-666.185348,12065.356855
2571.457605,-4673.182538,-592.164754,10807.006753
2571.457934,-3753.867940,-888.247130,9622.677246
2571.458263,-1838.629195,666.185348,9178.553681
2571.458592,-2068.457845,1702.473667,6439.791695
2571.458921,-2451.505594,-2368.659014,7772.162391
2571.459250,-2298.286494,-666.185348,9400.615463
2571.459580,-1685.410096,-148.041188,8364.327145
2571.459909,-1915.238745,-1184.329507,8956.491898
2571.460238,-3064.381992,-444.123565,8438.347739
2571.460567,-2451.505594,-592.164754,9622.677246
2571.460896,-2757.943793,-1110.308913,9178.553681
2571.461225,-2068.457845,-0.000000,8734.430116
2571.461554,-995.924147,1110.308913,9474.636058
2571.461884,-1762.019645,1628.453072,9400.615463
2571.462213,-2221.676944,2590.720797,8142.265362
2571.462542,-2451.505594,1924.535449,8438.347739
2571.462871,-2068.457845,1850.514855,8216.285956
2571.463200,-1838.629195,666.185348,8290.306550
2571.463529,-1225.752797,518.144159,8068.244768
2571.463858,-842.705048,592.164754,7402.059420
2571.464188,-1991.848295,-0.000000,7994.224174
2571.464517,-2987.772442,370.102971,7920.203579
2571.464846,-3140.991542,1036.288319,8734.430116
2571.465175,-3217.601092,370.102971,8808.450710
2571.465504,-2604.724693,592.164754,9474.636058
2571.465833,-2604.724693,1332.370696,9918.759623
2571.466163,-3447.429741,592.164754,9844.739029
2571.466492,-3753.867940,888.247130,11325.150913
2571.466821,-3064.381992,-74.020594,11325.150913
2571.467150,-1838.629195,444.123565,9992.780217
2571.467479,-842.705048,370.102971,9918.759623
2571.467808,-995.924147,1850.514855,8512.368333
2571.468137,-1762.019645,592.164754,10732.986159
2571.468467,689.485948,1702.473667,11251.130318
2571.468796,2221.676944,3182.885551,5625.565159
2571.469125,4290.134789,3775.050304,7698.141797
2571.469454,2911.162892,4145.153275,4959.379811
2571.469783,3370.820191,4811.338623,7476.080014
2571.470112,1608.800546,3775.050304,7698.141797
2571.470442,1838.629195,3849.070898,8734.430116
2571.470771,612.876398,1554.432478,10140.821405
2571.471100,-1225.752797,2664.741391,10510.924376
2571.471429,-2298.286494,888.247130,11769.274478
2571.471758,-2528.115143,1332.370696,11177.109724
2571.472087,-1378.971896,2294.638420,10362.883188
2571.472416,-842.705048,1702.473667,10584.944971
2571.472746,306.438199,3182.885551,10066.800811
2571.473075,612.876398,3627.009116,7698.141797
2571.473404,2145.067394,2294.638420,8142.265362
2571.473733,2528.115143,5255.462188,6513.812290
2571.474062,2757.943793,4811.338623,6513.812290
2571.474391,1608.800546,4219.173869,7476.080014
2571.474721,536.266849,4293.194464,7402.059420
2571.475050,-1072.533697,2146.597232,9474.636058
2571.475379,-3064.381992,1998.556043,9622.677246
2571.475708,-3217.601092,814.226536,11177.109724
2571.476037,-3753.867940,1184.329507,10807.006753
2571.476366,-2834.553343,3108.864956,9622.677246
2571.476695,-2987.772442,2368.659014,10584.944971
2571.477025,-3294.210641,2516.700203,10066.800811
2571.477354,-2604.724693,2960.823768,10807.006753
2571.477683,-1608.800546,2664.741391,9992.780217
2571.478012,-842.705048,3478.967927,8290.306550
2571.478341,-1378.971896,3330.926739,8586.388927
2571.478670,-995.924147,2294.638420,10288.862594
2571.479000,1455.581446,2294.638420,10362.883188
2571.479329,2757.943793,5181.441594,5255.462188
2571.479658,4519.963438,3923.091493,8438.347739
2571.479987,3140.991542,5255.462188,6513.812290
2571.480316,4290.134789,6365.771101,7920.203579
2571.480645,2451.505594,6143.709319,7476.080014
2571.480974,2068.457845,6439.791695,7105.977043
2571.481304,1072.533697,5625.565159,9030.512492
2571.481633,0.000000,6365.771101,7179.997637
2571.481962,-1378.971896,3404.947333,9326.594869
2571.482291,-1991.848295,222.061783,11695.253884
2571.482620,-1302.362347,1036.288319,10288.862594
2571.482949,-1915.238745,-370.102971,11177.109724
2571.483278,-1455.581446,-0.000000,10658.965565
2571.483608,-842.705048,3552.988522,10955.047942
2571.483937,1608.800546,1924.535449,8956.491898
2571.484266,2374.896044,5551.544565,7402.059420
2571.484595,3370.820191,4219.173869,8216.285956
2571.484924,3907.087040,3701.029710,8142.265362
2571.485253,2987.772442,5477.523971,6291.750507
2571.485583,2911.162892,5403.503377,7328.038826
2571.485912,842.705048,3849.070898,7254.018232
2571.486241,153.219100,3034.844362,9844.739029
2571.486570,-2221.676944,-0.000000,11843.295072
2571.486899,-2987.772442,-0.000000,11621.233289
2571.487228,-2834.553343,1332.370696,11251.130318
2571.487557,-2221.676944,-888.247130,10510.924376
2571.487887,-2374.896044,2294.638420,9844.739029
2571.488216,-1378.971896,1184.329507,9474.636058
2571.488545,-995.924147,2738.761985,8216.285956
2571.488874,-153.219100,592.164754,9992.780217
2571.489203,3524.039291,370.102971,10510.924376
2571.489532,3294.210641,2812.782580,4219.173869
2571.489862,4903.011187,1554.432478,9400.615463
2571.490191,2604.724693,1628.453072,6291.750507
2571.490520,4749.792088,3923.091493,7772.162391
2571.490849,2757.943793,4145.153275,7031.956449
2571.491178,2757.943793,4589.276840,6587.832884
2571.491507,306.438199,2294.638420,8808.450710
2571.491837,-2528.115143,-1184.329507,10658.965565
2571.492166,-4673.182538,-2664.741391,12287.418637
2571.492495,-4213.525239,-2442.679609,12657.521608
2571.492824,-3217.601092,-2590.720797,9844.739029
2571.493153,-3524.039291,-962.267725,11251.130318
2571.493482,-1991.848295,-370.102971,9326.594869
2571.493812,-536.266849,1776.494261,7994.224174
2571.494141,459.657299,-0.000000,7698.141797
2571.494470,1378.971896,222.061783,8660.409521
2571.494799,4366.744339,-222.061783,9104.533087
2571.495128,4136.915689,2960.823768,3997.112087
2571.495457,4903.011187,1184.329507,7105.977043
2571.495787,3907.087040,2960.823768,4959.379811
2571.496116,5822.325785,1924.535449,7624.121203
2571.496445,3294.210641,4071.132681,5625.565159
2571.496774,3140.991542,4441.235652,5255.462188
2571.497103,-459.657299,-0.000000,8512.368333
2571.497432,-4903.011187,-1628.453072,10436.903782
2571.497762,-4596.572988,-3775.050304,13989.892304
2571.498091,-7124.688131,-888.247130,7846.182985
2571.498420,-4673.182538,-5699.585753,12953.603985
2571.498749,-7354.516781,-2960.823768,11399.171507
2571.499078,-1225.752797,-1406.391290,11325.150913
2571.499407,-2451.505594,-1480.411884,10881.027347
2571.499737,153.219100,-1258.350101,6143.709319
2571.500066,76.609550,1998.556043,8734.430116
2571.500395,4903.011187,592.164754,12953.603985
2571.500724,3064.381992,5551.544565,-1924.535449
2571.501053,6358.592633,666.185348,12287.418637
2571.501382,4596.572988,5107.421000,5033.400406
2571.501712,6741.640382,4071.132681,5625.565159
2571.502041,1762.019645,962.267725,8438.347739
2571.502370,995.924147,6957.935855,3108.864956
2571.502699,-995.924147,-3923.091493,14730.098246
2571.503028,-4749.792088,-1554.432478,11325.150913
2571.503357,-4903.011187,-1628.453072,11473.192101
2571.503687,-5669.106685,-6291.750507,10955.047942
2571.504016,-2681.334243,-2294.638420,9400.615463
2571.504345,-3524.039291,-3182.885551,13841.851115
2571.504674,306.438199,-1998.556043,11251.130318
2571.505003,-2374.896044,2812.782580,7624.121203
2571.505332,2681.334243,-5255.462188,14211.954086
2571.505662,5592.497135,1998.556043,5625.565159
2571.505991,6128.763984,3997.112087,7105.977043
2571.506320,6511.811733,962.267725,3775.050304
2571.506649,3600.648841,5181.441594,4145.153275
2571.506978,5132.839837,4589.276840,12287.418637
2571.507307,536.266849,4293.194464,5107.421000
2571.507637,2145.067394,5773.606348,7328.038826
2571.507966,0.000000,-1258.350101,11251.130318
2571.508295,-4673.182538,-1702.473667,13397.727550
2571.508624,-2451.505594,-5033.400406,15100.201217
2571.508953,-3524.039291,-888.247130,9252.574275
2571.509282,-1762.019645,-6809.894666,11473.192101
2571.509612,-3983.696590,-1850.514855,8956.491898
2571.509941,-842.705048,592.164754,8882.471304
2571.510270,-2145.067394,-3330.926739,11029.068536
2571.510599,2681.334243,-2590.720797,6587.832884
2571.510928,5132.839837,4737.318029,4885.359217
2571.511257,4903.011187,3034.844362,7328.038826
2571.511587,3064.381992,3108.864956,7179.997637
2571.511916,3217.601092,2664.741391,9178.553681
2571.512245,1072.533697,2368.659014,7550.100608
2571.512574,-766.095498,1036.288319,8882.471304
2571.512903,-1838.629195,-3182.885551,12361.439231
2571.513232,-2757.943793,-666.185348,10436.903782
2571.513562,-2145.067394,-5477.523971,13693.809927
2571.513891,-3140.991542,-0.000000,8734.430116
2571.514220,-1685.410096,-4071.132681,9844.739029
2571.514549,-2604.724693,-1628.453072,7920.203579
2571.514878,2374.896044,-444.123565,12583.501014
2571.515207,1991.848295,-0.000000,3997.112087
2571.515537,6971.469032,-1850.514855,7920.203579
2571.515866,4596.572988,2590.720797,5477.523971
2571.516195,4443.353888,1850.514855,6217.729913
2571.516524,1838.629195,-0.000000,9918.759623
2571.516853,-306.438199,2072.576638,8882.471304
2571.517182,0.000000,370.102971,11769.274478
2571.517512,-3217.601092,-592.164754,10584.944971
2571.517841,-3370.820191,-3256.906145,12065.356855
2571.518170,-2987.772442,-2738.761985,11399.171507
2571.518499,-919.314598,-1258.350101,10510.924376
2571.518828,-2221.676944,-2072.576638,10807.006753
2571.519157,-2451.505594,-2146.597232,9252.574275
2571.519487,-1608.800546,-2368.659014,10436.903782
2571.519816,2451.505594,-3034.844362,6661.853478
2571.520145,4903.011187,1406.391290,2516.700203
2571.520474,5209.449386,666.185348,5773.606348
2571.520803,2987.772442,1184.329507,5551.544565
2571.521132,3753.867940,2590.720797,9696.697840
2571.521462,1455.581446,2072.576638,7328.038826
2571.521791,766.095498,-0.000000,8586.388927
2571.522120,-1608.800546,-2886.803174,12435.459826
2571.522449,-2834.553343,-592.164754,10066.800811
2571.522778,-2528.115143,-4293.194464,14952.160028
2571.523107,-3140.991542,-444.123565,9696.697840
2571.523437,-842.705048,-444.123565,9918.759623
2571.523766,-2298.286494,-1184.329507,9252.574275
2571.524095,-1685.410096,740.205942,8734.430116
2571.524424,919.314598,-2516.700203,12731.542202
2571.524753,2987.772442,-2220.617826,3849.070898
2571.525082,6205.373534,1406.391290,7624.121203
2571.525412,3907.087040,1258.350101,4071.132681
2571.525741,3447.429741,2072.576638,5329.482782
2571.526070,919.314598,814.226536,7846.182985
2571.526399,76.609550,1998.556043,7254.018232
2571.526728,-306.438199,-1184.329507,10732.986159
2571.527057,-2451.505594,-1554.432478,11103.089130
2571.527387,-2757.943793,-1480.411884,11917.315666
2571.527716,-3140.991542,-3108.864956,12509.480420
2571.528045,-1915.238745,592.164754,9474.636058
2571.528374,-2604.724693,-666.185348,11177.109724
2571.528703,-2911.162892,-148.041188,10288.862594
2571.529032,766.095498,-296.082377,11769.274478
2571.529362,2068.457845,-1036.288319,6439.791695
2571.529691,5209.449386,740.205942,6809.894666
2571.530020,4519.963438,2072.576638,4885.359217
2571.530349,3217.601092,2664.741391,5477.523971
2571.530678,1072.533697,2664.741391,7846.182985
2571.531007,306.438199,2886.803174,7698.141797
2571.531337,383.047749,1110.308913,9696.697840
