#time,accel_x,accel_y,accel_z
2623.185851,383.047749,-148.041188,9178.553681
2623.186180,76.609550,-148.041188,9030.512492
2623.186509,229.828649,-0.000000,9326.594869
2623.186838,76.609550,-444.123565,9326.594869
2623.187167,306.438199,-444.123565,8956.491898
2623.187496,306.438199,-74.020594,8956.491898
2623.187825,153.219100,-0.000000,9104.533087
2623.188154,383.047749,-0.000000,8882.471304
2623.188483,153.219100,518.144159,9030.512492
2623.188812,689.485948,-148.041188,8956.491898
2623.189141,459.657299,-296.082377,8660.409521
2623.189470,766.095498,-74.020594,8808.450710
2623.189799,0.000000,-222.061783,9104.533087
2623.190128,76.609550,-0.000000,9104.533087
2623.190457,229.828649,-74.020594,9030.512492
2623.190786,0.000000,-0.000000,9030.512492
2623.191115,383.047749,-370.102971,8512.368333
2623.191444,306.438199,-296.082377,9104.533087
2623.191773,612.876398,-222.061783,8808.450710
2623.192102,383.047749,-74.020594,8956.491898
2623.192431,0.000000,-74.020594,8956.491898
2623.192760,383.047749,-296.082377,9104.533087
2623.193089,306.438199,-148.041188,9104.533087
2623.193418,0.000000,-222.061783,9474.636058
2623.193747,919.314598,-592.164754,9326.594869
2623.194076,842.705048,-814.226536,9326.594869
2623.194405,459.657299,-370.102971,9326.594869
2623.194734,306.438199,-296.082377,9178.553681
2623.195063,306.438199,-74.020594,9400.615463
2623.195392,383.047749,-296.082377,9178.553681
2623.195721,689.485948,-148.041188,9252.574275
2623.196050,383.047749,-0.000000,9104.533087
2623.196379,536.266849,-370.102971,9326.594869
2623.196708,229.828649,-370.102971,9252.574275
2623.197037,229.828649,-74.020594,9178.553681
2623.197366,229.828649,-444.123565,9030.512492
2623.197695,306.438199,-296.082377,8956.491898
2623.198024,306.438199,-0.000000,9326.594869
2623.198353,229.828649,-74.020594,9178.553681
2623.198682,689.485948,-148.041188,9326.594869
2623.199011,383.047749,-74.020594,8956.491898
2623.199340,229.828649,-0.000000,8882.471304
2623.199669,536.266849,-148.041188,8956.491898
2623.199998,229.828649,-74.020594,8956.491898
2623.200327,-153.219100,-222.061783,9252.574275
2623.200656,383.047749,-296.082377,9104.533087
2623.200985,536.266849,-296.082377,8956.491898
2623.201314,306.438199,-296.082377,8882.471304
2623.201643,459.657299,-222.061783,9104.533087
2623.201972,229.828649,-296.082377,8808.450710
2623.202301,536.266849,-0.000000,9104.533087
2623.202630,536.266849,-148.041188,8956.491898
2623.202959,306.438199,222.061783,9178.553681
2623.203288,536.266849,-296.082377,9030.512492
2623.203617,76.609550,-296.082377,9178.553681
2623.203946,306.438199,-222.061783,9104.533087
2623.204275,229.828649,-148.041188,9178.553681
2623.204604,229.828649,-222.061783,9178.553681
2623.204933,76.609550,-0.000000,9622.677246
2623.205262,383.047749,-444.123565,9104.533087
2623.205591,612.876398,-148.041188,9252.574275
2623.205920,229.828649,-148.041188,9326.594869
2623.206249,383.047749,-148.041188,9104.533087
2623.206578,306.438199,-74.020594,9178.553681
2623.206907,229.828649,-74.020594,9178.553681
2623.207236,306.438199,-296.082377,9178.553681
2623.207565,459.657299,-222.061783,9252.574275
2623.207894,-536.266849,-0.000000,9474.636058
2623.208223,0.000000,-222.061783,9104.533087
2623.208552,0.000000,-222.061783,9104.533087
2623.208881,306.438199,-222.061783,9030.512492
2623.209210,306.438199,-0.000000,9104.533087
2623.209539,459.657299,-74.020594,9104.533087
2623.209868,919.314598,-222.061783,8956.491898
2623.210197,306.438199,-222.061783,9252.574275
2623.210526,153.219100,-74.020594,8734.430116
2623.210855,229.828649,-148.041188,8734.430116
2623.211184,153.219100,-74.020594,8882.471304
2623.211513,306.438199,-222.061783,8882.471304
2623.211842,229.828649,-222.061783,8956.491898
2623.212171,-383.047749,-444.123565,9474.636058
2623.212500,1685.410096,-1480.411884,9696.697840
2623.212829,1302.362347,-888.247130,9178.553681
2623.213158,1532.190996,-444.123565,9400.615463
2623.213487,2145.067394,-222.061783,9178.553681
2623.213816,2451.505594,-0.000000,8512.368333
2623.214145,3370.820191,370.102971,9104.533087
2623.214474,4596.572988,-0.000000,8586.388927
2623.214803,4366.744339,296.082377,8068.244768
2623.215132,3370.820191,444.123565,8660.409521
2623.215461,2987.772442,296.082377,8364.327145
2623.215790,3064.381992,-296.082377,9326.594869
2623.216119,2451.505594,-518.144159,9252.574275
2623.216448,1302.362347,-1110.308913,9918.759623
2623.216777,1915.238745,-1628.453072,10140.821405
2623.217106,2528.115143,-2072.576638,9548.656652
2623.217435,2298.286494,-444.123565,9622.677246
2623.217764,2528.115143,-1480.411884,10140.821405
2623.218093,2987.772442,-370.102971,8882.471304
2623.218422,4136.915689,592.164754,9474.636058
2623.218751,5286.058936,518.144159,7254.018232
2623.219080,4596.572988,1184.329507,8216.285956
2623.219409,4979.620737,1184.329507,9178.553681
2623.219738,4826.401637,1110.308913,6957.935855
2623.220067,4136.915689,962.267725,8586.388927
2623.220396,3370.820191,222.061783,8734.430116
2623.220725,2374.896044,296.082377,8882.471304
2623.221054,1762.019645,-518.144159,9992.780217
2623.221383,1225.752797,-1332.370696,9474.636058
2623.221712,1378.971896,-814.226536,10288.862594
2623.222041,689.485948,-1332.370696,9696.697840
2623.222370,1838.629195,-370.102971,9696.697840
2623.222699,1608.800546,-444.123565,10140.821405
2623.223028,3064.381992,888.247130,7994.224174
2623.223357,3677.258390,222.061783,9696.697840
2623.223686,4596.572988,1628.453072,8512.368333
2623.224015,4749.792088,592.164754,8216.285956
2623.224344,4596.572988,1184.329507,7994.224174
2623.224673,4519.963438,592.164754,8882.471304
2623.225002,3830.477490,222.061783,8586.388927
2623.225331,3140.991542,-888.247130,9104.533087
2623.225660,2987.772442,-1332.370696,9474.636058
2623.225989,2221.676944,-1702.473667,10584.944971
2623.226318,1378.971896,-1850.514855,9844.739029
2623.226647,2145.067394,-1998.556043,10066.800811
2623.226976,2374.896044,-1036.288319,9548.656652
2623.227305,2987.772442,-0.000000,9474.636058
2623.227633,3294.210641,444.123565,8586.388927
2623.227962,3983.696590,1184.329507,8882.471304
2623.228291,4596.572988,2294.638420,8438.347739
2623.228620,4519.963438,2886.803174,7624.121203
2623.228949,3830.477490,2368.659014,7994.224174
2623.229278,3907.087040,1924.535449,7994.224174
2623.229607,3524.039291,592.164754,8216.285956
2623.229936,2681.334243,-592.164754,9178.553681
2623.230265,2451.505594,-1628.453072,10362.883188
2623.230594,2145.067394,-3034.844362,10214.842000
2623.230923,2068.457845,-3182.885551,10881.027347
2623.231252,2451.505594,-3034.844362,10436.903782
2623.231581,3064.381992,-1776.494261,10214.842000
2623.231910,4213.525239,-296.082377,9696.697840
2623.232239,5592.497135,962.267725,9104.533087
2623.232568,5669.106685,1480.411884,8808.450710
2623.232897,5362.668486,2368.659014,8364.327145
2623.233226,4979.620737,3256.906145,6735.874072
2623.233555,4290.134789,3552.988522,6957.935855
2623.233884,3677.258390,2368.659014,6957.935855
2623.234213,3524.039291,2368.659014,6513.812290
2623.234542,2221.676944,-592.164754,8512.368333
2623.234871,0.000000,-4441.235652,10510.924376
2623.235200,-766.095498,-4071.132681,10807.006753
2623.235529,-536.266849,-5403.503377,12731.542202
2623.235858,-919.314598,-3552.988522,10288.862594
2623.236187,0.000000,-1184.329507,11251.130318
2623.236516,919.314598,-666.185348,10288.862594
2623.236845,2911.162892,1332.370696,10807.006753
2623.237174,5745.716235,962.267725,9326.594869
2623.237503,7737.564530,1258.350101,8956.491898
2623.237832,5898.935335,1036.288319,8142.265362
2623.238161,5515.887586,1480.411884,7328.038826
2623.238490,5362.668486,2738.761985,6735.874072
2623.238819,5056.230287,2146.597232,7105.977043
2623.239148,5286.058936,2664.741391,5773.606348
2623.239477,4903.011187,2886.803174,6957.935855
2623.239806,4903.011187,1850.514855,5995.668130
2623.240135,4060.306139,-740.205942,8142.265362
2623.240464,1149.143247,-6291.750507,11103.089130
2623.240793,-383.047749,-6365.771101,12657.521608
2623.241122,-1991.848295,-3256.906145,12435.459826
2623.241451,-1608.800546,-7328.038826,14211.954086
2623.241780,-1378.971896,-518.144159,10955.047942
2623.242109,2298.286494,592.164754,13027.624579
2623.242438,3753.867940,740.205942,10732.986159
2623.242767,5975.544884,2146.597232,9104.533087
2623.243096,7737.564530,1258.350101,9252.574275
2623.243425,8044.002729,3182.885551,7105.977043
2623.243754,8580.269578,5033.400406,5329.482782
2623.244083,8197.221829,2146.597232,5181.441594
2623.244412,7660.954980,1850.514855,4737.318029
2623.244741,6894.859482,2368.659014,5995.668130
2623.245070,5669.106685,148.041188,6365.771101
2623.245399,3907.087040,2294.638420,5699.585753
2623.245728,4213.525239,-1628.453072,9474.636058
2623.246057,-689.485948,-4737.318029,14063.912898
2623.246386,-2834.553343,-5107.421000,11843.295072
2623.246715,-1838.629195,-962.267725,13471.748144
2623.247044,-919.314598,-7698.141797,12805.562797
2623.247373,-1685.410096,1702.473667,10436.903782
2623.247702,2298.286494,-518.144159,12139.377449
2623.248031,229.828649,2294.638420,9030.512492
2623.248360,3294.210641,-370.102971,14582.057057
2623.248689,7431.126331,222.061783,6143.709319
2623.249018,9499.584175,1554.432478,8512.368333
2623.249347,6128.763984,1480.411884,6439.791695
2623.249676,7814.174080,2368.659014,3034.844362
2623.250005,5975.544884,1258.350101,8290.306550
2623.250334,5286.058936,2072.576638,5477.523971
2623.250663,4519.963438,2812.782580,6809.894666
2623.250992,2987.772442,2960.823768,7328.038826
2623.251321,2068.457845,-592.164754,9474.636058
2623.251650,-842.705048,-1480.411884,11325.150913
2623.251979,-766.095498,-4441.235652,10881.027347
2623.252308,-2451.505594,-444.123565,11769.274478
2623.252637,-1532.190996,-6513.812290,14211.954086
2623.252966,-3217.601092,-74.020594,9326.594869
2623.253295,-842.705048,-1036.288319,10881.027347
2623.253624,-1532.190996,1406.391290,9104.533087
2623.253953,-766.095498,666.185348,10066.800811
2623.254282,689.485948,-0.000000,8438.347739
2623.254611,1762.019645,1184.329507,9104.533087
2623.254940,1072.533697,1258.350101,7105.977043
2623.255269,383.047749,-518.144159,6661.853478
2623.255598,1072.533697,-444.123565,7920.203579
2623.255927,1072.533697,-74.020594,7994.224174
2623.256256,383.047749,-1776.494261,9548.656652
2623.256585,-2221.676944,-1184.329507,9474.636058
2623.256914,-1762.019645,-2072.576638,10288.862594
2623.257243,-1378.971896,1110.308913,9622.677246
2623.257572,-1072.533697,592.164754,8734.430116
2623.257902,-306.438199,-296.082377,9918.759623
2623.258231,229.828649,-666.185348,9696.697840
2623.258560,689.485948,518.144159,10066.800811
2623.258889,1608.800546,888.247130,8142.265362
2623.259218,1762.019645,1406.391290,8068.244768
2623.259547,2068.457845,-74.020594,9474.636058
2623.259876,2911.162892,-1332.370696,8660.409521
2623.260205,1915.238745,-1406.391290,8586.388927
2623.260534,995.924147,-0.000000,9326.594869
2623.260863,1302.362347,-0.000000,9696.697840
2623.261192,306.438199,-592.164754,9696.697840
2623.261521,0.000000,-518.144159,9326.594869
2623.261850,0.000000,-1110.308913,10362.883188
2623.262179,0.000000,370.102971,10066.800811
2623.262508,383.047749,1258.350101,9252.574275
2623.262837,995.924147,1480.411884,9400.615463
2623.263166,1072.533697,814.226536,9252.574275
2623.263495,1991.848295,-0.000000,9400.615463
2623.263824,1532.190996,-370.102971,8808.450710
2623.264153,766.095498,222.061783,8512.368333
2623.264482,459.657299,296.082377,9178.553681
2623.264811,995.924147,-962.267725,9992.780217
2623.265140,689.485948,-1776.494261,9696.697840
2623.265469,842.705048,-1110.308913,9548.656652
2623.265798,766.095498,-0.000000,8512.368333
2623.266128,536.266849,-0.000000,9030.512492
2623.266457,842.705048,-0.000000,9474.636058
2623.266786,1608.800546,-444.123565,8882.471304
2623.267115,1762.019645,-0.000000,9474.636058
2623.267444,1608.800546,1554.432478,8068.244768
2623.267773,306.438199,2146.597232,7698.141797
2623.268102,229.828649,1036.288319,8512.368333
2623.268431,153.219100,148.041188,8660.409521
2623.268760,-306.438199,-296.082377,8882.471304
2623.269089,-766.095498,-296.082377,8660.409521
2623.269418,-1302.362347,-740.205942,8734.430116
2623.269747,-766.095498,-1554.432478,9770.718434
2623.270076,-689.485948,-2442.679609,9548.656652
2623.270405,-383.047749,-2516.700203,9770.718434
2623.270734,-459.657299,-814.226536,9622.677246
2623.271063,-306.438199,444.123565,9030.512492
2623.271392,536.266849,740.205942,8956.491898
2623.271721,689.485948,296.082377,8364.327145
2623.272050,919.314598,-222.061783,8660.409521
2623.272379,1685.410096,1184.329507,8216.285956
2623.272708,459.657299,2368.659014,6809.894666
2623.273037,306.438199,888.247130,9178.553681
2623.273366,76.609550,-518.144159,8290.306550
2623.273695,-1455.581446,-2442.679609,8956.491898
2623.274024,-2068.457845,-2368.659014,9474.636058
2623.274353,-1608.800546,-1332.370696,10362.883188
2623.274683,-1838.629195,-888.247130,9548.656652
2623.275012,-1608.800546,-296.082377,9474.636058
2623.275341,-1378.971896,-1998.556043,9844.739029
2623.275670,-1302.362347,-1110.308913,9770.718434
2623.275999,0.000000,-0.000000,9474.636058
2623.276328,536.266849,444.123565,8808.450710
2623.276657,536.266849,740.205942,8808.450710
2623.276986,383.047749,-814.226536,10214.842000
2623.277315,-536.266849,-1406.391290,10732.986159
2623.277644,76.609550,-74.020594,9104.533087
2623.277973,1149.143247,1628.453072,7698.141797
2623.278302,1685.410096,1628.453072,7772.162391
2623.278631,1762.019645,-0.000000,7846.182985
2623.278960,1532.190996,-666.185348,8512.368333
2623.279289,1149.143247,370.102971,8142.265362
2623.279618,1378.971896,666.185348,7920.203579
2623.279947,995.924147,518.144159,8364.327145
2623.280276,766.095498,-740.205942,9030.512492
2623.280605,536.266849,-1998.556043,9696.697840
2623.280934,459.657299,-1480.411884,10436.903782
2623.281263,995.924147,-0.000000,9696.697840
2623.281592,842.705048,1036.288319,9030.512492
2623.281921,842.705048,1554.432478,9400.615463
2623.282250,1149.143247,-0.000000,9770.718434
2623.282579,1455.581446,-0.000000,9104.533087
2623.282909,1072.533697,1036.288319,8068.244768
2623.283238,1608.800546,888.247130,8660.409521
2623.283567,1532.190996,-74.020594,8956.491898
2623.283896,1302.362347,-1554.432478,9104.533087
2623.284225,1762.019645,-2220.617826,9104.533087
2623.284554,612.876398,-888.247130,8586.388927
2623.284883,306.438199,-0.000000,9326.594869
2623.285212,919.314598,-0.000000,9474.636058
2623.285541,1072.533697,-666.185348,9178.553681
2623.285870,766.095498,-1184.329507,9770.718434
2623.286199,689.485948,-0.000000,9548.656652
2623.286528,842.705048,1332.370696,9104.533087
2623.286857,842.705048,2072.576638,8882.471304
2623.287186,1302.362347,-0.000000,8808.450710
2623.287515,153.219100,-370.102971,9474.636058
2623.287844,0.000000,-296.082377,9400.615463
2623.288173,-536.266849,1258.350101,8068.244768
2623.288502,-766.095498,888.247130,8586.388927
2623.288831,-1149.143247,-518.144159,9474.636058
2623.289160,-919.314598,-1554.432478,9326.594869
2623.289489,-1225.752797,-1702.473667,9400.615463
2623.289818,-995.924147,-518.144159,9030.512492
2623.290147,-383.047749,148.041188,8734.430116
2623.290476,-459.657299,-74.020594,8956.491898
2623.290805,-842.705048,-2220.617826,9696.697840
2623.291134,-689.485948,-1850.514855,9992.780217
2623.291464,-995.924147,-666.185348,9622.677246
2623.291793,-689.485948,444.123565,8882.471304
2623.292122,-306.438199,592.164754,8808.450710
2623.292451,-306.438199,-148.041188,9104.533087
2623.292780,-383.047749,-592.164754,9326.594869
2623.293109,-689.485948,-0.000000,9474.636058
2623.293438,-459.657299,962.267725,8290.306550
2623.293767,919.314598,518.144159,7698.141797
2623.294096,689.485948,-444.123565,8290.306550
2623.294425,153.219100,-1628.453072,9178.553681
2623.294754,0.000000,-1406.391290,8808.450710
2623.295083,-153.219100,-74.020594,8956.491898
2623.295412,536.266849,296.082377,8734.430116
2623.295741,1072.533697,-74.020594,9474.636058
2623.296070,0.000000,-1406.391290,9622.677246
2623.296399,0.000000,-148.041188,9548.656652
2623.296728,1149.143247,370.102971,8734.430116
2623.297057,842.705048,1258.350101,8512.368333
2623.297386,1532.190996,518.144159,9326.594869
2623.297715,1762.019645,-1110.308913,9400.615463
2623.298044,1762.019645,-1702.473667,9326.594869
2623.298373,1378.971896,-0.000000,8438.347739
2623.298702,1608.800546,444.123565,8142.265362
2623.299031,766.095498,-0.000000,8882.471304
2623.299360,1455.581446,-962.267725,8956.491898
2623.299690,1302.362347,-1036.288319,8734.430116
2623.300019,995.924147,-222.061783,8882.471304
2623.300348,1378.971896,592.164754,8734.430116
2623.300677,1378.971896,222.061783,9178.553681
2623.301006,995.924147,-666.185348,9474.636058
2623.301335,1149.143247,-666.185348,9474.636058
2623.301664,1302.362347,-370.102971,9326.594869
2623.301993,1532.190996,962.267725,9030.512492
2623.302322,1608.800546,1702.473667,8216.285956
2623.302651,1302.362347,666.185348,9178.553681
2623.302980,1302.362347,-666.185348,9178.553681
2623.303309,689.485948,-592.164754,8808.450710
2623.303638,0.000000,-0.000000,9030.512492
2623.303967,0.000000,-0.000000,8882.471304
2623.304296,-383.047749,-592.164754,9844.739029
2623.304625,-459.657299,-1480.411884,9622.677246
2623.304954,0.000000,-1998.556043,10066.800811
2623.305283,0.000000,-592.164754,9696.697840
2623.305612,76.609550,962.267725,8882.471304
2623.305941,76.609550,592.164754,8882.471304
2623.306270,536.266849,-148.041188,9400.615463
2623.306599,229.828649,-148.041188,9474.636058
2623.306928,229.828649,1110.308913,9030.512492
2623.307257,0.000000,1924.535449,8660.409521
2623.307586,76.609550,370.102971,9104.533087
2623.307915,-153.219100,-1036.288319,9252.574275
2623.308245,-995.924147,-1924.535449,9548.656652
2623.308574,-1378.971896,-1480.411884,9474.636058
2623.308903,-1149.143247,-296.082377,8586.388927
2623.309232,-1378.971896,666.185348,9400.615463
2623.309561,-766.095498,-296.082377,9030.512492
2623.309890,-842.705048,-1110.308913,9474.636058
2623.310219,-766.095498,-666.185348,9104.533087
2623.310548,-229.828649,-0.000000,8660.409521
2623.310877,-229.828649,1036.288319,8660.409521
2623.311206,0.000000,-740.205942,8808.450710
2623.311535,459.657299,-1850.514855,9474.636058
2623.311864,306.438199,-1110.308913,9696.697840
2623.312193,766.095498,222.061783,8438.347739
2623.312522,1072.533697,1480.411884,7772.162391
2623.312851,1685.410096,1184.329507,8882.471304
2623.313180,1532.190996,-222.061783,8586.388927
2623.313509,1685.410096,-592.164754,8660.409521
2623.313838,1378.971896,370.102971,8142.265362
2623.314167,1378.971896,592.164754,8068.244768
2623.314496,1225.752797,-0.000000,8956.491898
2623.314825,383.047749,-1332.370696,9326.594869
2623.315154,0.000000,-1924.535449,9992.780217
2623.315483,-153.219100,-666.185348,9400.615463
2623.315812,-306.438199,888.247130,9400.615463
2623.316141,-766.095498,1036.288319,9326.594869
2623.316470,76.609550,222.061783,10362.883188
2623.316800,229.828649,-370.102971,10214.842000
2623.317129,229.828649,-296.082377,9770.718434
2623.317458,766.095498,666.185348,9326.594869
2623.317787,1302.362347,1480.411884,8068.244768
2623.318116,1455.581446,-666.185348,9696.697840
2623.318445,1685.410096,-2072.576638,10362.883188
2623.318774,1455.581446,-1110.308913,9030.512492
2623.319103,1302.362347,-222.061783,8808.450710
2623.319432,842.705048,592.164754,7994.224174
2623.319761,1532.190996,814.226536,9178.553681
2623.320090,919.314598,-592.164754,9918.759623
2623.320419,689.485948,-1258.350101,8882.471304
2623.320748,1149.143247,370.102971,9178.553681
2623.321077,0.000000,1184.329507,8438.347739
2623.321406,383.047749,518.144159,9252.574275
2623.321735,76.609550,-1480.411884,9474.636058
2623.322064,-689.485948,-1332.370696,9548.656652
2623.322393,-995.924147,-888.247130,9548.656652
2623.322722,-995.924147,370.102971,8882.471304
2623.323051,-306.438199,888.247130,8290.306550
2623.323380,-153.219100,-296.082377,9474.636058
2623.323709,-536.266849,-1110.308913,9474.636058
2623.324038,-766.095498,-592.164754,8882.471304
2623.324367,0.000000,518.144159,7846.182985
2623.324696,306.438199,814.226536,7920.203579
2623.325026,689.485948,-814.226536,8512.368333
2623.325355,306.438199,-1480.411884,8808.450710
2623.325684,612.876398,-1628.453072,9252.574275
2623.326013,459.657299,-74.020594,8068.244768
2623.326342,689.485948,666.185348,7624.121203
2623.326671,842.705048,-74.020594,8364.327145
2623.327000,306.438199,-518.144159,9104.533087
2623.327329,76.609550,-888.247130,9474.636058
2623.327658,0.000000,-74.020594,8808.450710
2623.327987,0.000000,518.144159,8808.450710
2623.328316,153.219100,-222.061783,9104.533087
2623.328645,0.000000,-1258.350101,9326.594869
2623.328974,-689.485948,-1406.391290,9400.615463
2623.329303,229.828649,-1110.308913,9622.677246
2623.329632,306.438199,-0.000000,8882.471304
2623.329961,-536.266849,592.164754,9400.615463
2623.330290,459.657299,-1184.329507,9696.697840
2623.330619,306.438199,-740.205942,8956.491898
2623.330948,306.438199,296.082377,9178.553681
2623.331277,459.657299,1184.329507,8956.491898
2623.331606,1072.533697,1110.308913,9178.553681
2623.331935,1378.971896,-0.000000,9400.615463
2623.332264,1762.019645,-518.144159,9400.615463
2623.332593,919.314598,-592.164754,9770.718434
2623.332922,1149.143247,222.061783,9474.636058
2623.333251,919.314598,1184.329507,8660.409521
2623.333581,919.314598,518.144159,9474.636058
2623.333910,1149.143247,-1184.329507,9548.656652
2623.334239,842.705048,-518.144159,9178.553681
2623.334568,536.266849,-0.000000,9326.594869
2623.334897,536.266849,1332.370696,8438.347739
2623.335226,383.047749,-148.041188,9030.512492
2623.335555,689.485948,-1406.391290,10140.821405
2623.335884,0.000000,-1406.391290,10658.965565
2623.336213,-383.047749,-296.082377,9252.574275
2623.336542,-383.047749,666.185348,9178.553681
2623.336871,-306.438199,740.205942,8882.471304
2623.337200,229.828649,-0.000000,9992.780217
2623.337529,-1302.362347,-962.267725,9844.739029
2623.337858,459.657299,-222.061783,9178.553681
2623.338187,919.314598,1110.308913,8142.265362
2623.338516,919.314598,1406.391290,7698.141797
2623.338845,1225.752797,-0.000000,8956.491898
2623.339174,689.485948,-1406.391290,9474.636058
2623.339503,76.609550,-1184.329507,8882.471304
2623.339832,766.095498,-518.144159,8512.368333
2623.340161,306.438199,592.164754,7772.162391
2623.340490,0.000000,370.102971,8808.450710
2623.340819,76.609550,-962.267725,9474.636058
2623.341148,-536.266849,-1184.329507,8956.491898
2623.341477,-536.266849,370.102971,8512.368333
2623.341807,0.000000,370.102971,9104.533087
2623.342136,-383.047749,296.082377,8882.471304
2623.342465,229.828649,-1258.350101,8734.430116
2623.342794,-842.705048,-1998.556043,9474.636058
2623.343123,-995.924147,-1036.288319,9548.656652
2623.343452,-689.485948,518.144159,8364.327145
2623.343781,-383.047749,1110.308913,8216.285956
2623.344110,-383.047749,-0.000000,9104.533087
2623.344439,536.266849,-814.226536,9400.615463
2623.344768,0.000000,-518.144159,8808.450710
2623.345097,459.657299,370.102971,8290.306550
2623.345426,689.485948,1110.308913,7550.100608
2623.345755,153.219100,-518.144159,8882.471304
2623.346084,459.657299,-1406.391290,9622.677246
2623.346413,76.609550,-1184.329507,8956.491898
2623.346742,383.047749,370.102971,8438.347739
2623.347071,459.657299,740.205942,8068.244768
2623.347400,1225.752797,148.041188,9252.574275
2623.347729,919.314598,-814.226536,9326.594869
2623.348058,766.095498,-370.102971,9104.533087
2623.348387,919.314598,222.061783,8882.471304
2623.348716,919.314598,814.226536,8586.388927
2623.349045,1072.533697,740.205942,8882.471304
2623.349374,1225.752797,-1628.453072,9622.677246
2623.349703,1149.143247,-1406.391290,9178.553681
2623.350032,459.657299,-148.041188,9178.553681
2623.350362,459.657299,592.164754,8586.388927
2623.350691,153.219100,518.144159,9400.615463
2623.351020,153.219100,-888.247130,9696.697840
2623.351349,536.266849,-1184.329507,9548.656652
2623.351678,766.095498,-518.144159,9696.697840
2623.352007,229.828649,814.226536,9030.512492
2623.352336,766.095498,814.226536,9178.553681
2623.352665,995.924147,-814.226536,9622.677246
2623.352994,1225.752797,-1184.329507,10066.800811
2623.353323,1455.581446,-592.164754,9030.512492
2623.353652,1838.629195,444.123565,8660.409521
2623.353981,1149.143247,1998.556043,8808.450710
2623.354310,1685.410096,518.144159,8882.471304
2623.354639,1532.190996,-296.082377,9030.512492
2623.354968,842.705048,-370.102971,9326.594869
2623.355297,229.828649,444.123565,8586.388927
2623.355626,153.219100,740.205942,7994.224174
2623.355955,0.000000,-148.041188,9474.636058
2623.356284,-383.047749,-1554.432478,9770.718434
2623.356613,-1225.752797,-1776.494261,9992.780217
2623.356942,-1225.752797,-962.267725,9474.636058
2623.357271,-995.924147,740.205942,8438.347739
2623.357600,-383.047749,888.247130,8882.471304
2623.357930,-459.657299,-592.164754,8956.491898
2623.358259,-689.485948,-1110.308913,9696.697840
2623.358589,-766.095498,-148.041188,9030.512492
2623.358918,-612.876398,740.205942,7402.059420
2623.359247,-229.828649,666.185348,8142.265362
2623.359576,-383.047749,-1258.350101,9030.512492
2623.359905,-995.924147,-2072.576638,9918.759623
2623.360234,-995.924147,-1406.391290,9992.780217
2623.360564,0.000000,-518.144159,8956.491898
2623.360893,-229.828649,666.185348,7846.182985
2623.361222,536.266849,-0.000000,8956.491898
2623.361551,689.485948,-592.164754,9252.574275
2623.361880,1072.533697,-0.000000,8734.430116
2623.362209,919.314598,1110.308913,7994.224174
2623.362539,1225.752797,1332.370696,8068.244768
2623.362868,995.924147,-0.000000,9030.512492
2623.363197,76.609550,-740.205942,9622.677246
2623.363526,0.000000,-1554.432478,9548.656652
2623.363855,-229.828649,-888.247130,9326.594869
2623.364184,-536.266849,222.061783,8512.368333
2623.364514,-459.657299,-0.000000,9918.759623
2623.364843,-306.438199,-1184.329507,9622.677246
2623.365172,-1149.143247,-1258.350101,9696.697840
2623.365501,-153.219100,-814.226536,9992.780217
2623.365830,0.000000,1258.350101,9252.574275
2623.366160,919.314598,592.164754,8586.388927
2623.366489,1455.581446,-666.185348,9104.533087
2623.366818,2145.067394,-740.205942,8882.471304
2623.367147,2298.286494,-0.000000,8438.347739
2623.367476,2528.115143,1184.329507,7920.203579
2623.367805,2681.334243,1480.411884,7772.162391
2623.368135,2528.115143,888.247130,8364.327145
2623.368464,2145.067394,-370.102971,8808.450710
2623.368793,1378.971896,-518.144159,8956.491898
2623.369122,995.924147,296.082377,8512.368333
2623.369451,229.828649,296.082377,9326.594869
2623.369780,459.657299,-1036.288319,9770.718434
2623.370110,383.047749,-1850.514855,10140.821405
2623.370439,306.438199,-1924.535449,10140.821405
2623.370768,153.219100,-518.144159,9696.697840
2623.371097,153.219100,518.144159,8734.430116
2623.371426,76.609550,1332.370696,8290.306550
2623.371755,1302.362347,-518.144159,9770.718434
2623.372085,153.219100,-888.247130,9104.533087
2623.372414,0.000000,296.082377,9252.574275
2623.372743,0.000000,296.082377,9400.615463
2623.373072,0.000000,370.102971,8586.388927
2623.373401,0.000000,-592.164754,9104.533087
2623.373730,153.219100,-1036.288319,10140.821405
2623.374060,0.000000,-1776.494261,9474.636058
2623.374389,-229.828649,-74.020594,9030.512492
2623.374718,459.657299,740.205942,8956.491898
2623.375047,0.000000,370.102971,9104.533087
2623.375376,0.000000,-444.123565,9104.533087
2623.375705,-153.219100,-74.020594,9104.533087
2623.376035,-229.828649,592.164754,8364.327145
2623.376364,459.657299,1332.370696,8142.265362
2623.376693,0.000000,-740.205942,8438.347739
2623.377022,-306.438199,-1628.453072,9178.553681
2623.377351,-689.485948,-2072.576638,9474.636058
2623.377680,-1149.143247,-666.185348,8882.471304
2623.378010,-2298.286494,-148.041188,9326.594869
2623.378339,-612.876398,-0.000000,9178.553681
2623.378668,-995.924147,-296.082377,8586.388927
2623.378997,-1302.362347,-888.247130,9844.739029
2623.379326,-612.876398,-74.020594,9104.533087
2623.379656,-459.657299,1036.288319,8882.471304
2623.379985,-383.047749,666.185348,8660.409521
2623.380314,459.657299,-518.144159,9104.533087
2623.380643,0.000000,-1776.494261,10214.842000
2623.380972,459.657299,-444.123565,9178.553681
2623.381301,995.924147,-0.000000,8734.430116
2623.381631,1455.581446,592.164754,7772.162391
2623.381960,2451.505594,222.061783,8216.285956
2623.382289,2374.896044,-0.000000,9178.553681
2623.382618,1685.410096,-296.082377,8216.285956
2623.382947,2068.457845,1036.288319,8660.409521
2623.383276,1225.752797,1036.288319,8586.388927
2623.383606,1225.752797,518.144159,9252.574275
2623.383935,689.485948,-1776.494261,9844.739029
2623.384264,536.266849,-1776.494261,10510.924376
2623.384593,-153.219100,-740.205942,9696.697840
2623.384922,0.000000,-74.020594,9770.718434
2623.385251,0.000000,-0.000000,9400.615463
2623.385581,153.219100,-740.205942,9992.780217
2623.385910,536.266849,-888.247130,9770.718434
2623.386239,459.657299,-0.000000,9326.594869
2623.386568,1608.800546,1036.288319,8290.306550
2623.386897,2145.067394,666.185348,8512.368333
2623.387226,2145.067394,-370.102971,9400.615463
2623.387556,2145.067394,-962.267725,8660.409521
2623.387885,1838.629195,-148.041188,9178.553681
2623.388214,1608.800546,888.247130,8290.306550
2623.388543,1838.629195,962.267725,7846.182985
2623.388872,1532.190996,740.205942,8734.430116
2623.389201,2221.676944,-666.185348,9548.656652
2623.389531,1378.971896,-666.185348,9252.574275
2623.389860,76.609550,592.164754,8808.450710
2623.390189,76.609550,888.247130,8364.327145
2623.390518,0.000000,-370.102971,8734.430116
2623.390847,-153.219100,-1406.391290,9474.636058
2623.391176,-306.438199,-2146.597232,9326.594869
2623.391506,-766.095498,-1332.370696,9030.512492
2623.391835,-766.095498,370.102971,8808.450710
2623.392164,-229.828649,370.102971,8438.347739
2623.392493,-536.266849,-592.164754,8660.409521
2623.392822,-689.485948,-888.247130,8882.471304
2623.393152,-842.705048,-148.041188,9252.574275
2623.393481,-766.095498,296.082377,8586.388927
2623.393810,-229.828649,-0.000000,8438.347739
2623.394139,-383.047749,-1480.411884,9400.615463
2623.394468,-842.705048,-1702.473667,9770.718434
2623.394797,-995.924147,-1036.288319,9474.636058
2623.395127,0.000000,148.041188,9252.574275
2623.395456,229.828649,666.185348,8512.368333
2623.395785,689.485948,-222.061783,8364.327145
2623.396114,76.609550,-592.164754,9474.636058
2623.396443,459.657299,-74.020594,9474.636058
2623.396772,76.609550,-0.000000,8216.285956
2623.397102,306.438199,888.247130,8364.327145
2623.397431,0.000000,-74.020594,9030.512492
2623.397760,0.000000,-1480.411884,9992.780217
2623.398089,-229.828649,-1554.432478,9474.636058
2623.398418,0.000000,-0.000000,9104.533087
2623.398747,0.000000,370.102971,8364.327145
2623.399077,-383.047749,-0.000000,9178.553681
2623.399406,-306.438199,-962.267725,9844.739029
2623.399735,-229.828649,-1480.411884,9622.677246
2623.400064,-153.219100,-0.000000,9178.553681
2623.400393,0.000000,1554.432478,8660.409521
2623.400722,383.047749,-0.000000,9178.553681
2623.401052,842.705048,-370.102971,9474.636058
2623.401381,1072.533697,-814.226536,9696.697840
2623.401710,995.924147,-222.061783,9178.553681
2623.402039,1455.581446,962.267725,8438.347739
2623.402368,1685.410096,1332.370696,8364.327145
2623.402697,2221.676944,-0.000000,9104.533087
2623.403027,2068.457845,-370.102971,8660.409521
2623.403356,1455.581446,444.123565,9178.553681
2623.403685,1455.581446,1702.473667,8808.450710
2623.404014,1149.143247,1110.308913,8734.430116
2623.404343,1302.362347,-148.041188,9474.636058
2623.404672,766.095498,-1332.370696,9696.697840
2623.405002,612.876398,-888.247130,10436.903782
2623.405331,229.828649,-518.144159,9918.759623
2623.405660,1149.143247,1036.288319,9474.636058
2623.405989,842.705048,592.164754,9474.636058
2623.406318,842.705048,-518.144159,9622.677246
2623.406648,766.095498,-444.123565,9326.594869
2623.406977,919.314598,148.041188,9030.512492
2623.407306,1072.533697,1184.329507,7772.162391
2623.407635,842.705048,-0.000000,8512.368333
2623.407964,459.657299,-1554.432478,9474.636058
2623.408293,229.828649,-1702.473667,9548.656652
2623.408623,0.000000,-962.267725,9252.574275
2623.408952,-459.657299,296.082377,8438.347739
2623.409281,-383.047749,666.185348,8734.430116
2623.409610,0.000000,-222.061783,9326.594869
2623.409939,306.438199,-814.226536,9326.594869
2623.410268,0.000000,-222.061783,9030.512492
2623.410598,-459.657299,814.226536,8660.409521
2623.410927,-153.219100,1110.308913,8364.327145
2623.411256,0.000000,-592.164754,8882.471304
2623.411585,-153.219100,-1406.391290,8734.430116
2623.411914,-153.219100,-1480.411884,9104.533087
2623.412243,-536.266849,296.082377,8586.388927
2623.412573,-766.095498,1554.432478,8142.265362
2623.412902,-229.828649,296.082377,8438.347739
2623.413231,-612.876398,-962.267725,8882.471304
2623.413560,-1225.752797,-1406.391290,9178.553681
2623.413889,-1225.752797,-740.205942,9104.533087
2623.414218,-842.705048,-0.000000,8586.388927
2623.414548,-306.438199,-370.102971,8734.430116
2623.414877,-766.095498,-1406.391290,9326.594869
2623.415206,-1455.581446,-2220.617826,10066.800811
2623.415535,-995.924147,-1036.288319,9844.739029
2623.415864,-383.047749,814.226536,8586.388927
2623.416193,153.219100,1036.288319,8808.450710
2623.416523,536.266849,-370.102971,9918.759623
2623.416852,306.438199,-222.061783,9770.718434
2623.417181,1149.143247,296.082377,9474.636058
2623.417510,1762.019645,1702.473667,7846.182985
2623.417839,1685.410096,1184.329507,8438.347739
2623.418168,1915.238745,-0.000000,9326.594869
2623.418498,536.266849,-1184.329507,9326.594869
2623.418827,306.438199,-1776.494261,9992.780217
2623.419156,612.876398,-444.123565,9030.512492
2623.419485,-383.047749,370.102971,9770.718434
2623.419814,0.000000,-296.082377,10288.862594
2623.420144,0.000000,-1184.329507,9770.718434
2623.420473,76.609550,-1184.329507,9770.718434
2623.420802,689.485948,-0.000000,9474.636058
2623.421131,1072.533697,1184.329507,8956.491898
2623.421460,1915.238745,740.205942,8512.368333
2623.421789,2681.334243,-370.102971,9104.533087
2623.422119,2145.067394,-666.185348,9030.512492
2623.422448,2145.067394,296.082377,9104.533087
2623.422777,1915.238745,1258.350101,8068.244768
2623.423106,1608.800546,1184.329507,7994.224174
2623.423435,2068.457845,370.102971,8290.306550
2623.423764,2374.896044,-888.247130,9178.553681
2623.424094,536.266849,518.144159,8808.450710
2623.424423,0.000000,-148.041188,9178.553681
2623.424752,919.314598,444.123565,8660.409521
2623.425081,-153.219100,-1110.308913,8586.388927
2623.425410,0.000000,-1332.370696,9622.677246
2623.425739,0.000000,-1850.514855,9696.697840
2623.426069,-383.047749,-148.041188,8882.471304
2623.426398,306.438199,1554.432478,9030.512492
2623.426727,229.828649,-0.000000,9030.512492
2623.427056,0.000000,-370.102971,9400.615463
2623.427385,0.000000,-296.082377,9474.636058
2623.427714,-229.828649,444.123565,8142.265362
2623.428044,-383.047749,888.247130,8068.244768
2623.428373,306.438199,-296.082377,9548.656652
2623.428702,-459.657299,-1628.453072,9104.533087
2623.429031,-766.095498,-2146.597232,9548.656652
2623.429360,-306.438199,-1110.308913,9474.636058
2623.429689,-306.438199,-74.020594,8364.327145
2623.430019,-306.438199,518.144159,8512.368333
2623.430348,76.609550,-444.123565,9030.512492
2623.430677,76.609550,-1110.308913,9326.594869
2623.431006,-229.828649,-296.082377,8808.450710
2623.431335,612.876398,296.082377,8142.265362
2623.431664,536.266849,740.205942,8586.388927
2623.431994,383.047749,-962.267725,8808.450710
2623.432323,0.000000,-962.267725,9474.636058
2623.432652,383.047749,-666.185348,9178.553681
2623.432981,0.000000,1036.288319,8512.368333
2623.433310,306.438199,1184.329507,8808.450710
2623.433640,0.000000,-0.000000,9104.533087
2623.433969,-459.657299,-518.144159,9326.594869
2623.434298,-612.876398,-296.082377,9696.697840
2623.434627,229.828649,-74.020594,9400.615463
2623.434956,0.000000,370.102971,7772.162391
2623.435285,0.000000,-592.164754,9474.636058
2623.435615,536.266849,-1850.514855,9622.677246
2623.435944,1455.581446,-1258.350101,9326.594869
2623.436273,919.314598,-0.000000,9030.512492
2623.436602,1532.190996,888.247130,8512.368333
2623.436931,1378.971896,370.102971,8956.491898
2623.437260,2221.676944,888.247130,9474.636058
2623.437590,2298.286494,-222.061783,9548.656652
2623.437919,1455.581446,222.061783,9326.594869
2623.438248,1608.800546,1332.370696,8734.430116
2623.438577,1302.362347,666.185348,9178.553681
2623.438906,0.000000,-518.144159,10066.800811
2623.439235,612.876398,-1480.411884,9548.656652
2623.439565,229.828649,-1110.308913,9770.718434
2623.439894,153.219100,370.102971,9326.594869
2623.440223,383.047749,444.123565,8586.388927
2623.440552,306.438199,-370.102971,9548.656652
2623.440881,-153.219100,-1036.288319,10288.862594
2623.441210,76.609550,-444.123565,9252.574275
2623.441540,76.609550,370.102971,8586.388927
2623.441869,76.609550,740.205942,8586.388927
2623.442198,536.266849,-0.000000,9104.533087
2623.442527,766.095498,-1110.308913,9622.677246
2623.442856,383.047749,-1184.329507,9622.677246
2623.443185,153.219100,-74.020594,9252.574275
2623.443515,536.266849,1850.514855,8290.306550
2623.443844,612.876398,1110.308913,8660.409521
2623.444173,536.266849,-74.020594,9104.533087
2623.444502,76.609550,-518.144159,9252.574275
2623.444831,383.047749,-148.041188,8586.388927
2623.445160,-383.047749,592.164754,8068.244768
2623.445490,-536.266849,-0.000000,8660.409521
2623.445819,0.000000,-1480.411884,9178.553681
2623.446148,-766.095498,-1850.514855,9474.636058
2623.446477,-842.705048,-1850.514855,9474.636058
2623.446806,-919.314598,222.061783,8290.306550
2623.447136,-1149.143247,814.226536,7994.224174
2623.447465,-459.657299,-296.082377,9326.594869
2623.447794,-766.095498,-1480.411884,9104.533087
2623.448123,-383.047749,-1036.288319,9548.656652
2623.448452,76.609550,-0.000000,8808.450710
2623.448781,0.000000,296.082377,8438.347739
2623.449111,383.047749,-740.205942,9104.533087
2623.449440,766.095498,-1332.370696,9400.615463
2623.449769,1302.362347,-1406.391290,9252.574275
2623.450098,766.095498,-148.041188,9030.512492
2623.450427,1302.362347,962.267725,8438.347739
2623.450756,1378.971896,888.247130,8808.450710
2623.451086,1225.752797,-74.020594,8956.491898
2623.451415,1072.533697,-444.123565,9548.656652
2623.451744,536.266849,-74.020594,9178.553681
2623.452073,459.657299,888.247130,8882.471304
2623.452402,689.485948,740.205942,9030.512492
2623.452731,76.609550,-814.226536,9548.656652
2623.453061,0.000000,-1480.411884,9474.636058
2623.453390,-229.828649,-962.267725,9770.718434
2623.453719,-229.828649,444.123565,9400.615463
2623.454048,-306.438199,1184.329507,8882.471304
2623.454377,-536.266849,-148.041188,9622.677246
2623.454706,536.266849,-1036.288319,9696.697840
2623.455036,306.438199,-148.041188,9844.739029
2623.455365,612.876398,296.082377,8882.471304
2623.455694,1072.533697,1110.308913,8068.244768
2623.456023,1685.410096,666.185348,8956.491898
2623.456352,2145.067394,-814.226536,9474.636058
2623.456681,1762.019645,-962.267725,9104.533087
2623.457010,1532.190996,-222.061783,8956.491898
2623.457340,1532.190996,1110.308913,8512.368333
2623.457669,1149.143247,444.123565,8734.430116
2623.457998,1072.533697,-444.123565,9326.594869
2623.458327,383.047749,-592.164754,9474.636058
2623.458656,0.000000,-222.061783,9104.533087
2623.458985,-306.438199,592.164754,8734.430116
2623.459314,-689.485948,592.164754,8808.450710
2623.459643,-766.095498,-1258.350101,9992.780217
2623.459972,-766.095498,-2072.576638,9474.636058
2623.460301,-919.314598,-1554.432478,10510.924376
2623.460630,-842.705048,-0.000000,8882.471304
2623.460959,306.438199,888.247130,8364.327145
2623.461288,0.000000,370.102971,9178.553681
2623.461617,536.266849,-518.144159,8734.430116
2623.461947,1149.143247,-666.185348,8586.388927
2623.462276,842.705048,1184.329507,7772.162391
2623.462605,1149.143247,1406.391290,7920.203579
2623.462934,612.876398,-222.061783,9030.512492
2623.463263,0.000000,-1776.494261,9178.553681
2623.463592,-612.876398,-1924.535449,9992.780217
2623.463921,-459.657299,-888.247130,9252.574275
2623.464250,-1225.752797,148.041188,8734.430116
2623.464579,-766.095498,-0.000000,9474.636058
2623.464908,-842.705048,-592.164754,9474.636058
2623.465237,-842.705048,-1184.329507,9474.636058
2623.465566,306.438199,-444.123565,9474.636058
2623.465895,0.000000,740.205942,8216.285956
2623.466224,383.047749,370.102971,8364.327145
2623.466554,612.876398,-814.226536,8808.450710
2623.466883,842.705048,-888.247130,8882.471304
2623.467212,919.314598,-444.123565,8882.471304
2623.467541,1072.533697,888.247130,7772.162391
2623.467870,689.485948,1184.329507,8216.285956
2623.468199,459.657299,-296.082377,9400.615463
2623.468528,0.000000,-740.205942,9400.615463
2623.468857,-229.828649,-740.205942,9548.656652
2623.469186,76.609550,148.041188,8068.244768
2623.469515,0.000000,-0.000000,8290.306550
2623.469844,-459.657299,-0.000000,9474.636058
2623.470173,459.657299,-1776.494261,10510.924376
2623.470502,689.485948,-1924.535449,9178.553681
2623.470832,229.828649,-0.000000,7698.141797
2623.471161,1225.752797,1406.391290,8364.327145
2623.471490,995.924147,370.102971,9474.636058
2623.471819,1838.629195,-222.061783,9400.615463
2623.472148,2145.067394,-666.185348,8734.430116
2623.472477,1378.971896,-0.000000,8734.430116
2623.472806,1149.143247,1184.329507,8068.244768
2623.473135,1378.971896,296.082377,8956.491898
2623.473464,1455.581446,-962.267725,9844.739029
2623.473793,1072.533697,-1110.308913,9844.739029
2623.474122,229.828649,-1036.288319,9548.656652
2623.474451,0.000000,-0.000000,8660.409521
2623.474780,306.438199,1184.329507,8956.491898
2623.475109,76.609550,-444.123565,9474.636058
2623.475439,0.000000,-888.247130,9696.697840
2623.475768,383.047749,-0.000000,9474.636058
2623.476097,0.000000,814.226536,8586.388927
2623.476426,919.314598,740.205942,8438.347739
2623.476755,842.705048,-222.061783,8660.409521
2623.477084,1072.533697,-1258.350101,8808.450710
2623.477413,842.705048,-1406.391290,9178.553681
2623.477742,383.047749,-148.041188,8586.388927
2623.478071,0.000000,1036.288319,8364.327145
2623.478400,612.876398,518.144159,8808.450710
2623.478729,306.438199,-0.000000,9474.636058
2623.479058,0.000000,-296.082377,9326.594869
2623.479387,-383.047749,370.102971,9030.512492
2623.479716,-459.657299,1184.329507,8512.368333
2623.480046,-383.047749,370.102971,8364.327145
2623.480375,-1072.533697,-962.267725,8882.471304
2623.480704,-383.047749,-1998.556043,9548.656652
2623.481033,-1225.752797,-1776.494261,9178.553681
2623.481362,-1991.848295,-0.000000,9030.512492
2623.481691,-1225.752797,-296.082377,9104.533087
2623.482020,-919.314598,-296.082377,8512.368333
2623.482349,-842.705048,-962.267725,9104.533087
2623.482678,-383.047749,-666.185348,8956.491898
2623.483007,-459.657299,444.123565,8882.471304
2623.483336,0.000000,962.267725,8586.388927
2623.483665,536.266849,-592.164754,8808.450710
2623.483994,0.000000,-1110.308913,9548.656652
2623.484324,306.438199,-1110.308913,9326.594869
2623.484653,766.095498,962.267725,8290.306550
2623.484982,229.828649,1332.370696,8660.409521
2623.485311,919.314598,592.164754,9474.636058
2623.485640,689.485948,-518.144159,9326.594869
2623.485969,229.828649,-962.267725,9326.594869
2623.486298,459.657299,-148.041188,9030.512492
2623.486627,229.828649,666.185348,8586.388927
2623.486956,0.000000,-74.020594,9178.553681
2623.487285,383.047749,-1258.350101,9770.718434
2623.487614,383.047749,-1776.494261,9474.636058
2623.487943,-459.657299,-962.267725,9474.636058
2623.488272,229.828649,740.205942,8734.430116
2623.488601,153.219100,962.267725,8882.471304
2623.488931,383.047749,-0.000000,9474.636058
2623.489260,995.924147,-518.144159,9474.636058
2623.489589,919.314598,-0.000000,9548.656652
2623.489918,1225.752797,1110.308913,9104.533087
2623.490247,1532.190996,296.082377,8438.347739
2623.490576,1838.629195,-296.082377,9030.512492
2623.490905,2145.067394,-740.205942,9030.512492
2623.491234,1762.019645,-888.247130,8882.471304
2623.491563,1455.581446,592.164754,8734.430116
2623.491892,2298.286494,814.226536,7994.224174
2623.492221,1762.019645,370.102971,8660.409521
2623.492550,1378.971896,-888.247130,9622.677246
2623.492879,766.095498,-1110.308913,9178.553681
2623.493208,612.876398,-0.000000,9178.553681
2623.493538,306.438199,962.267725,8808.450710
2623.493867,689.485948,-0.000000,9252.574275
2623.494196,459.657299,-1036.288319,9400.615463
2623.494525,0.000000,-1406.391290,9992.780217
2623.494854,-383.047749,-1554.432478,9918.759623
2623.495183,-1225.752797,370.102971,9178.553681
2623.495512,-1149.143247,740.205942,9030.512492
2623.495841,-919.314598,-0.000000,9474.636058
2623.496170,-919.314598,-1110.308913,9844.739029
2623.496499,-766.095498,-740.205942,9400.615463
2623.496828,-689.485948,222.061783,8438.347739
2623.497157,-612.876398,-74.020594,9030.512492
2623.497486,229.828649,-1258.350101,8216.285956
2623.497815,229.828649,-1406.391290,9252.574275
2623.498145,383.047749,-1406.391290,9548.656652
2623.498474,76.609550,370.102971,8290.306550
2623.498803,536.266849,1332.370696,8734.430116
2623.499132,1072.533697,962.267725,8734.430116
2623.499461,995.924147,-0.000000,9252.574275
2623.499790,0.000000,-518.144159,9400.615463
2623.500119,-383.047749,-0.000000,9104.533087
2623.500448,-459.657299,666.185348,8438.347739
2623.500777,-919.314598,-148.041188,8882.471304
2623.501106,-1149.143247,-1332.370696,9400.615463
2623.501435,-1762.019645,-2294.638420,9770.718434
2623.501764,-1072.533697,-1554.432478,8956.491898
2623.502093,-1378.971896,592.164754,8882.471304
2623.502423,-229.828649,296.082377,8660.409521
2623.502752,0.000000,-0.000000,8734.430116
2623.503081,459.657299,-296.082377,9474.636058
2623.503410,1302.362347,-0.000000,9178.553681
2623.503739,995.924147,1332.370696,7994.224174
2623.504068,2374.896044,1184.329507,7846.182985
2623.504397,2681.334243,296.082377,8586.388927
2623.504726,1685.410096,-592.164754,9400.615463
2623.505055,1838.629195,-888.247130,9400.615463
2623.505384,1378.971896,370.102971,8882.471304
2623.505713,919.314598,962.267725,9474.636058
2623.506042,842.705048,-0.000000,9622.677246
2623.506371,612.876398,-1332.370696,10140.821405
2623.506700,0.000000,-1110.308913,10066.800811
2623.507030,383.047749,-518.144159,9104.533087
2623.507359,612.876398,370.102971,8882.471304
2623.507688,842.705048,-0.000000,9178.553681
2623.508017,995.924147,-962.267725,9252.574275
2623.508346,536.266849,-1332.370696,9400.615463
2623.508675,1225.752797,-888.247130,9326.594869
2623.509004,1302.362347,1036.288319,8586.388927
2623.509333,995.924147,740.205942,9252.574275
2623.509662,1149.143247,148.041188,9178.553681
2623.509991,995.924147,-296.082377,9178.553681
2623.510320,459.657299,518.144159,9474.636058
2623.510649,689.485948,962.267725,8512.368333
2623.510978,1149.143247,592.164754,8808.450710
2623.511307,842.705048,-148.041188,9104.533087
2623.511637,459.657299,-1258.350101,9770.718434
2623.511966,0.000000,-888.247130,9770.718434
2623.512295,229.828649,370.102971,9030.512492
2623.512624,76.609550,1258.350101,8512.368333
2623.512953,306.438199,740.205942,8586.388927
2623.513282,612.876398,-0.000000,9030.512492
2623.513611,689.485948,-296.082377,9548.656652
2623.513940,76.609550,-0.000000,8882.471304
2623.514269,0.000000,518.144159,8290.306550
2623.514598,-536.266849,-148.041188,8660.409521
2623.514927,-612.876398,-1258.350101,9474.636058
2623.515256,-1685.410096,-1850.514855,9844.739029
2623.515585,-919.314598,-592.164754,9400.615463
2623.515915,-842.705048,-222.061783,7920.203579
2623.516244,-1532.190996,814.226536,8808.450710
2623.516573,-766.095498,-1110.308913,9992.780217
2623.516902,-1378.971896,-1554.432478,8956.491898
2623.517231,-1149.143247,-666.185348,8512.368333
2623.517560,-536.266849,-0.000000,8512.368333
2623.517889,0.000000,-0.000000,8586.388927
2623.518218,153.219100,-888.247130,9104.533087
2623.518547,842.705048,-1554.432478,9548.656652
2623.518876,459.657299,-1850.514855,9030.512492
2623.519205,919.314598,518.144159,7920.203579
2623.519534,995.924147,1480.411884,7846.182985
2623.519863,919.314598,296.082377,9030.512492
2623.520192,995.924147,-592.164754,9252.574275
2623.520522,689.485948,-296.082377,9400.615463
2623.520851,995.924147,-148.041188,9104.533087
2623.521180,536.266849,592.164754,8586.388927
2623.521509,0.000000,-0.000000,9104.533087
2623.521838,0.000000,-888.247130,9770.718434
2623.522167,0.000000,-1184.329507,9548.656652
2623.522496,383.047749,-666.185348,9622.677246
2623.522825,-153.219100,370.102971,8734.430116
2623.523154,536.266849,222.061783,9326.594869
2623.523483,229.828649,-592.164754,8882.471304
2623.523812,306.438199,-1110.308913,9400.615463
2623.524141,1072.533697,-444.123565,9178.553681
2623.524470,1149.143247,666.185348,8512.368333
2623.524799,1302.362347,444.123565,8882.471304
2623.525129,1762.019645,-888.247130,9400.615463
2623.525458,2374.896044,-666.185348,8956.491898
2623.525787,2451.505594,-222.061783,9178.553681
2623.526116,2068.457845,1628.453072,8438.347739
2623.526445,1991.848295,1924.535449,8364.327145
2623.526774,2145.067394,740.205942,8734.430116
2623.527103,2298.286494,518.144159,8512.368333
2623.527432,1455.581446,-518.144159,9548.656652
2623.527761,842.705048,-888.247130,8142.265362
2623.528090,0.000000,888.247130,8882.471304
2623.528419,0.000000,-1036.288319,9474.636058
2623.528748,-536.266849,-2294.638420,9474.636058
2623.529077,-459.657299,-2294.638420,10436.903782
2623.529407,-1225.752797,-1110.308913,9474.636058
2623.529736,-459.657299,-0.000000,8956.491898
2623.530065,-689.485948,-370.102971,9326.594869
2623.530394,0.000000,-148.041188,8882.471304
2623.530723,0.000000,-370.102971,9474.636058
2623.531052,0.000000,-74.020594,9326.594869
2623.531381,153.219100,1258.350101,8142.265362
2623.531710,842.705048,1036.288319,8512.368333
2623.532039,536.266849,-740.205942,8660.409521
2623.532368,0.000000,-1480.411884,9030.512492
2623.532697,-536.266849,-1258.350101,9326.594869
2623.533026,-383.047749,518.144159,8364.327145
2623.533355,-229.828649,592.164754,8142.265362
2623.533684,-536.266849,-444.123565,9104.533087
2623.534014,-229.828649,-1258.350101,9622.677246
2623.534343,0.000000,-1258.350101,9400.615463
2623.534672,-612.876398,-666.185348,8512.368333
2623.535001,-306.438199,296.082377,7920.203579
2623.535330,153.219100,-148.041188,8512.368333
2623.535659,153.219100,-370.102971,9252.574275
2623.535988,0.000000,-1110.308913,9622.677246
2623.536317,536.266849,-0.000000,8808.450710
2623.536646,76.609550,1702.473667,8290.306550
2623.536975,0.000000,666.185348,9178.553681
2623.537304,-612.876398,-740.205942,9400.615463
2623.537633,-383.047749,-1258.350101,9696.697840
2623.537962,-383.047749,-148.041188,9030.512492
2623.538291,0.000000,-0.000000,9030.512492
2623.538621,0.000000,-222.061783,9252.574275
2623.538950,-229.828649,-1110.308913,9770.718434
2623.539279,766.095498,-1776.494261,10658.965565
2623.539608,383.047749,-1110.308913,9178.553681
2623.539937,1072.533697,814.226536,9030.512492
2623.540266,1149.143247,1776.494261,8734.430116
2623.540595,1838.629195,592.164754,8956.491898
2623.540924,1991.848295,-74.020594,9548.656652
2623.541253,1991.848295,-0.000000,9770.718434
2623.541582,1685.410096,666.185348,9474.636058
2623.541911,1302.362347,1036.288319,8734.430116
2623.542240,919.314598,-0.000000,8512.368333
2623.542569,842.705048,-1332.370696,9548.656652
2623.542898,306.438199,-1924.535449,9918.759623
2623.543228,-229.828649,-1184.329507,9844.739029
2623.543557,0.000000,-148.041188,8956.491898
2623.543886,229.828649,-148.041188,9474.636058
2623.544215,306.438199,-592.164754,9178.553681
2623.544544,76.609550,-1184.329507,9474.636058
2623.544873,919.314598,222.061783,9104.533087
2623.545202,1072.533697,1406.391290,7476.080014
2623.545531,1838.629195,1258.350101,8364.327145
2623.545860,1532.190996,-148.041188,8660.409521
2623.546189,1532.190996,-1110.308913,9474.636058
2623.546518,536.266849,-444.123565,8660.409521
2623.546847,842.705048,888.247130,8364.327145
2623.547176,459.657299,1258.350101,8512.368333
2623.547506,536.266849,-0.000000,8956.491898
2623.547835,383.047749,-444.123565,9474.636058
2623.548164,76.609550,-1332.370696,9474.636058
2623.548493,0.000000,222.061783,8512.368333
2623.548822,0.000000,-0.000000,7846.182985
2623.549151,-459.657299,-592.164754,8586.388927
2623.549480,-612.876398,-1776.494261,9400.615463
2623.549809,-689.485948,-2072.576638,9844.739029
2623.550138,-1455.581446,-444.123565,8956.491898
2623.550467,-1455.581446,296.082377,8290.306550
2623.550796,-689.485948,-0.000000,9548.656652
2623.551125,-306.438199,-1036.288319,9474.636058
2623.551454,-919.314598,-1258.350101,10140.821405
2623.551783,-1149.143247,-814.226536,9252.574275
2623.552113,-612.876398,444.123565,8734.430116
2623.552442,-306.438199,-0.000000,8808.450710
2623.552771,0.000000,-666.185348,9178.553681
2623.553100,689.485948,-1184.329507,9696.697840
2623.553429,536.266849,-370.102971,9326.594869
2623.553758,689.485948,1110.308913,7994.224174
2623.554087,1225.752797,1554.432478,8068.244768
2623.554416,1149.143247,370.102971,8512.368333
2623.554745,1225.752797,-74.020594,9104.533087
2623.555074,1149.143247,-444.123565,8882.471304
2623.555403,689.485948,444.123565,8660.409521
2623.555732,536.266849,814.226536,8808.450710
2623.556061,459.657299,-888.247130,9326.594869
2623.556390,306.438199,-888.247130,9178.553681
2623.556720,306.438199,-1406.391290,9770.718434
2623.557049,0.000000,-148.041188,9400.615463
2623.557378,76.609550,1332.370696,8364.327145
2623.557707,459.657299,740.205942,9844.739029
2623.558036,536.266849,-370.102971,9178.553681
2623.558365,153.219100,-74.020594,9992.780217
2623.558694,689.485948,-0.000000,9474.636058
2623.559023,306.438199,1628.453072,8660.409521
2623.559352,1149.143247,296.082377,9326.594869
2623.559681,1455.581446,-592.164754,8956.491898
2623.560010,1378.971896,-740.205942,9844.739029
2623.560339,1915.238745,-592.164754,9104.533087
2623.560668,1455.581446,666.185348,8512.368333
2623.560998,1378.971896,962.267725,8734.430116
2623.561327,1838.629195,-0.000000,9178.553681
2623.561656,1532.190996,-888.247130,9104.533087
2623.561985,995.924147,-518.144159,9918.759623
2623.562314,1532.190996,-0.000000,8586.388927
2623.562643,1302.362347,592.164754,8438.347739
2623.562972,1072.533697,-0.000000,9400.615463
2623.563301,612.876398,-962.267725,9400.615463
2623.563630,76.609550,-1110.308913,9696.697840
2623.563959,-229.828649,-0.000000,8808.450710
2623.564288,-153.219100,1036.288319,8364.327145
2623.564617,-919.314598,740.205942,9104.533087
2623.564946,-919.314598,-1628.453072,9622.677246
2623.565275,-995.924147,-2368.659014,9696.697840
2623.565604,-1532.190996,-888.247130,9178.553681
2623.565933,-995.924147,-0.000000,8216.285956
2623.566262,-306.438199,-518.144159,8512.368333
2623.566591,0.000000,-444.123565,9400.615463
2623.566920,306.438199,-1628.453072,9178.553681
2623.567249,612.876398,-296.082377,8512.368333
2623.567578,612.876398,1036.288319,8142.265362
2623.567907,1302.362347,1554.432478,7994.224174
2623.568237,919.314598,-0.000000,8660.409521
2623.568566,0.000000,-592.164754,9104.533087
2623.568895,1225.752797,-814.226536,9030.512492
2623.569224,76.609550,-666.185348,8216.285956
2623.569553,-1225.752797,-148.041188,8290.306550
2623.569882,-153.219100,-1702.473667,9474.636058
2623.570211,-536.266849,-1776.494261,9400.615463
2623.570540,-842.705048,-1702.473667,9622.677246
2623.570869,0.000000,-296.082377,9030.512492
2623.571198,-459.657299,592.164754,7994.224174
2623.571527,76.609550,222.061783,9474.636058
2623.571856,229.828649,-296.082377,8956.491898
2623.572185,0.000000,-740.205942,9474.636058
2623.572514,459.657299,-0.000000,9548.656652
2623.572843,689.485948,1554.432478,8512.368333
2623.573172,536.266849,-296.082377,9400.615463
2623.573501,995.924147,-1036.288319,9770.718434
2623.573830,919.314598,-1258.350101,10584.944971
2623.574159,766.095498,-518.144159,9696.697840
2623.574488,612.876398,962.267725,9178.553681
2623.574817,689.485948,1036.288319,8956.491898
2623.575146,995.924147,-0.000000,9400.615463
2623.575475,1532.190996,-370.102971,9844.739029
2623.575804,1149.143247,-296.082377,9400.615463
2623.576134,1302.362347,1258.350101,8216.285956
2623.576463,1762.019645,1406.391290,8290.306550
2623.576792,1838.629195,-0.000000,8882.471304
2623.577121,1149.143247,-1184.329507,9474.636058
2623.577450,766.095498,-888.247130,9622.677246
2623.577779,383.047749,666.185348,8882.471304
2623.578108,-383.047749,962.267725,8586.388927
2623.578437,229.828649,296.082377,9178.553681
2623.578766,383.047749,-888.247130,9770.718434
2623.579095,0.000000,-740.205942,9696.697840
2623.579424,153.219100,-0.000000,8882.471304
2623.579753,536.266849,740.205942,8290.306550
2623.580082,612.876398,370.102971,8290.306550
2623.580411,919.314598,-962.267725,9400.615463
2623.580740,306.438199,-1628.453072,9400.615463
2623.581069,612.876398,-370.102971,8660.409521
2623.581398,383.047749,1258.350101,7846.182985
2623.581727,383.047749,962.267725,8586.388927
2623.582056,383.047749,-444.123565,9326.594869
2623.582385,-229.828649,-1110.308913,9918.759623
2623.582714,76.609550,-1406.391290,9548.656652
2623.583043,-842.705048,666.185348,8438.347739
2623.583372,-766.095498,222.061783,9696.697840
2623.583701,-536.266849,-740.205942,9030.512492
2623.584031,76.609550,-1332.370696,9844.739029
2623.584360,-459.657299,-1480.411884,9918.759623
2623.584689,0.000000,-0.000000,7920.203579
2623.585018,-76.609550,740.205942,8512.368333
2623.585347,-306.438199,-0.000000,8438.347739
2623.585676,-229.828649,-518.144159,9548.656652
2623.586005,-459.657299,-1406.391290,9770.718434
2623.586334,-459.657299,296.082377,8734.430116
2623.586663,-383.047749,296.082377,8290.306550
2623.586992,-689.485948,-666.185348,9104.533087
2623.587321,-459.657299,-1110.308913,9622.677246
2623.587650,0.000000,-1850.514855,9548.656652
2623.587979,0.000000,-740.205942,9326.594869
2623.588308,229.828649,592.164754,8290.306550
2623.588637,229.828649,962.267725,8882.471304
2623.588966,995.924147,592.164754,9104.533087
2623.589295,1838.629195,-0.000000,8882.471304
2623.589624,1762.019645,-0.000000,9252.574275
2623.589953,1072.533697,1702.473667,8142.265362
2623.590282,1302.362347,888.247130,8438.347739
2623.590611,1072.533697,-222.061783,8364.327145
2623.590940,1149.143247,-1332.370696,9030.512492
2623.591269,1072.533697,-1036.288319,9400.615463
2623.591598,153.219100,370.102971,8586.388927
2623.591928,536.266849,592.164754,8882.471304
2623.592257,306.438199,1110.308913,9548.656652
2623.592586,383.047749,-518.144159,9918.759623
2623.592915,0.000000,-814.226536,10658.965565
2623.593244,612.876398,-0.000000,9622.677246
2623.593573,459.657299,518.144159,8586.388927
2623.593902,1149.143247,370.102971,8734.430116
2623.594231,2145.067394,-518.144159,9326.594869
2623.594560,1685.410096,-1258.350101,9326.594869
2623.594889,1532.190996,-0.000000,8882.471304
2623.595218,1838.629195,1036.288319,8142.265362
2623.595547,1378.971896,666.185348,8290.306550
2623.595876,1455.581446,-370.102971,9104.533087
2623.596205,1302.362347,-962.267725,9326.594869
2623.596534,383.047749,-666.185348,9474.636058
2623.596863,306.438199,518.144159,8734.430116
2623.597192,766.095498,518.144159,9104.533087
2623.597521,689.485948,-888.247130,9622.677246
2623.597850,0.000000,-1332.370696,10510.924376
2623.598179,-153.219100,-296.082377,9992.780217
2623.598508,-612.876398,666.185348,8882.471304
2623.598837,-536.266849,2072.576638,8512.368333
2623.599166,-536.266849,370.102971,9104.533087
2623.599495,-153.219100,-814.226536,9770.718434
2623.599825,-383.047749,-1184.329507,9474.636058
2623.600154,-459.657299,-0.000000,8586.388927
2623.600483,-229.828649,814.226536,8586.388927
2623.600812,0.000000,-0.000000,9104.533087
2623.601141,-612.876398,-1184.329507,9474.636058
2623.601470,-612.876398,-1924.535449,9696.697840
2623.601799,-383.047749,-814.226536,9104.533087
2623.602128,-383.047749,-0.000000,8956.491898
2623.602457,-766.095498,518.144159,8660.409521
2623.602786,0.000000,-814.226536,9548.656652
2623.603115,-153.219100,-1110.308913,9622.677246
2623.603444,0.000000,-444.123565,8882.471304
2623.603773,0.000000,814.226536,8290.306550
2623.604102,0.000000,444.123565,8586.388927
2623.604431,306.438199,-888.247130,8882.471304
2623.604760,153.219100,-1998.556043,9104.533087
2623.605089,0.000000,-1036.288319,8586.388927
2623.605418,-306.438199,-518.144159,8142.265362
2623.605747,0.000000,962.267725,7920.203579
2623.606076,-689.485948,296.082377,8438.347739
2623.606405,-229.828649,-2072.576638,10362.883188
2623.606734,-306.438199,-1258.350101,10510.924376
2623.607063,-306.438199,-740.205942,9400.615463
2623.607393,0.000000,-0.000000,8660.409521
2623.607722,459.657299,-888.247130,9548.656652
2623.608051,919.314598,-1110.308913,9400.615463
2623.608380,1532.190996,-1110.308913,9030.512492
2623.608709,1455.581446,-444.123565,8586.388927
2623.609038,2068.457845,1480.411884,8068.244768
2623.609367,2145.067394,1406.391290,8068.244768
2623.609696,1149.143247,222.061783,9400.615463
2623.610025,1915.238745,-518.144159,9400.615463
2623.610354,1455.581446,296.082377,8882.471304
2623.610683,1072.533697,962.267725,8438.347739
2623.611012,919.314598,592.164754,8364.327145
2623.611341,1302.362347,-1036.288319,9548.656652
2623.611670,459.657299,-1554.432478,9844.739029
2623.611999,995.924147,-1554.432478,9178.553681
2623.612328,689.485948,-0.000000,8290.306550
2623.612657,383.047749,1036.288319,7846.182985
2623.612986,766.095498,740.205942,8808.450710
2623.613315,689.485948,-296.082377,9178.553681
2623.613644,919.314598,-740.205942,9474.636058
2623.613973,612.876398,370.102971,9252.574275
2623.614302,306.438199,888.247130,9030.512492
2623.614631,383.047749,296.082377,9178.553681
2623.614960,459.657299,-222.061783,10140.821405
2623.615290,229.828649,-1184.329507,10658.965565
2623.615619,0.000000,-0.000000,9992.780217
2623.615948,-229.828649,1184.329507,8734.430116
2623.616277,76.609550,740.205942,9178.553681
2623.616606,689.485948,-740.205942,9770.718434
2623.616935,229.828649,-1036.288319,8808.450710
2623.617264,0.000000,-814.226536,9548.656652
2623.617593,0.000000,518.144159,8438.347739
2623.617922,0.000000,518.144159,8068.244768
2623.618251,0.000000,-814.226536,9474.636058
2623.618580,-306.438199,-1332.370696,9696.697840
2623.618909,-919.314598,-1776.494261,10140.821405
2623.619238,-1072.533697,592.164754,8660.409521
2623.619567,-1225.752797,518.144159,8512.368333
2623.619896,-1608.800546,148.041188,9622.677246
2623.620225,-919.314598,-1184.329507,9474.636058
2623.620554,-689.485948,-1332.370696,9992.780217
2623.620883,-919.314598,-666.185348,8882.471304
2623.621212,-306.438199,888.247130,8142.265362
2623.621541,76.609550,-666.185348,8660.409521
2623.621870,229.828649,-888.247130,8734.430116
2623.622199,689.485948,-1554.432478,8882.471304
2623.622528,842.705048,-444.123565,7920.203579
2623.622857,1302.362347,888.247130,7920.203579
2623.623187,1378.971896,740.205942,7402.059420
2623.623516,689.485948,-74.020594,8512.368333
2623.623845,842.705048,-740.205942,8956.491898
2623.624174,612.876398,-0.000000,8660.409521
2623.624503,229.828649,222.061783,8216.285956
2623.624832,536.266849,592.164754,8660.409521
2623.625161,536.266849,-1258.350101,10288.862594
2623.625490,0.000000,-1406.391290,10066.800811
2623.625819,0.000000,-1850.514855,9844.739029
2623.626148,0.000000,740.205942,8956.491898
2623.626477,689.485948,1332.370696,8364.327145
2623.626806,842.705048,296.082377,8734.430116
2623.627135,689.485948,-370.102971,9400.615463
2623.627464,2068.457845,-518.144159,9178.553681
2623.627793,1378.971896,-0.000000,8586.388927
2623.628122,1532.190996,518.144159,8586.388927
2623.628451,1302.362347,-518.144159,9030.512492
2623.628780,1455.581446,-1110.308913,9622.677246
2623.629109,766.095498,-1184.329507,9844.739029
2623.629438,919.314598,-0.000000,10510.924376
2623.629767,459.657299,518.144159,9474.636058
2623.630096,1302.362347,962.267725,9622.677246
2623.630425,1072.533697,-370.102971,9474.636058
2623.630754,919.314598,-370.102971,9770.718434
2623.631084,919.314598,444.123565,9030.512492
2623.631413,766.095498,1628.453072,8586.388927
2623.631742,612.876398,962.267725,8512.368333
2623.632071,1378.971896,-1036.288319,8660.409521
2623.632400,1149.143247,-740.205942,9844.739029
2623.632729,612.876398,-518.144159,9770.718434
2623.633058,0.000000,518.144159,8512.368333
2623.633387,0.000000,1258.350101,8216.285956
2623.633716,0.000000,222.061783,9104.533087
2623.634045,-766.095498,-814.226536,9770.718434
2623.634374,-995.924147,-1184.329507,9918.759623
2623.634703,-766.095498,-0.000000,9400.615463
2623.635032,-229.828649,1036.288319,9252.574275
2623.635361,-536.266849,-518.144159,9326.594869
2623.635690,-459.657299,-1110.308913,9104.533087
2623.636019,-383.047749,-1480.411884,9696.697840
2623.636348,0.000000,-0.000000,8734.430116
2623.636677,-383.047749,1184.329507,7624.121203
2623.637006,306.438199,-0.000000,8438.347739
2623.637335,229.828649,-1110.308913,9474.636058
2623.637664,-229.828649,-1332.370696,9252.574275
2623.637993,-383.047749,-666.185348,8512.368333
2623.638322,-536.266849,518.144159,7920.203579
2623.638651,-536.266849,-518.144159,8734.430116
2623.638981,-306.438199,-1554.432478,9474.636058
2623.639310,-383.047749,-2072.576638,9474.636058
2623.639639,-306.438199,-740.205942,9326.594869
2623.639968,-1072.533697,740.205942,8216.285956
2623.640297,-383.047749,1110.308913,8660.409521
2623.640626,-153.219100,-0.000000,9178.553681
2623.640955,306.438199,-666.185348,9474.636058
2623.641284,536.266849,-1258.350101,9104.533087
2623.641613,153.219100,370.102971,8364.327145
2623.641942,0.000000,666.185348,8512.368333
2623.642271,919.314598,-740.205942,9030.512492
2623.642600,536.266849,-1258.350101,9252.574275
2623.642929,766.095498,-1702.473667,9474.636058
2623.643258,766.095498,-0.000000,8734.430116
2623.643587,612.876398,814.226536,8512.368333
2623.643916,1072.533697,444.123565,9474.636058
2623.644245,1378.971896,-666.185348,9622.677246
2623.644574,1149.143247,-370.102971,9622.677246
2623.644903,1455.581446,518.144159,8586.388927
2623.645232,1149.143247,1554.432478,8586.388927
2623.645561,1915.238745,222.061783,9252.574275
2623.645890,1838.629195,-222.061783,8512.368333
2623.646219,919.314598,-1184.329507,10214.842000
2623.646549,229.828649,-740.205942,9918.759623
2623.646878,383.047749,1406.391290,8586.388927
2623.647207,0.000000,1332.370696,8734.430116
2623.647536,306.438199,740.205942,9326.594869
2623.647865,-689.485948,-888.247130,10362.883188
2623.648194,-306.438199,-0.000000,11473.192101
2623.648523,-995.924147,148.041188,9770.718434
2623.648852,-306.438199,518.144159,9474.636058
2623.649181,689.485948,-888.247130,9474.636058
2623.649510,1225.752797,-592.164754,9104.533087
2623.649839,1072.533697,-1110.308913,9178.553681
2623.650168,1762.019645,1258.350101,7994.224174
2623.650497,1685.410096,1554.432478,8364.327145
2623.650826,1302.362347,666.185348,8216.285956
2623.651155,1532.190996,-74.020594,8586.388927
2623.651484,766.095498,-1332.370696,9474.636058
2623.651813,-383.047749,-444.123565,8882.471304
2623.652142,-383.047749,444.123565,8438.347739
2623.652471,-536.266849,-814.226536,9252.574275
2623.652800,-919.314598,-2294.638420,9178.553681
2623.653129,-995.924147,-2368.659014,10362.883188
2623.653458,-1455.581446,-1850.514855,9474.636058
2623.653787,-1991.848295,-0.000000,8808.450710
2623.654116,-612.876398,-0.000000,8808.450710
2623.654446,-689.485948,-222.061783,8364.327145
2623.654775,-689.485948,-1184.329507,9844.739029
2623.655104,383.047749,-962.267725,9326.594869
2623.655433,0.000000,222.061783,7105.977043
2623.655762,536.266849,740.205942,7698.141797
2623.656091,1378.971896,-0.000000,8068.244768
2623.656420,766.095498,-962.267725,8734.430116
2623.656749,536.266849,-518.144159,9178.553681
2623.657078,459.657299,740.205942,7994.224174
2623.657407,-383.047749,666.185348,8364.327145
2623.657736,229.828649,-74.020594,9104.533087
2623.658065,612.876398,-666.185348,9252.574275
2623.658394,-536.266849,-1258.350101,9770.718434
2623.658723,0.000000,-1036.288319,8734.430116
2623.659052,-536.266849,888.247130,8734.430116
2623.659381,306.438199,-592.164754,9548.656652
2623.659710,842.705048,-1332.370696,8882.471304
2623.660039,153.219100,-1554.432478,9844.739029
2623.660368,76.609550,-666.185348,9548.656652
2623.660697,1149.143247,1184.329507,8068.244768
2623.661026,383.047749,1480.411884,9104.533087
2623.661355,1455.581446,518.144159,9474.636058
2623.661684,995.924147,-370.102971,9696.697840
2623.662013,766.095498,-962.267725,9770.718434
2623.662342,689.485948,444.123565,9030.512492
2623.662671,766.095498,1110.308913,9918.759623
2623.663000,842.705048,-444.123565,9696.697840
2623.663329,1225.752797,-962.267725,10066.800811
2623.663658,1455.581446,-444.123565,10288.862594
2623.663987,995.924147,370.102971,9252.574275
2623.664316,1455.581446,1184.329507,8734.430116
2623.664645,1302.362347,444.123565,9400.615463
2623.664974,1225.752797,-0.000000,9474.636058
2623.665303,1608.800546,-444.123565,9844.739029
2623.665632,1302.362347,370.102971,9178.553681
2623.665961,1455.581446,1036.288319,7698.141797
2623.666290,842.705048,444.123565,8882.471304
2623.666619,689.485948,-740.205942,8882.471304
2623.666948,459.657299,-1110.308913,9548.656652
2623.667277,-229.828649,-74.020594,9326.594869
2623.667605,-229.828649,740.205942,8956.491898
2623.667934,-689.485948,1184.329507,8586.388927
2623.668263,-689.485948,-370.102971,9400.615463
2623.668592,-689.485948,-1110.308913,9622.677246
2623.668921,-766.095498,-1036.288319,9474.636058
2623.669250,-689.485948,-222.061783,9030.512492
2623.669579,0.000000,-0.000000,8586.388927
2623.669908,-306.438199,-1110.308913,9030.512492
2623.670237,229.828649,-1628.453072,9326.594869
2623.670566,0.000000,-1702.473667,9178.553681
2623.670895,229.828649,-0.000000,8290.306550
2623.671224,229.828649,962.267725,7772.162391
2623.671553,689.485948,296.082377,8364.327145
2623.671882,842.705048,-666.185348,9400.615463
2623.672211,229.828649,-1258.350101,9474.636058
2623.672540,0.000000,-0.000000,8586.388927
2623.672869,-306.438199,518.144159,7920.203579
2623.673198,-306.438199,-222.061783,8438.347739
2623.673527,-612.876398,-1628.453072,9474.636058
2623.673856,-766.095498,-2368.659014,9992.780217
2623.674185,-459.657299,-592.164754,9326.594869
2623.674514,-1072.533697,666.185348,8512.368333
2623.674843,-919.314598,518.144159,8734.430116
2623.675172,-383.047749,-222.061783,9474.636058
2623.675501,-229.828649,-1036.288319,9622.677246
2623.675830,-153.219100,-444.123565,9178.553681
2623.676159,0.000000,370.102971,8438.347739
2623.676487,0.000000,296.082377,8512.368333
2623.676816,1072.533697,-592.164754,8882.471304
2623.677145,1532.190996,-666.185348,9326.594869
2623.677474,1608.800546,-370.102971,9178.553681
2623.677803,1532.190996,962.267725,8586.388927
2623.678132,1762.019645,1924.535449,8512.368333
2623.678461,1378.971896,666.185348,9178.553681
2623.678790,2221.676944,-444.123565,10066.800811
2623.679119,1072.533697,-1184.329507,9474.636058
2623.679448,766.095498,296.082377,9030.512492
2623.679777,919.314598,1258.350101,8290.306550
2623.680106,612.876398,-222.061783,9252.574275
2623.680435,612.876398,-1110.308913,9918.759623
2623.680764,842.705048,-1406.391290,10140.821405
2623.681093,229.828649,-370.102971,9696.697840
2623.681422,383.047749,1184.329507,8586.388927
2623.681751,383.047749,1036.288319,8734.430116
2623.682080,536.266849,-0.000000,8882.471304
2623.682409,689.485948,-0.000000,10436.903782
2623.682738,612.876398,-0.000000,9178.553681
2623.683067,1149.143247,740.205942,8882.471304
2623.683396,1762.019645,888.247130,8734.430116
2623.683725,1455.581446,-370.102971,9400.615463
2623.684054,1455.581446,-666.185348,10066.800811
2623.684383,612.876398,-1110.308913,9474.636058
2623.684712,153.219100,518.144159,8216.285956
2623.685041,919.314598,1480.411884,8364.327145
2623.685370,612.876398,-518.144159,9326.594869
2623.685698,0.000000,-1036.288319,8808.450710
2623.686027,-383.047749,-1332.370696,9992.780217
2623.686356,-229.828649,-296.082377,9104.533087
2623.686685,76.609550,1036.288319,8586.388927
2623.687014,-536.266849,-74.020594,8734.430116
2623.687343,-689.485948,-1332.370696,11103.089130
2623.687672,-689.485948,-1554.432478,9548.656652
2623.688001,-995.924147,-740.205942,9104.533087
2623.688330,-995.924147,1628.453072,8364.327145
2623.688659,-1149.143247,740.205942,9030.512492
2623.688988,-536.266849,-814.226536,9548.656652
2623.689317,-766.095498,-962.267725,8734.430116
2623.689646,-536.266849,-444.123565,9326.594869
2623.689975,-919.314598,-148.041188,8734.430116
2623.690304,0.000000,592.164754,7994.224174
2623.690633,0.000000,-1406.391290,9400.615463
2623.690962,383.047749,-444.123565,9474.636058
2623.691291,0.000000,-1036.288319,9104.533087
2623.691620,0.000000,1110.308913,7994.224174
2623.691949,76.609550,814.226536,8216.285956
2623.692278,689.485948,222.061783,8586.388927
2623.692607,536.266849,-1332.370696,9030.512492
2623.692936,-612.876398,-888.247130,10214.842000
2623.693265,229.828649,-296.082377,9548.656652
2623.693594,0.000000,518.144159,7994.224174
2623.693923,536.266849,-370.102971,8808.450710
2623.694252,612.876398,-1850.514855,9696.697840
2623.694580,229.828649,-1554.432478,9622.677246
2623.694909,-229.828649,-444.123565,9326.594869
2623.695238,689.485948,1332.370696,8290.306550
2623.695567,0.000000,814.226536,9104.533087
2623.695896,1072.533697,-296.082377,9548.656652
2623.696225,0.000000,-1110.308913,9992.780217
2623.696554,612.876398,-814.226536,9992.780217
2623.696883,1149.143247,592.164754,8586.388927
2623.697212,995.924147,592.164754,9178.553681
2623.697541,1762.019645,-1036.288319,9918.759623
2623.697870,2068.457845,-1110.308913,9992.780217
2623.698199,1762.019645,-296.082377,9252.574275
2623.698528,1991.848295,1036.288319,8216.285956
2623.698857,1762.019645,1480.411884,7994.224174
2623.699186,2145.067394,814.226536,8734.430116
2623.699515,1838.629195,148.041188,8882.471304
2623.699844,2528.115143,-518.144159,8660.409521
2623.700173,1302.362347,296.082377,8216.285956
2623.700502,1378.971896,1554.432478,7846.182985
2623.700831,612.876398,-222.061783,8512.368333
2623.701160,536.266849,-1628.453072,9326.594869
2623.701489,-612.876398,-1628.453072,9548.656652
2623.701818,-689.485948,-1110.308913,9548.656652
2623.702147,-1072.533697,74.020594,8364.327145
2623.702476,-995.924147,740.205942,9252.574275
2623.702805,-1302.362347,-518.144159,9622.677246
2623.703134,-995.924147,-888.247130,9992.780217
2623.703463,-1378.971896,-1036.288319,9770.718434
2623.703791,-995.924147,444.123565,9474.636058
2623.704120,-153.219100,-0.000000,8882.471304
2623.704449,76.609550,-962.267725,8586.388927
2623.704778,76.609550,-1184.329507,9622.677246
2623.705107,153.219100,-444.123565,9474.636058
2623.705436,306.438199,592.164754,8290.306550
2623.705765,459.657299,1184.329507,8068.244768
2623.706094,612.876398,-370.102971,9178.553681
2623.706423,306.438199,-1332.370696,9474.636058
2623.706752,153.219100,-1702.473667,9326.594869
2623.707081,0.000000,-74.020594,8956.491898
2623.707410,-229.828649,148.041188,8216.285956
2623.707739,-306.438199,-518.144159,9400.615463
2623.708068,153.219100,-1702.473667,9400.615463
2623.708397,-229.828649,-2146.597232,9548.656652
2623.708726,0.000000,-296.082377,8586.388927
2623.709055,229.828649,1036.288319,8216.285956
2623.709384,229.828649,962.267725,8734.430116
2623.709713,0.000000,-0.000000,9252.574275
2623.710042,153.219100,-1184.329507,9474.636058
2623.710371,0.000000,-592.164754,9252.574275
2623.710700,383.047749,518.144159,8290.306550
2623.711029,306.438199,-0.000000,8364.327145
2623.711358,766.095498,-592.164754,9104.533087
2623.711687,1225.752797,-1184.329507,9474.636058
2623.712016,1072.533697,-888.247130,8956.491898
2623.712345,842.705048,1110.308913,8290.306550
2623.712673,1225.752797,1110.308913,8142.265362
2623.713002,1991.848295,222.061783,8956.491898
2623.713331,1608.800546,-74.020594,9548.656652
2623.713660,2298.286494,-296.082377,9178.553681
2623.713989,1149.143247,814.226536,8586.388927
2623.714318,1302.362347,1258.350101,8364.327145
2623.714647,1455.581446,148.041188,8734.430116
2623.714976,1225.752797,-888.247130,9622.677246
2623.715305,0.000000,-1776.494261,9548.656652
2623.715634,0.000000,-814.226536,9474.636058
2623.715963,-383.047749,740.205942,9474.636058
2623.716292,-536.266849,-0.000000,9326.594869
2623.716621,0.000000,-370.102971,9548.656652
2623.716950,-306.438199,-1110.308913,10140.821405
2623.717279,-153.219100,-222.061783,9622.677246
2623.717608,76.609550,740.205942,9030.512492
2623.717937,689.485948,-0.000000,9104.533087
2623.718266,995.924147,-0.000000,9326.594869
2623.718595,919.314598,-740.205942,9770.718434
2623.718924,689.485948,-148.041188,9104.533087
2623.719253,919.314598,1332.370696,8438.347739
2623.719582,919.314598,1406.391290,8364.327145
2623.719911,766.095498,888.247130,9030.512492
2623.720240,536.266849,-444.123565,9844.739029
2623.720569,-536.266849,-518.144159,9696.697840
2623.720898,-306.438199,296.082377,9104.533087
2623.721227,-995.924147,-0.000000,9104.533087
2623.721556,-1072.533697,-814.226536,9474.636058
2623.721884,-1225.752797,-1924.535449,9770.718434
2623.722213,-1072.533697,-2590.720797,9696.697840
2623.722542,-1149.143247,-666.185348,8956.491898
2623.722871,-842.705048,814.226536,8438.347739
2623.723200,-842.705048,962.267725,8216.285956
2623.723529,0.000000,148.041188,8660.409521
2623.723858,0.000000,-1258.350101,9326.594869
2623.724187,0.000000,-592.164754,8512.368333
2623.724516,0.000000,370.102971,8142.265362
2623.724845,689.485948,-370.102971,8364.327145
2623.725174,-536.266849,-1036.288319,8882.471304
2623.725503,459.657299,-2220.617826,9770.718434
2623.725832,383.047749,-814.226536,8956.491898
2623.726161,383.047749,370.102971,7994.224174
2623.726490,689.485948,888.247130,8068.244768
2623.726819,842.705048,222.061783,8660.409521
2623.727148,612.876398,-1110.308913,9622.677246
2623.727477,1072.533697,-740.205942,9030.512492
2623.727806,919.314598,740.205942,8586.388927
2623.728135,689.485948,148.041188,8068.244768
2623.728464,919.314598,-518.144159,9326.594869
2623.728793,842.705048,-1702.473667,9474.636058
2623.729122,383.047749,-1628.453072,9696.697840
2623.729451,0.000000,-222.061783,9252.574275
2623.729780,0.000000,1184.329507,8808.450710
2623.730109,-995.924147,592.164754,9030.512492
2623.730438,-153.219100,148.041188,9696.697840
2623.730766,-995.924147,-444.123565,9918.759623
2623.731095,-1225.752797,592.164754,9622.677246
2623.731424,-1455.581446,1110.308913,8364.327145
2623.731753,-1532.190996,814.226536,8586.388927
2623.732082,-1762.019645,-666.185348,9104.533087
2623.732411,-1838.629195,-1628.453072,9918.759623
2623.732740,-3064.381992,-1332.370696,9918.759623
2623.733069,-2604.724693,-518.144159,9326.594869
2623.733398,-2604.724693,518.144159,9252.574275
2623.733727,-2298.286494,-0.000000,9104.533087
2623.734056,-2298.286494,-444.123565,9474.636058
2623.734385,-2221.676944,-740.205942,9770.718434
2623.734714,-2528.115143,666.185348,9326.594869
2623.735043,-2145.067394,1110.308913,8956.491898
2623.735372,-1455.581446,1184.329507,8882.471304
2623.735701,-1608.800546,-0.000000,8734.430116
2623.736030,-1762.019645,-592.164754,9178.553681
2623.736359,-2374.896044,-814.226536,9030.512492
2623.736688,-2681.334243,666.185348,8512.368333
2623.737017,-2451.505594,888.247130,8216.285956
2623.737346,-2834.553343,296.082377,8512.368333
2623.737675,-2911.162892,-148.041188,9178.553681
2623.738004,-3294.210641,-888.247130,9474.636058
2623.738333,-3524.039291,-962.267725,9104.533087
2623.738662,-3217.601092,-666.185348,9030.512492
2623.738991,-3294.210641,-814.226536,9030.512492
2623.739320,-3677.258390,-814.226536,9474.636058
2623.739649,-3524.039291,-1036.288319,9918.759623
2623.739977,-3370.820191,-1184.329507,9400.615463
2623.740306,-3217.601092,-518.144159,9178.553681
2623.740635,-3064.381992,-0.000000,8586.388927
2623.740964,-3294.210641,370.102971,8364.327145
2623.741293,-3370.820191,444.123565,8216.285956
2623.741622,-3677.258390,370.102971,8216.285956
2623.741951,-4290.134789,888.247130,8808.450710
2623.742280,-4443.353888,-1036.288319,9030.512492
2623.742609,-4443.353888,-1184.329507,9178.553681
2623.742938,-3983.696590,-1628.453072,9400.615463
2623.743267,-4213.525239,-1998.556043,9474.636058
2623.743596,-4060.306139,-1702.473667,9844.739029
2623.743925,-3600.648841,-740.205942,9178.553681
2623.744254,-1838.629195,-0.000000,8512.368333
2623.744583,-1072.533697,962.267725,8290.306550
2623.744912,-1072.533697,666.185348,7994.224174
2623.745241,-1532.190996,-0.000000,9104.533087
2623.745570,-2145.067394,-148.041188,9474.636058
2623.745899,-1838.629195,740.205942,8364.327145
2623.746228,-1532.190996,1110.308913,7846.182985
2623.746557,-1838.629195,1554.432478,7846.182985
2623.746886,-2145.067394,1406.391290,8438.347739
2623.747215,-2451.505594,1110.308913,8956.491898
2623.747544,-2298.286494,370.102971,7994.224174
2623.747873,-1915.238745,-518.144159,8808.450710
2623.748202,-2374.896044,-1850.514855,9400.615463
2623.748531,-2987.772442,-2294.638420,10362.883188
2623.748859,-1991.848295,-2294.638420,11399.171507
2623.749188,-1608.800546,-1776.494261,10436.903782
2623.749517,-842.705048,-666.185348,9548.656652
2623.749846,-919.314598,962.267725,9326.594869
2623.750175,-1608.800546,740.205942,9252.574275
2623.750504,-1378.971896,-370.102971,10584.944971
2623.750833,-383.047749,-148.041188,9770.718434
2623.751162,-689.485948,1332.370696,8364.327145
2623.751491,-995.924147,444.123565,8586.388927
2623.751820,-1991.848295,-0.000000,7994.224174
2623.752149,-2374.896044,-370.102971,9030.512492
2623.752478,-2604.724693,-888.247130,9474.636058
2623.752807,-1915.238745,-0.000000,8808.450710
2623.753136,-1915.238745,-222.061783,8808.450710
2623.753465,-2451.505594,-0.000000,8068.244768
2623.753794,-3140.991542,148.041188,9030.512492
2623.754123,-2528.115143,-296.082377,9992.780217
2623.754452,-2451.505594,-370.102971,9252.574275
2623.754781,-1838.629195,-666.185348,9326.594869
2623.755110,-1608.800546,-74.020594,9030.512492
2623.755439,-2068.457845,-148.041188,8734.430116
2623.755768,-2145.067394,-1258.350101,9622.677246
2623.756097,-2374.896044,-296.082377,9400.615463
2623.756426,-2374.896044,296.082377,8956.491898
2623.756755,-2451.505594,-0.000000,8882.471304
2623.757084,-2451.505594,666.185348,8216.285956
2623.757413,-2681.334243,518.144159,7994.224174
2623.757742,-2681.334243,296.082377,8068.244768
2623.758070,-3064.381992,592.164754,8068.244768
2623.758399,-3370.820191,740.205942,8142.265362
2623.758728,-3830.477490,370.102971,7550.100608
2623.759057,-4519.963438,-222.061783,8068.244768
2623.759386,-4903.011187,-1628.453072,8956.491898
2623.759715,-5515.887586,-2146.597232,9696.697840
2623.760044,-5209.449386,-3034.844362,10436.903782
2623.760373,-4443.353888,-3478.967927,10362.883188
2623.760702,-4826.401637,-2146.597232,10436.903782
2623.761031,-4060.306139,-814.226536,10362.883188
2623.761360,-3447.429741,148.041188,9474.636058
2623.761689,-2757.943793,962.267725,9474.636058
2623.762018,-1838.629195,1776.494261,8734.430116
2623.762347,-1225.752797,2368.659014,8438.347739
2623.762676,-2068.457845,1924.535449,8142.265362
2623.763005,-2068.457845,1628.453072,8512.368333
2623.763334,-2451.505594,1184.329507,7328.038826
2623.763663,-2451.505594,888.247130,8290.306550
2623.763992,-2068.457845,-0.000000,7624.121203
2623.764321,-2068.457845,-0.000000,7994.224174
2623.764650,-2681.334243,-814.226536,8808.450710
2623.764979,-3447.429741,-0.000000,8290.306550
2623.765309,-2681.334243,-0.000000,9400.615463
2623.765638,-2834.553343,888.247130,8660.409521
2623.765967,-2451.505594,1776.494261,9696.697840
2623.766296,-3294.210641,1332.370696,9918.759623
2623.766625,-2757.943793,1480.411884,10362.883188
2623.766954,-2221.676944,1924.535449,9474.636058
2623.767283,-2221.676944,1480.411884,10066.800811
2623.767612,-1838.629195,888.247130,10362.883188
2623.767941,-1302.362347,444.123565,9844.739029
2623.768270,-1302.362347,1332.370696,10658.965565
2623.768599,-1225.752797,814.226536,9400.615463
2623.768928,-842.705048,592.164754,9548.656652
2623.769257,229.828649,444.123565,11473.192101
2623.769586,2221.676944,2368.659014,7476.080014
2623.769915,3907.087040,2886.803174,8734.430116
2623.770244,3064.381992,3627.009116,5477.523971
2623.770574,3447.429741,5403.503377,7105.977043
2623.770903,2834.553343,4885.359217,8364.327145
2623.771232,2298.286494,5181.441594,7846.182985
2623.771561,1838.629195,2738.761985,9400.615463
2623.771890,-612.876398,2368.659014,9696.697840
2623.772219,-1762.019645,1776.494261,10658.965565
2623.772548,-1915.238745,148.041188,11251.130318
2623.772877,-1378.971896,740.205942,9918.759623
2623.773206,-1225.752797,518.144159,10955.047942
2623.773535,0.000000,1480.411884,9918.759623
2623.773864,459.657299,3330.926739,7920.203579
2623.774193,1225.752797,2812.782580,8216.285956
2623.774522,2451.505594,4737.318029,7179.997637
2623.774851,2451.505594,6143.709319,5921.647536
2623.775180,2221.676944,4367.215058,7328.038826
2623.775509,995.924147,4737.318029,7179.997637
2623.775838,-229.828649,3849.070898,8734.430116
2623.776168,-2221.676944,2368.659014,9178.553681
2623.776497,-3370.820191,1480.411884,10214.842000
2623.776826,-3140.991542,370.102971,12361.439231
2623.777155,-3677.258390,2072.576638,9252.574275
2623.777484,-3524.039291,2368.659014,9992.780217
2623.777813,-4136.915689,2146.597232,10881.027347
2623.778142,-3140.991542,2590.720797,9992.780217
2623.778471,-2221.676944,2368.659014,10510.924376
2623.778800,-1149.143247,2960.823768,8586.388927
2623.779129,-766.095498,3182.885551,8364.327145
2623.779458,-995.924147,3404.947333,9030.512492
2623.779787,-612.876398,1924.535449,11547.212695
2623.780116,2374.896044,2664.741391,8290.306550
2623.780445,4443.353888,5255.462188,6513.812290
2623.780774,3753.867940,5181.441594,5699.585753
2623.781103,2068.457845,5329.482782,7254.018232
2623.781433,2528.115143,7105.977043,9252.574275
2623.781762,1915.238745,6439.791695,7179.997637
2623.782091,1838.629195,5403.503377,8290.306550
2623.782420,229.828649,5921.647536,8438.347739
2623.782749,383.047749,4885.359217,7624.121203
2623.783078,-1838.629195,1184.329507,11325.150913
2623.783407,-2145.067394,-74.020594,11769.274478
2623.783736,-1302.362347,444.123565,10807.006753
2623.784065,-1838.629195,-1924.535449,12065.356855
2623.784394,-1532.190996,3256.906145,8882.471304
2623.784723,0.000000,2886.803174,11547.212695
2623.785052,1532.190996,3701.029710,8956.491898
2623.785381,2681.334243,6439.791695,8068.244768
2623.785710,4213.525239,4441.235652,7846.182985
2623.786039,4060.306139,5181.441594,8068.244768
2623.786368,2987.772442,4959.379811,7402.059420
2623.786697,2298.286494,3552.988522,5921.647536
2623.787027,-689.485948,2146.597232,8808.450710
2623.787356,-1532.190996,-148.041188,12287.418637
2623.787685,-2604.724693,814.226536,10732.986159
2623.788014,-2451.505594,444.123565,11917.315666
2623.788343,-2911.162892,-296.082377,9030.512492
2623.788672,-1225.752797,1480.411884,11103.089130
2623.789001,-1915.238745,1332.370696,8808.450710
2623.789330,-1149.143247,1628.453072,8956.491898
2623.789659,-689.485948,666.185348,9844.739029
2623.789988,3064.381992,148.041188,9474.636058
2623.790317,3753.867940,2590.720797,4885.359217
2623.790646,3983.696590,2738.761985,7328.038826
2623.790975,995.924147,1850.514855,5847.626942
2623.791304,4903.011187,4441.235652,7772.162391
2623.791633,3217.601092,4367.215058,6217.729913
2623.791962,2681.334243,4145.153275,5995.668130
2623.792292,1149.143247,4071.132681,7994.224174
2623.792621,-689.485948,2146.597232,6957.935855
2623.792950,-3447.429741,-3849.070898,12879.583391
2623.793279,-4519.963438,-962.267725,11103.089130
2623.793608,-2221.676944,-1480.411884,11843.295072
2623.793937,-4213.525239,-1110.308913,10066.800811
2623.794266,-2451.505594,3256.906145,10436.903782
2623.794595,-229.828649,3034.844362,7920.203579
2623.794924,306.438199,2664.741391,8734.430116
2623.795253,4213.525239,3330.926739,8660.409521
2623.795582,3217.601092,2812.782580,5699.585753
2623.795911,4136.915689,3034.844362,8586.388927
2623.796240,2834.553343,5625.565159,5107.421000
2623.796569,4673.182538,2886.803174,7624.121203
2623.796898,1838.629195,4737.318029,5995.668130
2623.797227,3140.991542,4515.256246,6661.853478
2623.797557,2221.676944,4293.194464,7698.141797
2623.797886,76.609550,7550.100608,5847.626942
2623.798215,-2757.943793,-0.000000,11325.150913
2623.798544,-5898.935335,-2886.803174,13175.665768
2623.798873,-3600.648841,2738.761985,11029.068536
2623.799202,-3217.601092,-1998.556043,10658.965565
2623.799531,-3600.648841,-1480.411884,11917.315666
2623.799860,-2987.772442,3182.885551,13545.768739
2623.800189,459.657299,1184.329507,9104.533087
2623.800518,-2681.334243,6513.812290,7624.121203
2623.800847,0.000000,444.123565,12287.418637
2623.801176,3753.867940,2220.617826,8512.368333
2623.801505,3294.210641,6217.729913,5033.400406
2623.801834,2987.772442,3552.988522,7476.080014
2623.802163,1762.019645,3034.844362,5255.462188
2623.802492,3370.820191,4441.235652,10732.986159
2623.802821,0.000000,5847.626942,7254.018232
2623.803151,306.438199,5699.585753,8438.347739
2623.803480,-2757.943793,592.164754,11769.274478
2623.803809,-2145.067394,-1628.453072,11399.171507
2623.804138,-2987.772442,2368.659014,11103.089130
2623.804467,-3140.991542,-1776.494261,11547.212695
2623.804796,-2374.896044,-1406.391290,9030.512492
2623.805125,-2145.067394,-1406.391290,12731.542202
2623.805454,-1225.752797,518.144159,10362.883188
2623.805783,153.219100,444.123565,11399.171507
2623.806112,1838.629195,1776.494261,5625.565159
2623.806441,5362.668486,4515.256246,8512.368333
2623.806770,2604.724693,5033.400406,5551.544565
2623.807099,4060.306139,2590.720797,7772.162391
2623.807428,1378.971896,3849.070898,8216.285956
2623.807757,2451.505594,3701.029710,6587.832884
2623.808086,1838.629195,2294.638420,7105.977043
2623.808416,1378.971896,3775.050304,7105.977043
2623.808745,-306.438199,-1628.453072,10066.800811
2623.809074,-1532.190996,-3552.988522,12139.377449
2623.809403,-229.828649,-740.205942,8882.471304
2623.809732,-1532.190996,-2664.741391,10807.006753
2623.810061,-995.924147,-814.226536,9622.677246
2623.810390,0.000000,1998.556043,8290.306550
2623.810719,1685.410096,-0.000000,7402.059420
2623.811048,1225.752797,1554.432478,7476.080014
2623.811377,2145.067394,1332.370696,7328.038826
2623.811706,3217.601092,1850.514855,8142.265362
2623.812035,2681.334243,592.164754,7624.121203
2623.812364,2528.115143,-1998.556043,8734.430116
2623.812693,-306.438199,-2812.782580,9474.636058
2623.813022,-689.485948,-3108.864956,11103.089130
2623.813351,-995.924147,-1776.494261,9548.656652
2623.813680,-1149.143247,370.102971,9770.718434
2623.814010,-766.095498,74.020594,9844.739029
2623.814339,-689.485948,-1036.288319,10584.944971
2623.814668,153.219100,-1554.432478,9548.656652
2623.814997,0.000000,-740.205942,8586.388927
2623.815326,995.924147,-148.041188,7179.997637
2623.815655,2374.896044,-592.164754,7550.100608
2623.815984,2451.505594,-1184.329507,8068.244768
2623.816313,1532.190996,-2442.679609,8734.430116
2623.816642,-306.438199,-2960.823768,8438.347739
2623.816971,383.047749,-2590.720797,9622.677246
2623.817300,153.219100,-296.082377,9622.677246
2623.817629,-612.876398,518.144159,9844.739029
2623.817958,-842.705048,-0.000000,10362.883188
2623.818287,-1532.190996,-888.247130,10732.986159
2623.818616,-1455.581446,-1110.308913,10066.800811
2623.818945,-1225.752797,-1406.391290,9622.677246
2623.819275,229.828649,-1924.535449,10362.883188
2623.819604,1072.533697,-1998.556043,9844.739029
2623.819933,919.314598,-1702.473667,8882.471304
2623.820262,689.485948,-0.000000,7402.059420
2623.820591,1225.752797,1406.391290,6587.832884
2623.820920,1838.629195,2368.659014,7179.997637
2623.821249,1762.019645,2146.597232,6957.935855
2623.821578,842.705048,888.247130,7994.224174
2623.821907,-612.876398,-1480.411884,9178.553681
2623.822236,-1072.533697,-3108.864956,10584.944971
2623.822565,-1149.143247,-3256.906145,10436.903782
2623.822894,-1378.971896,-2590.720797,10584.944971
2623.823223,-1455.581446,-1480.411884,10362.883188
2623.823552,-995.924147,444.123565,10362.883188
2623.823881,-153.219100,1776.494261,9104.533087
2623.824210,229.828649,2442.679609,7698.141797
2623.824540,1225.752797,2960.823768,7846.182985
2623.824869,1762.019645,1702.473667,7772.162391
2623.825198,1455.581446,1036.288319,7698.141797
2623.825527,1532.190996,-148.041188,7772.162391
2623.825856,995.924147,-1258.350101,7698.141797
2623.826185,1072.533697,-1406.391290,8438.347739
2623.826514,536.266849,-1480.411884,8882.471304
2623.826843,76.609550,-1110.308913,9178.553681
2623.827172,-383.047749,-0.000000,8956.491898
2623.827501,-459.657299,592.164754,9400.615463
2623.827830,-536.266849,1628.453072,9622.677246
2623.828159,-229.828649,814.226536,10362.883188
2623.828488,-383.047749,296.082377,9992.780217
2623.828817,-536.266849,444.123565,9918.759623
2623.829146,383.047749,-74.020594,9400.615463
2623.829475,689.485948,148.041188,9400.615463
2623.829804,1149.143247,-0.000000,9548.656652
2623.830134,1225.752797,-444.123565,8808.450710
2623.830463,919.314598,814.226536,8364.327145
2623.830792,1302.362347,1184.329507,7994.224174
2623.831121,1072.533697,1702.473667,7920.203579
2623.831450,919.314598,1628.453072,8586.388927
2623.831779,995.924147,666.185348,9474.636058
2623.832108,766.095498,-0.000000,9474.636058
2623.832437,536.266849,-518.144159,10436.903782
2623.832766,766.095498,-592.164754,10288.862594
2623.833095,689.485948,-0.000000,10362.883188
2623.833424,459.657299,74.020594,10288.862594
2623.833753,612.876398,370.102971,9992.780217
2623.834082,76.609550,1554.432478,8882.471304
2623.834411,306.438199,1850.514855,8586.388927
2623.834740,689.485948,1332.370696,8290.306550
2623.835069,229.828649,444.123565,8808.450710
2623.835399,-153.219100,-814.226536,8956.491898
2623.835728,0.000000,-1628.453072,8438.347739
2623.836057,-306.438199,-1998.556043,7920.203579
2623.836386,76.609550,-1702.473667,8438.347739
2623.836715,459.657299,-1406.391290,8882.471304
2623.837044,306.438199,-1480.411884,9474.636058
2623.837373,229.828649,-1036.288319,8660.409521
2623.837702,-306.438199,-0.000000,8882.471304
2623.838031,919.314598,370.102971,8660.409521
2623.838360,689.485948,296.082377,8808.450710
2623.838689,536.266849,-148.041188,9326.594869
2623.839018,229.828649,-888.247130,9104.533087
2623.839347,459.657299,-814.226536,8586.388927
2623.839676,-229.828649,-1332.370696,9104.533087
2623.840005,0.000000,-1776.494261,8734.430116
2623.840334,-383.047749,-1998.556043,9400.615463
2623.840663,-612.876398,-2368.659014,9030.512492
2623.840993,-766.095498,-1998.556043,8364.327145
2623.841322,-229.828649,-1480.411884,7920.203579
2623.841651,-153.219100,-814.226536,8586.388927
2623.841980,-229.828649,-666.185348,8586.388927
2623.842309,-459.657299,-222.061783,9178.553681
2623.842638,0.000000,-666.185348,8808.450710
2623.842967,612.876398,-1110.308913,8660.409521
2623.843296,919.314598,-0.000000,9104.533087
2623.843625,1149.143247,-1184.329507,9400.615463
2623.843954,766.095498,-1036.288319,9474.636058
2623.844283,-229.828649,-296.082377,9178.553681
2623.844612,766.095498,-370.102971,8956.491898
2623.844941,229.828649,518.144159,8068.244768
2623.845270,689.485948,962.267725,8660.409521
2623.845599,459.657299,-0.000000,8586.388927
2623.845928,0.000000,-74.020594,8290.306550
2623.846258,-383.047749,-1258.350101,8438.347739
2623.846587,76.609550,-1776.494261,8660.409521
2623.846916,0.000000,-740.205942,8808.450710
2623.847245,153.219100,-1554.432478,9474.636058
2623.847574,0.000000,-444.123565,9474.636058
2623.847903,0.000000,-222.061783,9326.594869
2623.848232,1072.533697,1184.329507,8734.430116
2623.848561,1072.533697,1554.432478,9400.615463
2623.848890,1455.581446,1332.370696,9696.697840
2623.849219,842.705048,1110.308913,9252.574275
2623.849548,689.485948,592.164754,9326.594869
2623.849877,1532.190996,-74.020594,9030.512492
2623.850206,1991.848295,-518.144159,8734.430116
2623.850535,1225.752797,-1110.308913,9696.697840
2623.850864,995.924147,-2220.617826,9474.636058
2623.851193,0.000000,-1036.288319,8882.471304
2623.851522,0.000000,-148.041188,8586.388927
2623.851852,306.438199,-0.000000,8438.347739
2623.852181,459.657299,962.267725,8808.450710
2623.852510,-153.219100,962.267725,9474.636058
2623.852839,-306.438199,592.164754,9400.615463
2623.853168,229.828649,296.082377,9104.533087
2623.853497,536.266849,-74.020594,9400.615463
2623.853826,536.266849,-222.061783,10066.800811
2623.854155,0.000000,-1184.329507,10510.924376
2623.854484,459.657299,-1036.288319,9622.677246
2623.854813,229.828649,370.102971,8512.368333
2623.855142,383.047749,1184.329507,8364.327145
2623.855471,229.828649,1924.535449,8364.327145
2623.855800,0.000000,1332.370696,8364.327145
2623.856129,0.000000,814.226536,8512.368333
2623.856458,0.000000,-0.000000,8142.265362
2623.856787,229.828649,-296.082377,8586.388927
2623.857117,0.000000,-1184.329507,9178.553681
2623.857446,0.000000,-1184.329507,9178.553681
2623.857775,-383.047749,-1110.308913,9400.615463
2623.858104,-612.876398,-0.000000,9030.512492
2623.858433,76.609550,1332.370696,8660.409521
2623.858762,153.219100,2294.638420,8882.471304
2623.859091,1149.143247,1998.556043,9104.533087
2623.859420,1072.533697,1332.370696,9030.512492
2623.859749,0.000000,888.247130,8734.430116
2623.860078,306.438199,-518.144159,9104.533087
2623.860407,229.828649,-1332.370696,9252.574275
2623.860736,0.000000,-1850.514855,9178.553681
2623.861065,0.000000,-1998.556043,9104.533087
2623.861394,-612.876398,-1036.288319,10140.821405
2623.861723,-383.047749,-592.164754,9474.636058
2623.862052,-536.266849,296.082377,8956.491898
2623.862382,153.219100,1480.411884,9326.594869
2623.862711,229.828649,740.205942,9030.512492
2623.863040,76.609550,-444.123565,9622.677246
2623.863369,536.266849,-592.164754,9696.697840
2623.863698,1455.581446,-1702.473667,9696.697840
2623.864027,1838.629195,-592.164754,9326.594869
2623.864356,1302.362347,-518.144159,9696.697840
2623.864685,1225.752797,-1036.288319,9696.697840
2623.865014,689.485948,296.082377,8586.388927
2623.865343,919.314598,814.226536,8512.368333
2623.865672,766.095498,296.082377,8512.368333
2623.866001,0.000000,148.041188,9474.636058
2623.866330,459.657299,-962.267725,9104.533087
2623.866660,-153.219100,-1554.432478,9104.533087
2623.866989,-229.828649,-2072.576638,9400.615463
2623.867318,153.219100,-1776.494261,8734.430116
2623.867647,459.657299,-962.267725,9474.636058
2623.867976,76.609550,-1184.329507,9178.553681
2623.868305,306.438199,-222.061783,9252.574275
2623.868634,612.876398,148.041188,9104.533087
2623.868963,766.095498,962.267725,8364.327145
2623.869292,1225.752797,888.247130,8660.409521
2623.869621,919.314598,-74.020594,9104.533087
2623.869950,383.047749,-518.144159,9104.533087
2623.870279,842.705048,-592.164754,9178.553681
2623.870608,536.266849,-1628.453072,8734.430116
2623.870938,995.924147,-1480.411884,8882.471304
2623.871267,229.828649,-1628.453072,9030.512492
2623.871596,-153.219100,-1850.514855,9104.533087
2623.871925,-536.266849,-1184.329507,8734.430116
2623.872254,-306.438199,-666.185348,7994.224174
2623.872583,-536.266849,444.123565,8586.388927
2623.872912,153.219100,-0.000000,9474.636058
2623.873241,229.828649,-370.102971,8586.388927
2623.873570,0.000000,-814.226536,8882.471304
2623.873899,0.000000,-888.247130,8956.491898
2623.874228,0.000000,-814.226536,9030.512492
2623.874557,153.219100,-1406.391290,9548.656652
2623.874886,0.000000,-1480.411884,9474.636058
2623.875216,0.000000,-222.061783,9548.656652
2623.875545,383.047749,-0.000000,8142.265362
2623.875874,0.000000,296.082377,8808.450710
2623.876203,306.438199,1332.370696,9326.594869
2623.876532,383.047749,370.102971,9030.512492
2623.876861,306.438199,888.247130,8734.430116
2623.877190,306.438199,-0.000000,8956.491898
2623.877519,995.924147,-0.000000,9400.615463
2623.877848,1455.581446,-0.000000,9178.553681
2623.878177,1225.752797,-74.020594,9474.636058
2623.878506,842.705048,222.061783,9030.512492
2623.878835,459.657299,962.267725,9104.533087
2623.879164,612.876398,1258.350101,8438.347739
2623.879494,536.266849,2072.576638,8956.491898
2623.879823,536.266849,962.267725,9030.512492
2623.880152,842.705048,740.205942,8734.430116
2623.880481,0.000000,814.226536,9104.533087
2623.880810,229.828649,370.102971,9474.636058
2623.881139,76.609550,-0.000000,8808.450710
2623.881468,153.219100,-592.164754,9844.739029
2623.881797,229.828649,-148.041188,9992.780217
2623.882126,-229.828649,-0.000000,9696.697840
2623.882455,0.000000,444.123565,9474.636058
2623.882784,459.657299,888.247130,9252.574275
2623.883113,612.876398,1850.514855,9178.553681
2623.883442,689.485948,962.267725,9696.697840
2623.883772,383.047749,962.267725,9326.594869
2623.884101,229.828649,296.082377,9474.636058
2623.884430,1455.581446,-296.082377,9326.594869
2623.884759,1685.410096,-148.041188,8660.409521
2623.885088,842.705048,-888.247130,9918.759623
2623.885417,459.657299,-518.144159,9696.697840
2623.885746,0.000000,-74.020594,9104.533087
2623.886075,229.828649,962.267725,8882.471304
2623.886404,612.876398,814.226536,8512.368333
2623.886733,689.485948,666.185348,8882.471304
2623.887062,0.000000,222.061783,9104.533087
2623.887391,0.000000,-74.020594,9178.553681
2623.887720,0.000000,-1110.308913,9030.512492
2623.888050,0.000000,-1184.329507,8660.409521
2623.888379,306.438199,-1332.370696,9030.512492
2623.888708,0.000000,-1480.411884,9326.594869
2623.889037,-612.876398,-1406.391290,9252.574275
2623.889366,76.609550,-592.164754,9030.512492
2623.889695,459.657299,370.102971,7994.224174
2623.890024,459.657299,962.267725,8364.327145
2623.890353,76.609550,518.144159,8808.450710
2623.890682,0.000000,-0.000000,8734.430116
2623.891011,-76.609550,-444.123565,8142.265362
2623.891340,842.705048,-1406.391290,8734.430116
2623.891669,1302.362347,-814.226536,8734.430116
2623.891998,306.438199,-1110.308913,8956.491898
2623.892328,153.219100,-1110.308913,9030.512492
2623.892657,0.000000,-814.226536,8734.430116
2623.892986,383.047749,222.061783,8290.306550
2623.893315,612.876398,666.185348,8364.327145
2623.893644,383.047749,1184.329507,9400.615463
2623.893973,306.438199,592.164754,9474.636058
2623.894302,0.000000,-370.102971,9326.594869
2623.894631,229.828649,-888.247130,9178.553681
2623.894960,612.876398,-1258.350101,9474.636058
2623.895289,383.047749,-1036.288319,9548.656652
2623.895618,0.000000,-888.247130,9696.697840
2623.895947,76.609550,-370.102971,9992.780217
2623.896276,153.219100,-296.082377,8808.450710
2623.896606,459.657299,814.226536,8882.471304
2623.896935,306.438199,888.247130,9252.574275
2623.897264,383.047749,-222.061783,9178.553681
2623.897593,76.609550,-0.000000,9104.533087
2623.897922,229.828649,-1184.329507,9252.574275
2623.898251,766.095498,-1702.473667,8586.388927
2623.898580,1149.143247,-1110.308913,9326.594869
2623.898909,1225.752797,-1702.473667,9548.656652
2623.899238,995.924147,-1036.288319,9104.533087
2623.899567,766.095498,-74.020594,8734.430116
2623.899896,1072.533697,518.144159,7550.100608
2623.900225,1378.971896,1184.329507,8586.388927
2623.900554,1378.971896,222.061783,9104.533087
2623.900884,1072.533697,-148.041188,8882.471304
2623.901213,76.609550,-148.041188,8882.471304
2623.901542,229.828649,-444.123565,8660.409521
2623.901871,229.828649,-1036.288319,9030.512492
2623.902200,0.000000,-1332.370696,9992.780217
2623.902529,76.609550,-1628.453072,9474.636058
2623.902858,-689.485948,-370.102971,9548.656652
2623.903187,-383.047749,-0.000000,8808.450710
2623.903516,0.000000,222.061783,8586.388927
2623.903845,383.047749,1184.329507,8956.491898
2623.904174,229.828649,592.164754,8660.409521
2623.904503,76.609550,296.082377,9400.615463
2623.904832,76.609550,-74.020594,9104.533087
2623.905162,1302.362347,-74.020594,8956.491898
2623.905491,1225.752797,-666.185348,9400.615463
2623.905820,1072.533697,-1480.411884,10140.821405
2623.906149,536.266849,-962.267725,9178.553681
2623.906478,536.266849,222.061783,8734.430116
2623.906807,689.485948,1628.453072,8290.306550
2623.907136,689.485948,666.185348,8956.491898
2623.907465,1838.629195,1332.370696,9400.615463
2623.907794,536.266849,444.123565,9104.533087
2623.908123,-306.438199,518.144159,9178.553681
2623.908452,-229.828649,-666.185348,8512.368333
2623.908781,-153.219100,-296.082377,9104.533087
2623.909110,-689.485948,-1258.350101,9844.739029
2623.909440,-842.705048,-1554.432478,9918.759623
2623.909769,-842.705048,-370.102971,9474.636058
2623.910098,-459.657299,296.082377,9104.533087
2623.910427,-536.266849,1258.350101,8956.491898
2623.910756,76.609550,1036.288319,8956.491898
2623.911085,0.000000,592.164754,9178.553681
2623.911414,0.000000,962.267725,9030.512492
2623.911743,919.314598,-0.000000,8808.450710
2623.912072,1149.143247,-222.061783,8956.491898
2623.912401,1455.581446,-0.000000,9178.553681
2623.912730,1455.581446,-0.000000,9400.615463
2623.913059,689.485948,-0.000000,9474.636058
2623.913388,919.314598,-222.061783,9326.594869
2623.913717,1072.533697,1184.329507,8142.265362
2623.914047,919.314598,1406.391290,8512.368333
2623.914376,1225.752797,370.102971,8882.471304
2623.914705,0.000000,962.267725,9178.553681
2623.915034,0.000000,-370.102971,9474.636058
2623.915363,76.609550,-1480.411884,9178.553681
2623.915692,383.047749,-1554.432478,9030.512492
2623.916021,0.000000,-1924.535449,9918.759623
2623.916350,-153.219100,-1924.535449,10066.800811
2623.916679,76.609550,-1332.370696,9770.718434
2623.917008,0.000000,-888.247130,8956.491898
2623.917337,306.438199,666.185348,9252.574275
2623.917666,689.485948,1110.308913,9474.636058
2623.917995,689.485948,592.164754,8882.471304
2623.918325,689.485948,518.144159,8882.471304
2623.918654,1532.190996,-0.000000,8882.471304
2623.918983,1455.581446,-74.020594,8734.430116
2623.919312,1072.533697,-296.082377,9474.636058
2623.919641,1225.752797,-1258.350101,9770.718434
2623.919970,842.705048,-888.247130,8956.491898
2623.920299,995.924147,-444.123565,8512.368333
2623.920628,766.095498,370.102971,8290.306550
2623.920957,612.876398,148.041188,9178.553681
2623.921286,459.657299,444.123565,8882.471304
2623.921615,76.609550,-0.000000,9252.574275
2623.921944,-76.609550,-296.082377,8734.430116
2623.922273,0.000000,-814.226536,9104.533087
2623.922603,229.828649,-1258.350101,8808.450710
2623.922932,-306.438199,-2146.597232,9622.677246
2623.923261,-459.657299,-1776.494261,9992.780217
2623.923590,-842.705048,-1332.370696,9252.574275
2623.923919,-459.657299,-0.000000,8216.285956
2623.924248,0.000000,444.123565,7846.182985
2623.924577,76.609550,888.247130,8438.347739
2623.924906,153.219100,-74.020594,8808.450710
2623.925235,0.000000,-296.082377,9252.574275
2623.925564,536.266849,-1480.411884,8290.306550
2623.925893,1072.533697,-1110.308913,8290.306550
2623.926222,536.266849,-962.267725,9030.512492
2623.926551,383.047749,-1998.556043,9326.594869
2623.926881,229.828649,-1628.453072,8808.450710
2623.927210,229.828649,-0.000000,8660.409521
2623.927539,459.657299,370.102971,8734.430116
2623.927868,229.828649,518.144159,8734.430116
2623.928197,689.485948,-0.000000,8956.491898
2623.928526,76.609550,-0.000000,8882.471304
2623.928855,-383.047749,-0.000000,9696.697840
2623.929184,0.000000,-888.247130,8808.450710
2623.929513,229.828649,-888.247130,9252.574275
2623.929842,383.047749,-1480.411884,9548.656652
2623.930171,0.000000,-1406.391290,9326.594869
2623.930500,-306.438199,-518.144159,9326.594869
2623.930829,-306.438199,444.123565,8290.306550
2623.931159,153.219100,962.267725,8734.430116
2623.931488,459.657299,1184.329507,9104.533087
2623.931817,153.219100,-0.000000,9400.615463
2623.932146,153.219100,1036.288319,9178.553681
2623.932475,1149.143247,-0.000000,9178.553681
2623.932804,1455.581446,-444.123565,9252.574275
2623.933133,1762.019645,-0.000000,9474.636058
2623.933462,1302.362347,-222.061783,9474.636058
2623.933791,995.924147,1184.329507,9178.553681
2623.934120,995.924147,666.185348,8734.430116
2623.934449,1225.752797,1480.411884,8142.265362
2623.934778,1149.143247,1850.514855,8956.491898
2623.935107,919.314598,1258.350101,8882.471304
2623.935437,459.657299,444.123565,9104.533087
2623.935766,0.000000,296.082377,9104.533087
2623.936095,536.266849,-444.123565,8512.368333
2623.936424,153.219100,-740.205942,9326.594869
2623.936753,229.828649,-1628.453072,10140.821405
2623.937082,-306.438199,-1480.411884,9474.636058
2623.937411,-689.485948,-518.144159,9474.636058
2623.937740,-76.609550,-148.041188,9104.533087
2623.938069,229.828649,888.247130,8956.491898
2623.938398,0.000000,814.226536,8882.471304
2623.938727,153.219100,518.144159,9326.594869
2623.939056,0.000000,-222.061783,9474.636058
2623.939385,0.000000,-148.041188,8512.368333
2623.939715,229.828649,-370.102971,9178.553681
2623.940044,919.314598,-740.205942,9252.574275
2623.940373,842.705048,-1776.494261,9770.718434
2623.940702,536.266849,-888.247130,9474.636058
2623.941031,0.000000,-592.164754,9178.553681
2623.941360,459.657299,444.123565,8660.409521
2623.941689,766.095498,518.144159,8808.450710
2623.942018,842.705048,1406.391290,8808.450710
2623.942347,-229.828649,222.061783,9252.574275
2623.942676,-306.438199,-0.000000,9252.574275
2623.943005,459.657299,-1258.350101,8956.491898
2623.943334,383.047749,-666.185348,9548.656652
2623.943663,0.000000,-1480.411884,8586.388927
2623.943993,-153.219100,-1406.391290,9696.697840
2623.944322,-1072.533697,-592.164754,9326.594869
2623.944651,-766.095498,-0.000000,8290.306550
2623.944980,-459.657299,740.205942,8734.430116
2623.945309,-383.047749,1480.411884,9178.553681
2623.945638,0.000000,296.082377,9178.553681
2623.945967,-229.828649,-0.000000,8882.471304
2623.946296,76.609550,-1036.288319,8290.306550
2623.946625,842.705048,-592.164754,9104.533087
2623.946954,766.095498,-1184.329507,8956.491898
2623.947283,689.485948,-1258.350101,9474.636058
2623.947612,1149.143247,-888.247130,9770.718434
2623.947941,1455.581446,-148.041188,8438.347739
2623.948271,1685.410096,666.185348,7994.224174
2623.948600,1608.800546,1480.411884,8512.368333
2623.948929,1608.800546,1110.308913,8808.450710
2623.949258,842.705048,592.164754,9104.533087
2623.949587,306.438199,-222.061783,9326.594869
2623.949916,1378.971896,-888.247130,8956.491898
2623.950245,536.266849,-1480.411884,9474.636058
2623.950574,0.000000,-2146.597232,9474.636058
2623.950903,0.000000,-1998.556043,10214.842000
2623.951232,-612.876398,-1036.288319,9400.615463
2623.951561,0.000000,-0.000000,9326.594869
2623.951890,536.266849,592.164754,9030.512492
2623.952219,76.609550,-0.000000,9326.594869
2623.952549,0.000000,296.082377,9400.615463
2623.952878,536.266849,222.061783,9474.636058
2623.953207,766.095498,-0.000000,8660.409521
2623.953536,766.095498,-370.102971,8956.491898
2623.953865,1378.971896,-1036.288319,9474.636058
2623.954194,842.705048,-1628.453072,9548.656652
2623.954523,766.095498,-888.247130,9474.636058
2623.954852,919.314598,148.041188,8586.388927
2623.955181,766.095498,666.185348,8364.327145
2623.955510,689.485948,1628.453072,8882.471304
2623.955839,536.266849,518.144159,9104.533087
2623.956168,76.609550,-0.000000,8882.471304
2623.956497,383.047749,-148.041188,8808.450710
2623.956827,306.438199,-1036.288319,8512.368333
2623.957156,0.000000,-962.267725,8808.450710
2623.957485,306.438199,-1406.391290,9696.697840
2623.957814,-306.438199,-888.247130,9178.553681
2623.958143,-383.047749,-0.000000,8734.430116
2623.958472,0.000000,962.267725,8512.368333
2623.958801,153.219100,1776.494261,8290.306550
2623.959130,229.828649,666.185348,9104.533087
2623.959459,-536.266849,-0.000000,8808.450710
2623.959788,-689.485948,-1036.288319,9918.759623
2623.960117,-383.047749,-592.164754,8882.471304
2623.960446,0.000000,-1406.391290,8956.491898
2623.960775,0.000000,-370.102971,9622.677246
2623.961105,229.828649,-1702.473667,9696.697840
2623.961434,0.000000,-74.020594,9030.512492
2623.961763,153.219100,-0.000000,8956.491898
2623.962092,842.705048,1850.514855,8216.285956
2623.962421,919.314598,1776.494261,8808.450710
2623.962750,1149.143247,1258.350101,8882.471304
2623.963079,306.438199,1184.329507,8882.471304
2623.963408,842.705048,-74.020594,9400.615463
2623.963737,995.924147,-518.144159,8808.450710
2623.964066,689.485948,-888.247130,8734.430116
2623.964396,383.047749,-1554.432478,10066.800811
2623.964725,-153.219100,-814.226536,9474.636058
2623.965054,-919.314598,-444.123565,9326.594869
2623.965383,-306.438199,296.082377,8586.388927
2623.965712,0.000000,1480.411884,8438.347739
2623.966041,0.000000,148.041188,9992.780217
2623.966371,0.000000,-0.000000,8882.471304
2623.966700,-229.828649,-814.226536,9474.636058
2623.967029,306.438199,-888.247130,9326.594869
2623.967358,1072.533697,-888.247130,8956.491898
2623.967687,689.485948,-814.226536,9770.718434
2623.968016,1378.971896,-518.144159,9474.636058
2623.968346,536.266849,-0.000000,9178.553681
2623.968675,612.876398,666.185348,8586.388927
2623.969004,1378.971896,1628.453072,8660.409521
2623.969333,1532.190996,1554.432478,8734.430116
2623.969662,1302.362347,740.205942,8882.471304
2623.969992,842.705048,518.144159,9178.553681
2623.970321,536.266849,-518.144159,9770.718434
2623.970650,0.000000,-888.247130,8882.471304
2623.970979,689.485948,-1184.329507,9030.512492
2623.971308,612.876398,-740.205942,9474.636058
2623.971637,-459.657299,-962.267725,9696.697840
2623.971967,-536.266849,-222.061783,9770.718434
2623.972296,0.000000,-148.041188,8734.430116
2623.972625,689.485948,888.247130,8438.347739
2623.972954,766.095498,1258.350101,9474.636058
2623.973283,383.047749,-0.000000,9400.615463
2623.973612,0.000000,-444.123565,9622.677246
2623.973942,689.485948,-888.247130,8808.450710
2623.974271,1378.971896,-592.164754,8512.368333
2623.974600,919.314598,-666.185348,8882.471304
2623.974929,0.000000,-1036.288319,9992.780217
2623.975258,536.266849,-666.185348,9252.574275
2623.975587,229.828649,-444.123565,8512.368333
2623.975917,383.047749,592.164754,8290.306550
2623.976246,0.000000,518.144159,9030.512492
2623.976575,-229.828649,518.144159,8808.450710
2623.976904,-306.438199,-0.000000,8956.491898
2623.977233,-536.266849,-666.185348,9548.656652
2623.977562,919.314598,-1924.535449,9326.594869
2623.977892,0.000000,-888.247130,9252.574275
2623.978221,-383.047749,-1998.556043,9622.677246
2623.978550,-536.266849,-666.185348,9326.594869
2623.978879,-536.266849,-296.082377,8882.471304
2623.979208,0.000000,666.185348,8364.327145
2623.979537,229.828649,962.267725,8586.388927
2623.979867,0.000000,1036.288319,9030.512492
2623.980196,229.828649,-0.000000,9030.512492
2623.980525,-229.828649,-222.061783,9252.574275
2623.980854,153.219100,-1406.391290,8956.491898
2623.981183,153.219100,-1036.288319,8882.471304
2623.981512,153.219100,-1628.453072,9548.656652
2623.981842,383.047749,-1184.329507,9474.636058
2623.982171,-153.219100,-592.164754,9696.697840
2623.982500,0.000000,-0.000000,8660.409521
2623.982829,689.485948,1258.350101,8734.430116
2623.983158,1149.143247,1406.391290,8956.491898
2623.983487,995.924147,592.164754,9104.533087
2623.983817,995.924147,518.144159,9252.574275
2623.984146,995.924147,-0.000000,8808.450710
2623.984475,995.924147,-222.061783,8734.430116
2623.984804,1378.971896,-518.144159,8808.450710
2623.985133,1455.581446,-666.185348,9474.636058
2623.985462,306.438199,-0.000000,9474.636058
2623.985792,153.219100,-0.000000,8882.471304
2623.986121,459.657299,666.185348,8438.347739
2623.986450,1072.533697,1110.308913,9030.512492
2623.986779,689.485948,-444.123565,9844.739029
2623.987108,0.000000,-0.000000,9400.615463
2623.987437,-229.828649,-666.185348,9622.677246
2623.987767,229.828649,-740.205942,9252.574275
2623.988096,766.095498,-1110.308913,9178.553681
2623.988425,995.924147,-888.247130,9770.718434
2623.988754,1072.533697,-592.164754,9104.533087
2623.989083,766.095498,-148.041188,8882.471304
2623.989412,689.485948,592.164754,8512.368333
2623.989742,1149.143247,1184.329507,7772.162391
2623.990071,1149.143247,962.267725,9178.553681
2623.990400,919.314598,814.226536,8734.430116
2623.990729,153.219100,-0.000000,8882.471304
2623.991058,0.000000,-1036.288319,9326.594869
2623.991387,0.000000,-962.267725,8438.347739
2623.991717,842.705048,-1406.391290,9474.636058
2623.992046,383.047749,-1776.494261,9474.636058
2623.992375,-536.266849,-1110.308913,9622.677246
2623.992704,-995.924147,-1036.288319,9104.533087
2623.993033,-229.828649,-0.000000,8734.430116
2623.993362,383.047749,1332.370696,8734.430116
2623.993692,76.609550,666.185348,8734.430116
2623.994021,0.000000,370.102971,9548.656652
2623.994350,0.000000,-740.205942,9400.615463
2623.994679,612.876398,-962.267725,8586.388927
2623.995008,612.876398,-592.164754,8808.450710
2623.995338,459.657299,-1184.329507,9474.636058
2623.995667,-153.219100,-814.226536,9030.512492
2623.995996,-153.219100,-592.164754,9474.636058
2623.996325,76.609550,-222.061783,8660.409521
2623.996654,536.266849,1110.308913,8586.388927
2623.996983,229.828649,1258.350101,8882.471304
2623.997313,383.047749,370.102971,8956.491898
2623.997642,76.609550,444.123565,9104.533087
2623.997971,229.828649,-666.185348,8734.430116
2623.998300,689.485948,-1184.329507,8882.471304
2623.998629,383.047749,-740.205942,8956.491898
2623.998958,229.828649,-1184.329507,9326.594869
2623.999288,229.828649,-518.144159,9548.656652
2623.999617,0.000000,-222.061783,9030.512492
2623.999946,76.609550,1184.329507,8512.368333
2624.000275,383.047749,1110.308913,8512.368333
2624.000604,229.828649,666.185348,8956.491898
2624.000933,153.219100,-0.000000,9104.533087
2624.001263,229.828649,-222.061783,9030.512492
2624.001592,612.876398,-1258.350101,8586.388927
2624.001921,1378.971896,-1036.288319,8882.471304
2624.002250,995.924147,-1110.308913,9030.512492
2624.002579,842.705048,-592.164754,9474.636058
2624.002908,612.876398,-74.020594,9178.553681
2624.003238,689.485948,-0.000000,8438.347739
2624.003567,612.876398,962.267725,8512.368333
2624.003896,1072.533697,444.123565,9474.636058
2624.004225,0.000000,-0.000000,9178.553681
2624.004554,153.219100,-0.000000,9400.615463
2624.004883,459.657299,-888.247130,9548.656652
2624.005213,689.485948,-888.247130,9030.512492
2624.005542,1302.362347,-518.144159,9548.656652
2624.005871,536.266849,-666.185348,9622.677246
2624.006200,-229.828649,-222.061783,9622.677246
2624.006529,76.609550,74.020594,9104.533087
2624.006858,689.485948,370.102971,8734.430116
2624.007188,612.876398,1110.308913,9104.533087
2624.007517,689.485948,-0.000000,9178.553681
2624.007846,0.000000,-296.082377,9770.718434
2624.008175,229.828649,-814.226536,9844.739029
2624.008504,153.219100,-814.226536,9178.553681
2624.008833,306.438199,-888.247130,8808.450710
2624.009163,306.438199,-592.164754,9548.656652
2624.009492,0.000000,-444.123565,9474.636058
2624.009821,-459.657299,-0.000000,9400.615463
2624.010150,306.438199,222.061783,8660.409521
2624.010479,766.095498,814.226536,8290.306550
2624.010808,306.438199,-0.000000,9178.553681
2624.011138,-383.047749,-0.000000,9178.553681
2624.011467,-229.828649,-148.041188,8808.450710
2624.011796,76.609550,-666.185348,8290.306550
2624.012125,536.266849,-148.041188,8364.327145
2624.012454,306.438199,-1036.288319,9104.533087
2624.012783,76.609550,-962.267725,9030.512492
2624.013113,0.000000,-296.082377,9178.553681
2624.013442,0.000000,-296.082377,8290.306550
2624.013771,-383.047749,370.102971,8142.265362
2624.014100,0.000000,-0.000000,9104.533087
2624.014429,229.828649,-444.123565,8882.471304
2624.014758,-229.828649,-0.000000,8290.306550
2624.015088,0.000000,-148.041188,8808.450710
2624.015417,0.000000,-666.185348,8808.450710
2624.015746,689.485948,-370.102971,9474.636058
2624.016075,842.705048,-1036.288319,9178.553681
2624.016404,766.095498,-666.185348,9104.533087
2624.016733,383.047749,-814.226536,9474.636058
2624.017063,612.876398,-518.144159,8438.347739
2624.017392,919.314598,518.144159,9030.512492
2624.017721,919.314598,-0.000000,9548.656652
2624.018050,842.705048,-0.000000,9326.594869
2624.018379,306.438199,592.164754,9548.656652
2624.018708,536.266849,-0.000000,9104.533087
2624.019038,919.314598,-74.020594,9104.533087
2624.019367,1072.533697,-962.267725,9992.780217
2624.019696,1149.143247,-1258.350101,9548.656652
2624.020025,536.266849,-888.247130,9918.759623
2624.020354,76.609550,-592.164754,9622.677246
2624.020684,383.047749,370.102971,8808.450710
2624.021013,689.485948,592.164754,9104.533087
2624.021342,536.266849,296.082377,8660.409521
2624.021671,0.000000,1110.308913,9992.780217
2624.022000,0.000000,-0.000000,9326.594869
2624.022329,1302.362347,-518.144159,9104.533087
