#time,accel_x,accel_y,accel_z
2678.865392,0.000000,-148.041188,9474.636058
2678.865721,612.876398,-148.041188,9178.553681
2678.866050,536.266849,-74.020594,9178.553681
2678.866379,536.266849,-0.000000,9178.553681
2678.866708,766.095498,-370.102971,9030.512492
2678.867037,919.314598,-296.082377,9252.574275
2678.867366,383.047749,-74.020594,9104.533087
2678.867695,0.000000,296.082377,9548.656652
2678.868024,229.828649,-222.061783,8956.491898
2678.868353,76.609550,-148.041188,9178.553681
2678.868682,306.438199,-74.020594,8882.471304
2678.869010,536.266849,-148.041188,9178.553681
2678.869339,459.657299,-0.000000,9400.615463
2678.869668,76.609550,-74.020594,9252.574275
2678.869997,383.047749,-74.020594,8734.430116
2678.870326,229.828649,-0.000000,8956.491898
2678.870655,306.438199,-74.020594,8956.491898
2678.870984,459.657299,-0.000000,8734.430116
2678.871313,459.657299,-222.061783,8734.430116
2678.871642,995.924147,-370.102971,9178.553681
2678.871971,229.828649,-222.061783,9178.553681
2678.872300,76.609550,-444.123565,8808.450710
2678.872629,229.828649,-222.061783,8956.491898
2678.872958,229.828649,-148.041188,9178.553681
2678.873287,306.438199,-74.020594,8956.491898
2678.873616,383.047749,-222.061783,9030.512492
2678.873945,153.219100,-74.020594,9030.512492
2678.874274,842.705048,-444.123565,8956.491898
2678.874603,536.266849,-518.144159,9178.553681
2678.874932,383.047749,-148.041188,9252.574275
2678.875261,459.657299,-148.041188,9326.594869
2678.875590,383.047749,-222.061783,9178.553681
2678.875919,383.047749,-518.144159,9178.553681
2678.876248,153.219100,-296.082377,9400.615463
2678.876577,1149.143247,-592.164754,9252.574275
2678.876906,229.828649,-296.082377,9178.553681
2678.877235,459.657299,-148.041188,9326.594869
2678.877564,306.438199,-74.020594,9326.594869
2678.877893,612.876398,-0.000000,9030.512492
2678.878222,766.095498,-370.102971,9030.512492
2678.878551,842.705048,-444.123565,9252.574275
2678.878880,459.657299,-222.061783,8956.491898
2678.879209,612.876398,-222.061783,8956.491898
2678.879538,0.000000,-148.041188,8956.491898
2678.879867,229.828649,-74.020594,9030.512492
2678.880196,76.609550,-74.020594,9030.512492
2678.880525,689.485948,-370.102971,8808.450710
2678.880854,306.438199,-74.020594,9104.533087
2678.881183,842.705048,-74.020594,9104.533087
2678.881512,383.047749,-0.000000,8734.430116
2678.881841,536.266849,-0.000000,8808.450710
2678.882169,306.438199,-0.000000,8734.430116
2678.882498,229.828649,-148.041188,8808.450710
2678.882827,229.828649,-296.082377,8956.491898
2678.883156,0.000000,-444.123565,8956.491898
2678.883485,306.438199,-444.123565,9326.594869
2678.883814,0.000000,-296.082377,8808.450710
2678.884143,0.000000,-74.020594,9104.533087
2678.884472,229.828649,-0.000000,8956.491898
2678.884801,306.438199,-0.000000,8956.491898
2678.885130,459.657299,-222.061783,8956.491898
2678.885459,689.485948,-370.102971,8808.450710
2678.885788,383.047749,-74.020594,8512.368333
2678.886117,766.095498,148.041188,9104.533087
2678.886446,383.047749,-370.102971,9104.533087
2678.886775,229.828649,-296.082377,9326.594869
2678.887104,229.828649,-296.082377,9178.553681
2678.887433,459.657299,-740.205942,9178.553681
2678.887762,383.047749,-740.205942,9474.636058
2678.888091,306.438199,-444.123565,9400.615463
2678.888420,229.828649,-222.061783,9474.636058
2678.888749,306.438199,-148.041188,9252.574275
2678.889078,383.047749,-148.041188,9178.553681
2678.889407,383.047749,-0.000000,9104.533087
2678.889736,459.657299,-592.164754,9030.512492
2678.890065,536.266849,-222.061783,8882.471304
2678.890394,842.705048,-0.000000,8956.491898
2678.890723,0.000000,-0.000000,9400.615463
2678.891052,229.828649,-74.020594,9030.512492
2678.891381,229.828649,-74.020594,9104.533087
2678.891710,153.219100,-74.020594,9030.512492
2678.892039,536.266849,-74.020594,8956.491898
2678.892368,536.266849,-296.082377,8882.471304
2678.892697,-76.609550,-74.020594,9326.594869
2678.893026,229.828649,-296.082377,8882.471304
2678.893355,229.828649,-148.041188,8882.471304
2678.893684,383.047749,-148.041188,8808.450710
2678.894013,306.438199,-74.020594,9030.512492
2678.894342,153.219100,-296.082377,9030.512492
2678.894671,536.266849,-296.082377,9030.512492
2678.894999,612.876398,-444.123565,9030.512492
2678.895328,0.000000,-296.082377,8956.491898
2678.895657,153.219100,-74.020594,8882.471304
2678.895986,76.609550,-148.041188,9104.533087
2678.896315,766.095498,-592.164754,9696.697840
2678.896644,1378.971896,-1110.308913,9474.636058
2678.896973,1762.019645,-592.164754,9696.697840
2678.897302,1838.629195,-814.226536,9622.677246
2678.897631,2374.896044,-222.061783,9326.594869
2678.897960,3064.381992,296.082377,9178.553681
2678.898289,3600.648841,-74.020594,8882.471304
2678.898618,4213.525239,-0.000000,8808.450710
2678.898947,3217.601092,-0.000000,8734.430116
2678.899276,3447.429741,666.185348,8438.347739
2678.899605,2834.553343,296.082377,9326.594869
2678.899934,3370.820191,-296.082377,9622.677246
2678.900263,2145.067394,-370.102971,9104.533087
2678.900592,1762.019645,-592.164754,9696.697840
2678.900921,2221.676944,-1776.494261,9622.677246
2678.901250,2834.553343,-148.041188,9400.615463
2678.901579,2298.286494,-814.226536,9622.677246
2678.901908,3217.601092,-1036.288319,9770.718434
2678.902237,3524.039291,-148.041188,9104.533087
2678.902566,4596.572988,1036.288319,8956.491898
2678.902895,5362.668486,666.185348,7254.018232
2678.903224,4213.525239,1258.350101,8660.409521
2678.903553,5362.668486,962.267725,8586.388927
2678.903882,4290.134789,1110.308913,7550.100608
2678.904211,4136.915689,370.102971,9178.553681
2678.904540,2911.162892,-0.000000,8734.430116
2678.904869,2757.943793,444.123565,9400.615463
2678.905198,1072.533697,-1332.370696,9474.636058
2678.905527,1455.581446,-814.226536,9548.656652
2678.905856,1225.752797,-962.267725,9844.739029
2678.906185,842.705048,-1110.308913,9622.677246
2678.906514,1302.362347,-666.185348,9474.636058
2678.906843,2528.115143,-222.061783,10140.821405
2678.907172,2681.334243,222.061783,7698.141797
2678.907501,3983.696590,740.205942,9844.739029
2678.907830,3983.696590,1184.329507,7994.224174
2678.908158,4290.134789,740.205942,8216.285956
2678.908487,4596.572988,814.226536,8734.430116
2678.908816,4519.963438,370.102971,8808.450710
2678.909145,3524.039291,-222.061783,9326.594869
2678.909474,3140.991542,-1332.370696,9696.697840
2678.909803,2528.115143,-1110.308913,9918.759623
2678.910132,2298.286494,-1776.494261,9770.718434
2678.910461,1915.238745,-1554.432478,10140.821405
2678.910790,2221.676944,-1406.391290,10140.821405
2678.911119,2374.896044,-888.247130,9992.780217
2678.911448,2834.553343,370.102971,9178.553681
2678.911777,3524.039291,1036.288319,8660.409521
2678.912106,3983.696590,1850.514855,8216.285956
2678.912435,4596.572988,2294.638420,7920.203579
2678.912764,4060.306139,2960.823768,7624.121203
2678.913093,3983.696590,1924.535449,8512.368333
2678.913422,4290.134789,1628.453072,7920.203579
2678.913751,3600.648841,-222.061783,8290.306550
2678.914080,3064.381992,-888.247130,9252.574275
2678.914409,2681.334243,-2146.597232,9696.697840
2678.914738,2374.896044,-2368.659014,9992.780217
2678.915067,2451.505594,-2738.761985,10510.924376
2678.915396,3064.381992,-2220.617826,10881.027347
2678.915725,3830.477490,-1184.329507,9992.780217
2678.916054,4673.182538,-0.000000,9252.574275
2678.916383,5209.449386,1332.370696,9104.533087
2678.916712,5209.449386,2368.659014,8438.347739
2678.917041,4979.620737,3034.844362,7772.162391
2678.917370,4366.744339,3330.926739,6809.894666
2678.917699,4443.353888,2812.782580,7105.977043
2678.918028,4443.353888,1184.329507,7105.977043
2678.918357,2451.505594,-222.061783,7698.141797
2678.918686,459.657299,-3330.926739,9992.780217
2678.919015,-689.485948,-3923.091493,10362.883188
2678.919344,-1149.143247,-5033.400406,11991.336260
2678.919673,-612.876398,-4293.194464,11103.089130
2678.920002,0.000000,-2294.638420,10881.027347
2678.920331,995.924147,-2220.617826,10955.047942
2678.920660,2068.457845,-74.020594,10214.842000
2678.920989,4903.011187,1332.370696,9844.739029
2678.921317,7048.078582,1850.514855,8512.368333
2678.921646,6665.030833,1628.453072,8068.244768
2678.921975,6052.154434,1480.411884,7846.182985
2678.922304,5898.935335,2590.720797,6143.709319
2678.922633,5515.887586,1554.432478,7698.141797
2678.922962,5592.497135,2812.782580,5995.668130
2678.923291,5209.449386,2590.720797,7179.997637
2678.923620,4366.744339,1924.535449,6365.771101
2678.923949,4749.792088,370.102971,6513.812290
2678.924278,1685.410096,-4293.194464,9474.636058
2678.924607,-153.219100,-7476.080014,12731.542202
2678.924936,-1608.800546,-3256.906145,11473.192101
2678.925265,-919.314598,-7476.080014,14285.974681
2678.925594,-1762.019645,-2960.823768,10881.027347
2678.925923,1072.533697,888.247130,12287.418637
2678.926252,3140.991542,148.041188,11177.109724
2678.926581,4673.182538,2664.741391,9400.615463
2678.926910,7277.907231,740.205942,9400.615463
2678.927239,7354.516781,2146.597232,8216.285956
2678.927568,7660.954980,4145.153275,5921.647536
2678.927897,8350.440928,3701.029710,5403.503377
2678.928226,7431.126331,1480.411884,4959.379811
2678.928555,7201.297681,3034.844362,5551.544565
2678.928884,6435.202183,740.205942,6365.771101
2678.929213,4443.353888,1702.473667,5699.585753
2678.929542,4903.011187,444.123565,6809.894666
2678.929871,2068.457845,-2294.638420,9992.780217
2678.930200,-2298.286494,-6957.935855,13249.686362
2678.930529,-3140.991542,-1184.329507,12065.356855
2678.930858,-1838.629195,-6217.729913,13471.748144
2678.931187,-1685.410096,-3701.029710,11399.171507
2678.931516,689.485948,1406.391290,12509.480420
2678.931845,1302.362347,296.082377,11325.150913
2678.932174,-1149.143247,2220.617826,11399.171507
2678.932503,7048.078582,-1702.473667,12361.439231
2678.932832,8427.050478,2886.803174,4737.318029
2678.933161,7660.954980,1776.494261,9030.512492
2678.933490,6435.202183,592.164754,5033.400406
2678.933819,7354.516781,1480.411884,4441.235652
2678.934147,6588.421283,666.185348,7920.203579
2678.934476,6128.763984,2516.700203,4071.132681
2678.934805,4519.963438,2146.597232,9844.739029
2678.935134,2451.505594,1628.453072,6587.832884
2678.935463,4366.744339,2294.638420,7031.956449
2678.935792,1838.629195,-74.020594,8512.368333
2678.936121,1532.190996,-3775.050304,11991.336260
2678.936450,-766.095498,-2590.720797,11621.233289
2678.936779,76.609550,-4589.276840,14063.912898
2678.937108,-919.314598,-2960.823768,10807.006753
2678.937437,383.047749,370.102971,10362.883188
2678.937766,2374.896044,518.144159,9548.656652
2678.938095,2451.505594,1850.514855,7550.100608
2678.938424,4136.915689,1332.370696,7698.141797
2678.938753,3753.867940,1332.370696,8068.244768
2678.939082,4366.744339,3034.844362,7105.977043
2678.939411,4060.306139,-0.000000,7698.141797
2678.939740,4136.915689,-1998.556043,6957.935855
2678.940069,2987.772442,-2886.803174,9770.718434
2678.940398,2451.505594,-2368.659014,10881.027347
2678.940727,2145.067394,-1702.473667,9474.636058
2678.941056,1455.581446,-740.205942,11325.150913
2678.941385,3064.381992,-74.020594,11103.089130
2678.941714,3370.820191,1036.288319,9104.533087
2678.942043,3217.601092,-0.000000,10066.800811
2678.942372,4596.572988,1924.535449,8068.244768
2678.942701,6128.763984,1406.391290,8586.388927
2678.943030,5822.325785,1998.556043,7994.224174
2678.943359,5286.058936,592.164754,7920.203579
2678.943688,4443.353888,-370.102971,8290.306550
2678.944017,3830.477490,-0.000000,7698.141797
2678.944346,2451.505594,-74.020594,8364.327145
2678.944675,536.266849,-1184.329507,9770.718434
2678.945004,-306.438199,-1998.556043,10881.027347
2678.945333,0.000000,-2368.659014,10658.965565
2678.945662,536.266849,-2516.700203,10732.986159
2678.945991,153.219100,-1998.556043,10584.944971
2678.946320,612.876398,-1702.473667,11843.295072
2678.946649,2451.505594,518.144159,10584.944971
2678.946978,4979.620737,1702.473667,8808.450710
2678.947307,6818.249932,2590.720797,7994.224174
2678.947636,5515.887586,1776.494261,8586.388927
2678.947965,5056.230287,1184.329507,8290.306550
2678.948294,5362.668486,2738.761985,6365.771101
2678.948623,5669.106685,1258.350101,6809.894666
2678.948952,4903.011187,1776.494261,6957.935855
2678.949281,3907.087040,2368.659014,7772.162391
2678.949610,2068.457845,-296.082377,7550.100608
2678.949939,-383.047749,-2294.638420,8808.450710
2678.950269,-1915.238745,-2294.638420,10288.862594
2678.950598,-2451.505594,-2590.720797,14137.933492
2678.950927,-3600.648841,-2664.741391,9992.780217
2678.951256,-3370.820191,-444.123565,10288.862594
2678.951585,-1608.800546,-1924.535449,9844.739029
2678.951914,-2604.724693,-888.247130,9252.574275
2678.952243,-1532.190996,-1036.288319,10584.944971
2678.952572,-459.657299,-370.102971,8734.430116
2678.952901,0.000000,-0.000000,9400.615463
2678.953230,-612.876398,-444.123565,9918.759623
2678.953559,-459.657299,-1036.288319,9696.697840
2678.953888,842.705048,-1110.308913,8512.368333
2678.954217,2911.162892,1184.329507,6439.791695
2678.954546,3677.258390,1628.453072,6513.812290
2678.954875,3524.039291,1702.473667,7105.977043
2678.955204,2374.896044,814.226536,7476.080014
2678.955533,995.924147,1480.411884,7105.977043
2678.955862,-229.828649,-296.082377,8734.430116
2678.956191,-1378.971896,-444.123565,9992.780217
2678.956520,-1608.800546,-1628.453072,10066.800811
2678.956849,-1225.752797,-1776.494261,9844.739029
2678.957178,-1685.410096,-2516.700203,10881.027347
2678.957507,-1991.848295,-2368.659014,11251.130318
2678.957836,-383.047749,-1850.514855,9918.759623
2678.958165,-229.828649,-0.000000,9548.656652
2678.958494,-306.438199,296.082377,9770.718434
2678.958823,1455.581446,-74.020594,9696.697840
2678.959152,2834.553343,666.185348,9178.553681
2678.959481,2987.772442,814.226536,7772.162391
2678.959810,2987.772442,1036.288319,6809.894666
2678.960139,2757.943793,2442.679609,7105.977043
2678.960468,2374.896044,1998.556043,7328.038826
2678.960797,1915.238745,1480.411884,7624.121203
2678.961126,-536.266849,592.164754,8956.491898
2678.961455,-1685.410096,-148.041188,9844.739029
2678.961784,-995.924147,-1406.391290,9992.780217
2678.962113,-1991.848295,-2368.659014,9326.594869
2678.962442,-1532.190996,-2146.597232,10881.027347
2678.962771,-1225.752797,-1776.494261,11325.150913
2678.963100,-1302.362347,-740.205942,9400.615463
2678.963429,-1532.190996,-1110.308913,9992.780217
2678.963758,-459.657299,-888.247130,10066.800811
2678.964087,-306.438199,-148.041188,9844.739029
2678.964416,153.219100,740.205942,9622.677246
2678.964745,1302.362347,-0.000000,9474.636058
2678.965074,1455.581446,666.185348,8660.409521
2678.965404,2757.943793,1554.432478,7994.224174
2678.965733,2681.334243,1850.514855,6809.894666
2678.966062,995.924147,962.267725,8068.244768
2678.966391,842.705048,592.164754,9400.615463
2678.966720,536.266849,-0.000000,8734.430116
2678.967049,-766.095498,-888.247130,8808.450710
2678.967378,-1225.752797,-1628.453072,9400.615463
2678.967707,-1685.410096,-2368.659014,10436.903782
2678.968036,-995.924147,-2368.659014,10584.944971
2678.968365,383.047749,-1702.473667,9474.636058
2678.968694,76.609550,-1702.473667,9252.574275
2678.969023,153.219100,-74.020594,9992.780217
2678.969352,1072.533697,296.082377,9622.677246
2678.969681,1455.581446,-0.000000,8290.306550
2678.970010,1915.238745,814.226536,8512.368333
2678.970339,2068.457845,1406.391290,7846.182985
2678.970668,2528.115143,1702.473667,8438.347739
2678.970997,1991.848295,666.185348,7994.224174
2678.971326,1302.362347,-0.000000,7920.203579
2678.971655,766.095498,-74.020594,9030.512492
2678.971984,229.828649,-814.226536,9474.636058
2678.972313,-919.314598,-1258.350101,9696.697840
2678.972642,-1455.581446,-2368.659014,9696.697840
2678.972971,-1072.533697,-1332.370696,9770.718434
2678.973300,0.000000,-2368.659014,10732.986159
2678.973629,-306.438199,-222.061783,9252.574275
2678.973958,229.828649,-666.185348,9474.636058
2678.974287,766.095498,518.144159,9178.553681
2678.974616,2451.505594,1480.411884,8216.285956
2678.974945,2604.724693,814.226536,7624.121203
2678.975274,1608.800546,1184.329507,8068.244768
2678.975603,1915.238745,1036.288319,8438.347739
2678.975932,1532.190996,666.185348,8290.306550
2678.976261,0.000000,-370.102971,8438.347739
2678.976590,-459.657299,-814.226536,9474.636058
2678.976919,-1378.971896,-518.144159,10288.862594
2678.977248,-1532.190996,-1110.308913,9918.759623
2678.977577,-1302.362347,-1036.288319,8956.491898
2678.977906,-1225.752797,-1480.411884,10955.047942
2678.978235,-1072.533697,-814.226536,10140.821405
2678.978564,-306.438199,-814.226536,9844.739029
2678.978893,-459.657299,-296.082377,9178.553681
2678.979222,-536.266849,592.164754,9326.594869
2678.979551,0.000000,740.205942,9992.780217
2678.979880,1149.143247,-0.000000,9178.553681
2678.980209,1225.752797,222.061783,7624.121203
2678.980538,1685.410096,666.185348,8586.388927
2678.980868,1685.410096,370.102971,8216.285956
2678.981197,1685.410096,962.267725,7550.100608
2678.981526,842.705048,-0.000000,8438.347739
2678.981855,0.000000,-0.000000,8216.285956
2678.982184,-229.828649,-444.123565,9178.553681
2678.982513,-229.828649,-1036.288319,8956.491898
2678.982842,-689.485948,-1406.391290,8882.471304
2678.983171,-689.485948,-2146.597232,10881.027347
2678.983500,0.000000,-814.226536,9326.594869
2678.983829,153.219100,-222.061783,8660.409521
2678.984158,1072.533697,-222.061783,9992.780217
2678.984487,1072.533697,1480.411884,8438.347739
2678.984816,2298.286494,888.247130,7994.224174
2678.985145,2681.334243,962.267725,7994.224174
2678.985474,2834.553343,1184.329507,7994.224174
2678.985803,1838.629195,-0.000000,9178.553681
2678.986132,1302.362347,592.164754,8216.285956
2678.986461,842.705048,-444.123565,8882.471304
2678.986790,-383.047749,-1036.288319,9326.594869
2678.987119,-1532.190996,-592.164754,9770.718434
2678.987448,-1149.143247,-1110.308913,10807.006753
2678.987777,-1149.143247,-370.102971,9252.574275
2678.988106,-1149.143247,-666.185348,10288.862594
2678.988435,-1072.533697,-518.144159,9992.780217
2678.988764,0.000000,-0.000000,9696.697840
2678.989093,229.828649,444.123565,9992.780217
2678.989422,459.657299,-296.082377,9252.574275
2678.989751,1608.800546,370.102971,8882.471304
2678.990080,1915.238745,1110.308913,8364.327145
2678.990409,1838.629195,370.102971,8512.368333
2678.990738,1149.143247,-148.041188,8216.285956
2678.991067,995.924147,-0.000000,8216.285956
2678.991396,76.609550,148.041188,8512.368333
2678.991725,0.000000,-740.205942,8512.368333
2678.992054,-1225.752797,-1406.391290,9992.780217
2678.992383,-766.095498,-888.247130,9548.656652
2678.992712,-766.095498,-148.041188,9548.656652
2678.993041,-1378.971896,-222.061783,8512.368333
2678.993370,-842.705048,-814.226536,9622.677246
2678.993699,-459.657299,-1702.473667,9770.718434
2678.994028,-995.924147,-814.226536,9548.656652
2678.994357,306.438199,-814.226536,9474.636058
2678.994686,-383.047749,-1110.308913,9178.553681
2678.995015,0.000000,-222.061783,9326.594869
2678.995344,1762.019645,-0.000000,9178.553681
2678.995673,2528.115143,-222.061783,7402.059420
2678.996003,2451.505594,222.061783,8068.244768
2678.996332,3447.429741,1258.350101,6735.874072
2678.996661,3600.648841,1258.350101,7550.100608
2678.996990,2145.067394,962.267725,8364.327145
2678.997319,1149.143247,222.061783,8808.450710
2678.997648,383.047749,296.082377,9474.636058
2678.997977,-306.438199,-592.164754,10362.883188
2678.998306,-995.924147,-1554.432478,10288.862594
2678.998635,-995.924147,-1850.514855,9770.718434
2678.998964,0.000000,-1776.494261,10140.821405
2678.999293,-229.828649,-1184.329507,10732.986159
2678.999622,459.657299,-592.164754,8882.471304
2678.999951,536.266849,-296.082377,9770.718434
2679.000280,2298.286494,1184.329507,8660.409521
2679.000609,2451.505594,962.267725,8068.244768
2679.000938,2145.067394,740.205942,8142.265362
2679.001267,2604.724693,666.185348,7994.224174
2679.001596,1991.848295,740.205942,8142.265362
2679.001925,842.705048,-0.000000,8290.306550
2679.002254,0.000000,-74.020594,8956.491898
2679.002583,-1762.019645,-2368.659014,10362.883188
2679.002912,-2757.943793,-1480.411884,11029.068536
2679.003241,-1915.238745,-1406.391290,9770.718434
2679.003570,-2451.505594,-592.164754,9474.636058
2679.003899,-2068.457845,-1332.370696,10510.924376
2679.004228,-689.485948,370.102971,9400.615463
2679.004557,306.438199,296.082377,8660.409521
2679.004886,-306.438199,444.123565,8290.306550
2679.005215,689.485948,-0.000000,9696.697840
2679.005544,2374.896044,592.164754,8142.265362
2679.005873,2451.505594,1036.288319,6883.915261
2679.006202,2451.505594,666.185348,7698.141797
2679.006531,1302.362347,1110.308913,7105.977043
2679.006860,995.924147,296.082377,8660.409521
2679.007189,689.485948,-0.000000,8734.430116
2679.007518,-306.438199,-222.061783,8586.388927
2679.007847,-1532.190996,-1702.473667,10140.821405
2679.008176,-1685.410096,-1110.308913,9474.636058
2679.008505,-1378.971896,-666.185348,10214.842000
2679.008834,-1302.362347,-1406.391290,9696.697840
2679.009163,-766.095498,-1110.308913,9918.759623
2679.009492,0.000000,-1036.288319,10584.944971
2679.009821,536.266849,-148.041188,9104.533087
2679.010150,1072.533697,-0.000000,8808.450710
2679.010479,2681.334243,740.205942,8216.285956
2679.010808,3600.648841,1036.288319,7698.141797
2679.011137,3140.991542,1184.329507,7624.121203
2679.011467,2987.772442,814.226536,7624.121203
2679.011796,2145.067394,814.226536,7994.224174
2679.012125,1302.362347,370.102971,8364.327145
2679.012454,76.609550,-962.267725,8956.491898
2679.012783,-1608.800546,-1110.308913,9696.697840
2679.013112,-2221.676944,-1998.556043,11325.150913
2679.013441,-1838.629195,-1258.350101,9770.718434
2679.013770,-689.485948,-814.226536,9178.553681
2679.014099,-1302.362347,-1480.411884,9622.677246
2679.014428,-1072.533697,-814.226536,9918.759623
2679.014757,-536.266849,-148.041188,9696.697840
2679.015086,995.924147,518.144159,9918.759623
2679.015415,1762.019645,518.144159,9104.533087
2679.015744,1838.629195,2220.617826,7772.162391
2679.016073,2987.772442,2368.659014,7179.997637
2679.016402,2911.162892,1702.473667,7105.977043
2679.016731,2528.115143,1258.350101,7624.121203
2679.017060,1838.629195,1036.288319,8438.347739
2679.017389,842.705048,-222.061783,8956.491898
2679.017718,-689.485948,-1184.329507,9770.718434
2679.018047,-1915.238745,-1924.535449,10807.006753
2679.018376,-2604.724693,-1702.473667,10362.883188
2679.018705,-1608.800546,-222.061783,9696.697840
2679.019034,-1225.752797,-1258.350101,9844.739029
2679.019363,-1685.410096,-888.247130,10288.862594
2679.019692,-995.924147,-666.185348,10881.027347
2679.020021,0.000000,-444.123565,10288.862594
2679.020350,-229.828649,-148.041188,9030.512492
2679.020679,-995.924147,148.041188,9918.759623
2679.021008,-229.828649,-0.000000,9622.677246
2679.021337,1378.971896,-0.000000,9104.533087
2679.021666,2451.505594,-222.061783,7476.080014
2679.021995,2068.457845,518.144159,7031.956449
2679.022324,2221.676944,1554.432478,5551.544565
2679.022653,2221.676944,-0.000000,8956.491898
2679.022982,995.924147,-370.102971,7920.203579
2679.023311,-536.266849,-814.226536,8808.450710
2679.023640,-842.705048,-592.164754,9844.739029
2679.023969,-1378.971896,-592.164754,9992.780217
2679.024298,-919.314598,-814.226536,10807.006753
2679.024627,-1455.581446,-1776.494261,10066.800811
2679.024956,0.000000,-2146.597232,9622.677246
2679.025285,536.266849,-888.247130,9474.636058
2679.025614,689.485948,592.164754,8808.450710
2679.025943,1225.752797,-0.000000,8734.430116
2679.026272,1302.362347,1184.329507,7254.018232
2679.026602,3677.258390,1406.391290,7402.059420
2679.026931,3140.991542,740.205942,7031.956449
2679.027260,2451.505594,296.082377,7328.038826
2679.027589,2681.334243,666.185348,7476.080014
2679.027918,1072.533697,-0.000000,8364.327145
2679.028247,-612.876398,-888.247130,8586.388927
2679.028576,-1838.629195,-1554.432478,10510.924376
2679.028905,-2221.676944,-1628.453072,11399.171507
2679.029234,-1685.410096,-518.144159,10288.862594
2679.029563,-1685.410096,-962.267725,9178.553681
2679.029892,-1072.533697,-0.000000,9696.697840
2679.030221,-1455.581446,-148.041188,9696.697840
2679.030550,-612.876398,-666.185348,10288.862594
2679.030879,-383.047749,-0.000000,8290.306550
2679.031208,-459.657299,-444.123565,9696.697840
2679.031537,-306.438199,-0.000000,10066.800811
2679.031866,919.314598,-370.102971,9696.697840
2679.032195,1225.752797,-370.102971,9030.512492
2679.032524,2221.676944,296.082377,7698.141797
2679.032853,1685.410096,370.102971,9030.512492
2679.033182,689.485948,1406.391290,8290.306550
2679.033511,459.657299,148.041188,8882.471304
2679.033840,-766.095498,-222.061783,9696.697840
2679.034169,-1455.581446,-222.061783,10066.800811
2679.034498,-1149.143247,-814.226536,9918.759623
2679.034827,-2451.505594,-2294.638420,10140.821405
2679.035156,-1762.019645,-1184.329507,10807.006753
2679.035485,-229.828649,-1184.329507,9918.759623
2679.035814,153.219100,-518.144159,8882.471304
2679.036143,0.000000,-0.000000,8734.430116
2679.036472,1991.848295,592.164754,8956.491898
2679.036801,2757.943793,1184.329507,7772.162391
2679.037130,3907.087040,1258.350101,7105.977043
2679.037459,3677.258390,888.247130,7476.080014
2679.037788,2987.772442,962.267725,7920.203579
2679.038117,2987.772442,1554.432478,7476.080014
2679.038446,2145.067394,-740.205942,7402.059420
2679.038775,229.828649,-1184.329507,9770.718434
2679.039104,-919.314598,-1628.453072,9696.697840
2679.039433,-2145.067394,-814.226536,11103.089130
2679.039762,-1532.190996,-1924.535449,9992.780217
2679.040091,-1455.581446,-1184.329507,9474.636058
2679.040420,-919.314598,-1998.556043,10510.924376
2679.040749,-689.485948,-888.247130,9548.656652
2679.041078,536.266849,-814.226536,8956.491898
2679.041407,1302.362347,296.082377,8882.471304
2679.041736,2221.676944,1480.411884,7550.100608
2679.042065,3294.210641,1184.329507,8142.265362
2679.042394,3370.820191,1628.453072,7402.059420
2679.042722,2911.162892,1184.329507,7698.141797
2679.043051,2528.115143,1554.432478,8142.265362
2679.043380,2145.067394,814.226536,8068.244768
2679.043709,-383.047749,-74.020594,9326.594869
2679.044038,-2298.286494,-1554.432478,9992.780217
2679.044367,-2298.286494,-1258.350101,10881.027347
2679.044696,-2451.505594,-1406.391290,9474.636058
2679.045025,-1838.629195,-1036.288319,10066.800811
2679.045354,-2757.943793,-1480.411884,9844.739029
2679.045682,-1915.238745,-1406.391290,9992.780217
2679.046011,-383.047749,-1036.288319,10214.842000
2679.046340,-459.657299,-1036.288319,8808.450710
2679.046669,-995.924147,-296.082377,9104.533087
2679.046998,-919.314598,222.061783,9696.697840
2679.047327,153.219100,-592.164754,9474.636058
2679.047656,1149.143247,-444.123565,9326.594869
2679.047985,2834.553343,518.144159,7179.997637
2679.048314,3294.210641,1332.370696,7031.956449
2679.048642,2681.334243,1702.473667,6957.935855
2679.048971,2374.896044,1628.453072,7179.997637
2679.049300,536.266849,1110.308913,7846.182985
2679.049629,0.000000,592.164754,8660.409521
2679.049958,-842.705048,-370.102971,9326.594869
2679.050287,-1838.629195,-2220.617826,9770.718434
2679.050616,-2374.896044,-3182.885551,10288.862594
2679.050945,-1072.533697,-3034.844362,10288.862594
2679.051274,-306.438199,-2368.659014,9992.780217
2679.051602,-766.095498,-814.226536,9992.780217
2679.051931,-383.047749,-0.000000,9918.759623
2679.052260,306.438199,222.061783,10140.821405
2679.052589,1915.238745,-148.041188,9326.594869
2679.052918,3830.477490,1258.350101,7476.080014
2679.053247,3600.648841,2072.576638,7624.121203
2679.053576,3140.991542,2368.659014,8068.244768
2679.053905,3524.039291,2294.638420,7772.162391
2679.054234,2374.896044,1332.370696,7402.059420
2679.054562,1072.533697,148.041188,9030.512492
2679.054891,0.000000,-296.082377,9770.718434
2679.055220,-1302.362347,-1480.411884,9992.780217
2679.055549,-1991.848295,-2294.638420,10807.006753
2679.055878,-2374.896044,-1998.556043,10436.903782
2679.056207,-1378.971896,-1850.514855,10510.924376
2679.056536,-1302.362347,-1258.350101,9844.739029
2679.056865,-842.705048,-0.000000,9030.512492
2679.057194,-1378.971896,-0.000000,9178.553681
2679.057522,383.047749,-0.000000,9696.697840
2679.057851,1072.533697,370.102971,9622.677246
2679.058180,1149.143247,962.267725,8660.409521
2679.058509,1149.143247,-0.000000,8216.285956
2679.058838,1608.800546,814.226536,7772.162391
2679.059167,1915.238745,1776.494261,7624.121203
2679.059496,1225.752797,814.226536,8068.244768
2679.059825,229.828649,814.226536,8882.471304
2679.060153,-995.924147,-0.000000,8882.471304
2679.060482,-536.266849,-1406.391290,9178.553681
2679.060811,-1378.971896,-1924.535449,9326.594869
2679.061140,-1608.800546,-1628.453072,9918.759623
2679.061469,-612.876398,-1850.514855,9474.636058
2679.061798,-459.657299,-296.082377,7846.182985
2679.062127,-842.705048,-2072.576638,9844.739029
2679.062456,306.438199,-296.082377,8734.430116
2679.062785,689.485948,-148.041188,9400.615463
2679.063113,1455.581446,-518.144159,8290.306550
2679.063442,1915.238745,444.123565,9326.594869
2679.063771,2145.067394,666.185348,8660.409521
2679.064100,2681.334243,1036.288319,7772.162391
2679.064429,3064.381992,592.164754,8142.265362
2679.064758,1608.800546,-296.082377,8216.285956
2679.065087,766.095498,740.205942,8808.450710
2679.065416,459.657299,-962.267725,9474.636058
2679.065745,-919.314598,-1110.308913,9622.677246
2679.066073,-1991.848295,-1406.391290,10658.965565
2679.066402,-2221.676944,-2220.617826,10436.903782
2679.066731,-1991.848295,-2072.576638,10807.006753
2679.067060,-229.828649,-74.020594,9252.574275
2679.067389,229.828649,-370.102971,8956.491898
2679.067718,842.705048,814.226536,9326.594869
2679.068047,2145.067394,740.205942,8290.306550
2679.068376,2298.286494,1184.329507,8068.244768
2679.068705,1378.971896,962.267725,9252.574275
2679.069033,1991.848295,1184.329507,8660.409521
2679.069362,842.705048,1406.391290,8364.327145
2679.069691,459.657299,1184.329507,8216.285956
2679.070020,-689.485948,-962.267725,8290.306550
2679.070349,-1915.238745,148.041188,10288.862594
2679.070678,-1915.238745,-1628.453072,10140.821405
2679.071007,-1991.848295,-1554.432478,8734.430116
2679.071336,-2068.457845,-1480.411884,9992.780217
2679.071665,-1838.629195,-1776.494261,10140.821405
2679.071993,-919.314598,-1110.308913,9548.656652
2679.072322,-766.095498,-1036.288319,9178.553681
2679.072651,0.000000,-222.061783,9104.533087
2679.072980,1225.752797,666.185348,9104.533087
2679.073309,2451.505594,814.226536,7846.182985
2679.073638,2451.505594,592.164754,7772.162391
2679.073967,2374.896044,518.144159,8438.347739
2679.074296,2528.115143,1036.288319,7846.182985
2679.074625,2834.553343,1258.350101,7476.080014
2679.074953,1225.752797,-296.082377,7994.224174
2679.075282,0.000000,-0.000000,8808.450710
2679.075611,-842.705048,-296.082377,8808.450710
2679.075940,-995.924147,-1332.370696,9844.739029
2679.076269,-1608.800546,-2442.679609,10214.842000
2679.076598,-1225.752797,-2294.638420,10881.027347
2679.076927,-995.924147,-1480.411884,10288.862594
2679.077256,-383.047749,-518.144159,9548.656652
2679.077584,0.000000,-296.082377,9104.533087
2679.077913,842.705048,-74.020594,9992.780217
2679.078242,2068.457845,1184.329507,7994.224174
2679.078571,3753.867940,1628.453072,7624.121203
2679.078900,3370.820191,666.185348,7402.059420
2679.079229,3447.429741,1184.329507,8586.388927
2679.079558,3064.381992,888.247130,8290.306550
2679.079887,1915.238745,-0.000000,8068.244768
2679.080216,919.314598,-0.000000,8586.388927
2679.080544,-383.047749,-74.020594,9326.594869
2679.080873,-995.924147,370.102971,9696.697840
2679.081202,-1608.800546,-962.267725,9770.718434
2679.081531,-1532.190996,-1628.453072,10214.842000
2679.081860,-1838.629195,-1110.308913,10362.883188
2679.082189,-1072.533697,-814.226536,9918.759623
2679.082518,-1072.533697,-296.082377,9104.533087
2679.082847,-1302.362347,-0.000000,9104.533087
2679.083176,-995.924147,370.102971,9992.780217
2679.083504,-383.047749,-74.020594,9992.780217
2679.083833,919.314598,296.082377,9030.512492
2679.084162,1149.143247,296.082377,8512.368333
2679.084491,1378.971896,370.102971,8956.491898
2679.084820,1532.190996,1036.288319,8586.388927
2679.085149,995.924147,518.144159,8364.327145
2679.085478,612.876398,-74.020594,8512.368333
2679.085807,0.000000,444.123565,9326.594869
2679.086136,0.000000,296.082377,9326.594869
2679.086464,-536.266849,-814.226536,9622.677246
2679.086793,-1149.143247,-1480.411884,10510.924376
2679.087122,-1225.752797,-1850.514855,10288.862594
2679.087451,-766.095498,-1628.453072,9918.759623
2679.087780,0.000000,-666.185348,9400.615463
2679.088109,383.047749,-148.041188,8660.409521
2679.088438,-459.657299,-0.000000,9622.677246
2679.088767,1762.019645,148.041188,9252.574275
2679.089096,1991.848295,740.205942,7772.162391
2679.089424,2221.676944,-444.123565,8882.471304
2679.089753,1838.629195,-0.000000,8882.471304
2679.090082,2528.115143,-0.000000,7920.203579
2679.090411,1225.752797,-296.082377,8142.265362
2679.090740,919.314598,296.082377,8512.368333
2679.091069,306.438199,-0.000000,9696.697840
2679.091398,229.828649,-0.000000,9326.594869
2679.091727,0.000000,-666.185348,9104.533087
2679.092056,-995.924147,-1258.350101,9548.656652
2679.092384,-459.657299,-1258.350101,9696.697840
2679.092713,-383.047749,-1258.350101,9326.594869
2679.093042,0.000000,-592.164754,9326.594869
2679.093371,842.705048,-0.000000,8586.388927
2679.093700,919.314598,-148.041188,8512.368333
2679.094029,1455.581446,1554.432478,7994.224174
2679.094358,1838.629195,370.102971,8734.430116
2679.094687,842.705048,-74.020594,9400.615463
2679.095016,995.924147,1184.329507,8290.306550
2679.095344,612.876398,518.144159,9252.574275
2679.095673,-842.705048,-444.123565,8882.471304
2679.096002,-1685.410096,222.061783,9918.759623
2679.096331,-689.485948,-592.164754,9992.780217
2679.096660,-1225.752797,296.082377,8734.430116
2679.096989,-995.924147,-1332.370696,9622.677246
2679.097318,-1838.629195,-888.247130,10066.800811
2679.097647,-919.314598,-1702.473667,10732.986159
2679.097975,536.266849,-222.061783,9104.533087
2679.098304,306.438199,-0.000000,8512.368333
2679.098633,612.876398,-0.000000,8956.491898
2679.098962,1225.752797,1258.350101,8586.388927
2679.099291,1608.800546,518.144159,8512.368333
2679.099620,1225.752797,-148.041188,8734.430116
2679.099949,689.485948,-370.102971,10066.800811
2679.100278,536.266849,740.205942,9104.533087
2679.100607,919.314598,-148.041188,8438.347739
2679.100935,-1302.362347,-888.247130,8956.491898
2679.101264,-1838.629195,-222.061783,11029.068536
2679.101593,76.609550,-1480.411884,10214.842000
2679.101922,-383.047749,-74.020594,7179.997637
2679.102251,229.828649,-814.226536,9474.636058
2679.102580,766.095498,-1554.432478,10362.883188
2679.102909,1225.752797,-370.102971,8808.450710
2679.103238,2068.457845,666.185348,8660.409521
2679.103567,2221.676944,-0.000000,7846.182985
2679.103895,1915.238745,888.247130,8216.285956
2679.104224,3064.381992,1184.329507,8808.450710
2679.104553,2528.115143,296.082377,7846.182985
2679.104882,1685.410096,-962.267725,9030.512492
2679.105211,1072.533697,-148.041188,8882.471304
2679.105540,153.219100,-518.144159,8808.450710
2679.105869,-612.876398,-1332.370696,9400.615463
2679.106198,-995.924147,-1036.288319,8882.471304
2679.106527,-995.924147,-74.020594,9918.759623
2679.106855,-1072.533697,-518.144159,9474.636058
2679.107184,0.000000,370.102971,8438.347739
2679.107513,-536.266849,-814.226536,9770.718434
2679.107842,0.000000,-1406.391290,9622.677246
2679.108171,153.219100,-0.000000,9104.533087
2679.108500,383.047749,-1036.288319,9030.512492
2679.108829,995.924147,-0.000000,7402.059420
2679.109158,2068.457845,1998.556043,8290.306550
2679.109487,2068.457845,962.267725,7624.121203
2679.109815,2221.676944,666.185348,8290.306550
2679.110144,919.314598,-0.000000,9252.574275
2679.110473,0.000000,518.144159,8512.368333
2679.110802,-383.047749,-1036.288319,10140.821405
2679.111131,-1685.410096,-444.123565,9770.718434
2679.111460,-2145.067394,-592.164754,10288.862594
2679.111789,-1532.190996,-814.226536,10807.006753
2679.112118,-995.924147,-148.041188,9252.574275
2679.112447,0.000000,-962.267725,9326.594869
2679.112775,-1378.971896,-1258.350101,9474.636058
2679.113104,-842.705048,-1184.329507,9696.697840
2679.113433,306.438199,-962.267725,10140.821405
2679.113762,842.705048,-0.000000,7846.182985
2679.114091,1838.629195,-0.000000,8586.388927
2679.114420,1225.752797,1184.329507,7772.162391
2679.114749,2757.943793,1702.473667,7772.162391
2679.115078,2987.772442,1110.308913,7920.203579
2679.115406,1991.848295,962.267725,7846.182985
2679.115735,919.314598,-148.041188,9400.615463
2679.116064,76.609550,-370.102971,9030.512492
2679.116393,-1302.362347,-74.020594,9548.656652
2679.116722,-1915.238745,-1776.494261,10510.924376
2679.117051,-2145.067394,-1036.288319,10288.862594
2679.117380,-1072.533697,-222.061783,9844.739029
2679.117709,-306.438199,-888.247130,8512.368333
2679.118038,-1225.752797,-1184.329507,9400.615463
2679.118366,0.000000,-1480.411884,10436.903782
2679.118695,1455.581446,222.061783,8734.430116
2679.119024,2221.676944,592.164754,8438.347739
2679.119353,2451.505594,1554.432478,8142.265362
2679.119682,2757.943793,1776.494261,7920.203579
2679.120011,2757.943793,1702.473667,7772.162391
2679.120340,2528.115143,666.185348,7994.224174
2679.120669,1608.800546,592.164754,7772.162391
2679.120998,689.485948,-74.020594,9918.759623
2679.121326,-612.876398,-148.041188,9770.718434
2679.121655,-2681.334243,-1628.453072,10732.986159
2679.121984,-2451.505594,-1998.556043,10732.986159
2679.122313,-2298.286494,-814.226536,9622.677246
2679.122642,-1378.971896,-592.164754,9474.636058
2679.122971,-1685.410096,-1184.329507,9178.553681
2679.123300,-1072.533697,-1184.329507,10066.800811
2679.123629,0.000000,-1406.391290,10214.842000
2679.123958,0.000000,-518.144159,9696.697840
2679.124286,383.047749,-0.000000,9030.512492
2679.124615,1608.800546,666.185348,8438.347739
2679.124944,2451.505594,1998.556043,7550.100608
2679.125273,3140.991542,1554.432478,7624.121203
2679.125602,3140.991542,666.185348,7698.141797
2679.125931,2757.943793,1924.535449,7920.203579
2679.126260,1991.848295,740.205942,8586.388927
2679.126589,766.095498,-222.061783,8512.368333
2679.126918,-1838.629195,-1036.288319,9474.636058
2679.127246,-2604.724693,-2294.638420,10658.965565
2679.127575,-1608.800546,-1258.350101,9992.780217
2679.127904,-919.314598,-1406.391290,9474.636058
2679.128233,-842.705048,-2516.700203,8734.430116
2679.128562,-995.924147,-2072.576638,10510.924376
2679.128891,689.485948,-1036.288319,10362.883188
2679.129220,2451.505594,-0.000000,8142.265362
2679.129549,3294.210641,1184.329507,7328.038826
2679.129878,3830.477490,1924.535449,7846.182985
2679.130206,4903.011187,2368.659014,7402.059420
2679.130535,4366.744339,2960.823768,6809.894666
2679.130864,3447.429741,666.185348,8142.265362
2679.131193,2451.505594,518.144159,8808.450710
2679.131522,459.657299,-0.000000,9696.697840
2679.131851,-1149.143247,-1776.494261,9696.697840
2679.132180,-3140.991542,-1998.556043,10955.047942
2679.132509,-3447.429741,-2738.761985,12731.542202
2679.132838,-2528.115143,-1406.391290,10362.883188
2679.133166,-1608.800546,-370.102971,9178.553681
2679.133495,-2221.676944,-1998.556043,9844.739029
2679.133824,-919.314598,-518.144159,9326.594869
2679.134153,383.047749,-888.247130,10658.965565
2679.134482,1149.143247,370.102971,7920.203579
2679.134811,2834.553343,1480.411884,7550.100608
2679.135140,2834.553343,2368.659014,7031.956449
2679.135469,3217.601092,2368.659014,7105.977043
2679.135797,2911.162892,1924.535449,7328.038826
2679.136126,2068.457845,740.205942,7846.182985
2679.136455,459.657299,888.247130,8586.388927
2679.136784,-1072.533697,-0.000000,9474.636058
2679.137113,-2604.724693,-1702.473667,9770.718434
2679.137442,-4826.401637,-1628.453072,11695.253884
2679.137771,-3140.991542,-2146.597232,9548.656652
2679.138100,-2451.505594,-962.267725,9992.780217
2679.138429,-1991.848295,-1628.453072,9622.677246
2679.138757,-2068.457845,-814.226536,9474.636058
2679.139086,-1838.629195,-1480.411884,10140.821405
2679.139415,-1378.971896,-1184.329507,9992.780217
2679.139744,-612.876398,296.082377,8586.388927
2679.140073,76.609550,-148.041188,11547.212695
2679.140402,2451.505594,-0.000000,7994.224174
2679.140731,4290.134789,2368.659014,7031.956449
2679.141060,4749.792088,962.267725,6735.874072
2679.141389,4290.134789,1554.432478,5995.668130
2679.141717,3217.601092,1998.556043,8586.388927
2679.142046,2145.067394,740.205942,8216.285956
2679.142375,919.314598,-0.000000,8882.471304
2679.142704,-1762.019645,-1480.411884,10881.027347
2679.143033,-2451.505594,-1406.391290,10288.862594
2679.143362,-2604.724693,-2516.700203,11473.192101
2679.143691,-2145.067394,-2738.761985,9844.739029
2679.144020,-1455.581446,-2220.617826,10362.883188
2679.144349,-1532.190996,-2368.659014,11843.295072
2679.144678,0.000000,-1406.391290,9696.697840
2679.145006,0.000000,-0.000000,9252.574275
2679.145335,2145.067394,962.267725,8438.347739
2679.145664,3064.381992,2146.597232,6735.874072
2679.145993,3907.087040,1776.494261,7179.997637
2679.146322,3983.696590,1480.411884,7402.059420
2679.146651,3064.381992,518.144159,7994.224174
2679.146980,2681.334243,814.226536,8438.347739
2679.147309,1149.143247,370.102971,8956.491898
2679.147638,-689.485948,-148.041188,8956.491898
2679.147967,-2221.676944,-518.144159,10066.800811
2679.148295,-2757.943793,-1332.370696,10510.924376
2679.148624,-1762.019645,-1998.556043,9474.636058
2679.148953,-2145.067394,-1258.350101,9326.594869
2679.149282,-2451.505594,-2072.576638,9548.656652
2679.149611,-1532.190996,-1628.453072,9844.739029
2679.149940,-689.485948,-740.205942,9326.594869
2679.150269,-842.705048,-1110.308913,9178.553681
2679.150598,459.657299,296.082377,9474.636058
2679.150927,1685.410096,814.226536,8216.285956
2679.151256,3600.648841,1628.453072,7031.956449
2679.151584,3064.381992,1036.288319,7179.997637
2679.151913,3064.381992,666.185348,7994.224174
2679.152242,2451.505594,1110.308913,8290.306550
2679.152571,1608.800546,1332.370696,7846.182985
2679.152900,-153.219100,-0.000000,8364.327145
2679.153229,-1532.190996,-74.020594,9548.656652
2679.153558,-2604.724693,-1850.514855,10584.944971
2679.153887,-1915.238745,-2072.576638,10436.903782
2679.154216,-1991.848295,-2664.741391,10436.903782
2679.154544,-1378.971896,-2516.700203,10288.862594
2679.154873,-1378.971896,-1776.494261,10066.800811
2679.155202,-612.876398,-666.185348,9622.677246
2679.155531,76.609550,-962.267725,9400.615463
2679.155860,1302.362347,1184.329507,8660.409521
2679.156189,3524.039291,1850.514855,7994.224174
2679.156518,3753.867940,1776.494261,7698.141797
2679.156847,3370.820191,2146.597232,7328.038826
2679.157176,4060.306139,1332.370696,8512.368333
2679.157505,2221.676944,1628.453072,7920.203579
2679.157833,919.314598,296.082377,8142.265362
2679.158162,-536.266849,-370.102971,9474.636058
2679.158491,-2068.457845,-1110.308913,10955.047942
2679.158820,-2528.115143,-1628.453072,10362.883188
2679.159149,-2451.505594,-2220.617826,9918.759623
2679.159478,-3217.601092,-1628.453072,9548.656652
2679.159807,-2068.457845,-1184.329507,10732.986159
2679.160136,-1532.190996,-666.185348,9696.697840
2679.160465,-383.047749,-814.226536,9178.553681
2679.160794,842.705048,-0.000000,9474.636058
2679.161122,1838.629195,1480.411884,7994.224174
2679.161451,3294.210641,1702.473667,7105.977043
2679.161780,3447.429741,1480.411884,6809.894666
2679.162109,3064.381992,1036.288319,8660.409521
2679.162438,2298.286494,1480.411884,8438.347739
2679.162767,1072.533697,666.185348,8586.388927
2679.163096,-383.047749,-222.061783,9326.594869
2679.163425,-1838.629195,-1406.391290,9992.780217
2679.163754,-2834.553343,-1554.432478,10955.047942
2679.164083,-2911.162892,-1924.535449,11473.192101
2679.164411,-2451.505594,-1924.535449,9622.677246
2679.164740,-2374.896044,-1924.535449,10288.862594
2679.165069,-1072.533697,-1406.391290,10584.944971
2679.165398,-536.266849,-888.247130,9474.636058
2679.165727,1225.752797,-0.000000,9030.512492
2679.166056,1991.848295,444.123565,8290.306550
2679.166385,3907.087040,1036.288319,7105.977043
2679.166714,4519.963438,1924.535449,5995.668130
2679.167043,5209.449386,1184.329507,6809.894666
2679.167372,3907.087040,888.247130,7402.059420
2679.167700,3140.991542,592.164754,7994.224174
2679.168029,2298.286494,-0.000000,8068.244768
2679.168358,0.000000,-296.082377,8512.368333
2679.168687,-1838.629195,-1776.494261,10584.944971
2679.169016,-3217.601092,-1554.432478,10658.965565
2679.169345,-1838.629195,-2146.597232,10807.006753
2679.169674,-2068.457845,-1554.432478,8734.430116
2679.170003,-995.924147,-1406.391290,10288.862594
2679.170332,-1608.800546,-1628.453072,10214.842000
2679.170661,-306.438199,-1036.288319,9992.780217
2679.170989,1149.143247,370.102971,8660.409521
2679.171318,1915.238745,1110.308913,7476.080014
2679.171647,3907.087040,814.226536,7476.080014
2679.171976,4443.353888,2368.659014,6883.915261
2679.172305,4443.353888,1702.473667,7624.121203
2679.172634,3677.258390,740.205942,7105.977043
2679.172963,3677.258390,2442.679609,7920.203579
2679.173292,1608.800546,1332.370696,8734.430116
2679.173621,-612.876398,296.082377,9104.533087
2679.173950,-2681.334243,-1258.350101,10732.986159
2679.174278,-2987.772442,-2072.576638,12287.418637
2679.174607,-2068.457845,-1184.329507,10658.965565
2679.174936,-2451.505594,-1924.535449,10436.903782
2679.175265,-2757.943793,-1702.473667,10881.027347
2679.175594,-2221.676944,-814.226536,10881.027347
2679.175923,-995.924147,-1332.370696,10066.800811
2679.176252,-383.047749,-222.061783,9252.574275
2679.176581,-306.438199,-518.144159,10362.883188
2679.176910,1685.410096,-1036.288319,9992.780217
2679.177238,1762.019645,888.247130,8142.265362
2679.177567,3524.039291,370.102971,8586.388927
2679.177896,3524.039291,1776.494261,7179.997637
2679.178225,3677.258390,1998.556043,8364.327145
2679.178554,3217.601092,2220.617826,7179.997637
2679.178883,1608.800546,1998.556043,7846.182985
2679.179212,-842.705048,666.185348,9178.553681
2679.179541,-2374.896044,-814.226536,9918.759623
2679.179870,-2374.896044,-1850.514855,10362.883188
2679.180199,-2757.943793,-2516.700203,9696.697840
2679.180527,-1838.629195,-3330.926739,9992.780217
2679.180856,-1685.410096,-2442.679609,10362.883188
2679.181185,-1378.971896,-1258.350101,9178.553681
2679.181514,-995.924147,-1332.370696,8882.471304
2679.181843,-766.095498,-0.000000,9252.574275
2679.182172,1991.848295,-0.000000,10140.821405
2679.182501,3064.381992,1406.391290,6513.812290
2679.182830,3524.039291,1332.370696,7328.038826
2679.183159,3753.867940,814.226536,7328.038826
2679.183488,4749.792088,2072.576638,7105.977043
2679.183816,2834.553343,2072.576638,7254.018232
2679.184145,2068.457845,2072.576638,6513.812290
2679.184474,0.000000,1184.329507,8216.285956
2679.184803,-1762.019645,-444.123565,9622.677246
2679.185132,-2604.724693,-2368.659014,9326.594869
2679.185461,-2987.772442,-3256.906145,10362.883188
2679.185790,-2834.553343,-3701.029710,10214.842000
2679.186119,-2681.334243,-2368.659014,10362.883188
2679.186448,-2298.286494,-1480.411884,9400.615463
2679.186777,-1915.238745,-592.164754,9844.739029
2679.187105,-1302.362347,-962.267725,9622.677246
2679.187434,0.000000,518.144159,9844.739029
2679.187763,1072.533697,-518.144159,10584.944971
2679.188092,919.314598,-0.000000,8290.306550
2679.188421,2757.943793,1036.288319,9104.533087
2679.188750,2834.553343,1628.453072,7624.121203
2679.189079,2451.505594,1850.514855,7476.080014
2679.189408,2068.457845,1554.432478,8438.347739
2679.189737,536.266849,1480.411884,8068.244768
2679.190066,306.438199,-0.000000,8882.471304
2679.190394,-1302.362347,-1554.432478,10066.800811
2679.190723,-2757.943793,-2516.700203,10288.862594
2679.191052,-3064.381992,-2812.782580,11769.274478
2679.191381,-1838.629195,-2516.700203,9918.759623
2679.191710,-1225.752797,-1998.556043,9326.594869
2679.192039,-459.657299,-1332.370696,10362.883188
2679.192368,536.266849,148.041188,9326.594869
2679.192697,2911.162892,1184.329507,8734.430116
2679.193026,3524.039291,1110.308913,8512.368333
2679.193355,3600.648841,2664.741391,7698.141797
2679.193683,4673.182538,2368.659014,8142.265362
2679.194012,4136.915689,2516.700203,7031.956449
2679.194341,2987.772442,1702.473667,7254.018232
2679.194670,1455.581446,518.144159,8512.368333
2679.194999,229.828649,-74.020594,8586.388927
2679.195328,-689.485948,-666.185348,9992.780217
2679.195657,-1915.238745,-2294.638420,11029.068536
2679.195986,-2681.334243,-2664.741391,11251.130318
2679.196315,-2681.334243,-2368.659014,10436.903782
2679.196644,-1838.629195,-888.247130,8512.368333
2679.196972,-1072.533697,-1480.411884,9622.677246
2679.197301,459.657299,-74.020594,9696.697840
2679.197630,1532.190996,1258.350101,8216.285956
2679.197959,3600.648841,370.102971,8882.471304
2679.198288,3677.258390,1554.432478,7550.100608
2679.198617,3217.601092,2368.659014,7550.100608
2679.198946,3677.258390,1776.494261,7105.977043
2679.199275,2987.772442,2072.576638,6957.935855
2679.199604,1378.971896,592.164754,7846.182985
2679.199933,-766.095498,148.041188,8734.430116
2679.200261,-1302.362347,-1184.329507,9992.780217
2679.200590,-2987.772442,-1850.514855,10066.800811
2679.200919,-2987.772442,-3627.009116,11177.109724
2679.201248,-3677.258390,-3034.844362,10955.047942
2679.201577,-2374.896044,-2294.638420,10584.944971
2679.201906,-2374.896044,-666.185348,9474.636058
2679.202235,-1302.362347,-518.144159,9252.574275
2679.202564,-1149.143247,-0.000000,8956.491898
2679.202893,383.047749,-0.000000,10214.842000
2679.203221,1455.581446,-222.061783,8290.306550
2679.203550,2681.334243,148.041188,8142.265362
2679.203879,2757.943793,962.267725,6661.853478
2679.204208,3064.381992,2072.576638,7550.100608
2679.204537,3140.991542,2368.659014,6809.894666
2679.204866,1762.019645,1480.411884,7624.121203
2679.205195,1225.752797,222.061783,8142.265362
2679.205524,-153.219100,370.102971,9178.553681
2679.205853,-1838.629195,-2294.638420,9918.759623
2679.206182,-2911.162892,-3182.885551,11325.150913
2679.206510,-2681.334243,-2738.761985,11399.171507
2679.206839,-1915.238745,-2442.679609,10807.006753
2679.207168,-1302.362347,-1110.308913,9992.780217
2679.207497,-689.485948,-1036.288319,9992.780217
2679.207826,0.000000,518.144159,9104.533087
2679.208155,2221.676944,888.247130,8956.491898
2679.208484,3064.381992,296.082377,8512.368333
2679.208813,2987.772442,518.144159,8660.409521
2679.209142,3140.991542,1554.432478,8660.409521
2679.209471,2681.334243,1184.329507,8364.327145
2679.209799,2451.505594,2146.597232,6809.894666
2679.210128,1838.629195,1480.411884,8586.388927
2679.210457,995.924147,1036.288319,8882.471304
2679.210786,-306.438199,-148.041188,9400.615463
2679.211115,-1149.143247,-1406.391290,10288.862594
2679.211444,-2221.676944,-2220.617826,10732.986159
2679.211773,-2834.553343,-2368.659014,11251.130318
2679.212102,-2068.457845,-1554.432478,10584.944971
2679.212431,-1915.238745,-592.164754,9696.697840
2679.212760,-1378.971896,-0.000000,9918.759623
2679.213088,-306.438199,370.102971,9400.615463
2679.213417,1149.143247,592.164754,8956.491898
2679.213746,1532.190996,740.205942,8290.306550
2679.214075,2374.896044,888.247130,8068.244768
2679.214404,2298.286494,962.267725,7846.182985
2679.214733,2451.505594,962.267725,7994.224174
2679.215062,1838.629195,370.102971,7254.018232
2679.215391,536.266849,740.205942,7994.224174
2679.215720,-536.266849,-148.041188,9030.512492
2679.216049,229.828649,-740.205942,8956.491898
2679.216377,-1532.190996,-888.247130,10362.883188
2679.216706,-1378.971896,-1998.556043,10214.842000
2679.217035,-1455.581446,-1850.514855,9622.677246
2679.217364,-995.924147,-1184.329507,10510.924376
2679.217693,-459.657299,-962.267725,9474.636058
2679.218022,459.657299,-518.144159,8734.430116
2679.218351,842.705048,-222.061783,9326.594869
2679.218680,3064.381992,1184.329507,8364.327145
2679.219009,2834.553343,592.164754,8216.285956
2679.219338,2221.676944,-0.000000,8882.471304
2679.219666,2834.553343,888.247130,7994.224174
2679.219995,2757.943793,1258.350101,7254.018232
2679.220324,1685.410096,296.082377,8734.430116
2679.220653,1608.800546,-74.020594,9030.512492
2679.220982,1072.533697,-222.061783,9622.677246
2679.221311,0.000000,-518.144159,9178.553681
2679.221640,0.000000,-1184.329507,9696.697840
2679.221969,-1072.533697,-1776.494261,10658.965565
2679.222298,-1302.362347,-1184.329507,10510.924376
2679.222627,0.000000,-1036.288319,9770.718434
2679.222955,306.438199,-148.041188,9104.533087
2679.223284,153.219100,370.102971,9474.636058
2679.223613,1302.362347,1110.308913,9178.553681
2679.223942,1608.800546,740.205942,8586.388927
2679.224271,995.924147,296.082377,8512.368333
2679.224600,1455.581446,-222.061783,9400.615463
2679.224929,1149.143247,148.041188,8512.368333
2679.225258,459.657299,888.247130,7698.141797
2679.225587,0.000000,222.061783,8512.368333
2679.225915,-995.924147,370.102971,9178.553681
2679.226244,-919.314598,296.082377,9696.697840
2679.226573,-766.095498,-148.041188,8956.491898
2679.226902,-1762.019645,-1406.391290,9474.636058
2679.227231,-2221.676944,-1036.288319,10584.944971
2679.227560,-995.924147,-888.247130,9770.718434
2679.227889,-612.876398,-222.061783,8586.388927
2679.228218,-995.924147,222.061783,8438.347739
2679.228547,-536.266849,-0.000000,9770.718434
2679.228876,383.047749,592.164754,8956.491898
2679.229204,995.924147,814.226536,8512.368333
2679.229533,1225.752797,-296.082377,9104.533087
2679.229862,689.485948,-296.082377,8808.450710
2679.230191,459.657299,444.123565,9474.636058
2679.230520,229.828649,-148.041188,8512.368333
2679.230849,-306.438199,-0.000000,9030.512492
2679.231178,-383.047749,-444.123565,9326.594869
2679.231507,0.000000,222.061783,9326.594869
2679.231836,76.609550,-1036.288319,9326.594869
2679.232165,-306.438199,-1998.556043,9104.533087
2679.232493,0.000000,-1406.391290,9622.677246
2679.232822,1149.143247,-814.226536,9474.636058
2679.233151,689.485948,-0.000000,7994.224174
2679.233480,1072.533697,-148.041188,8512.368333
2679.233809,1225.752797,444.123565,8586.388927
2679.234138,1685.410096,518.144159,8882.471304
2679.234467,1762.019645,-814.226536,8586.388927
2679.234796,229.828649,-592.164754,8882.471304
2679.235125,383.047749,-962.267725,9474.636058
2679.235454,1149.143247,-222.061783,8734.430116
2679.235782,689.485948,444.123565,7772.162391
2679.236111,0.000000,-0.000000,9104.533087
2679.236440,0.000000,1184.329507,9104.533087
2679.236769,1608.800546,518.144159,8734.430116
2679.237098,1225.752797,592.164754,7328.038826
2679.237427,0.000000,-296.082377,8956.491898
2679.237756,459.657299,-592.164754,9770.718434
2679.238085,306.438199,-0.000000,8660.409521
2679.238414,-536.266849,-74.020594,8882.471304
2679.238743,0.000000,814.226536,8882.471304
2679.239071,229.828649,148.041188,9400.615463
2679.239400,842.705048,888.247130,9178.553681
2679.239729,1378.971896,-0.000000,9400.615463
2679.240058,-766.095498,-740.205942,9844.739029
2679.240387,-153.219100,-666.185348,10214.842000
2679.240716,153.219100,296.082377,9622.677246
2679.241045,-842.705048,-222.061783,8956.491898
2679.241374,-229.828649,-0.000000,9992.780217
2679.241703,0.000000,-592.164754,9400.615463
2679.242032,229.828649,-148.041188,9400.615463
2679.242361,0.000000,-1258.350101,8882.471304
2679.242691,229.828649,-1110.308913,9770.718434
2679.243020,766.095498,-148.041188,9918.759623
2679.243349,842.705048,518.144159,9326.594869
2679.243678,842.705048,-0.000000,8882.471304
2679.244007,766.095498,518.144159,9696.697840
2679.244336,1072.533697,888.247130,9104.533087
2679.244665,2145.067394,-0.000000,9474.636058
2679.244994,1225.752797,-666.185348,9400.615463
2679.245323,1149.143247,-518.144159,9178.553681
2679.245652,842.705048,-0.000000,9104.533087
2679.245981,689.485948,-370.102971,8586.388927
2679.246311,-383.047749,-444.123565,8808.450710
2679.246640,-306.438199,-296.082377,9696.697840
2679.246969,0.000000,-296.082377,8586.388927
2679.247298,306.438199,-518.144159,8660.409521
2679.247627,229.828649,-1332.370696,8734.430116
2679.247956,459.657299,-888.247130,9178.553681
2679.248285,612.876398,-222.061783,9030.512492
2679.248614,1455.581446,814.226536,7328.038826
2679.248943,1838.629195,444.123565,8216.285956
2679.249272,1455.581446,740.205942,8142.265362
2679.249602,1991.848295,296.082377,8882.471304
2679.249931,1915.238745,296.082377,7994.224174
2679.250260,842.705048,-148.041188,7994.224174
2679.250589,766.095498,-296.082377,9030.512492
2679.250918,-459.657299,-74.020594,9252.574275
2679.251247,-1072.533697,-888.247130,9030.512492
2679.251576,-1532.190996,-592.164754,9474.636058
2679.251905,-1915.238745,-962.267725,10288.862594
2679.252234,-2145.067394,-1036.288319,9918.759623
2679.252563,-1302.362347,-666.185348,9178.553681
2679.252893,-1838.629195,-962.267725,9178.553681
2679.253222,-1608.800546,-2072.576638,10436.903782
2679.253551,-459.657299,-888.247130,9252.574275
2679.253880,383.047749,-888.247130,9178.553681
2679.254209,0.000000,-0.000000,8808.450710
2679.254538,1072.533697,814.226536,8586.388927
2679.254867,1991.848295,740.205942,8290.306550
2679.255196,1915.238745,592.164754,8142.265362
2679.255525,1915.238745,-0.000000,9400.615463
2679.255854,612.876398,-666.185348,9474.636058
2679.256183,306.438199,370.102971,8586.388927
2679.256513,0.000000,-888.247130,9030.512492
2679.256842,-919.314598,-888.247130,9326.594869
2679.257171,-1532.190996,-1110.308913,9844.739029
2679.257500,-1072.533697,-222.061783,9622.677246
2679.257829,-306.438199,-888.247130,9548.656652
2679.258158,0.000000,-888.247130,9104.533087
2679.258487,0.000000,-1184.329507,9918.759623
2679.258816,1915.238745,-0.000000,8808.450710
2679.259145,2451.505594,222.061783,7328.038826
2679.259474,2604.724693,1110.308913,7994.224174
2679.259804,2834.553343,1628.453072,8216.285956
2679.260133,3217.601092,1850.514855,8216.285956
2679.260462,2451.505594,740.205942,9030.512492
2679.260791,2221.676944,-0.000000,9178.553681
2679.261120,919.314598,-888.247130,9622.677246
2679.261449,0.000000,-0.000000,10140.821405
2679.261778,-689.485948,-1036.288319,9400.615463
2679.262107,-1608.800546,-1332.370696,9918.759623
2679.262436,-1302.362347,-740.205942,10214.842000
2679.262765,-1072.533697,-444.123565,9992.780217
2679.263094,-1149.143247,-148.041188,9474.636058
2679.263424,-612.876398,-1258.350101,8956.491898
2679.263753,1685.410096,444.123565,10362.883188
2679.264082,1915.238745,518.144159,8734.430116
2679.264411,2221.676944,1110.308913,6513.812290
2679.264740,2911.162892,740.205942,8438.347739
2679.265069,2834.553343,2220.617826,8216.285956
2679.265398,2911.162892,814.226536,7402.059420
2679.265727,2068.457845,-0.000000,8290.306550
2679.266056,459.657299,-592.164754,8956.491898
2679.266385,-229.828649,-0.000000,10066.800811
2679.266715,-1225.752797,-1036.288319,9622.677246
2679.267044,-2757.943793,-1110.308913,9992.780217
2679.267373,-2374.896044,-1480.411884,9918.759623
2679.267702,-2604.724693,-1406.391290,10362.883188
2679.268031,-1532.190996,-740.205942,9918.759623
2679.268360,-1225.752797,-1628.453072,8734.430116
2679.268689,-1302.362347,-1110.308913,10214.842000
2679.269018,612.876398,-814.226536,9326.594869
2679.269347,1532.190996,-0.000000,7402.059420
2679.269676,3294.210641,-0.000000,7846.182985
2679.270006,2604.724693,1036.288319,7105.977043
2679.270335,2374.896044,962.267725,7772.162391
2679.270664,3217.601092,1184.329507,8216.285956
2679.270993,2681.334243,518.144159,7550.100608
2679.271322,1072.533697,-222.061783,9030.512492
2679.271651,1149.143247,592.164754,9992.780217
2679.271980,-536.266849,-1406.391290,9474.636058
2679.272309,-919.314598,-518.144159,10436.903782
2679.272638,-2221.676944,-888.247130,10807.006753
2679.272967,-2451.505594,-444.123565,9844.739029
2679.273296,-1302.362347,-1406.391290,9770.718434
2679.273626,-1762.019645,-1406.391290,8956.491898
2679.273955,-536.266849,-1406.391290,9474.636058
2679.274284,459.657299,-296.082377,8956.491898
2679.274613,766.095498,-148.041188,8216.285956
2679.274942,1838.629195,740.205942,7624.121203
2679.275271,1915.238745,1406.391290,8808.450710
2679.275600,2681.334243,1702.473667,8660.409521
2679.275929,3064.381992,592.164754,7994.224174
2679.276258,1762.019645,888.247130,8364.327145
2679.276587,689.485948,814.226536,9474.636058
2679.276917,842.705048,740.205942,9770.718434
2679.277246,-842.705048,-148.041188,9548.656652
2679.277575,-1915.238745,-444.123565,10066.800811
2679.277904,-2528.115143,-592.164754,10140.821405
2679.278233,-2528.115143,-888.247130,10362.883188
2679.278562,-2221.676944,-1554.432478,9770.718434
2679.278891,-1991.848295,-1628.453072,9622.677246
2679.279220,-1762.019645,-1628.453072,10510.924376
2679.279549,-919.314598,-592.164754,9030.512492
2679.279878,0.000000,-296.082377,9400.615463
2679.280208,1072.533697,-296.082377,8216.285956
2679.280537,2145.067394,1184.329507,8142.265362
2679.280866,3370.820191,1332.370696,8364.327145
2679.281195,3370.820191,962.267725,7550.100608
2679.281524,3447.429741,1480.411884,7846.182985
2679.281853,3064.381992,962.267725,8290.306550
2679.282182,2298.286494,1776.494261,8216.285956
2679.282511,919.314598,518.144159,8438.347739
2679.282840,-459.657299,-148.041188,9030.512492
2679.283169,-1302.362347,-1332.370696,10288.862594
2679.283498,-1762.019645,-1702.473667,9992.780217
2679.283828,-1915.238745,-2072.576638,8512.368333
2679.284157,-2451.505594,-2960.823768,10955.047942
2679.284486,-1302.362347,-2664.741391,9622.677246
2679.284815,-153.219100,-666.185348,9474.636058
2679.285144,-383.047749,-1406.391290,9326.594869
2679.285473,1455.581446,-0.000000,8142.265362
2679.285802,2757.943793,1628.453072,7624.121203
2679.286131,3140.991542,1406.391290,6661.853478
2679.286460,3524.039291,1702.473667,7328.038826
2679.286789,2298.286494,666.185348,7624.121203
2679.287119,1532.190996,2294.638420,7698.141797
2679.287448,536.266849,1406.391290,8216.285956
2679.287777,-1915.238745,518.144159,8956.491898
2679.288106,-3064.381992,-962.267725,10288.862594
2679.288435,-3907.087040,-1406.391290,11251.130318
2679.288764,-5209.449386,-1406.391290,8882.471304
2679.289093,-5209.449386,-1850.514855,9474.636058
2679.289422,-6665.030833,-2886.803174,10362.883188
2679.289751,-6971.469032,-2886.803174,11473.192101
2679.290080,-5745.716235,-2590.720797,10732.986159
2679.290410,-4749.792088,-1850.514855,8956.491898
2679.290739,-3830.477490,-740.205942,9992.780217
2679.291068,-4290.134789,666.185348,8882.471304
2679.291397,-2221.676944,888.247130,8882.471304
2679.291726,-1302.362347,1480.411884,8142.265362
2679.292055,-306.438199,1110.308913,9030.512492
2679.292384,-1225.752797,592.164754,7772.162391
2679.292713,-1072.533697,2146.597232,7624.121203
2679.293042,-689.485948,2146.597232,7476.080014
2679.293371,-2374.896044,888.247130,7624.121203
2679.293700,-2757.943793,-222.061783,10584.944971
2679.294030,-3677.258390,518.144159,8734.430116
2679.294359,-2911.162892,-592.164754,8734.430116
2679.294688,-3600.648841,-1036.288319,8142.265362
2679.295017,-4596.572988,-2886.803174,10140.821405
2679.295346,-5132.839837,-4219.173869,12139.377449
2679.295675,-4213.525239,-1702.473667,10288.862594
2679.296004,-3217.601092,-1554.432478,10288.862594
2679.296333,-2528.115143,-888.247130,9844.739029
2679.296662,-2221.676944,1258.350101,9474.636058
2679.296991,-2374.896044,370.102971,9104.533087
2679.297321,-1149.143247,1554.432478,9030.512492
2679.297650,-1149.143247,1110.308913,9326.594869
2679.297979,153.219100,148.041188,7772.162391
2679.298308,0.000000,1184.329507,7920.203579
2679.298637,-1302.362347,666.185348,6883.915261
2679.298966,-1762.019645,814.226536,7105.977043
2679.299295,-2068.457845,-74.020594,9252.574275
2679.299624,-2451.505594,-1628.453072,10066.800811
2679.299953,-2451.505594,-1110.308913,9104.533087
2679.300282,-2528.115143,-962.267725,8956.491898
2679.300612,-3524.039291,-1554.432478,9400.615463
2679.300941,-3447.429741,-1036.288319,9918.759623
2679.301270,-2757.943793,-1998.556043,10955.047942
2679.301599,-2451.505594,-1406.391290,10436.903782
2679.301928,-2068.457845,-888.247130,9770.718434
2679.302257,-2145.067394,-0.000000,9696.697840
2679.302586,-1915.238745,296.082377,8586.388927
2679.302915,-919.314598,1702.473667,8290.306550
2679.303244,-689.485948,444.123565,8512.368333
2679.303573,-1072.533697,296.082377,8512.368333
2679.303902,-995.924147,814.226536,8660.409521
2679.304232,-612.876398,1036.288319,7179.997637
2679.304561,-612.876398,-0.000000,6735.874072
2679.304890,-612.876398,-1036.288319,8216.285956
2679.305219,-1225.752797,-1036.288319,8512.368333
2679.305548,-2068.457845,-740.205942,9326.594869
2679.305877,-2757.943793,666.185348,8586.388927
2679.306206,-2604.724693,962.267725,8364.327145
2679.306535,-2298.286494,1776.494261,7698.141797
2679.306864,-2757.943793,222.061783,9770.718434
2679.307193,-3753.867940,-370.102971,9770.718434
2679.307523,-4673.182538,-0.000000,10362.883188
2679.307852,-5056.230287,-666.185348,10066.800811
2679.308181,-5592.497135,-1406.391290,9918.759623
2679.308510,-5669.106685,-2220.617826,11325.150913
2679.308839,-5209.449386,-2442.679609,10214.842000
2679.309168,-4826.401637,-2368.659014,10436.903782
2679.309497,-4749.792088,-1924.535449,10510.924376
2679.309826,-2757.943793,-148.041188,8438.347739
2679.310155,-2451.505594,296.082377,8882.471304
2679.310484,-2145.067394,1110.308913,8438.347739
2679.310813,-2068.457845,1110.308913,8438.347739
2679.311143,-2068.457845,-0.000000,9104.533087
2679.311472,-2451.505594,370.102971,9400.615463
2679.311801,-1685.410096,-0.000000,9400.615463
2679.312130,-1991.848295,-0.000000,9030.512492
2679.312459,-2145.067394,-0.000000,8956.491898
2679.312788,-1915.238745,-0.000000,8882.471304
2679.313117,-2068.457845,740.205942,8216.285956
2679.313446,-1455.581446,518.144159,7846.182985
2679.313775,-1991.848295,296.082377,8660.409521
2679.314104,-2451.505594,-370.102971,8364.327145
2679.314434,-2911.162892,-370.102971,8734.430116
2679.314763,-4290.134789,-1036.288319,8956.491898
2679.315092,-5209.449386,-1184.329507,9992.780217
2679.315421,-5975.544884,-1110.308913,10066.800811
2679.315750,-6435.202183,-1184.329507,10510.924376
2679.316079,-5975.544884,-592.164754,10881.027347
2679.316408,-4749.792088,-666.185348,10140.821405
2679.316737,-3753.867940,-1036.288319,9770.718434
2679.317066,-2221.676944,-1184.329507,9252.574275
2679.317395,-536.266849,-592.164754,8364.327145
2679.317725,-1072.533697,962.267725,6957.935855
2679.318054,1991.848295,-518.144159,12805.562797
2679.318383,1838.629195,2220.617826,3997.112087
2679.318712,5286.058936,2516.700203,7105.977043
2679.319041,2681.334243,3034.844362,4219.173869
2679.319370,2834.553343,3330.926739,5921.647536
2679.319699,-383.047749,1184.329507,9104.533087
2679.320028,-2681.334243,888.247130,7994.224174
2679.320357,-3600.648841,-3108.864956,12213.398043
2679.320686,-5362.668486,-2220.617826,10066.800811
2679.321015,-7660.954980,-2886.803174,9770.718434
2679.321345,-9193.145976,-5033.400406,14211.954086
2679.321674,-8273.831378,-2442.679609,11325.150913
2679.322003,-5898.935335,-2812.782580,13027.624579
2679.322332,-4596.572988,-1184.329507,10066.800811
2679.322661,-1532.190996,1850.514855,8734.430116
2679.322990,-612.876398,-222.061783,7772.162391
2679.323319,-995.924147,2590.720797,5847.626942
2679.323648,3753.867940,518.144159,12065.356855
2679.323977,3830.477490,3552.988522,1332.370696
2679.324306,6052.154434,2368.659014,7920.203579
2679.324636,1455.581446,2368.659014,5255.462188
2679.324965,2451.505594,1998.556043,7476.080014
2679.325294,-1685.410096,148.041188,8882.471304
2679.325623,-2374.896044,-222.061783,9030.512492
2679.325952,-3294.210641,-1406.391290,13101.645173
2679.326281,-4903.011187,-0.000000,8216.285956
2679.326610,-6128.763984,-2368.659014,10140.821405
2679.326939,-8886.707777,-2368.659014,12213.398043
2679.327268,-6741.640382,-1406.391290,9918.759623
2679.327597,-6205.373534,-2294.638420,10881.027347
2679.327927,-5132.839837,-592.164754,9400.615463
2679.328256,-3447.429741,-444.123565,8882.471304
2679.328585,-2528.115143,-2368.659014,8216.285956
2679.328914,-2068.457845,814.226536,7624.121203
2679.329243,-1915.238745,-1110.308913,8734.430116
2679.329572,-1149.143247,-0.000000,8956.491898
2679.329901,-1991.848295,-296.082377,9474.636058
2679.330230,-2681.334243,370.102971,9548.656652
2679.330559,-2987.772442,148.041188,9252.574275
2679.330888,-2221.676944,-0.000000,8882.471304
2679.331217,-1532.190996,1184.329507,9326.594869
2679.331547,-2528.115143,2368.659014,8734.430116
2679.331876,-2528.115143,1184.329507,8438.347739
2679.332205,-2221.676944,1332.370696,7328.038826
2679.332534,-3140.991542,1406.391290,8216.285956
2679.332863,-2911.162892,-0.000000,7550.100608
2679.333192,-2681.334243,-518.144159,7772.162391
2679.333521,-2681.334243,-740.205942,8734.430116
2679.333850,-3140.991542,-518.144159,8068.244768
2679.334179,-3753.867940,-0.000000,9326.594869
2679.334508,-4213.525239,592.164754,9178.553681
2679.334838,-3600.648841,666.185348,9548.656652
2679.335167,-4443.353888,1480.411884,9474.636058
2679.335496,-3217.601092,1036.288319,10955.047942
2679.335825,-3830.477490,1480.411884,10732.986159
2679.336154,-3983.696590,1184.329507,10584.944971
2679.336483,-2681.334243,1184.329507,10288.862594
2679.336812,-1762.019645,814.226536,9548.656652
2679.337141,-919.314598,1184.329507,8660.409521
2679.337470,-229.828649,296.082377,8734.430116
2679.337799,-536.266849,-0.000000,11399.171507
2679.338129,1225.752797,518.144159,8586.388927
2679.338458,3830.477490,3627.009116,6217.729913
2679.338787,3524.039291,2812.782580,6217.729913
2679.339116,3447.429741,4219.173869,6439.791695
2679.339445,3064.381992,4737.318029,7920.203579
2679.339774,2681.334243,4367.215058,7772.162391
2679.340103,2068.457845,3923.091493,8882.471304
2679.340432,766.095498,2738.761985,10066.800811
2679.340761,-536.266849,2368.659014,9918.759623
2679.341090,-1838.629195,1332.370696,12213.398043
2679.341419,-1532.190996,1554.432478,11103.089130
2679.341749,-1149.143247,1184.329507,10066.800811
2679.342078,-536.266849,1628.453072,11325.150913
2679.342407,1532.190996,2738.761985,9178.553681
2679.342736,1378.971896,3108.864956,8290.306550
2679.343065,2451.505594,2368.659014,7846.182985
2679.343394,2987.772442,5181.441594,7031.956449
2679.343723,2911.162892,4737.318029,6217.729913
2679.344052,2221.676944,5181.441594,7698.141797
2679.344381,1225.752797,4515.256246,7550.100608
2679.344710,153.219100,2664.741391,8956.491898
2679.345040,-1838.629195,1480.411884,9844.739029
2679.345369,-3524.039291,1036.288319,11251.130318
2679.345698,-3217.601092,740.205942,12435.459826
2679.346027,-3753.867940,3034.844362,8808.450710
2679.346356,-3370.820191,2516.700203,10584.944971
2679.346685,-3907.087040,2294.638420,11325.150913
2679.347014,-3064.381992,2220.617826,10955.047942
2679.347343,-2528.115143,1850.514855,10214.842000
2679.347672,-995.924147,2664.741391,8660.409521
2679.348001,-536.266849,2812.782580,8142.265362
2679.348330,-1149.143247,3552.988522,8216.285956
2679.348659,-1455.581446,1924.535449,10732.986159
2679.348988,1915.238745,2294.638420,9400.615463
2679.349317,3907.087040,5181.441594,5329.482782
2679.349646,4366.744339,5033.400406,7105.977043
2679.349975,2681.334243,5921.647536,6735.874072
2679.350305,2987.772442,7105.977043,8438.347739
2679.350634,1608.800546,6587.832884,6513.812290
2679.350963,2145.067394,5847.626942,7179.997637
2679.351292,536.266849,5329.482782,8364.327145
2679.351621,-229.828649,5625.565159,7550.100608
2679.351950,-1532.190996,1628.453072,9474.636058
2679.352279,-2604.724693,-1184.329507,11399.171507
2679.352608,-1762.019645,444.123565,10214.842000
2679.352937,-1991.848295,-1036.288319,11177.109724
2679.353266,-2221.676944,1554.432478,9992.780217
2679.353595,-1149.143247,2738.761985,12139.377449
2679.353924,689.485948,2294.638420,9474.636058
2679.354253,2451.505594,5403.503377,7846.182985
2679.354582,3830.477490,4293.194464,7179.997637
2679.354911,3907.087040,4589.276840,8290.306550
2679.355240,2604.724693,5625.565159,7031.956449
2679.355569,2451.505594,4885.359217,7179.997637
2679.355899,612.876398,3775.050304,7550.100608
2679.356228,-153.219100,2516.700203,10214.842000
2679.356557,-2298.286494,-74.020594,11325.150913
2679.356886,-3140.991542,592.164754,11547.212695
2679.357215,-2987.772442,740.205942,10807.006753
2679.357544,-2298.286494,-518.144159,9918.759623
2679.357873,-2451.505594,2516.700203,10066.800811
2679.358202,-1149.143247,1776.494261,9622.677246
2679.358531,-1378.971896,3108.864956,8882.471304
2679.358860,689.485948,-0.000000,11695.253884
2679.359189,3447.429741,1554.432478,8438.347739
2679.359518,4749.792088,3701.029710,7402.059420
2679.359847,3370.820191,3108.864956,6217.729913
2679.360176,2987.772442,3034.844362,6069.688724
2679.360505,4060.306139,5773.606348,8734.430116
2679.360834,2757.943793,4515.256246,6957.935855
2679.361163,2068.457845,5255.462188,6809.894666
2679.361492,1225.752797,2960.823768,9252.574275
2679.361822,-2451.505594,-0.000000,9104.533087
2679.362151,-3600.648841,-3701.029710,13323.706956
2679.362480,-3677.258390,-518.144159,11251.130318
2679.362809,-3217.601092,-2664.741391,11399.171507
2679.363138,-3983.696590,814.226536,9326.594869
2679.363467,-766.095498,2294.638420,10214.842000
2679.363796,383.047749,2294.638420,9030.512492
2679.364125,-383.047749,2368.659014,9178.553681
2679.364454,4060.306139,2368.659014,7994.224174
2679.364783,3370.820191,4515.256246,5255.462188
2679.365112,4749.792088,4737.318029,6661.853478
2679.365441,2911.162892,5921.647536,4737.318029
2679.365770,4673.182538,2368.659014,8290.306550
2679.366099,2451.505594,5181.441594,5773.606348
2679.366428,3447.429741,3478.967927,6513.812290
2679.366757,842.705048,4663.297435,8438.347739
2679.367086,-1149.143247,3701.029710,9030.512492
2679.367415,-4903.011187,-1998.556043,16580.613101
2679.367745,-5439.278036,-592.164754,12361.439231
2679.368074,-2681.334243,1628.453072,11473.192101
2679.368403,-2528.115143,-3701.029710,12435.459826
2679.368732,-3983.696590,2220.617826,9992.780217
2679.369061,-1225.752797,2146.597232,10807.006753
2679.369390,-2451.505594,3256.906145,7550.100608
2679.369719,-1838.629195,4515.256246,10658.965565
2679.370048,3907.087040,1702.473667,11251.130318
2679.370377,3677.258390,6809.894666,3701.029710
2679.370706,2681.334243,4589.276840,9992.780217
2679.371035,2604.724693,4663.297435,6365.771101
2679.371364,3140.991542,6513.812290,8290.306550
2679.371693,-229.828649,5625.565159,8068.244768
2679.372022,0.000000,7328.038826,6513.812290
2679.372351,-459.657299,5403.503377,10288.862594
2679.372680,-536.266849,2368.659014,8512.368333
2679.373009,-3217.601092,666.185348,13471.748144
2679.373339,-3983.696590,-740.205942,12139.377449
2679.373668,-1532.190996,-296.082377,11251.130318
2679.373997,-1302.362347,-3108.864956,12065.356855
2679.374326,-1762.019645,2812.782580,7698.141797
2679.374655,153.219100,3034.844362,11325.150913
2679.374984,766.095498,3478.967927,8216.285956
2679.375313,3294.210641,6513.812290,8290.306550
2679.375642,3677.258390,6883.915261,7550.100608
2679.375971,2604.724693,4589.276840,8660.409521
2679.376300,0.000000,4737.318029,9622.677246
2679.376629,536.266849,5033.400406,7328.038826
2679.376958,76.609550,4071.132681,7994.224174
2679.377287,1915.238745,3182.885551,9474.636058
2679.377616,1072.533697,1184.329507,10436.903782
2679.377945,-306.438199,-518.144159,11769.274478
2679.378274,-766.095498,1406.391290,9918.759623
2679.378603,0.000000,370.102971,9770.718434
2679.378932,0.000000,2738.761985,7920.203579
2679.379262,1072.533697,4959.379811,9548.656652
2679.379591,612.876398,4441.235652,7846.182985
2679.379920,1762.019645,3627.009116,8660.409521
2679.380249,3600.648841,4663.297435,7105.977043
2679.380578,2911.162892,3404.947333,7698.141797
2679.380907,919.314598,3552.988522,8142.265362
2679.381236,1225.752797,2812.782580,8290.306550
2679.381565,1149.143247,3701.029710,7624.121203
2679.381894,1455.581446,3182.885551,9104.533087
2679.382223,-383.047749,2146.597232,10066.800811
2679.382552,-2068.457845,1184.329507,10732.986159
2679.382881,-2374.896044,1036.288319,10362.883188
2679.383210,-1685.410096,-2442.679609,11621.233289
2679.383539,-2298.286494,-666.185348,9844.739029
2679.383868,-1608.800546,-0.000000,11917.315666
2679.384197,-1225.752797,2072.576638,9400.615463
2679.384526,1455.581446,1258.350101,8660.409521
2679.384855,3600.648841,2072.576638,7105.977043
2679.385185,2911.162892,2664.741391,7254.018232
2679.385514,612.876398,2738.761985,7179.997637
2679.385843,1225.752797,1258.350101,7920.203579
2679.386172,2451.505594,1406.391290,7994.224174
2679.386501,1685.410096,370.102971,9400.615463
2679.386830,-995.924147,740.205942,9400.615463
2679.387159,-2451.505594,-1258.350101,10732.986159
2679.387488,-1915.238745,-2294.638420,11695.253884
2679.387817,-2145.067394,-518.144159,10584.944971
2679.388146,-2681.334243,-296.082377,10140.821405
2679.388475,-3370.820191,-148.041188,10584.944971
2679.388804,-919.314598,-518.144159,9918.759623
2679.389133,1225.752797,-444.123565,7328.038826
2679.389462,919.314598,592.164754,7179.997637
2679.389791,612.876398,-0.000000,7624.121203
2679.390120,1608.800546,814.226536,7328.038826
2679.390449,2987.772442,2368.659014,6735.874072
2679.390779,2068.457845,1850.514855,5847.626942
2679.391108,919.314598,518.144159,9178.553681
2679.391437,536.266849,-74.020594,9844.739029
2679.391766,1225.752797,-888.247130,9400.615463
2679.392095,-995.924147,370.102971,8882.471304
2679.392424,-1915.238745,-148.041188,10362.883188
2679.392753,-2221.676944,-1036.288319,11399.171507
2679.393082,-1072.533697,-666.185348,10288.862594
2679.393411,-766.095498,-666.185348,9178.553681
2679.393740,-383.047749,-814.226536,9474.636058
2679.394069,766.095498,-0.000000,9104.533087
2679.394398,2374.896044,222.061783,8438.347739
2679.394727,1762.019645,296.082377,7105.977043
2679.395056,1149.143247,296.082377,8216.285956
2679.395385,1915.238745,1110.308913,8734.430116
2679.395714,2298.286494,740.205942,7772.162391
2679.396043,2145.067394,740.205942,8216.285956
2679.396372,1762.019645,-0.000000,9104.533087
2679.396702,1072.533697,-1110.308913,10510.924376
2679.397031,1072.533697,-1110.308913,10066.800811
2679.397360,0.000000,-222.061783,9326.594869
2679.397689,-842.705048,-0.000000,10214.842000
2679.398018,0.000000,-592.164754,11103.089130
2679.398347,0.000000,-148.041188,9400.615463
2679.398676,-689.485948,-222.061783,9104.533087
2679.399005,-459.657299,-0.000000,8882.471304
2679.399334,-229.828649,-296.082377,9252.574275
2679.399663,536.266849,-148.041188,9104.533087
2679.399992,459.657299,-222.061783,7994.224174
2679.400321,0.000000,-1480.411884,8956.491898
2679.400650,842.705048,-1110.308913,9104.533087
2679.400979,1302.362347,-0.000000,8512.368333
2679.401308,536.266849,-0.000000,8512.368333
2679.401637,536.266849,1036.288319,9178.553681
2679.401966,1225.752797,222.061783,9696.697840
2679.402295,995.924147,444.123565,9400.615463
2679.402625,76.609550,1258.350101,8808.450710
2679.402954,306.438199,-148.041188,9992.780217
2679.403283,689.485948,296.082377,9474.636058
2679.403612,536.266849,444.123565,9030.512492
2679.403941,-229.828649,592.164754,8512.368333
2679.404270,-919.314598,-74.020594,8512.368333
2679.404599,-383.047749,-962.267725,9400.615463
2679.404928,0.000000,-518.144159,8438.347739
2679.405257,-1072.533697,-962.267725,8142.265362
2679.405586,-383.047749,-1776.494261,9622.677246
2679.405915,766.095498,-518.144159,9252.574275
2679.406244,1149.143247,-0.000000,8660.409521
2679.406573,766.095498,1258.350101,7994.224174
2679.406902,1149.143247,962.267725,8438.347739
2679.407231,1915.238745,1332.370696,10214.842000
2679.407560,2374.896044,2220.617826,8586.388927
2679.407889,1838.629195,-0.000000,9326.594869
2679.408219,842.705048,518.144159,9400.615463
2679.408548,1072.533697,296.082377,9770.718434
2679.408877,383.047749,592.164754,9104.533087
2679.409206,-995.924147,-74.020594,8290.306550
2679.409535,-919.314598,-962.267725,9696.697840
2679.409864,-995.924147,-2220.617826,9992.780217
2679.410193,-459.657299,-1554.432478,9104.533087
2679.410522,-689.485948,-1776.494261,9474.636058
2679.410851,-612.876398,-2368.659014,9474.636058
2679.411180,229.828649,-666.185348,9400.615463
2679.411509,612.876398,-370.102971,9104.533087
2679.411838,842.705048,148.041188,8660.409521
2679.412167,1532.190996,-0.000000,8438.347739
2679.412496,1915.238745,222.061783,9474.636058
2679.412825,1608.800546,1332.370696,9178.553681
2679.413154,1072.533697,-0.000000,9104.533087
2679.413483,0.000000,-222.061783,9104.533087
2679.413812,0.000000,-444.123565,9178.553681
2679.414142,-689.485948,-666.185348,9178.553681
2679.414471,-1608.800546,-1110.308913,8734.430116
2679.414800,-1225.752797,-2590.720797,9474.636058
2679.415129,-842.705048,-2294.638420,9030.512492
2679.415458,-1072.533697,-1110.308913,8808.450710
2679.415787,-1149.143247,-1776.494261,8882.471304
2679.416116,-612.876398,-1628.453072,9474.636058
2679.416445,842.705048,-0.000000,8586.388927
2679.416774,995.924147,148.041188,7328.038826
2679.417103,1378.971896,370.102971,8512.368333
2679.417432,1991.848295,-148.041188,9918.759623
2679.417761,2221.676944,-444.123565,8734.430116
2679.418090,1608.800546,-222.061783,8734.430116
2679.418419,766.095498,-0.000000,8660.409521
2679.418748,919.314598,-592.164754,9474.636058
2679.419077,459.657299,296.082377,9178.553681
2679.419406,-76.609550,148.041188,8882.471304
2679.419735,-536.266849,-518.144159,9030.512492
2679.420065,0.000000,-1184.329507,9030.512492
2679.420394,612.876398,-1406.391290,9104.533087
2679.420723,0.000000,-1406.391290,8882.471304
2679.421052,153.219100,-1406.391290,9474.636058
2679.421381,1225.752797,-592.164754,8956.491898
2679.421710,1532.190996,592.164754,8586.388927
2679.422039,1225.752797,1332.370696,7994.224174
2679.422368,1072.533697,1258.350101,8734.430116
2679.422697,1991.848295,962.267725,9400.615463
2679.423026,2374.896044,814.226536,8438.347739
2679.423355,995.924147,-222.061783,8956.491898
2679.423684,0.000000,-370.102971,10140.821405
2679.424013,0.000000,-1406.391290,9918.759623
2679.424342,0.000000,-666.185348,9918.759623
2679.424671,-1302.362347,-666.185348,9252.574275
2679.425000,-919.314598,-444.123565,8956.491898
2679.425329,-536.266849,-666.185348,9548.656652
2679.425659,76.609550,-222.061783,8364.327145
2679.425988,-306.438199,-296.082377,8142.265362
2679.426317,-536.266849,-962.267725,9400.615463
2679.426646,229.828649,-0.000000,9104.533087
2679.426975,1072.533697,1110.308913,7772.162391
2679.427304,0.000000,296.082377,7994.224174
2679.427633,76.609550,370.102971,9030.512492
2679.427962,536.266849,-518.144159,9992.780217
2679.428291,459.657299,-444.123565,8660.409521
2679.428620,-612.876398,-814.226536,9400.615463
2679.428949,-842.705048,-592.164754,9844.739029
2679.429278,-612.876398,-1332.370696,9844.739029
2679.429607,-383.047749,-74.020594,9696.697840
2679.429936,-919.314598,-518.144159,8734.430116
2679.430265,-612.876398,-0.000000,8808.450710
2679.430594,612.876398,-592.164754,9770.718434
2679.430923,1302.362347,-296.082377,8512.368333
2679.431252,1225.752797,-370.102971,8216.285956
2679.431582,842.705048,-222.061783,8512.368333
2679.431911,1608.800546,1036.288319,8512.368333
2679.432240,1685.410096,1184.329507,7994.224174
2679.432569,1225.752797,962.267725,8142.265362
2679.432898,1532.190996,-0.000000,9400.615463
2679.433227,1455.581446,-296.082377,9252.574275
2679.433556,1072.533697,-370.102971,9030.512492
2679.433885,383.047749,-74.020594,9696.697840
2679.434214,-306.438199,-370.102971,10066.800811
2679.434543,76.609550,-74.020594,10362.883188
2679.434872,0.000000,222.061783,8438.347739
2679.435201,0.000000,444.123565,9104.533087
2679.435530,153.219100,296.082377,9918.759623
2679.435859,995.924147,-888.247130,8956.491898
2679.436188,919.314598,-222.061783,8660.409521
2679.436517,689.485948,-74.020594,8290.306550
2679.436846,919.314598,-0.000000,8734.430116
2679.437175,1532.190996,740.205942,8808.450710
2679.437505,1685.410096,1480.411884,7846.182985
2679.437834,1072.533697,1036.288319,8882.471304
2679.438163,842.705048,-148.041188,9326.594869
2679.438492,1072.533697,-592.164754,9696.697840
2679.438821,306.438199,-1332.370696,9696.697840
2679.439150,-1378.971896,-1332.370696,9696.697840
2679.439479,-995.924147,-2516.700203,10584.944971
2679.439808,-459.657299,-1998.556043,9844.739029
2679.440137,-1225.752797,-1628.453072,9326.594869
2679.440466,-1991.848295,-518.144159,9696.697840
2679.440795,-459.657299,-1480.411884,9474.636058
2679.441124,76.609550,-148.041188,8290.306550
2679.441453,536.266849,-518.144159,8216.285956
2679.441782,229.828649,-518.144159,8586.388927
2679.442111,1532.190996,-962.267725,8660.409521
2679.442440,1838.629195,-444.123565,8660.409521
2679.442769,1072.533697,-74.020594,7402.059420
2679.443099,995.924147,222.061783,8512.368333
2679.443428,1378.971896,-592.164754,9400.615463
2679.443757,919.314598,-148.041188,9178.553681
2679.444086,76.609550,370.102971,8808.450710
2679.444415,-459.657299,-1036.288319,9844.739029
2679.444744,-612.876398,-666.185348,9844.739029
2679.445073,-229.828649,-740.205942,9992.780217
2679.445402,-842.705048,-222.061783,8956.491898
2679.445731,-1225.752797,-444.123565,9696.697840
2679.446060,-229.828649,-592.164754,9548.656652
2679.446389,689.485948,-444.123565,9030.512492
2679.446718,995.924147,592.164754,8290.306550
2679.447047,1149.143247,-518.144159,8290.306550
2679.447376,2374.896044,814.226536,8586.388927
2679.447705,2604.724693,1702.473667,7402.059420
2679.448034,2451.505594,1332.370696,7698.141797
2679.448362,2068.457845,1702.473667,8512.368333
2679.448691,2221.676944,962.267725,8512.368333
2679.449020,2221.676944,888.247130,8808.450710
2679.449349,229.828649,-0.000000,8882.471304
2679.449678,-1149.143247,-0.000000,9918.759623
2679.450007,-1149.143247,-1258.350101,11177.109724
2679.450336,-1608.800546,-518.144159,9844.739029
2679.450665,-2221.676944,-592.164754,9104.533087
2679.450994,-2834.553343,-518.144159,10066.800811
2679.451324,-1915.238745,-1554.432478,10510.924376
2679.451653,-383.047749,-1184.329507,9326.594869
2679.451982,-536.266849,-518.144159,9104.533087
2679.452311,536.266849,-296.082377,9548.656652
2679.452640,1762.019645,222.061783,8438.347739
2679.452969,2451.505594,1628.453072,7328.038826
2679.453298,2298.286494,888.247130,7994.224174
2679.453627,2221.676944,1776.494261,8512.368333
2679.453956,2528.115143,962.267725,8512.368333
2679.454285,1838.629195,518.144159,8882.471304
2679.454614,-536.266849,592.164754,9400.615463
2679.454943,-1685.410096,-518.144159,10436.903782
2679.455272,-1915.238745,-2294.638420,10584.944971
2679.455601,-2757.943793,-1406.391290,10214.842000
2679.455930,-3370.820191,-1702.473667,9770.718434
2679.456259,-3140.991542,-2442.679609,10658.965565
2679.456588,-2451.505594,-2072.576638,11769.274478
2679.456917,-1072.533697,-1554.432478,9548.656652
2679.457246,0.000000,-666.185348,8956.491898
2679.457575,842.705048,-962.267725,9400.615463
2679.457904,3217.601092,1110.308913,7994.224174
2679.458233,3907.087040,2442.679609,7031.956449
2679.458562,3140.991542,2294.638420,7328.038826
2679.458891,3370.820191,2072.576638,9104.533087
2679.459220,3830.477490,2886.803174,7402.059420
2679.459549,3677.258390,1776.494261,7624.121203
2679.459878,2221.676944,2442.679609,7105.977043
2679.460207,612.876398,518.144159,9548.656652
2679.460536,-689.485948,-1924.535449,10510.924376
2679.460865,-1532.190996,-1850.514855,9474.636058
2679.461194,-2987.772442,-1850.514855,10881.027347
2679.461523,-3294.210641,-3701.029710,11399.171507
2679.461853,-2987.772442,-1924.535449,10584.944971
2679.462182,-1838.629195,-1628.453072,9104.533087
2679.462511,-1225.752797,-1850.514855,10214.842000
2679.462840,995.924147,-444.123565,9474.636058
2679.463169,3064.381992,222.061783,9104.533087
2679.463498,4826.401637,2368.659014,6883.915261
2679.463827,2987.772442,814.226536,7772.162391
2679.464156,3064.381992,1184.329507,8142.265362
2679.464485,4060.306139,3034.844362,7402.059420
2679.464814,3830.477490,2146.597232,7105.977043
2679.465143,2451.505594,2664.741391,7179.997637
2679.465472,2221.676944,2368.659014,7698.141797
2679.465801,-459.657299,-1480.411884,8142.265362
2679.466130,-3064.381992,-3256.906145,10362.883188
2679.466459,-3830.477490,-2294.638420,10436.903782
2679.466788,-3447.429741,-5995.668130,12583.501014
2679.467117,-3447.429741,-3923.091493,10214.842000
2679.467446,-3140.991542,-2294.638420,10214.842000
2679.467775,-2451.505594,-3330.926739,10362.883188
2679.468104,-1378.971896,-1554.432478,11621.233289
2679.468433,2145.067394,-444.123565,9104.533087
2679.468762,3830.477490,2368.659014,7105.977043
2679.469091,3447.429741,1480.411884,6735.874072
2679.469420,3217.601092,1480.411884,7772.162391
2679.469749,3677.258390,2516.700203,7031.956449
2679.470078,2911.162892,2664.741391,7031.956449
2679.470407,2604.724693,444.123565,7105.977043
2679.470736,2451.505594,2442.679609,7698.141797
2679.471065,1608.800546,1554.432478,6217.729913
2679.471394,-1915.238745,-1850.514855,8364.327145
2679.471723,-3447.429741,-3182.885551,11177.109724
2679.472052,-2834.553343,-2072.576638,10955.047942
2679.472382,-2221.676944,-5107.421000,10881.027347
2679.472711,-3753.867940,-1924.535449,8586.388927
2679.473040,-3064.381992,-1406.391290,11991.336260
2679.473369,-689.485948,-2072.576638,11843.295072
2679.473698,76.609550,2516.700203,8364.327145
2679.474027,3753.867940,1554.432478,8364.327145
2679.474356,4060.306139,1776.494261,7698.141797
2679.474685,4060.306139,2664.741391,8142.265362
2679.475014,4443.353888,2886.803174,6143.709319
2679.475343,1838.629195,3256.906145,6217.729913
2679.475672,1915.238745,1702.473667,9622.677246
2679.476001,2145.067394,2590.720797,6439.791695
2679.476330,2528.115143,3849.070898,7772.162391
2679.476659,-1149.143247,-370.102971,8438.347739
2679.476988,-2987.772442,-4367.215058,11621.233289
2679.477317,-3447.429741,-2664.741391,12139.377449
2679.477646,-2451.505594,-3849.070898,11917.315666
2679.477975,-3753.867940,-2812.782580,10807.006753
2679.478304,-3753.867940,-2146.597232,12213.398043
2679.478633,-689.485948,-1480.411884,10214.842000
2679.478962,-612.876398,2294.638420,8142.265362
2679.479291,1455.581446,814.226536,7994.224174
2679.479620,3983.696590,518.144159,7846.182985
2679.479949,4903.011187,3034.844362,7105.977043
2679.480278,3294.210641,1628.453072,6809.894666
2679.480607,1685.410096,1332.370696,6439.791695
2679.480936,1685.410096,962.267725,8216.285956
2679.481265,1608.800546,-0.000000,7772.162391
2679.481594,153.219100,-666.185348,9104.533087
2679.481923,-3217.601092,-1554.432478,9992.780217
2679.482252,-2681.334243,-3849.070898,11991.336260
2679.482581,-3600.648841,-3478.967927,10510.924376
2679.482911,-2987.772442,-2442.679609,10140.821405
2679.483240,-2911.162892,-1406.391290,9400.615463
2679.483569,-1302.362347,-2146.597232,10807.006753
2679.483898,229.828649,-740.205942,8438.347739
2679.484227,3600.648841,962.267725,7920.203579
2679.484556,2987.772442,814.226536,7105.977043
2679.484885,3907.087040,666.185348,8512.368333
2679.485214,4213.525239,1184.329507,7698.141797
2679.485543,3524.039291,2220.617826,6143.709319
2679.485872,2221.676944,1776.494261,8068.244768
2679.486201,2145.067394,2368.659014,7846.182985
2679.486530,2987.772442,2960.823768,7550.100608
2679.486859,919.314598,-0.000000,7698.141797
2679.487188,-1915.238745,-2368.659014,10732.986159
2679.487517,-2451.505594,-2590.720797,11325.150913
2679.487846,-2374.896044,-3182.885551,12065.356855
2679.488175,-3064.381992,-2960.823768,9770.718434
2679.488504,-2987.772442,-1184.329507,11103.089130
2679.488833,-229.828649,-222.061783,10066.800811
2679.489162,383.047749,592.164754,8882.471304
2679.489491,1762.019645,1332.370696,7994.224174
2679.489820,2374.896044,1258.350101,8142.265362
2679.490149,3753.867940,1554.432478,8216.285956
2679.490478,4596.572988,1480.411884,7402.059420
2679.490807,3753.867940,962.267725,7402.059420
2679.491136,1991.848295,888.247130,8438.347739
2679.491465,1302.362347,444.123565,7846.182985
2679.491794,306.438199,740.205942,9474.636058
2679.492123,-1915.238745,-814.226536,9178.553681
2679.492452,-2604.724693,-1628.453072,10510.924376
2679.492781,-3524.039291,-3108.864956,11251.130318
2679.493110,-3600.648841,-3478.967927,11325.150913
2679.493439,-3524.039291,-2146.597232,9104.533087
2679.493769,-2451.505594,-2368.659014,10584.944971
2679.494098,-1302.362347,-1702.473667,10658.965565
2679.494427,229.828649,-666.185348,7550.100608
2679.494756,1302.362347,-222.061783,8512.368333
2679.495085,2145.067394,222.061783,7846.182985
2679.495414,3447.429741,740.205942,8290.306550
2679.495743,3524.039291,1406.391290,6661.853478
2679.496072,3217.601092,2738.761985,7105.977043
2679.496401,2374.896044,1628.453072,8882.471304
2679.496730,1532.190996,1480.411884,8142.265362
2679.497059,0.000000,-0.000000,8734.430116
2679.497388,-1915.238745,-1036.288319,10288.862594
2679.497717,-2987.772442,-1110.308913,10362.883188
2679.498046,-2451.505594,-3997.112087,11991.336260
2679.498375,-2604.724693,-1998.556043,9696.697840
2679.498704,-2145.067394,-1628.453072,9770.718434
2679.499033,-1532.190996,-1480.411884,9696.697840
2679.499362,0.000000,-370.102971,9400.615463
2679.499691,1455.581446,1258.350101,7920.203579
2679.500020,2528.115143,1480.411884,7550.100608
2679.500349,2834.553343,1702.473667,8290.306550
2679.500678,3370.820191,1258.350101,9030.512492
2679.501007,3524.039291,1554.432478,7476.080014
2679.501336,2757.943793,962.267725,8290.306550
2679.501665,2374.896044,2368.659014,7994.224174
2679.501994,2298.286494,2368.659014,7624.121203
2679.502323,459.657299,2146.597232,8068.244768
2679.502652,-1072.533697,-518.144159,10732.986159
2679.502981,-1762.019645,-1036.288319,10288.862594
2679.503310,-1762.019645,-3256.906145,10362.883188
2679.503639,-2451.505594,-2294.638420,9696.697840
2679.503968,-2757.943793,-2294.638420,10807.006753
2679.504298,-2068.457845,-2590.720797,10288.862594
2679.504627,-612.876398,-444.123565,9326.594869
2679.504956,612.876398,-814.226536,8586.388927
2679.505285,995.924147,740.205942,8364.327145
2679.505614,2298.286494,740.205942,8142.265362
2679.505943,3983.696590,1332.370696,8438.347739
2679.506272,3447.429741,1924.535449,6957.935855
2679.506601,1838.629195,1184.329507,7846.182985
2679.506930,1378.971896,814.226536,9104.533087
2679.507259,1455.581446,148.041188,9030.512492
2679.507588,-306.438199,-1036.288319,9104.533087
2679.507917,-1608.800546,-1850.514855,9992.780217
2679.508246,-2757.943793,-2220.617826,10807.006753
2679.508575,-2528.115143,-2664.741391,10584.944971
2679.508904,-2451.505594,-1258.350101,9696.697840
2679.509233,-2681.334243,-2442.679609,10066.800811
2679.509562,-2145.067394,-888.247130,10584.944971
2679.509891,0.000000,-1110.308913,9326.594869
2679.510220,1378.971896,-370.102971,9030.512492
2679.510549,1991.848295,592.164754,8882.471304
2679.510878,2757.943793,518.144159,8882.471304
2679.511207,3447.429741,888.247130,8068.244768
2679.511536,3524.039291,2072.576638,7179.997637
2679.511865,2528.115143,2146.597232,7920.203579
2679.512194,2068.457845,1776.494261,8734.430116
2679.512523,2068.457845,2368.659014,8216.285956
2679.512852,689.485948,-0.000000,8956.491898
2679.513181,-1072.533697,-518.144159,9992.780217
2679.513510,-1302.362347,-1110.308913,10066.800811
2679.513839,-1532.190996,-3034.844362,10214.842000
2679.514168,-1915.238745,-1850.514855,8882.471304
2679.514497,-1455.581446,-1406.391290,10510.924376
2679.514827,-919.314598,-2368.659014,9844.739029
2679.515156,0.000000,-74.020594,8290.306550
2679.515485,842.705048,296.082377,7846.182985
2679.515814,1302.362347,962.267725,7772.162391
2679.516143,2374.896044,222.061783,8512.368333
2679.516472,2987.772442,666.185348,7698.141797
2679.516801,2068.457845,-0.000000,7920.203579
2679.517130,2068.457845,-0.000000,8660.409521
2679.517459,1149.143247,-888.247130,8734.430116
2679.517788,766.095498,370.102971,8882.471304
2679.518117,-383.047749,-814.226536,9178.553681
2679.518446,-1225.752797,-1702.473667,9918.759623
2679.518775,-1225.752797,-2072.576638,10436.903782
2679.519104,-766.095498,-1406.391290,9474.636058
2679.519433,-1685.410096,-1480.411884,9252.574275
2679.519762,-1915.238745,-1406.391290,9696.697840
2679.520091,-919.314598,-1628.453072,9992.780217
2679.520420,0.000000,-666.185348,8734.430116
2679.520749,0.000000,-1258.350101,8808.450710
2679.521078,919.314598,-1036.288319,8882.471304
2679.521407,2528.115143,-740.205942,9548.656652
2679.521736,2451.505594,1184.329507,8216.285956
2679.522065,2374.896044,1184.329507,8512.368333
2679.522394,1455.581446,1110.308913,9178.553681
2679.522723,1532.190996,1258.350101,9030.512492
2679.523052,1608.800546,1628.453072,8882.471304
2679.523381,76.609550,962.267725,8734.430116
2679.523710,0.000000,296.082377,10288.862594
2679.524039,0.000000,-814.226536,10362.883188
2679.524368,-919.314598,-888.247130,9474.636058
2679.524697,-919.314598,-666.185348,9030.512492
2679.525026,-995.924147,-74.020594,9474.636058
2679.525356,-153.219100,-0.000000,9622.677246
2679.525685,536.266849,444.123565,8512.368333
2679.526014,612.876398,888.247130,8660.409521
2679.526343,1149.143247,296.082377,9104.533087
2679.526672,1302.362347,296.082377,9030.512492
2679.527001,2145.067394,814.226536,8438.347739
2679.527330,1685.410096,888.247130,8734.430116
2679.527659,1532.190996,1110.308913,8660.409521
2679.527988,1455.581446,1554.432478,9400.615463
2679.528317,1685.410096,1554.432478,8586.388927
2679.528646,306.438199,1258.350101,8586.388927
2679.528975,-229.828649,1110.308913,9030.512492
2679.529304,-229.828649,-592.164754,9622.677246
2679.529633,-766.095498,-740.205942,9178.553681
2679.529962,-1685.410096,-1110.308913,9178.553681
2679.530291,-1915.238745,-2516.700203,10510.924376
2679.530620,-995.924147,-2294.638420,9474.636058
2679.530949,0.000000,-1332.370696,8512.368333
2679.531278,-536.266849,-148.041188,9252.574275
2679.531607,229.828649,-888.247130,9622.677246
2679.531936,995.924147,-518.144159,9252.574275
2679.532265,2145.067394,-370.102971,8142.265362
2679.532594,2068.457845,740.205942,8660.409521
2679.532923,1685.410096,518.144159,8808.450710
2679.533252,1455.581446,1184.329507,8882.471304
2679.533581,612.876398,666.185348,8956.491898
2679.533910,-536.266849,666.185348,8808.450710
2679.534239,-689.485948,-1406.391290,10140.821405
2679.534568,-689.485948,-2368.659014,9474.636058
2679.534897,-995.924147,-1258.350101,9030.512492
2679.535226,-1455.581446,-2072.576638,9474.636058
2679.535555,-1762.019645,-1998.556043,9252.574275
2679.535885,0.000000,-1258.350101,9548.656652
2679.536214,229.828649,-0.000000,8142.265362
2679.536543,536.266849,-0.000000,8512.368333
2679.536872,2068.457845,-148.041188,8956.491898
2679.537201,3064.381992,1110.308913,8364.327145
2679.537530,2757.943793,888.247130,7994.224174
2679.537859,2374.896044,1110.308913,8438.347739
2679.538188,2374.896044,1110.308913,9030.512492
2679.538517,2068.457845,1554.432478,9178.553681
2679.538846,919.314598,1998.556043,8290.306550
2679.539175,153.219100,1258.350101,8364.327145
2679.539504,0.000000,-370.102971,9992.780217
2679.539833,-842.705048,-962.267725,10140.821405
2679.540162,-766.095498,-814.226536,9548.656652
2679.540491,-1608.800546,-1776.494261,9474.636058
2679.540820,-1149.143247,-1702.473667,9474.636058
2679.541149,229.828649,-1258.350101,9474.636058
2679.541478,306.438199,-814.226536,8512.368333
2679.541807,306.438199,-0.000000,8882.471304
2679.542136,1455.581446,592.164754,9252.574275
2679.542465,2528.115143,888.247130,8512.368333
2679.542794,1302.362347,1628.453072,9104.533087
2679.543123,1072.533697,592.164754,9400.615463
2679.543452,842.705048,-0.000000,9474.636058
2679.543781,919.314598,222.061783,9178.553681
2679.544110,-306.438199,-74.020594,8808.450710
2679.544439,-1225.752797,-888.247130,9548.656652
2679.544768,-1225.752797,-2294.638420,10658.965565
2679.545097,-842.705048,-1406.391290,9104.533087
2679.545426,-1149.143247,-1258.350101,8956.491898
2679.545755,-995.924147,-1554.432478,9548.656652
2679.546084,-306.438199,-1110.308913,9474.636058
2679.546414,153.219100,-222.061783,8808.450710
2679.546743,383.047749,-592.164754,7994.224174
2679.547072,689.485948,-74.020594,8512.368333
2679.547401,1378.971896,-1110.308913,9030.512492
2679.547730,1149.143247,74.020594,8512.368333
2679.548059,459.657299,444.123565,8438.347739
2679.548388,536.266849,592.164754,9030.512492
2679.548718,689.485948,370.102971,8882.471304
2679.549047,536.266849,1332.370696,8956.491898
2679.549376,-536.266849,296.082377,9178.553681
2679.549705,-689.485948,-296.082377,9400.615463
2679.550034,229.828649,-1110.308913,9696.697840
2679.550364,995.924147,-0.000000,9104.533087
2679.550693,153.219100,-296.082377,8290.306550
2679.551022,306.438199,-0.000000,9474.636058
2679.551351,1225.752797,814.226536,8142.265362
2679.551680,1685.410096,1776.494261,7994.224174
2679.552010,612.876398,2368.659014,8216.285956
2679.552339,919.314598,666.185348,9178.553681
2679.552668,1378.971896,370.102971,10362.883188
2679.552997,1608.800546,-74.020594,9030.512492
2679.553326,0.000000,-0.000000,9918.759623
2679.553655,0.000000,-0.000000,9844.739029
2679.553985,306.438199,-0.000000,9844.739029
2679.554314,0.000000,1110.308913,9622.677246
2679.554643,0.000000,888.247130,8882.471304
2679.554972,229.828649,296.082377,9474.636058
2679.555301,689.485948,-444.123565,9548.656652
2679.555631,1072.533697,-74.020594,9326.594869
2679.555960,229.828649,-1036.288319,8290.306550
2679.556289,459.657299,-1036.288319,9474.636058
2679.556618,995.924147,-0.000000,9474.636058
2679.556947,229.828649,666.185348,8142.265362
2679.557276,-229.828649,296.082377,9178.553681
2679.557606,536.266849,-814.226536,9696.697840
2679.557935,0.000000,-962.267725,9770.718434
2679.558264,0.000000,-592.164754,9104.533087
2679.558593,-1072.533697,-1554.432478,9474.636058
2679.558922,-1149.143247,-1850.514855,10510.924376
2679.559252,0.000000,-1554.432478,9770.718434
2679.559581,-153.219100,-296.082377,9326.594869
2679.559910,-766.095498,-1184.329507,9104.533087
2679.560239,612.876398,-592.164754,8660.409521
2679.560568,1225.752797,-666.185348,8512.368333
2679.560898,1072.533697,888.247130,8142.265362
2679.561227,919.314598,-0.000000,7994.224174
2679.561556,995.924147,-0.000000,7920.203579
2679.561885,1532.190996,888.247130,7994.224174
2679.562214,1072.533697,-0.000000,7624.121203
2679.562543,229.828649,-148.041188,9104.533087
2679.562873,153.219100,-1332.370696,9400.615463
2679.563202,536.266849,-1184.329507,9622.677246
2679.563531,0.000000,-666.185348,9326.594869
2679.563860,-689.485948,-148.041188,8956.491898
2679.564189,-383.047749,-296.082377,9696.697840
2679.564519,0.000000,-0.000000,9474.636058
2679.564848,153.219100,148.041188,8660.409521
2679.565177,229.828649,148.041188,9326.594869
2679.565506,995.924147,-296.082377,8512.368333
2679.565835,1455.581446,592.164754,8882.471304
2679.566165,1378.971896,-0.000000,8438.347739
2679.566494,612.876398,-148.041188,8290.306550
2679.566823,1072.533697,296.082377,9326.594869
2679.567152,1455.581446,962.267725,8364.327145
2679.567481,229.828649,814.226536,8364.327145
2679.567810,0.000000,-74.020594,9030.512492
2679.568140,0.000000,-1184.329507,9474.636058
2679.568469,0.000000,-814.226536,10140.821405
2679.568798,-919.314598,-1184.329507,9548.656652
2679.569127,-1532.190996,-1702.473667,9844.739029
2679.569456,-842.705048,-1258.350101,10881.027347
2679.569786,-153.219100,-814.226536,9622.677246
2679.570115,-1072.533697,-518.144159,8734.430116
2679.570444,-536.266849,-222.061783,9326.594869
2679.570773,766.095498,-1110.308913,9474.636058
2679.571102,1378.971896,370.102971,8512.368333
2679.571431,1149.143247,-222.061783,8586.388927
2679.571761,919.314598,-370.102971,8438.347739
2679.572090,1455.581446,-0.000000,8882.471304
2679.572419,1685.410096,592.164754,7920.203579
2679.572748,1072.533697,-74.020594,7772.162391
2679.573077,-383.047749,-0.000000,10066.800811
2679.573407,612.876398,-1480.411884,9696.697840
2679.573736,153.219100,-814.226536,8660.409521
2679.574065,-919.314598,-518.144159,8512.368333
2679.574394,-995.924147,-888.247130,9696.697840
2679.574723,-995.924147,-592.164754,10362.883188
2679.575053,-536.266849,-0.000000,9030.512492
2679.575382,-766.095498,148.041188,8808.450710
2679.575711,153.219100,-148.041188,9474.636058
2679.576040,842.705048,-518.144159,9548.656652
2679.576369,1685.410096,-0.000000,9030.512492
2679.576698,1302.362347,592.164754,8216.285956
2679.577028,1915.238745,666.185348,8512.368333
2679.577357,2528.115143,1406.391290,8956.491898
2679.577686,2451.505594,1924.535449,7772.162391
2679.578015,2068.457845,1998.556043,7920.203579
2679.578344,1532.190996,1110.308913,8438.347739
2679.578674,1915.238745,888.247130,8882.471304
2679.579003,1072.533697,740.205942,9030.512492
2679.579332,-612.876398,-0.000000,9400.615463
2679.579661,-919.314598,-666.185348,10066.800811
2679.579990,-995.924147,-1258.350101,10140.821405
2679.580319,-1608.800546,-814.226536,9104.533087
2679.580649,-2374.896044,-518.144159,9696.697840
2679.580978,-1915.238745,-1110.308913,10066.800811
2679.581307,-459.657299,-1258.350101,9622.677246
2679.581636,229.828649,-370.102971,8734.430116
2679.581965,842.705048,-1110.308913,8586.388927
2679.582295,1991.848295,-740.205942,9326.594869
2679.582624,3140.991542,296.082377,8808.450710
2679.582953,2068.457845,814.226536,7179.997637
2679.583282,1532.190996,666.185348,7994.224174
2679.583611,2145.067394,888.247130,8142.265362
2679.583941,2145.067394,740.205942,8438.347739
2679.584270,689.485948,444.123565,8290.306550
2679.584599,-1072.533697,-592.164754,8956.491898
2679.584928,-1838.629195,-1776.494261,10510.924376
2679.585257,-2221.676944,-2368.659014,10362.883188
2679.585586,-2987.772442,-2072.576638,10066.800811
2679.585916,-4136.915689,-2516.700203,10066.800811
2679.586245,-2834.553343,-3478.967927,11547.212695
2679.586574,-1532.190996,-2442.679609,9918.759623
2679.586903,-536.266849,-1850.514855,8808.450710
2679.587232,842.705048,-888.247130,9548.656652
2679.587562,2374.896044,-370.102971,9030.512492
2679.587891,3830.477490,1184.329507,7846.182985
2679.588220,3447.429741,962.267725,7698.141797
2679.588549,2451.505594,1036.288319,7772.162391
2679.588878,3217.601092,1924.535449,7698.141797
2679.589208,3830.477490,2294.638420,7698.141797
2679.589537,2221.676944,1776.494261,7402.059420
2679.589866,1302.362347,2664.741391,7550.100608
2679.590195,919.314598,518.144159,8956.491898
2679.590524,-995.924147,-222.061783,9918.759623
2679.590853,-1991.848295,-1480.411884,9992.780217
2679.591183,-3217.601092,-1110.308913,10658.965565
2679.591512,-3370.820191,-4515.256246,12435.459826
2679.591841,-2757.943793,-2516.700203,9696.697840
2679.592170,-1991.848295,-2442.679609,10510.924376
2679.592499,-229.828649,-1332.370696,9918.759623
2679.592829,1991.848295,740.205942,9104.533087
2679.593158,4136.915689,1184.329507,7328.038826
2679.593487,3524.039291,2368.659014,7624.121203
2679.593816,3064.381992,1480.411884,8882.471304
2679.594145,3064.381992,2886.803174,7105.977043
2679.594474,3753.867940,2738.761985,7254.018232
2679.594804,1991.848295,1998.556043,7476.080014
2679.595133,1225.752797,1850.514855,7698.141797
2679.595462,1915.238745,1924.535449,7179.997637
2679.595791,1302.362347,-518.144159,8142.265362
2679.596120,-2298.286494,-3552.988522,11547.212695
2679.596450,-3447.429741,-5255.462188,11843.295072
2679.596779,-4060.306139,-3701.029710,11769.274478
2679.597108,-3753.867940,-7105.977043,12287.418637
2679.597437,-4903.011187,-2812.782580,9030.512492
2679.597766,-2298.286494,-2442.679609,12583.501014
2679.598096,-766.095498,-1554.432478,11769.274478
2679.598425,1149.143247,592.164754,8808.450710
2679.598754,3370.820191,518.144159,8512.368333
2679.599083,4903.011187,1480.411884,7254.018232
2679.599412,3370.820191,1924.535449,8142.265362
2679.599741,3370.820191,2886.803174,5921.647536
2679.600071,2298.286494,2294.638420,8068.244768
2679.600400,1838.629195,1184.329507,8142.265362
2679.600729,1225.752797,2664.741391,6957.935855
2679.601058,1608.800546,3182.885551,6809.894666
2679.601387,-842.705048,-1628.453072,9844.739029
2679.601717,-2757.943793,-2886.803174,12805.562797
2679.602046,-2528.115143,-4071.132681,10955.047942
2679.602375,-2681.334243,-1998.556043,11769.274478
2679.602704,-3370.820191,-3478.967927,11991.336260
2679.603033,-3294.210641,-1998.556043,10955.047942
2679.603362,536.266849,-814.226536,10732.986159
2679.603692,1149.143247,2812.782580,7550.100608
2679.604021,3140.991542,1184.329507,8660.409521
2679.604350,3753.867940,1850.514855,7254.018232
2679.604679,4213.525239,2442.679609,8586.388927
2679.605008,3294.210641,4219.173869,6661.853478
2679.605338,1685.410096,2146.597232,5995.668130
2679.605667,1532.190996,1850.514855,9252.574275
2679.605996,1685.410096,3108.864956,7402.059420
2679.606325,1532.190996,2516.700203,7254.018232
2679.606654,-306.438199,-666.185348,9178.553681
2679.606984,-2145.067394,-4441.235652,12361.439231
2679.607313,-2298.286494,-4145.153275,11177.109724
2679.607642,-3064.381992,-3701.029710,10955.047942
2679.607971,-3753.867940,-4737.318029,12583.501014
2679.608300,-3753.867940,-1480.411884,10362.883188
2679.608629,229.828649,-222.061783,10066.800811
2679.608959,383.047749,1110.308913,8512.368333
2679.609288,1532.190996,1184.329507,8512.368333
2679.609617,3983.696590,-518.144159,8364.327145
2679.609946,5056.230287,962.267725,7846.182985
2679.610275,2911.162892,1184.329507,6439.791695
2679.610605,1225.752797,666.185348,7254.018232
2679.610934,1608.800546,592.164754,8512.368333
2679.611263,842.705048,-666.185348,8734.430116
2679.611592,-689.485948,-1850.514855,9326.594869
2679.611921,-3140.991542,-1184.329507,9474.636058
2679.612251,-2604.724693,-4367.215058,12065.356855
2679.612580,-3677.258390,-3034.844362,10140.821405
2679.612909,-3294.210641,-2146.597232,10732.986159
2679.613238,-2145.067394,-2072.576638,9992.780217
2679.613567,-536.266849,-814.226536,9770.718434
2679.613896,1762.019645,-0.000000,8364.327145
2679.614226,2757.943793,1554.432478,7550.100608
2679.614555,2681.334243,814.226536,8808.450710
2679.614884,3447.429741,296.082377,8808.450710
2679.615213,3753.867940,2220.617826,7105.977043
2679.615542,3064.381992,2220.617826,7624.121203
2679.615872,1378.971896,2590.720797,7846.182985
2679.616201,1225.752797,3552.988522,7476.080014
2679.616530,1685.410096,3034.844362,7550.100608
2679.616859,612.876398,592.164754,8364.327145
2679.617188,-1991.848295,-1332.370696,10288.862594
2679.617517,-1991.848295,-4145.153275,11917.315666
2679.617847,-2987.772442,-1480.411884,10362.883188
2679.618176,-2681.334243,-3849.070898,11029.068536
2679.618505,-3064.381992,-1036.288319,8956.491898
2679.618834,0.000000,-222.061783,11251.130318
2679.619163,612.876398,1554.432478,7920.203579
2679.619493,1378.971896,1924.535449,8142.265362
2679.619822,2604.724693,1554.432478,8586.388927
2679.620151,3370.820191,1702.473667,9326.594869
2679.620480,3830.477490,1924.535449,7994.224174
2679.620809,2068.457845,1110.308913,6957.935855
2679.621139,1378.971896,1258.350101,8956.491898
2679.621468,1149.143247,1850.514855,7846.182985
2679.621797,766.095498,1258.350101,8216.285956
2679.622126,-2145.067394,-740.205942,9178.553681
2679.622455,-3907.087040,-1924.535449,10362.883188
2679.622784,-3217.601092,-2886.803174,11843.295072
2679.623114,-3753.867940,-4145.153275,10362.883188
2679.623443,-4290.134789,-2664.741391,10807.006753
2679.623772,-2451.505594,-2442.679609,10955.047942
2679.624101,-1455.581446,-1850.514855,9992.780217
2679.624430,689.485948,-592.164754,8586.388927
2679.624760,2451.505594,-444.123565,9400.615463
2679.625089,2987.772442,296.082377,7994.224174
2679.625418,4060.306139,888.247130,8808.450710
2679.625747,3524.039291,1998.556043,7105.977043
2679.626076,2374.896044,2812.782580,7328.038826
2679.626405,2068.457845,2368.659014,9252.574275
2679.626735,2528.115143,2368.659014,7550.100608
2679.627064,1225.752797,2146.597232,7550.100608
2679.627393,306.438199,1776.494261,7550.100608
2679.627722,842.705048,-666.185348,9622.677246
2679.628051,-1838.629195,-4367.215058,12361.439231
2679.628381,-1991.848295,-3256.906145,10066.800811
2679.628710,-2528.115143,-2072.576638,10362.883188
2679.629039,-2451.505594,-4959.379811,11695.253884
2679.629368,-2374.896044,-0.000000,9918.759623
2679.629697,1072.533697,-814.226536,9326.594869
2679.630027,766.095498,1258.350101,8364.327145
2679.630356,3140.991542,1554.432478,9030.512492
2679.630685,5286.058936,1036.288319,8438.347739
2679.631014,3600.648841,2072.576638,7550.100608
2679.631343,2757.943793,1554.432478,7476.080014
2679.631672,2145.067394,1628.453072,7920.203579
2679.632002,2221.676944,2146.597232,8068.244768
2679.632331,1608.800546,2812.782580,6809.894666
2679.632660,842.705048,2442.679609,7402.059420
2679.632989,536.266849,1480.411884,7254.018232
2679.633318,229.828649,-2664.741391,9030.512492
2679.633648,-1991.848295,-4959.379811,9918.759623
2679.633977,-2451.505594,-2590.720797,10140.821405
2679.634306,-3217.601092,-4589.276840,12657.521608
2679.634635,-3217.601092,-3627.009116,10362.883188
2679.634964,-2451.505594,-148.041188,11251.130318
2679.635294,0.000000,-1406.391290,10436.903782
2679.635623,536.266849,-0.000000,9400.615463
2679.635952,2604.724693,-740.205942,8882.471304
2679.636281,4060.306139,888.247130,7624.121203
2679.636610,2451.505594,1628.453072,7254.018232
2679.636939,1838.629195,1702.473667,7846.182985
2679.637269,1302.362347,1258.350101,6735.874072
2679.637598,1532.190996,1110.308913,7994.224174
2679.637927,-842.705048,-222.061783,8216.285956
2679.638256,-1072.533697,-2072.576638,10288.862594
2679.638585,-2298.286494,-3849.070898,9992.780217
2679.638915,-2451.505594,-4663.297435,10732.986159
2679.639244,-3677.258390,-2738.761985,9548.656652
2679.639573,-2298.286494,-3182.885551,11695.253884
2679.639902,-1455.581446,-518.144159,9696.697840
2679.640231,0.000000,-0.000000,8956.491898
2679.640560,1608.800546,962.267725,8956.491898
2679.640890,3447.429741,962.267725,8734.430116
2679.641219,3907.087040,1628.453072,8142.265362
2679.641548,2911.162892,1036.288319,8364.327145
2679.641877,1762.019645,1998.556043,8216.285956
2679.642206,1685.410096,2664.741391,7920.203579
2679.642536,1915.238745,2886.803174,7550.100608
2679.642865,536.266849,2590.720797,7105.977043
2679.643194,842.705048,296.082377,7920.203579
2679.643523,-612.876398,-1924.535449,9178.553681
2679.643852,-1455.581446,-2960.823768,10510.924376
2679.644182,-2604.724693,-1702.473667,9474.636058
2679.644511,-2451.505594,-3775.050304,11399.171507
2679.644840,-2221.676944,-1332.370696,9548.656652
2679.645169,-842.705048,296.082377,10140.821405
2679.645498,0.000000,592.164754,8586.388927
2679.645827,689.485948,1924.535449,9326.594869
2679.646157,2911.162892,1332.370696,8364.327145
2679.646486,3830.477490,2294.638420,7994.224174
2679.646815,1991.848295,2146.597232,7698.141797
2679.647144,1378.971896,1258.350101,8216.285956
2679.647473,766.095498,1332.370696,8512.368333
2679.647803,0.000000,740.205942,8808.450710
2679.648132,-995.924147,148.041188,8660.409521
2679.648461,-1225.752797,-666.185348,9474.636058
2679.648790,-1915.238745,-2886.803174,10807.006753
2679.649119,-2068.457845,-2664.741391,9992.780217
2679.649448,-2681.334243,-962.267725,10066.800811
2679.649778,-1838.629195,-2590.720797,10214.842000
2679.650107,-1378.971896,-0.000000,9844.739029
2679.650436,536.266849,-296.082377,9104.533087
2679.650765,612.876398,148.041188,7994.224174
2679.651094,2298.286494,-0.000000,8734.430116
2679.651423,3217.601092,-74.020594,9178.553681
2679.651752,2757.943793,-0.000000,8956.491898
2679.652081,1838.629195,1628.453072,8216.285956
2679.652411,1915.238745,1776.494261,8734.430116
2679.652740,1838.629195,1998.556043,8512.368333
2679.653069,842.705048,1628.453072,8660.409521
2679.653398,-536.266849,-370.102971,9252.574275
2679.653727,-919.314598,-444.123565,9992.780217
2679.654056,-229.828649,-1998.556043,9696.697840
2679.654385,-612.876398,-1776.494261,9992.780217
2679.654714,-766.095498,-888.247130,9474.636058
2679.655044,-919.314598,-1554.432478,9918.759623
2679.655373,536.266849,962.267725,8216.285956
2679.655702,1225.752797,962.267725,7772.162391
2679.656031,1455.581446,592.164754,8586.388927
2679.656360,2068.457845,814.226536,8586.388927
2679.656689,2604.724693,222.061783,9326.594869
2679.657018,2221.676944,-0.000000,8734.430116
2679.657347,1149.143247,-148.041188,8660.409521
2679.657677,1072.533697,-814.226536,8882.471304
2679.658006,919.314598,-0.000000,8956.491898
2679.658335,229.828649,814.226536,8808.450710
2679.658664,-995.924147,-0.000000,8882.471304
2679.658993,-383.047749,-740.205942,9696.697840
2679.659322,-766.095498,-1480.411884,9252.574275
2679.659651,-1225.752797,-1628.453072,9178.553681
2679.659980,-1455.581446,-2442.679609,9696.697840
2679.660310,-919.314598,-2442.679609,8956.491898
2679.660639,0.000000,-888.247130,8586.388927
2679.660968,-229.828649,-1406.391290,8734.430116
2679.661297,-229.828649,-962.267725,9178.553681
2679.661626,689.485948,-888.247130,9622.677246
2679.661955,1915.238745,-518.144159,8512.368333
2679.662284,1838.629195,-74.020594,8586.388927
2679.662614,1302.362347,-0.000000,8808.450710
2679.662943,1225.752797,-0.000000,9030.512492
2679.663272,995.924147,592.164754,9178.553681
2679.663601,-306.438199,148.041188,8216.285956
2679.663930,-689.485948,444.123565,9030.512492
2679.664259,-536.266849,-222.061783,9696.697840
2679.664588,-383.047749,-222.061783,8512.368333
2679.664917,-766.095498,-518.144159,8660.409521
2679.665247,-1072.533697,-1406.391290,9770.718434
2679.665576,-459.657299,-1776.494261,10288.862594
2679.665905,229.828649,-1036.288319,9400.615463
2679.666234,842.705048,-1332.370696,8142.265362
2679.666563,383.047749,592.164754,8882.471304
2679.666892,1455.581446,-0.000000,9696.697840
2679.667221,2145.067394,962.267725,9104.533087
2679.667550,1685.410096,1702.473667,8808.450710
2679.667880,1455.581446,1554.432478,9252.574275
2679.668209,995.924147,1776.494261,9326.594869
2679.668538,1455.581446,1332.370696,9030.512492
2679.668867,306.438199,740.205942,8808.450710
2679.669196,0.000000,-0.000000,9178.553681
2679.669525,0.000000,-1184.329507,9918.759623
2679.669854,0.000000,-222.061783,8660.409521
2679.670183,-1838.629195,-148.041188,9178.553681
2679.670513,-536.266849,-814.226536,9178.553681
2679.670842,0.000000,-592.164754,8290.306550
2679.671171,383.047749,-148.041188,8586.388927
2679.671500,76.609550,1110.308913,8586.388927
2679.671829,306.438199,296.082377,9252.574275
2679.672158,1149.143247,-0.000000,9548.656652
2679.672487,1685.410096,-0.000000,8512.368333
2679.672816,842.705048,-0.000000,9030.512492
2679.673146,766.095498,-0.000000,9696.697840
2679.673475,306.438199,-444.123565,9400.615463
2679.673804,0.000000,962.267725,9252.574275
2679.674133,-383.047749,814.226536,9696.697840
2679.674462,-919.314598,-0.000000,9474.636058
2679.674791,-459.657299,-666.185348,9548.656652
2679.675120,-229.828649,-888.247130,8734.430116
2679.675450,0.000000,-888.247130,9104.533087
2679.675779,-153.219100,-1554.432478,10362.883188
2679.676108,1302.362347,-1036.288319,8808.450710
2679.676437,919.314598,-222.061783,8512.368333
2679.676766,612.876398,814.226536,8956.491898
2679.677095,766.095498,518.144159,8808.450710
2679.677424,995.924147,740.205942,9252.574275
2679.677753,919.314598,1184.329507,8660.409521
2679.678083,689.485948,666.185348,9252.574275
2679.678412,76.609550,-0.000000,9770.718434
2679.678741,229.828649,-1110.308913,9992.780217
2679.679070,-383.047749,-1184.329507,9696.697840
2679.679399,-612.876398,-1480.411884,9474.636058
2679.679728,-229.828649,-962.267725,9548.656652
2679.680057,1302.362347,-740.205942,9326.594869
2679.680386,1149.143247,222.061783,7476.080014
2679.680716,766.095498,296.082377,8438.347739
2679.681045,1302.362347,-0.000000,8660.409521
2679.681374,1915.238745,-0.000000,8142.265362
2679.681703,1455.581446,222.061783,7328.038826
2679.682032,919.314598,-370.102971,8734.430116
2679.682361,766.095498,-1258.350101,9474.636058
2679.682690,1149.143247,-666.185348,9178.553681
2679.683019,229.828649,-1036.288319,9326.594869
2679.683349,0.000000,-814.226536,10214.842000
2679.683678,-689.485948,-666.185348,9548.656652
2679.684007,0.000000,-814.226536,9622.677246
2679.684336,-229.828649,-222.061783,8512.368333
2679.684665,-766.095498,-814.226536,9030.512492
2679.684994,0.000000,-1776.494261,9474.636058
2679.685323,1455.581446,-814.226536,8808.450710
2679.685652,1225.752797,-222.061783,8216.285956
2679.685982,919.314598,-0.000000,7920.203579
2679.686311,766.095498,-74.020594,8808.450710
2679.686640,1225.752797,814.226536,9030.512492
2679.686969,536.266849,666.185348,7624.121203
2679.687298,0.000000,1036.288319,8734.430116
2679.687627,76.609550,-592.164754,10658.965565
