#time,accel_x,accel_y,accel_z
2453.615458,153.219100,-296.082377,9030.512492
2453.615787,229.828649,-74.020594,9030.512492
2453.616116,612.876398,-444.123565,9104.533087
2453.616445,383.047749,-370.102971,9178.553681
2453.616774,689.485948,-296.082377,9104.533087
2453.617103,229.828649,-222.061783,9178.553681
2453.617432,306.438199,-222.061783,9178.553681
2453.617761,306.438199,-74.020594,9326.594869
2453.618090,229.828649,-74.020594,9178.553681
2453.618419,383.047749,-222.061783,9326.594869
2453.618748,459.657299,-592.164754,9178.553681
2453.619077,229.828649,-74.020594,9326.594869
2453.619405,76.609550,-148.041188,9252.574275
2453.619734,229.828649,-222.061783,9178.553681
2453.620063,459.657299,-0.000000,9104.533087
2453.620392,383.047749,-148.041188,8956.491898
2453.620721,612.876398,-148.041188,9104.533087
2453.621050,766.095498,-666.185348,9030.512492
2453.621379,842.705048,-74.020594,9030.512492
2453.621708,459.657299,-222.061783,8808.450710
2453.622037,153.219100,-148.041188,9030.512492
2453.622366,153.219100,-0.000000,8734.430116
2453.622695,153.219100,-0.000000,8882.471304
2453.623024,153.219100,-296.082377,8956.491898
2453.623353,612.876398,-296.082377,9030.512492
2453.623682,306.438199,-518.144159,8438.347739
2453.624011,306.438199,-0.000000,9104.533087
2453.624340,459.657299,-74.020594,9104.533087
2453.624669,76.609550,-74.020594,8956.491898
2453.624998,229.828649,-0.000000,8882.471304
2453.625327,383.047749,-0.000000,9252.574275
2453.625655,459.657299,-222.061783,9030.512492
2453.625984,459.657299,-74.020594,9474.636058
2453.626313,229.828649,-0.000000,9030.512492
2453.626642,229.828649,-222.061783,8956.491898
2453.626971,383.047749,-0.000000,9104.533087
2453.627300,229.828649,-518.144159,9104.533087
2453.627629,536.266849,-592.164754,9178.553681
2453.627958,536.266849,-296.082377,8882.471304
2453.628287,306.438199,-444.123565,9400.615463
2453.628616,153.219100,-222.061783,9400.615463
2453.628945,459.657299,-74.020594,9252.574275
2453.629274,383.047749,-0.000000,9178.553681
2453.629603,229.828649,-74.020594,9326.594869
2453.629932,536.266849,-0.000000,9252.574275
2453.630261,689.485948,-740.205942,8956.491898
2453.630590,76.609550,-148.041188,9252.574275
2453.630919,383.047749,-370.102971,8956.491898
2453.631248,306.438199,-148.041188,9252.574275
2453.631577,383.047749,-148.041188,9104.533087
2453.631905,459.657299,-74.020594,9030.512492
2453.632234,459.657299,-74.020594,9252.574275
2453.632563,536.266849,-0.000000,9104.533087
2453.632892,383.047749,-0.000000,9104.533087
2453.633221,306.438199,-0.000000,8882.471304
2453.633550,306.438199,-74.020594,8956.491898
2453.633879,0.000000,-0.000000,9178.553681
2453.634208,153.219100,-0.000000,8882.471304
2453.634537,229.828649,-0.000000,8956.491898
2453.634866,229.828649,-222.061783,8956.491898
2453.635195,229.828649,-296.082377,9030.512492
2453.635524,459.657299,-444.123565,9104.533087
2453.635853,383.047749,-148.041188,8808.450710
2453.636182,459.657299,-0.000000,9030.512492
2453.636511,153.219100,-222.061783,8882.471304
2453.636840,306.438199,-148.041188,8956.491898
2453.637169,306.438199,-148.041188,8882.471304
2453.637498,306.438199,-666.185348,9030.512492
2453.637826,306.438199,-0.000000,9178.553681
2453.638155,153.219100,-222.061783,9178.553681
2453.638484,306.438199,-444.123565,9178.553681
2453.638813,76.609550,-296.082377,9252.574275
2453.639142,459.657299,-74.020594,9252.574275
2453.639471,383.047749,-74.020594,9252.574275
2453.639800,459.657299,-74.020594,9252.574275
2453.640129,-459.657299,222.061783,9548.656652
2453.640458,459.657299,-148.041188,9326.594869
2453.640787,383.047749,222.061783,9400.615463
2453.641116,306.438199,-74.020594,9104.533087
2453.641445,229.828649,-74.020594,9178.553681
2453.641774,306.438199,-0.000000,9178.553681
2453.642103,306.438199,-148.041188,9178.553681
2453.642432,459.657299,-222.061783,9178.553681
2453.642761,536.266849,-0.000000,9030.512492
2453.643090,0.000000,-74.020594,9178.553681
2453.643419,306.438199,-0.000000,8956.491898
2453.643748,383.047749,-74.020594,8956.491898
2453.644076,153.219100,-0.000000,8956.491898
2453.644405,459.657299,-0.000000,9178.553681
2453.644734,995.924147,-888.247130,9696.697840
2453.645063,1302.362347,-962.267725,9474.636058
2453.645392,1608.800546,-518.144159,9326.594869
2453.645721,1685.410096,-444.123565,9474.636058
2453.646050,1991.848295,-296.082377,8808.450710
2453.646379,2681.334243,296.082377,8734.430116
2453.646708,3677.258390,-74.020594,8882.471304
2453.647037,4366.744339,-296.082377,8512.368333
2453.647366,3447.429741,296.082377,8438.347739
2453.647695,3294.210641,592.164754,8512.368333
2453.648024,2757.943793,-0.000000,8364.327145
2453.648353,3217.601092,-444.123565,9474.636058
2453.648682,1991.848295,-370.102971,8882.471304
2453.649011,1532.190996,-1258.350101,9844.739029
2453.649340,1915.238745,-2294.638420,9918.759623
2453.649669,2604.724693,-888.247130,9696.697840
2453.649998,1991.848295,-370.102971,9770.718434
2453.650326,3064.381992,-1406.391290,10140.821405
2453.650655,3064.381992,-222.061783,9104.533087
2453.650984,4749.792088,814.226536,9400.615463
2453.651313,5362.668486,592.164754,7254.018232
2453.651642,4443.353888,1480.411884,8956.491898
2453.651971,5362.668486,1110.308913,8734.430116
2453.652300,4366.744339,1036.288319,7402.059420
2453.652629,3753.867940,592.164754,9104.533087
2453.652958,2987.772442,-74.020594,9030.512492
2453.653287,2451.505594,-0.000000,9178.553681
2453.653616,1149.143247,-1332.370696,9918.759623
2453.653945,1378.971896,-1184.329507,9918.759623
2453.654274,1685.410096,-1406.391290,10510.924376
2453.654603,995.924147,-1554.432478,9992.780217
2453.654932,1838.629195,-444.123565,9474.636058
2453.655261,2374.896044,-0.000000,10066.800811
2453.655590,3294.210641,592.164754,7476.080014
2453.655919,4213.525239,666.185348,9252.574275
2453.656247,4519.963438,1258.350101,8142.265362
2453.656576,4213.525239,1036.288319,7920.203579
2453.656905,4290.134789,1406.391290,8364.327145
2453.657234,3907.087040,518.144159,8512.368333
2453.657563,3064.381992,-74.020594,8586.388927
2453.657892,2145.067394,-1406.391290,9400.615463
2453.658221,1838.629195,-1702.473667,9400.615463
2453.658550,612.876398,-2368.659014,10288.862594
2453.658879,0.000000,-2294.638420,9992.780217
2453.659208,0.000000,-1850.514855,9992.780217
2453.659537,459.657299,-740.205942,9548.656652
2453.659866,919.314598,-148.041188,9178.553681
2453.660195,1225.752797,592.164754,8808.450710
2453.660524,1762.019645,666.185348,8808.450710
2453.660853,1915.238745,1850.514855,8216.285956
2453.661182,2068.457845,2072.576638,7476.080014
2453.661511,1685.410096,1702.473667,8068.244768
2453.661840,1302.362347,1480.411884,7994.224174
2453.662169,229.828649,592.164754,8216.285956
2453.662497,-229.828649,-148.041188,9178.553681
2453.662826,-689.485948,-1406.391290,9400.615463
2453.663155,-1532.190996,-2072.576638,10066.800811
2453.663484,-919.314598,-2442.679609,9992.780217
2453.663813,-1072.533697,-2220.617826,10140.821405
2453.664142,-612.876398,-1850.514855,10288.862594
2453.664471,0.000000,-1406.391290,10214.842000
2453.664800,536.266849,-1258.350101,10584.944971
2453.665129,1762.019645,-592.164754,10288.862594
2453.665458,3217.601092,814.226536,8956.491898
2453.665787,3677.258390,1850.514855,8586.388927
2453.666116,4136.915689,3256.906145,7179.997637
2453.666445,4366.744339,4071.132681,7105.977043
2453.666774,3907.087040,4145.153275,6735.874072
2453.667103,2451.505594,3108.864956,6809.894666
2453.667432,612.876398,1110.308913,7920.203579
2453.667761,-459.657299,-666.185348,8956.491898
2453.668090,-2145.067394,-3256.906145,10658.965565
2453.668419,-2451.505594,-3108.864956,9252.574275
2453.668747,-2528.115143,-3256.906145,9474.636058
2453.669076,-3217.601092,-4071.132681,10436.903782
2453.669405,-3677.258390,-3404.947333,11547.212695
2453.669734,-2604.724693,-2590.720797,12953.603985
2453.670063,-1838.629195,-2294.638420,10955.047942
2453.670392,0.000000,-592.164754,10584.944971
2453.670721,0.000000,814.226536,9326.594869
2453.671050,0.000000,2368.659014,8734.430116
2453.671379,383.047749,962.267725,11621.233289
2453.671708,2834.553343,2516.700203,6735.874072
2453.672037,4596.572988,4219.173869,5255.462188
2453.672366,4136.915689,3478.967927,4293.194464
2453.672695,2757.943793,3627.009116,4441.235652
2453.673024,1608.800546,518.144159,7624.121203
2453.673353,229.828649,-888.247130,7105.977043
2453.673682,-612.876398,-2960.823768,9474.636058
2453.674011,-1378.971896,-5181.441594,11251.130318
2453.674340,-2374.896044,-4589.276840,9696.697840
2453.674668,-2451.505594,-4441.235652,11991.336260
2453.674997,-1455.581446,-3182.885551,11177.109724
2453.675326,229.828649,-2146.597232,11843.295072
2453.675655,842.705048,814.226536,11843.295072
2453.675984,842.705048,2516.700203,9622.677246
2453.676313,383.047749,1332.370696,10881.027347
2453.676642,1685.410096,1776.494261,10140.821405
2453.676971,2451.505594,4293.194464,5699.585753
2453.677300,3907.087040,3627.009116,6513.812290
2453.677629,3294.210641,3627.009116,4737.318029
2453.677958,2757.943793,2886.803174,5995.668130
2453.678287,612.876398,-666.185348,7105.977043
2453.678616,-689.485948,-2294.638420,7772.162391
2453.678945,-995.924147,-5107.421000,10214.842000
2453.679274,-1991.848295,-4293.194464,9400.615463
2453.679603,-2604.724693,-3256.906145,10288.862594
2453.679932,-3140.991542,-4145.153275,11843.295072
2453.680261,-1608.800546,-2072.576638,12731.542202
2453.680590,-1302.362347,-1332.370696,12953.603985
2453.680918,0.000000,1480.411884,9696.697840
2453.681247,153.219100,2664.741391,8808.450710
2453.681576,0.000000,2146.597232,10288.862594
2453.681905,76.609550,3330.926739,9992.780217
2453.682234,1378.971896,3701.029710,7402.059420
2453.682563,3677.258390,2664.741391,6069.688724
2453.682892,3830.477490,2072.576638,4737.318029
2453.683221,2911.162892,1110.308913,5847.626942
2453.683550,1685.410096,-814.226536,7624.121203
2453.683879,306.438199,-2886.803174,8068.244768
2453.684208,306.438199,-3775.050304,10288.862594
2453.684537,76.609550,-3034.844362,10510.924376
2453.684866,-1225.752797,-3182.885551,10881.027347
2453.685195,-1149.143247,-2812.782580,11769.274478
2453.685524,0.000000,-962.267725,11399.171507
2453.685853,536.266849,-0.000000,11843.295072
2453.686182,1685.410096,2146.597232,10584.944971
2453.686511,2374.896044,4293.194464,9104.533087
2453.686840,3217.601092,3997.112087,9030.512492
2453.687168,2681.334243,4959.379811,6439.791695
2453.687497,1838.629195,3701.029710,6587.832884
2453.687826,919.314598,1702.473667,6883.915261
2453.688155,383.047749,-0.000000,7328.038826
2453.688484,-766.095498,-2960.823768,8882.471304
2453.688813,-1302.362347,-4737.318029,8882.471304
2453.689142,-2221.676944,-5033.400406,8808.450710
2453.689471,-2757.943793,-4885.359217,11251.130318
2453.689801,-2374.896044,-3627.009116,10955.047942
2453.690130,-2068.457845,-2368.659014,12287.418637
2453.690459,-1762.019645,-962.267725,11917.315666
2453.690788,-306.438199,666.185348,10658.965565
2453.691117,459.657299,1998.556043,8956.491898
2453.691446,76.609550,3701.029710,8290.306550
2453.691775,383.047749,2442.679609,10658.965565
2453.692104,2145.067394,3849.070898,7624.121203
2453.692433,3064.381992,4589.276840,5033.400406
2453.692763,2298.286494,2886.803174,4811.338623
2453.693092,1532.190996,1110.308913,5181.441594
2453.693421,612.876398,-1406.391290,7105.977043
2453.693750,-306.438199,-3627.009116,7920.203579
2453.694079,842.705048,-4959.379811,9696.697840
2453.694408,-383.047749,-4589.276840,9992.780217
2453.694737,-1225.752797,-3627.009116,10881.027347
2453.695066,-1762.019645,-3256.906145,11621.233289
2453.695396,-612.876398,-1406.391290,11843.295072
2453.695725,536.266849,-148.041188,11991.336260
2453.696054,1225.752797,1924.535449,11103.089130
2453.696383,1149.143247,3478.967927,10658.965565
2453.696712,153.219100,2738.761985,10510.924376
2453.697041,919.314598,3478.967927,8438.347739
2453.697370,1915.238745,4145.153275,6587.832884
2453.697699,2298.286494,2960.823768,5921.647536
2453.698028,1302.362347,1332.370696,6069.688724
2453.698358,-76.609550,-666.185348,7328.038826
2453.698687,-842.705048,-3701.029710,8142.265362
2453.699016,-919.314598,-5255.462188,8216.285956
2453.699345,-766.095498,-4959.379811,8808.450710
2453.699674,-1532.190996,-4145.153275,10732.986159
2453.700003,-2451.505594,-2960.823768,10955.047942
2453.700332,-1455.581446,-2072.576638,12213.398043
2453.700661,-306.438199,-0.000000,11769.274478
2453.700991,766.095498,1628.453072,10807.006753
2453.701320,689.485948,3701.029710,9400.615463
2453.701649,0.000000,4071.132681,9178.553681
2453.701978,76.609550,3182.885551,9844.739029
2453.702307,536.266849,3627.009116,7772.162391
2453.702636,1915.238745,3034.844362,6957.935855
2453.702965,2374.896044,1628.453072,5329.482782
2453.703294,2298.286494,-0.000000,5699.585753
2453.703624,1532.190996,-1554.432478,6365.771101
2453.703953,1455.581446,-3552.988522,7550.100608
2453.704282,766.095498,-3849.070898,9030.512492
2453.704611,229.828649,-4145.153275,9770.718434
2453.704940,76.609550,-3404.947333,10658.965565
2453.705269,0.000000,-2516.700203,11177.109724
2453.705598,306.438199,-2368.659014,11695.253884
2453.705927,1378.971896,-74.020594,11843.295072
2453.706256,2681.334243,3034.844362,10584.944971
2453.706586,4060.306139,5255.462188,9178.553681
2453.706915,3217.601092,5699.585753,7698.141797
2453.707244,2757.943793,5551.544565,6809.894666
2453.707573,1762.019645,3923.091493,6957.935855
2453.707902,306.438199,1776.494261,7105.977043
2453.708231,-1302.362347,-1258.350101,8142.265362
2453.708560,-1532.190996,-3849.070898,9474.636058
2453.708889,-2374.896044,-5329.482782,8290.306550
2453.709219,-2451.505594,-6217.729913,9178.553681
2453.709548,-3524.039291,-6587.832884,10436.903782
2453.709877,-3753.867940,-5699.585753,11991.336260
2453.710206,-3600.648841,-3404.947333,13249.686362
2453.710535,-1532.190996,-1554.432478,11843.295072
2453.710864,-383.047749,-0.000000,11547.212695
2453.711193,459.657299,2886.803174,9252.574275
2453.711522,0.000000,4811.338623,8586.388927
2453.711851,612.876398,3108.864956,11399.171507
2453.712181,2757.943793,5033.400406,6957.935855
2453.712510,4443.353888,5699.585753,4589.276840
2453.712839,3064.381992,3849.070898,4367.215058
2453.713168,2298.286494,2516.700203,3997.112087
2453.713497,1072.533697,-1258.350101,7328.038826
2453.713826,-612.876398,-3404.947333,6809.894666
2453.714155,76.609550,-5107.421000,9548.656652
2453.714484,-995.924147,-6143.709319,9400.615463
2453.714814,-1838.629195,-5255.462188,10288.862594
2453.715143,-1838.629195,-4663.297435,12287.418637
2453.715472,-842.705048,-1998.556043,11473.192101
2453.715801,459.657299,-592.164754,12361.439231
2453.716130,1455.581446,1998.556043,11473.192101
2453.716459,1149.143247,5033.400406,10214.842000
2453.716788,-153.219100,3997.112087,10732.986159
2453.717117,153.219100,2294.638420,9918.759623
2453.717446,1225.752797,4071.132681,7550.100608
2453.717776,3064.381992,3108.864956,5847.626942
2453.718105,1762.019645,1554.432478,4959.379811
2453.718434,612.876398,-148.041188,6513.812290
2453.718763,-383.047749,-2886.803174,7994.224174
2453.719092,-689.485948,-5551.544565,8586.388927
2453.719421,-153.219100,-5699.585753,8882.471304
2453.719750,-612.876398,-4885.359217,9770.718434
2453.720079,-2068.457845,-4293.194464,10955.047942
2453.720409,-1991.848295,-2368.659014,11843.295072
2453.720738,-383.047749,-1110.308913,12361.439231
2453.721067,459.657299,1184.329507,11029.068536
2453.721396,1762.019645,3775.050304,9844.739029
2453.721725,459.657299,4959.379811,9770.718434
2453.722054,-306.438199,3552.988522,10140.821405
2453.722383,919.314598,3849.070898,9252.574275
2453.722712,1838.629195,4441.235652,6143.709319
2453.723041,2068.457845,2072.576638,5847.626942
2453.723371,2145.067394,370.102971,5181.441594
2453.723700,1532.190996,-888.247130,6513.812290
2453.724029,383.047749,-3552.988522,7328.038826
2453.724358,383.047749,-5033.400406,8586.388927
2453.724687,229.828649,-4811.338623,10584.944971
2453.725016,0.000000,-3775.050304,10066.800811
2453.725345,0.000000,-2886.803174,11029.068536
2453.725674,306.438199,-1406.391290,11695.253884
2453.726004,995.924147,-0.000000,12287.418637
2453.726333,2451.505594,2960.823768,11029.068536
2453.726662,3677.258390,5403.503377,9400.615463
2453.726991,3907.087040,5699.585753,8216.285956
2453.727320,3600.648841,5773.606348,6957.935855
2453.727649,2068.457845,4885.359217,6587.832884
2453.727978,1225.752797,2590.720797,6809.894666
2453.728307,0.000000,-222.061783,7402.059420
2453.728636,-1072.533697,-3627.009116,9326.594869
2453.728966,-919.314598,-5403.503377,8438.347739
2453.729295,-1762.019645,-6883.915261,8734.430116
2453.729624,-2834.553343,-7179.997637,10881.027347
2453.729953,-2987.772442,-5403.503377,11251.130318
2453.730282,-2681.334243,-3478.967927,13101.645173
2453.730611,-2145.067394,-1702.473667,11991.336260
2453.730940,-229.828649,148.041188,11103.089130
2453.731269,536.266849,2368.659014,10362.883188
2453.731599,-459.657299,4959.379811,8660.409521
2453.731928,0.000000,3330.926739,11029.068536
2453.732257,1532.190996,3997.112087,8808.450710
2453.732586,3524.039291,5477.523971,5329.482782
2453.732915,3294.210641,3849.070898,4737.318029
2453.733244,2298.286494,2146.597232,3627.009116
2453.733573,1762.019645,-74.020594,6513.812290
2453.733902,459.657299,-3182.885551,6809.894666
2453.734231,306.438199,-4071.132681,7994.224174
2453.734561,229.828649,-6143.709319,9696.697840
2453.734890,-689.485948,-4811.338623,9030.512492
2453.735219,-1455.581446,-4145.153275,11621.233289
2453.735548,-1149.143247,-2220.617826,11103.089130
2453.735877,459.657299,-222.061783,11399.171507
2453.736206,919.314598,1554.432478,12065.356855
2453.736535,536.266849,4367.215058,10584.944971
2453.736864,76.609550,4071.132681,10732.986159
2453.737194,0.000000,3256.906145,9770.718434
2453.737523,1149.143247,3701.029710,7402.059420
2453.737852,1685.410096,3478.967927,6143.709319
2453.738181,1532.190996,1628.453072,5773.606348
2453.738510,1225.752797,-518.144159,6809.894666
2453.738839,0.000000,-3108.864956,8512.368333
2453.739168,-995.924147,-5477.523971,8586.388927
2453.739497,-766.095498,-6883.915261,8142.265362
2453.739826,-689.485948,-5255.462188,9844.739029
2453.740156,-842.705048,-3552.988522,10436.903782
2453.740485,-1378.971896,-2590.720797,11695.253884
2453.740814,-689.485948,-962.267725,12805.562797
2453.741143,306.438199,1184.329507,11473.192101
2453.741472,229.828649,3552.988522,10214.842000
2453.741801,76.609550,4441.235652,9844.739029
2453.742130,-229.828649,3849.070898,10066.800811
2453.742459,536.266849,3478.967927,9400.615463
2453.742789,2145.067394,3997.112087,7105.977043
2453.743118,2681.334243,1998.556043,5625.565159
2453.743447,2451.505594,-74.020594,5625.565159
2453.743776,2374.896044,-2072.576638,6069.688724
2453.744105,1225.752797,-3108.864956,7254.018232
2453.744434,612.876398,-5181.441594,8956.491898
2453.744763,0.000000,-4515.256246,9770.718434
2453.745092,0.000000,-4219.173869,10584.944971
2453.745421,0.000000,-2960.823768,11251.130318
2453.745751,766.095498,-1702.473667,11843.295072
2453.746080,1532.190996,740.205942,11251.130318
2453.746409,2987.772442,3701.029710,9844.739029
2453.746738,3753.867940,5773.606348,8808.450710
2453.747067,3677.258390,6439.791695,7328.038826
2453.747396,2528.115143,5699.585753,7105.977043
2453.747725,1991.848295,4589.276840,6661.853478
2453.748054,306.438199,1628.453072,6809.894666
2453.748384,-919.314598,-1924.535449,8068.244768
2453.748713,-1915.238745,-4441.235652,10288.862594
2453.749042,-1991.848295,-5625.565159,8586.388927
2453.749371,-2374.896044,-6291.750507,7920.203579
2453.749700,-2451.505594,-6809.894666,10658.965565
2453.750029,-3294.210641,-4959.379811,11325.150913
2453.750358,-2604.724693,-3478.967927,13175.665768
2453.750687,-2221.676944,-1554.432478,11843.295072
2453.751016,0.000000,740.205942,10214.842000
2453.751346,-306.438199,3108.864956,9474.636058
2453.751675,-1149.143247,4219.173869,9770.718434
2453.752004,1225.752797,2812.782580,12361.439231
2453.752333,3064.381992,5255.462188,6143.709319
2453.752662,4596.572988,5995.668130,5107.421000
2453.752991,2911.162892,4071.132681,3108.864956
2453.753320,2145.067394,2664.741391,5625.565159
2453.753649,306.438199,-1110.308913,8068.244768
2453.753979,-536.266849,-3701.029710,7105.977043
2453.754308,0.000000,-5625.565159,10288.862594
2453.754637,-612.876398,-6439.791695,9548.656652
2453.754966,-1608.800546,-5403.503377,9992.780217
2453.755295,-1685.410096,-4071.132681,12583.501014
2453.755624,-306.438199,-1406.391290,10436.903782
2453.755953,0.000000,222.061783,11917.315666
2453.756282,306.438199,2812.782580,11251.130318
2453.756612,0.000000,4737.318029,10362.883188
2453.756941,-612.876398,3034.844362,10955.047942
2453.757270,689.485948,3034.844362,9474.636058
2453.757599,1378.971896,4071.132681,6439.791695
2453.757928,2298.286494,2738.761985,6439.791695
2453.758257,1302.362347,1850.514855,5181.441594
2453.758586,689.485948,-888.247130,7402.059420
2453.758915,-919.314598,-3256.906145,7698.141797
2453.759244,-919.314598,-6217.729913,9104.533087
2453.759574,-1072.533697,-6661.853478,9178.553681
2453.759903,-995.924147,-4367.215058,9770.718434
2453.760232,-1608.800546,-4219.173869,10140.821405
2453.760561,-1532.190996,-2368.659014,11473.192101
2453.760890,-459.657299,-296.082377,12139.377449
2453.761219,-229.828649,2072.576638,10658.965565
2453.761548,76.609550,3034.844362,10362.883188
2453.761877,153.219100,3404.947333,10807.006753
2453.762207,1685.410096,3627.009116,9178.553681
2453.762536,2451.505594,5181.441594,6957.935855
2453.762865,2604.724693,3627.009116,6143.709319
2453.763194,2145.067394,1998.556043,5625.565159
2453.763523,2145.067394,-0.000000,6957.935855
2453.763852,919.314598,-2220.617826,7105.977043
2453.764181,0.000000,-5107.421000,7994.224174
2453.764510,-766.095498,-6587.832884,10362.883188
2453.764839,-766.095498,-4367.215058,10362.883188
2453.765169,-919.314598,-3849.070898,10658.965565
2453.765498,0.000000,-2442.679609,11399.171507
2453.765827,995.924147,-1184.329507,11917.315666
2453.766156,2374.896044,1702.473667,11621.233289
2453.766485,3600.648841,4441.235652,8808.450710
2453.766814,3907.087040,5255.462188,7920.203579
2453.767143,4519.963438,6513.812290,7105.977043
2453.767472,3140.991542,7031.956449,6809.894666
2453.767802,1838.629195,4737.318029,6883.915261
2453.768131,229.828649,1702.473667,7254.018232
2453.768460,-1455.581446,-2146.597232,8438.347739
2453.768789,-1915.238745,-4367.215058,9622.677246
2453.769118,-2221.676944,-6513.812290,8068.244768
2453.769447,-3064.381992,-6957.935855,8808.450710
2453.769776,-3600.648841,-6957.935855,11695.253884
2453.770105,-3447.429741,-4663.297435,11547.212695
2453.770434,-2681.334243,-2590.720797,12731.542202
2453.770764,-1225.752797,-1628.453072,11399.171507
2453.771093,1149.143247,962.267725,9992.780217
2453.771422,-383.047749,4441.235652,8808.450710
2453.771751,306.438199,3182.885551,11843.295072
2453.772080,2451.505594,3849.070898,8956.491898
2453.772409,4443.353888,6587.832884,4515.256246
2453.772738,4443.353888,5773.606348,4515.256246
2453.773067,2528.115143,3997.112087,3404.947333
2453.773397,2145.067394,1480.411884,7031.956449
2453.773726,-306.438199,-2220.617826,7105.977043
2453.774055,-306.438199,-4515.256246,8364.327145
2453.774384,-1455.581446,-5995.668130,10881.027347
2453.774713,-1608.800546,-5921.647536,8734.430116
2453.775042,-2757.943793,-5329.482782,12435.459826
2453.775371,-2068.457845,-3330.926739,11917.315666
2453.775700,153.219100,-962.267725,11547.212695
2453.776029,0.000000,370.102971,12361.439231
2453.776359,1072.533697,4145.153275,10362.883188
2453.776688,612.876398,3701.029710,10362.883188
2453.777017,0.000000,2960.823768,10955.047942
2453.777346,1302.362347,4293.194464,8142.265362
2453.777675,2528.115143,3701.029710,6143.709319
2453.778004,2834.553343,2664.741391,5181.441594
2453.778333,2145.067394,1036.288319,5477.523971
2453.778662,1378.971896,-1554.432478,7105.977043
2453.778992,-1072.533697,-3849.070898,7402.059420
2453.779321,-612.876398,-6957.935855,9770.718434
2453.779650,-1302.362347,-5329.482782,9104.533087
2453.779979,-1915.238745,-3701.029710,9770.718434
2453.780308,-2374.896044,-3849.070898,11473.192101
2453.780637,-1608.800546,-2146.597232,11547.212695
2453.780966,306.438199,-444.123565,11843.295072
2453.781295,153.219100,2368.659014,9770.718434
2453.781624,689.485948,3923.091493,9474.636058
2453.781954,76.609550,3478.967927,10510.924376
2453.782283,919.314598,3701.029710,9474.636058
2453.782612,1149.143247,4367.215058,6883.915261
2453.782941,2834.553343,2368.659014,6291.750507
2453.783270,2528.115143,1036.288319,5551.544565
2453.783599,2068.457845,-740.205942,6217.729913
2453.783928,919.314598,-2368.659014,7550.100608
2453.784257,229.828649,-4959.379811,7994.224174
2453.784587,76.609550,-5773.606348,10214.842000
2453.784916,-229.828649,-3775.050304,10584.944971
2453.785245,0.000000,-3330.926739,11399.171507
2453.785574,383.047749,-2368.659014,11991.336260
2453.785903,1838.629195,-592.164754,11547.212695
2453.786232,3064.381992,2516.700203,10658.965565
2453.786561,3677.258390,4367.215058,9178.553681
2453.786890,4060.306139,6069.688724,8290.306550
2453.787219,3677.258390,5847.626942,7476.080014
2453.787549,2221.676944,5107.421000,6809.894666
2453.787878,689.485948,2442.679609,6957.935855
2453.788207,-459.657299,-592.164754,7920.203579
2453.788536,-1762.019645,-2590.720797,9252.574275
2453.788865,-1915.238745,-4811.338623,8660.409521
2453.789194,-3140.991542,-5995.668130,7550.100608
2453.789523,-3524.039291,-7105.977043,11473.192101
2453.789852,-3753.867940,-5625.565159,11621.233289
2453.790182,-2145.067394,-3775.050304,12657.521608
2453.790511,-1838.629195,-2294.638420,11621.233289
2453.790840,536.266849,-74.020594,10807.006753
2453.791169,153.219100,2960.823768,9252.574275
2453.791498,0.000000,3997.112087,9992.780217
2453.791827,2374.896044,3330.926739,11769.274478
2453.792156,3907.087040,6439.791695,4515.256246
2453.792486,5898.935335,5921.647536,5921.647536
2453.792815,3064.381992,5033.400406,2516.700203
2453.793144,3370.820191,3923.091493,5477.523971
2453.793473,-229.828649,-0.000000,7179.997637
2453.793802,-612.876398,-3997.112087,7772.162391
2453.794131,-612.876398,-5181.441594,10288.862594
2453.794461,-1455.581446,-6291.750507,8364.327145
2453.794790,-2604.724693,-6587.832884,10658.965565
2453.795119,-3983.696590,-5329.482782,13027.624579
2453.795448,-919.314598,-3330.926739,11843.295072
2453.795777,0.000000,-1184.329507,12879.583391
2453.796106,919.314598,2368.659014,9770.718434
2453.796435,153.219100,4367.215058,9474.636058
2453.796765,383.047749,2220.617826,12879.583391
2453.797094,1762.019645,4515.256246,8364.327145
2453.797423,2911.162892,4663.297435,6587.832884
2453.797752,4443.353888,3404.947333,5625.565159
2453.798081,2451.505594,3330.926739,4071.132681
2453.798410,1455.581446,666.185348,7402.059420
2453.798740,-1302.362347,-2294.638420,6735.874072
2453.799069,-919.314598,-6365.771101,8956.491898
2453.799398,-1455.581446,-6957.935855,9104.533087
2453.799727,-2145.067394,-4071.132681,8956.491898
2453.800056,-3140.991542,-5551.544565,11399.171507
2453.800385,-3600.648841,-3552.988522,11917.315666
2453.800715,-1225.752797,-1850.514855,13027.624579
2453.801044,-229.828649,1036.288319,11103.089130
2453.801373,1149.143247,3552.988522,8956.491898
2453.801702,459.657299,4071.132681,9178.553681
2453.802031,153.219100,3701.029710,10436.903782
2453.802360,689.485948,4367.215058,9252.574275
2453.802689,2068.457845,3627.009116,5847.626942
2453.803019,3294.210641,2294.638420,5625.565159
2453.803348,2451.505594,1554.432478,4145.153275
2453.803677,1838.629195,-666.185348,6291.750507
2453.804006,383.047749,-3182.885551,7772.162391
2453.804335,536.266849,-5625.565159,9326.594869
2453.804664,-229.828649,-4663.297435,10436.903782
2453.804994,-383.047749,-3923.091493,10288.862594
2453.805323,-919.314598,-3404.947333,11325.150913
2453.805652,-919.314598,-2072.576638,12213.398043
2453.805981,1455.581446,222.061783,12139.377449
2453.806310,2834.553343,2516.700203,10140.821405
2453.806639,3217.601092,4959.379811,9178.553681
2453.806969,4596.572988,6143.709319,8068.244768
2453.807298,3830.477490,5921.647536,7031.956449
2453.807627,1838.629195,5107.421000,6439.791695
2453.807956,459.657299,2146.597232,7179.997637
2453.808285,0.000000,-1332.370696,8586.388927
2453.808614,-1072.533697,-3849.070898,9474.636058
2453.808943,-1838.629195,-5403.503377,8364.327145
2453.809273,-2987.772442,-6883.915261,8290.306550
2453.809602,-3753.867940,-6957.935855,11473.192101
2453.809931,-3983.696590,-5255.462188,11769.274478
2453.810260,-2221.676944,-3627.009116,13027.624579
2453.810589,-1838.629195,-1628.453072,11473.192101
2453.810918,689.485948,-0.000000,10881.027347
2453.811248,383.047749,2886.803174,8956.491898
2453.811577,-306.438199,4663.297435,9696.697840
2453.811906,2451.505594,3775.050304,11399.171507
2453.812235,3983.696590,6661.853478,4959.379811
2453.812564,5286.058936,5477.523971,5847.626942
2453.812893,2834.553343,5033.400406,2590.720797
2453.813223,2987.772442,3034.844362,5255.462188
2453.813552,306.438199,-1184.329507,7624.121203
2453.813881,0.000000,-3627.009116,7476.080014
2453.814210,-383.047749,-6217.729913,10288.862594
2453.814539,-1762.019645,-5699.585753,8142.265362
2453.814868,-2145.067394,-5625.565159,11177.109724
2453.815197,-2604.724693,-4515.256246,12213.398043
2453.815527,153.219100,-1406.391290,11251.130318
2453.815856,1302.362347,-222.061783,12657.521608
2453.816185,1838.629195,2442.679609,9474.636058
2453.816514,536.266849,3775.050304,11621.233289
2453.816843,306.438199,2072.576638,11325.150913
2453.817172,1991.848295,4663.297435,7328.038826
2453.817502,2681.334243,3923.091493,6809.894666
2453.817831,3294.210641,3108.864956,4959.379811
2453.818160,1838.629195,1924.535449,5995.668130
2453.818489,0.000000,-296.082377,7402.059420
2453.818818,-1302.362347,-2960.823768,7179.997637
2453.819147,-919.314598,-6661.853478,9696.697840
2453.819477,-1302.362347,-5551.544565,8586.388927
2453.819806,-2451.505594,-4441.235652,10362.883188
2453.820135,-3294.210641,-5033.400406,11695.253884
2453.820464,-2528.115143,-3034.844362,12435.459826
2453.820793,-1149.143247,-1702.473667,13175.665768
2453.821122,76.609550,1850.514855,10436.903782
2453.821451,1225.752797,3775.050304,9474.636058
2453.821781,0.000000,3849.070898,9474.636058
2453.822110,612.876398,4219.173869,10955.047942
2453.822439,1532.190996,4145.153275,8734.430116
2453.822768,2987.772442,3552.988522,5773.606348
2453.823097,3753.867940,1998.556043,5329.482782
2453.823426,2681.334243,1036.288319,4219.173869
2453.823756,2068.457845,-962.267725,6513.812290
2453.824085,612.876398,-3923.091493,7402.059420
2453.824414,612.876398,-4959.379811,9178.553681
2453.824743,0.000000,-3701.029710,10288.862594
2453.825072,459.657299,-3997.112087,10584.944971
2453.825401,-1149.143247,-3404.947333,11473.192101
2453.825731,-306.438199,-1406.391290,11991.336260
2453.826060,919.314598,592.164754,11843.295072
2453.826389,2298.286494,2886.803174,10584.944971
2453.826718,3524.039291,5403.503377,9104.533087
2453.827047,4136.915689,5477.523971,7994.224174
2453.827376,3524.039291,5107.421000,6957.935855
2453.827705,1915.238745,4515.256246,6661.853478
2453.828035,1225.752797,1998.556043,6809.894666
2453.828364,0.000000,-518.144159,7105.977043
2453.828693,-1302.362347,-3552.988522,8808.450710
2453.829022,-1378.971896,-5699.585753,10140.821405
2453.829351,-2604.724693,-6439.791695,7920.203579
2453.829680,-2145.067394,-6957.935855,11547.212695
2453.830010,-3140.991542,-5477.523971,11029.068536
2453.830339,-2145.067394,-2960.823768,12361.439231
2453.830668,-1838.629195,-1184.329507,12731.542202
2453.830997,0.000000,888.247130,10658.965565
2453.831326,229.828649,2664.741391,9622.677246
2453.831655,-536.266849,4367.215058,9622.677246
2453.831985,612.876398,3182.885551,11399.171507
2453.832314,2528.115143,5033.400406,6957.935855
2453.832643,4903.011187,5107.421000,5699.585753
2453.832972,2681.334243,4071.132681,3182.885551
2453.833301,2374.896044,2368.659014,5255.462188
2453.833630,459.657299,-1184.329507,7105.977043
2453.833959,-383.047749,-4071.132681,7105.977043
2453.834289,0.000000,-5995.668130,9474.636058
2453.834618,-536.266849,-5551.544565,9400.615463
2453.834947,-2068.457845,-4885.359217,10288.862594
2453.835276,-1991.848295,-3849.070898,12361.439231
2453.835605,-306.438199,-1406.391290,11103.089130
2453.835934,842.705048,518.144159,11695.253884
2453.836264,995.924147,2294.638420,11177.109724
2453.836593,1225.752797,4219.173869,11473.192101
2453.836922,1225.752797,2590.720797,10658.965565
2453.837251,2068.457845,5477.523971,6217.729913
2453.837580,2834.553343,4219.173869,6957.935855
2453.837909,2834.553343,3404.947333,5033.400406
2453.838239,1685.410096,1480.411884,6069.688724
2453.838568,-612.876398,-1554.432478,7772.162391
2453.838897,-919.314598,-4219.173869,8290.306550
2453.839226,-842.705048,-6735.874072,9548.656652
2453.839555,-2068.457845,-5921.647536,8216.285956
2453.839884,-2911.162892,-5329.482782,11473.192101
2453.840214,-3753.867940,-4441.235652,11251.130318
2453.840543,-1685.410096,-2516.700203,13175.665768
2453.840872,-1455.581446,-1258.350101,12879.583391
2453.841201,536.266849,2072.576638,10288.862594
2453.841530,612.876398,4071.132681,8586.388927
2453.841859,-383.047749,3923.091493,10436.903782
2453.842188,1072.533697,3997.112087,10288.862594
2453.842518,2145.067394,5181.441594,6069.688724
2453.842847,3753.867940,4145.153275,6809.894666
2453.843176,2298.286494,2146.597232,3478.967927
2453.843505,1608.800546,222.061783,5995.668130
2453.843834,536.266849,-2368.659014,7031.956449
2453.844163,459.657299,-5329.482782,7624.121203
2453.844493,153.219100,-5699.585753,10214.842000
2453.844822,-229.828649,-4515.256246,9696.697840
2453.845151,-919.314598,-3627.009116,10214.842000
2453.845480,-919.314598,-2664.741391,11917.315666
2453.845809,536.266849,-0.000000,10732.986159
2453.846138,612.876398,1110.308913,12139.377449
2453.846468,2451.505594,3034.844362,11103.089130
2453.846797,2757.943793,5329.482782,7846.182985
2453.847126,3753.867940,4885.359217,8290.306550
2453.847455,2681.334243,6365.771101,5699.585753
2453.847784,2221.676944,4293.194464,6587.832884
2453.848113,842.705048,1258.350101,7105.977043
2453.848442,0.000000,-1110.308913,7105.977043
2453.848772,-1225.752797,-4515.256246,9474.636058
2453.849101,-1149.143247,-5773.606348,7476.080014
2453.849430,-2374.896044,-7105.977043,8808.450710
2453.849759,-3600.648841,-7031.956449,11399.171507
2453.850088,-3447.429741,-4589.276840,11769.274478
2453.850417,-2374.896044,-3182.885551,13323.706956
2453.850747,-1149.143247,-1332.370696,11843.295072
2453.851076,459.657299,1258.350101,10288.862594
2453.851405,0.000000,3256.906145,8660.409521
2453.851734,0.000000,4441.235652,10732.986159
2453.852063,1455.581446,3849.070898,10436.903782
2453.852392,3064.381992,6143.709319,5699.585753
2453.852722,4136.915689,5033.400406,5699.585753
2453.853051,2374.896044,3552.988522,3478.967927
2453.853380,2145.067394,1184.329507,6587.832884
2453.853709,229.828649,-2146.597232,7031.956449
2453.854038,536.266849,-4737.318029,7920.203579
2453.854367,0.000000,-5995.668130,10140.821405
2453.854696,-1149.143247,-4959.379811,8956.491898
2453.855026,-1608.800546,-4885.359217,11251.130318
2453.855355,-1762.019645,-3627.009116,11843.295072
2453.855684,306.438199,-814.226536,11769.274478
2453.856013,536.266849,296.082377,12287.418637
2453.856342,766.095498,3404.947333,11103.089130
2453.856671,612.876398,3849.070898,11325.150913
2453.857001,1302.362347,3552.988522,9918.759623
2453.857330,1991.848295,5477.523971,6291.750507
2453.857659,2374.896044,4219.173869,6587.832884
2453.857988,1915.238745,2886.803174,5255.462188
2453.858317,1762.019645,1110.308913,5995.668130
2453.858646,-229.828649,-1554.432478,7105.977043
2453.858976,-1225.752797,-4589.276840,8364.327145
2453.859305,-612.876398,-6735.874072,8956.491898
2453.859634,-1532.190996,-5255.462188,7994.224174
2453.859963,-2451.505594,-4737.318029,11177.109724
2453.860292,-3064.381992,-3775.050304,10955.047942
2453.860621,-1225.752797,-2220.617826,13693.809927
2453.860950,-1225.752797,-296.082377,11991.336260
2453.861280,0.000000,1924.535449,10362.883188
2453.861609,0.000000,3404.947333,9104.533087
2453.861938,0.000000,4071.132681,9622.677246
2453.862267,-383.047749,3923.091493,10288.862594
2453.862596,1149.143247,3627.009116,8142.265362
2453.862925,2374.896044,2442.679609,6217.729913
2453.863255,2298.286494,296.082377,5107.421000
2453.863584,2145.067394,-518.144159,5329.482782
2453.863913,689.485948,-3034.844362,6513.812290
2453.864242,306.438199,-4737.318029,8068.244768
2453.864571,0.000000,-5033.400406,9770.718434
2453.864900,-153.219100,-4367.215058,10214.842000
2453.865230,-842.705048,-3627.009116,10436.903782
2453.865559,-383.047749,-1998.556043,11991.336260
2453.865888,842.705048,-222.061783,11547.212695
2453.866217,2374.896044,2294.638420,10510.924376
2453.866546,3600.648841,4811.338623,9474.636058
2453.866875,3753.867940,6587.832884,8290.306550
2453.867204,3370.820191,5921.647536,7105.977043
2453.867534,2221.676944,5255.462188,6365.771101
2453.867863,1149.143247,3182.885551,7031.956449
2453.868192,-229.828649,-0.000000,7328.038826
2453.868521,-1991.848295,-2664.741391,8734.430116
2453.868850,-1762.019645,-5255.462188,9770.718434
2453.869179,-2451.505594,-6069.688724,7920.203579
2453.869509,-2911.162892,-6587.832884,10362.883188
2453.869838,-2681.334243,-6069.688724,10955.047942
2453.870167,-2145.067394,-3849.070898,11769.274478
2453.870496,-995.924147,-1702.473667,12139.377449
2453.870825,229.828649,592.164754,10584.944971
2453.871154,306.438199,2368.659014,9326.594869
2453.871484,0.000000,3478.967927,11029.068536
2453.871813,2528.115143,3034.844362,11991.336260
2453.872142,3064.381992,5921.647536,4811.338623
2453.872471,5592.497135,5847.626942,6957.935855
2453.872800,3294.210641,5107.421000,2960.823768
2453.873129,3677.258390,4219.173869,5699.585753
2453.873458,766.095498,444.123565,7031.956449
2453.873788,-229.828649,-2886.803174,6513.812290
2453.874117,-306.438199,-6809.894666,10288.862594
2453.874446,-1455.581446,-5847.626942,9178.553681
2453.874775,-3294.210641,-6809.894666,10436.903782
2453.875104,-3217.601092,-4959.379811,13101.645173
2453.875433,-842.705048,-2738.761985,11103.089130
2453.875763,153.219100,-296.082377,12139.377449
2453.876092,919.314598,2368.659014,11177.109724
2453.876421,229.828649,4293.194464,10140.821405
2453.876750,1149.143247,1628.453072,12953.603985
2453.877079,2145.067394,5551.544565,7772.162391
2453.877408,3294.210641,4885.359217,6365.771101
2453.877738,3447.429741,3849.070898,5551.544565
2453.878067,2757.943793,3108.864956,4589.276840
2453.878396,1608.800546,222.061783,7402.059420
2453.878725,-842.705048,-2220.617826,6883.915261
2453.879054,-995.924147,-6143.709319,8660.409521
2453.879383,-1991.848295,-7254.018232,9992.780217
2453.879712,-2834.553343,-4219.173869,8512.368333
2453.880042,-3294.210641,-4959.379811,11251.130318
2453.880371,-3447.429741,-3478.967927,11917.315666
2453.880700,-1225.752797,-1110.308913,13101.645173
2453.881029,-919.314598,1036.288319,11325.150913
2453.881358,689.485948,3552.988522,8956.491898
2453.881687,153.219100,3552.988522,9178.553681
2453.882017,0.000000,3923.091493,10658.965565
2453.882346,1072.533697,3923.091493,10288.862594
2453.882675,2145.067394,3775.050304,5403.503377
2453.883004,4290.134789,1998.556043,6143.709319
2453.883333,2911.162892,666.185348,3997.112087
2453.883662,2451.505594,-1036.288319,5921.647536
2453.883992,612.876398,-3552.988522,7402.059420
2453.884321,536.266849,-5181.441594,8734.430116
2453.884650,-383.047749,-4441.235652,10510.924376
2453.884979,-919.314598,-3997.112087,10214.842000
2453.885308,-1532.190996,-3775.050304,11843.295072
2453.885637,-1225.752797,-2368.659014,12509.480420
2453.885966,919.314598,-148.041188,11695.253884
2453.886296,1685.410096,2146.597232,10584.944971
2453.886625,3217.601092,4515.256246,9474.636058
2453.886954,3370.820191,5847.626942,7994.224174
2453.887283,2834.553343,5107.421000,7105.977043
2453.887612,1455.581446,4663.297435,6587.832884
2453.887941,766.095498,2294.638420,6513.812290
2453.888271,0.000000,-518.144159,7254.018232
2453.888600,-1149.143247,-2738.761985,8290.306550
2453.888929,-1532.190996,-5995.668130,9770.718434
2453.889258,-1762.019645,-6661.853478,8956.491898
2453.889587,-1762.019645,-5995.668130,9844.739029
2453.889916,-1915.238745,-4663.297435,10214.842000
2453.890246,-1608.800546,-2368.659014,11103.089130
2453.890575,-995.924147,-592.164754,11769.274478
2453.890904,153.219100,740.205942,11399.171507
2453.891233,-536.266849,2738.761985,9474.636058
2453.891562,0.000000,3552.988522,10807.006753
2453.891891,842.705048,2960.823768,10362.883188
2453.892220,1991.848295,4737.318029,6661.853478
2453.892550,3753.867940,4737.318029,6439.791695
2453.892879,2681.334243,3775.050304,4441.235652
2453.893208,2068.457845,2146.597232,6365.771101
2453.893537,383.047749,-444.123565,7105.977043
2453.893866,383.047749,-2812.782580,7105.977043
2453.894195,-306.438199,-5033.400406,9030.512492
2453.894524,-1455.581446,-5403.503377,10584.944971
2453.894853,-2145.067394,-4959.379811,10881.027347
2453.895182,-1915.238745,-4145.153275,11917.315666
2453.895512,-229.828649,-1850.514855,11399.171507
2453.895841,689.485948,-0.000000,12139.377449
2453.896170,1455.581446,1554.432478,12879.583391
2453.896499,2451.505594,3775.050304,10584.944971
2453.896828,3217.601092,4367.215058,8808.450710
2453.897157,3294.210641,5403.503377,7328.038826
2453.897486,2987.772442,5995.668130,5699.585753
2453.897815,2681.334243,3478.967927,7179.997637
2453.898144,919.314598,1850.514855,6291.750507
2453.898473,-612.876398,-1184.329507,7254.018232
2453.898802,-1762.019645,-4959.379811,9326.594869
2453.899131,-1915.238745,-5847.626942,8660.409521
2453.899461,-2451.505594,-6217.729913,9104.533087
2453.899790,-2987.772442,-5255.462188,11547.212695
2453.900119,-3677.258390,-3997.112087,11103.089130
2453.900448,-2145.067394,-1702.473667,13323.706956
2453.900777,-1532.190996,-74.020594,11695.253884
2453.901106,153.219100,1776.494261,10510.924376
2453.901435,842.705048,3182.885551,9474.636058
2453.901764,0.000000,5033.400406,8660.409521
2453.902093,1225.752797,2516.700203,11769.274478
2453.902422,2911.162892,3923.091493,5773.606348
2453.902751,5056.230287,4293.194464,5329.482782
2453.903081,3600.648841,2368.659014,3849.070898
2453.903410,3524.039291,1332.370696,4367.215058
2453.903739,1685.410096,-1332.370696,7254.018232
2453.904068,536.266849,-3923.091493,7254.018232
2453.904397,76.609550,-4737.318029,9474.636058
2453.904726,-1378.971896,-5329.482782,10955.047942
2453.905055,-1378.971896,-4663.297435,9770.718434
2453.905384,-2145.067394,-3182.885551,12287.418637
2453.905713,0.000000,-1554.432478,11547.212695
2453.906042,0.000000,1110.308913,10955.047942
2453.906371,153.219100,1850.514855,12287.418637
2453.906700,1685.410096,4441.235652,10140.821405
2453.907030,2221.676944,4145.153275,7328.038826
2453.907359,2298.286494,3404.947333,7254.018232
2453.907688,1532.190996,4145.153275,5403.503377
2453.908017,1302.362347,1258.350101,7031.956449
2453.908346,0.000000,-74.020594,6735.874072
2453.908675,-306.438199,-3108.864956,7328.038826
2453.909004,-1532.190996,-5699.585753,9474.636058
2453.909333,-1455.581446,-6365.771101,8216.285956
2453.909662,-1532.190996,-5625.565159,10066.800811
2453.909991,-2451.505594,-4367.215058,11177.109724
2453.910320,-1991.848295,-2368.659014,11399.171507
2453.910650,-1608.800546,-1184.329507,12731.542202
2453.910979,-383.047749,666.185348,11473.192101
2453.911308,-306.438199,2886.803174,9548.656652
2453.911637,0.000000,2812.782580,10288.862594
2453.911966,-153.219100,3997.112087,9326.594869
2453.912295,1378.971896,4219.173869,8660.409521
2453.912624,2604.724693,4737.318029,5551.544565
2453.912953,2911.162892,3627.009116,4885.359217
2453.913282,1838.629195,1480.411884,5033.400406
2453.913611,1378.971896,-666.185348,5995.668130
2453.913940,0.000000,-3552.988522,7031.956449
2453.914269,-306.438199,-4663.297435,8956.491898
2453.914599,-459.657299,-5329.482782,10658.965565
2453.914928,-1302.362347,-4071.132681,10288.862594
2453.915257,-766.095498,-3256.906145,11547.212695
2453.915586,-306.438199,-1406.391290,11769.274478
2453.915915,1072.533697,-0.000000,12139.377449
2453.916244,2681.334243,2220.617826,11917.315666
2453.916573,3677.258390,4663.297435,8734.430116
2453.916902,4136.915689,5255.462188,8586.388927
2453.917231,3217.601092,5995.668130,6661.853478
2453.917560,2834.553343,5477.523971,6587.832884
2453.917889,1455.581446,2960.823768,6365.771101
2453.918219,153.219100,518.144159,6587.832884
2453.918548,-2068.457845,-2664.741391,8882.471304
2453.918877,-1608.800546,-4811.338623,9992.780217
2453.919206,-2528.115143,-6069.688724,7179.997637
2453.919535,-3370.820191,-6957.935855,11251.130318
2453.919864,-3753.867940,-5847.626942,10955.047942
2453.920193,-2911.162892,-3256.906145,12731.542202
2453.920522,-2604.724693,-2590.720797,13545.768739
2453.920851,-689.485948,-74.020594,10807.006753
2453.921180,536.266849,1406.391290,10584.944971
2453.921509,0.000000,4515.256246,8438.347739
2453.921838,766.095498,2960.823768,11917.315666
2453.922168,3294.210641,3701.029710,8290.306550
2453.922497,5745.716235,5921.647536,3701.029710
2453.922826,4443.353888,4663.297435,4811.338623
2453.923155,2987.772442,3849.070898,3330.926739
2453.923484,3907.087040,1406.391290,6069.688724
2453.923813,1532.190996,-2220.617826,5995.668130
2453.924142,306.438199,-4885.359217,8068.244768
2453.924471,-1378.971896,-5255.462188,11029.068536
2453.924800,-1685.410096,-7031.956449,10362.883188
2453.925129,-2528.115143,-4589.276840,11399.171507
2453.925458,-689.485948,-3478.967927,11621.233289
2453.925788,0.000000,-814.226536,11177.109724
2453.926117,76.609550,962.267725,12953.603985
2453.926446,766.095498,3775.050304,10881.027347
2453.926775,383.047749,4219.173869,10140.821405
2453.927104,1991.848295,3182.885551,10881.027347
2453.927433,1915.238745,5699.585753,4959.379811
2453.927762,2987.772442,3182.885551,7328.038826
2453.928091,1532.190996,1924.535449,5107.421000
2453.928420,1762.019645,-0.000000,6513.812290
2453.928749,-536.266849,-2368.659014,7772.162391
2453.929078,-1455.581446,-5403.503377,7994.224174
2453.929408,-536.266849,-7550.100608,9992.780217
2453.929737,-2221.676944,-5255.462188,9474.636058
2453.930066,-2528.115143,-4367.215058,10807.006753
2453.930395,-3524.039291,-3108.864956,11621.233289
2453.930724,-689.485948,-1628.453072,13323.706956
2453.931053,-919.314598,1184.329507,11621.233289
2453.931382,153.219100,3552.988522,9400.615463
2453.931711,0.000000,3478.967927,9844.739029
2453.932040,-383.047749,3330.926739,9252.574275
2453.932369,0.000000,4219.173869,9104.533087
2453.932698,1072.533697,4071.132681,7328.038826
2453.933027,2298.286494,2220.617826,5181.441594
2453.933357,2374.896044,592.164754,5773.606348
2453.933686,1608.800546,-1332.370696,5181.441594
2453.934015,612.876398,-3404.947333,6661.853478
2453.934344,76.609550,-5403.503377,8586.388927
2453.934673,0.000000,-4219.173869,9400.615463
2453.935002,-306.438199,-3923.091493,10436.903782
2453.935331,-536.266849,-2516.700203,11251.130318
2453.935660,229.828649,-1850.514855,12213.398043
2453.935989,1608.800546,444.123565,11473.192101
2453.936318,3370.820191,3256.906145,9918.759623
2453.936647,3524.039291,4737.318029,9104.533087
2453.936977,3753.867940,6217.729913,8364.327145
2453.937306,3064.381992,6439.791695,7105.977043
2453.937635,1762.019645,4663.297435,6513.812290
2453.937964,1072.533697,2960.823768,6661.853478
2453.938293,-306.438199,-222.061783,7550.100608
2453.938622,-1302.362347,-3775.050304,8512.368333
2453.938951,-1608.800546,-5255.462188,9844.739029
2453.939280,-2298.286494,-6217.729913,7920.203579
2453.939609,-2068.457845,-6291.750507,10584.944971
2453.939938,-2911.162892,-5477.523971,11399.171507
2453.940267,-2145.067394,-3552.988522,11621.233289
2453.940596,-2221.676944,-1480.411884,13693.809927
2453.940926,-919.314598,-370.102971,11991.336260
2453.941255,76.609550,1480.411884,11399.171507
2453.941584,-536.266849,3997.112087,9770.718434
2453.941913,-459.657299,3701.029710,10955.047942
2453.942242,1838.629195,3182.885551,10881.027347
2453.942571,3830.477490,4737.318029,5107.421000
2453.942900,4366.744339,4737.318029,4885.359217
2453.943229,3064.381992,2368.659014,4219.173869
2453.943558,3064.381992,1258.350101,5921.647536
2453.943887,1378.971896,-2072.576638,6439.791695
2453.944216,1072.533697,-4071.132681,6957.935855
2453.944546,-306.438199,-5033.400406,9326.594869
2453.944875,-1072.533697,-6365.771101,11251.130318
2453.945204,-1915.238745,-4441.235652,10955.047942
2453.945533,-919.314598,-2886.803174,11843.295072
2453.945862,0.000000,-962.267725,10807.006753
2453.946191,383.047749,1776.494261,11251.130318
2453.946520,995.924147,3775.050304,12139.377449
2453.946849,1302.362347,4811.338623,9474.636058
2453.947178,2528.115143,4589.276840,7624.121203
2453.947507,2374.896044,4145.153275,6587.832884
2453.947836,2145.067394,3404.947333,5773.606348
2453.948165,1149.143247,666.185348,7105.977043
2453.948495,-153.219100,-962.267725,6513.812290
2453.948824,-612.876398,-3552.988522,8068.244768
2453.949153,-1762.019645,-6661.853478,9400.615463
2453.949482,-1838.629195,-6069.688724,7994.224174
2453.949811,-1762.019645,-6735.874072,10732.986159
2453.950140,-2757.943793,-4219.173869,10807.006753
2453.950469,-2221.676944,-2368.659014,11547.212695
2453.950798,-1149.143247,-1184.329507,12731.542202
2453.951127,-229.828649,1406.391290,10881.027347
2453.951456,0.000000,3552.988522,9400.615463
2453.951785,0.000000,4071.132681,10362.883188
2453.952115,-153.219100,3182.885551,10584.944971
2453.952444,919.314598,3701.029710,8660.409521
2453.952773,2451.505594,4737.318029,5403.503377
2453.953102,2374.896044,2516.700203,5403.503377
2453.953431,1532.190996,814.226536,5181.441594
2453.953760,1149.143247,-1258.350101,7105.977043
2453.954089,0.000000,-4219.173869,7846.182985
2453.954418,153.219100,-5107.421000,9030.512492
2453.954747,-1225.752797,-4663.297435,10955.047942
2453.955076,-842.705048,-4219.173869,10436.903782
2453.955405,-766.095498,-2516.700203,11917.315666
2453.955734,0.000000,-888.247130,11547.212695
2453.956064,1455.581446,592.164754,11695.253884
2453.956393,2681.334243,3923.091493,11251.130318
2453.956722,4136.915689,5921.647536,9326.594869
2453.957051,3753.867940,5847.626942,7328.038826
2453.957380,2834.553343,6217.729913,7328.038826
2453.957709,2451.505594,4959.379811,6365.771101
2453.958038,1149.143247,2072.576638,6587.832884
2453.958367,0.000000,-296.082377,7328.038826
2453.958696,-1225.752797,-3182.885551,8734.430116
2453.959025,-1302.362347,-4811.338623,9844.739029
2453.959354,-2298.286494,-6513.812290,8290.306550
2453.959684,-2528.115143,-6587.832884,10955.047942
2453.960013,-2987.772442,-4959.379811,11547.212695
2453.960342,-2757.943793,-2738.761985,12361.439231
2453.960671,-1838.629195,-1628.453072,12583.501014
2453.961000,-612.876398,370.102971,11177.109724
2453.961329,459.657299,2294.638420,9992.780217
2453.961658,-383.047749,3849.070898,9474.636058
2453.961987,919.314598,2590.720797,12509.480420
2453.962316,2298.286494,4145.153275,7476.080014
2453.962645,5132.839837,5329.482782,5625.565159
2453.962974,3600.648841,3627.009116,3849.070898
2453.963303,2987.772442,2442.679609,4219.173869
2453.963633,1838.629195,-1406.391290,7179.997637
2453.963962,536.266849,-3404.947333,6661.853478
2453.964291,459.657299,-5403.503377,8586.388927
2453.964620,-689.485948,-5773.606348,10658.965565
2453.964949,-1455.581446,-5181.441594,9252.574275
2453.965278,-1378.971896,-3849.070898,12361.439231
2453.965607,-229.828649,-1998.556043,10881.027347
2453.965936,459.657299,518.144159,11251.130318
2453.966265,306.438199,1554.432478,12361.439231
2453.966594,612.876398,4367.215058,10955.047942
2453.966923,1378.971896,3849.070898,9770.718434
2453.967253,1915.238745,4811.338623,7328.038826
2453.967582,1838.629195,4737.318029,5847.626942
2453.967911,1302.362347,2220.617826,5551.544565
2453.968240,1225.752797,888.247130,6513.812290
2453.968569,76.609550,-888.247130,6661.853478
2453.968898,-612.876398,-4145.153275,7772.162391
2453.969227,-1072.533697,-6143.709319,8438.347739
2453.969556,-2221.676944,-6069.688724,7476.080014
2453.969885,-2068.457845,-5699.585753,11473.192101
2453.970214,-3140.991542,-3849.070898,10288.862594
2453.970543,-1608.800546,-2812.782580,12879.583391
2453.970873,-1302.362347,-666.185348,12287.418637
2453.971202,383.047749,2146.597232,10362.883188
2453.971531,-229.828649,3256.906145,9844.739029
2453.971860,-153.219100,3775.050304,9770.718434
2453.972189,536.266849,3701.029710,10955.047942
2453.972518,1608.800546,4589.276840,7105.977043
2453.972847,3140.991542,4219.173869,5699.585753
2453.973176,1991.848295,1554.432478,4811.338623
2453.973505,1455.581446,-74.020594,5773.606348
2453.973834,536.266849,-2368.659014,8068.244768
2453.974163,0.000000,-5403.503377,8586.388927
2453.974492,0.000000,-4811.338623,9326.594869
2453.974822,-689.485948,-4885.359217,10955.047942
2453.975151,-1225.752797,-3849.070898,10362.883188
2453.975480,-919.314598,-2664.741391,12361.439231
2453.975809,766.095498,-888.247130,11843.295072
2453.976138,2145.067394,1480.411884,12435.459826
2453.976467,3370.820191,4145.153275,10881.027347
2453.976796,4136.915689,5773.606348,8882.471304
2453.977125,3677.258390,6069.688724,7402.059420
2453.977454,3447.429741,6069.688724,6439.791695
2453.977783,2451.505594,4589.276840,6143.709319
2453.978112,1838.629195,2146.597232,6587.832884
2453.978442,689.485948,-666.185348,7031.956449
2453.978771,-1762.019645,-3849.070898,8660.409521
2453.979100,-1532.190996,-6143.709319,9104.533087
2453.979429,-3064.381992,-6587.832884,7920.203579
2453.979758,-2911.162892,-7254.018232,12213.398043
2453.980087,-3983.696590,-5107.421000,11177.109724
2453.980416,-2298.286494,-3108.864956,13175.665768
2453.980745,-1915.238745,-1850.514855,12213.398043
2453.981074,-306.438199,666.185348,11177.109724
2453.981403,689.485948,3552.988522,9474.636058
2453.981732,229.828649,5403.503377,8438.347739
2453.982061,2834.553343,3330.926739,11991.336260
2453.982391,3524.039291,5699.585753,3997.112087
2453.982720,6818.249932,5403.503377,5995.668130
2453.983049,3370.820191,4219.173869,3034.844362
2453.983378,4366.744339,1850.514855,4515.256246
2453.983707,459.657299,-2072.576638,7031.956449
2453.984036,-153.219100,-4441.235652,7031.956449
2453.984365,-1072.533697,-6365.771101,10140.821405
2453.984694,-1991.848295,-6143.709319,10584.944971
2453.985023,-2451.505594,-5477.523971,10584.944971
2453.985352,-2528.115143,-4219.173869,13619.789333
2453.985681,0.000000,-1628.453072,11029.068536
2453.986011,229.828649,740.205942,11695.253884
2453.986340,842.705048,3256.906145,11325.150913
2453.986669,1378.971896,5107.421000,11251.130318
2453.986998,2068.457845,3627.009116,9252.574275
2453.987327,3830.477490,5921.647536,6513.812290
2453.987656,3524.039291,4441.235652,5699.585753
2453.987985,2298.286494,2516.700203,5329.482782
2453.988314,995.924147,370.102971,6735.874072
2453.988643,-766.095498,-1924.535449,7550.100608
2453.988972,-1685.410096,-4959.379811,8660.409521
2453.989301,-2298.286494,-6957.935855,9400.615463
2453.989630,-3217.601092,-7105.977043,8438.347739
2453.989960,-3677.258390,-5551.544565,11917.315666
2453.990289,-3447.429741,-3775.050304,11103.089130
2453.990618,-1685.410096,-1998.556043,12879.583391
2453.990947,-766.095498,148.041188,11917.315666
2453.991276,536.266849,3701.029710,8882.471304
2453.991605,0.000000,4071.132681,9178.553681
2453.991933,1302.362347,3256.906145,11473.192101
2453.992262,1838.629195,4589.276840,7254.018232
2453.992591,3600.648841,5551.544565,5477.523971
2453.992920,3447.429741,3627.009116,4737.318029
2453.993249,2451.505594,1332.370696,5625.565159
2453.993578,1225.752797,-1036.288319,7254.018232
2453.993907,-612.876398,-3627.009116,6365.771101
2453.994236,0.000000,-6587.832884,9400.615463
2453.994565,-842.705048,-5625.565159,11473.192101
2453.994894,-1532.190996,-4589.276840,10288.862594
2453.995224,-1378.971896,-3997.112087,12805.562797
2453.995553,-536.266849,-2220.617826,11769.274478
2453.995882,536.266849,-0.000000,11547.212695
2453.996211,2221.676944,1628.453072,13323.706956
2453.996540,2757.943793,5181.441594,8512.368333
2453.996869,3983.696590,4885.359217,8808.450710
2453.997198,3983.696590,5625.565159,6809.894666
2453.997527,3907.087040,6439.791695,5477.523971
2453.997856,2528.115143,3182.885551,6957.935855
2453.998185,1302.362347,1702.473667,6291.750507
2453.998514,-459.657299,-1406.391290,7550.100608
2453.998843,-2757.943793,-4441.235652,9178.553681
2453.999172,-2757.943793,-7031.956449,9474.636058
2453.999501,-3064.381992,-7254.018232,9474.636058
2453.999830,-3447.429741,-5255.462188,11695.253884
2454.000160,-4290.134789,-3627.009116,11769.274478
2454.000489,-2451.505594,-2220.617826,13027.624579
2454.000818,-995.924147,148.041188,11991.336260
2454.001147,1072.533697,1776.494261,9918.759623
2454.001476,383.047749,3997.112087,8364.327145
2454.001805,842.705048,3182.885551,11991.336260
2454.002134,2987.772442,3552.988522,8142.265362
2454.002463,4749.792088,5699.585753,5033.400406
2454.002792,4673.182538,4071.132681,4367.215058
2454.003121,2681.334243,2590.720797,3256.906145
2454.003450,3370.820191,814.226536,6809.894666
2454.003779,1072.533697,-1776.494261,6069.688724
2454.004108,689.485948,-5255.462188,7624.121203
2454.004437,-1378.971896,-5551.544565,10584.944971
2454.004767,-2068.457845,-4885.359217,9992.780217
2454.005096,-2681.334243,-4737.318029,11843.295072
2454.005425,-2145.067394,-2812.782580,12361.439231
2454.005754,76.609550,-1258.350101,11547.212695
2454.006083,0.000000,1480.411884,11843.295072
2454.006412,0.000000,4219.173869,10732.986159
2454.006741,306.438199,3256.906145,10881.027347
2454.007070,1991.848295,3552.988522,9252.574275
2454.007399,2451.505594,5403.503377,6143.709319
2454.007728,1991.848295,2516.700203,6143.709319
2454.008057,1378.971896,1406.391290,6217.729913
2454.008386,1302.362347,-888.247130,7105.977043
2454.008715,-383.047749,-2146.597232,7402.059420
2454.009044,-1455.581446,-5181.441594,8512.368333
2454.009373,-2068.457845,-6513.812290,9770.718434
2454.009703,-2528.115143,-4959.379811,9992.780217
2454.010032,-2604.724693,-3923.091493,11621.233289
2454.010361,-2681.334243,-3108.864956,10955.047942
2454.010690,-1072.533697,-1628.453072,12213.398043
2454.011019,-536.266849,962.267725,11547.212695
2454.011348,0.000000,3330.926739,9252.574275
2454.011677,-153.219100,3256.906145,9770.718434
2454.012006,0.000000,3627.009116,9474.636058
2454.012335,1072.533697,4071.132681,8586.388927
2454.012664,1991.848295,3552.988522,5403.503377
2454.012993,2681.334243,1702.473667,5847.626942
2454.013322,1685.410096,222.061783,5625.565159
2454.013651,1608.800546,-1480.411884,6365.771101
2454.013980,306.438199,-3627.009116,6957.935855
2454.014309,153.219100,-4959.379811,8438.347739
2454.014639,0.000000,-4367.215058,10066.800811
2454.014968,-995.924147,-3627.009116,10510.924376
2454.015297,-919.314598,-2812.782580,11769.274478
2454.015626,459.657299,-1702.473667,12139.377449
2454.015955,2374.896044,814.226536,10881.027347
2454.016284,3753.867940,3108.864956,9622.677246
2454.016613,4443.353888,4885.359217,8734.430116
2454.016942,4213.525239,5921.647536,7920.203579
2454.017271,3524.039291,5477.523971,7105.977043
2454.017600,2528.115143,4959.379811,6069.688724
2454.017929,1685.410096,1628.453072,6735.874072
2454.018258,0.000000,-962.267725,7846.182985
2454.018587,-1838.629195,-3330.926739,8586.388927
2454.018916,-2221.676944,-5995.668130,10288.862594
2454.019245,-2987.772442,-6439.791695,8216.285956
2454.019575,-2528.115143,-5847.626942,10881.027347
2454.019904,-3064.381992,-4515.256246,11177.109724
2454.020233,-1608.800546,-2294.638420,12287.418637
2454.020562,-1378.971896,-1480.411884,12953.603985
2454.020891,0.000000,296.082377,11325.150913
2454.021220,459.657299,2516.700203,9918.759623
2454.021549,-229.828649,3923.091493,10436.903782
2454.021878,612.876398,1998.556043,12139.377449
2454.022207,2681.334243,3997.112087,7031.956449
2454.022536,5898.935335,5107.421000,5477.523971
2454.022865,4366.744339,3849.070898,3552.988522
2454.023194,3907.087040,2886.803174,5033.400406
2454.023523,2681.334243,222.061783,7031.956449
2454.023852,1302.362347,-2516.700203,5921.647536
2454.024182,383.047749,-4589.276840,8290.306550
2454.024511,-1762.019645,-5033.400406,9992.780217
2454.024840,-1915.238745,-5625.565159,11103.089130
2454.025169,-2298.286494,-4219.173869,11325.150913
2454.025498,-383.047749,-2812.782580,11621.233289
2454.025827,229.828649,-1036.288319,11473.192101
2454.026156,536.266849,2294.638420,11917.315666
2454.026485,0.000000,4071.132681,10881.027347
2454.026814,1302.362347,2886.803174,10436.903782
2454.027143,2451.505594,4515.256246,7402.059420
2454.027472,2911.162892,4663.297435,6513.812290
2454.027801,1991.848295,2442.679609,5181.441594
2454.028130,1455.581446,1406.391290,6291.750507
2454.028459,766.095498,-962.267725,6661.853478
2454.028788,-995.924147,-3108.864956,7328.038826
2454.029118,-1915.238745,-6365.771101,9622.677246
2454.029447,-2145.067394,-6439.791695,9400.615463
2454.029776,-2068.457845,-5181.441594,9696.697840
2454.030105,-3064.381992,-4293.194464,11251.130318
2454.030434,-3140.991542,-2886.803174,11843.295072
2454.030763,-1915.238745,-1258.350101,13101.645173
2454.031092,-995.924147,1184.329507,11399.171507
2454.031421,76.609550,3256.906145,9474.636058
2454.031750,-306.438199,2738.761985,9104.533087
2454.032079,-842.705048,3849.070898,9400.615463
2454.032408,0.000000,3478.967927,9474.636058
2454.032737,1302.362347,3182.885551,7328.038826
2454.033066,2221.676944,1702.473667,5033.400406
2454.033395,2145.067394,-148.041188,5033.400406
2454.033724,1225.752797,-1480.411884,5625.565159
2454.034054,842.705048,-3404.947333,7402.059420
2454.034383,536.266849,-4811.338623,8364.327145
2454.034712,689.485948,-3478.967927,9770.718434
2454.035041,-306.438199,-3182.885551,10436.903782
2454.035370,0.000000,-2590.720797,11177.109724
2454.035699,536.266849,-1184.329507,11843.295072
2454.036028,1532.190996,1702.473667,10955.047942
2454.036357,3217.601092,2738.761985,10066.800811
2454.036686,3370.820191,4811.338623,8956.491898
2454.037015,3753.867940,5995.668130,8660.409521
2454.037344,2528.115143,5107.421000,7254.018232
2454.037673,1685.410096,4071.132681,6809.894666
2454.038002,229.828649,1258.350101,7105.977043
2454.038331,-919.314598,-888.247130,7624.121203
2454.038660,-2451.505594,-3849.070898,9104.533087
2454.038990,-1455.581446,-5329.482782,9326.594869
2454.039319,-2145.067394,-5921.647536,8364.327145
2454.039648,-1838.629195,-6365.771101,11177.109724
2454.039977,-2298.286494,-4367.215058,11103.089130
2454.040306,-1149.143247,-2146.597232,11769.274478
2454.040635,-919.314598,-666.185348,11843.295072
2454.040964,0.000000,1480.411884,10955.047942
2454.041293,0.000000,2294.638420,11177.109724
2454.041622,-536.266849,2664.741391,11695.253884
2454.041951,2068.457845,2960.823768,10584.944971
2454.042280,3294.210641,4885.359217,5847.626942
2454.042609,4979.620737,4737.318029,6069.688724
2454.042938,3447.429741,4293.194464,4071.132681
2454.043267,3370.820191,3108.864956,6143.709319
2454.043596,1762.019645,-148.041188,6735.874072
2454.043926,842.705048,-3478.967927,7031.956449
2454.044255,-689.485948,-5329.482782,9326.594869
2454.044584,-1915.238745,-5107.421000,10732.986159
2454.044913,-2451.505594,-5477.523971,10732.986159
2454.045242,-1762.019645,-3404.947333,11843.295072
2454.045571,0.000000,-1924.535449,11473.192101
2454.045900,229.828649,518.144159,12065.356855
2454.046229,383.047749,2738.761985,11843.295072
2454.046558,153.219100,3404.947333,11547.212695
2454.046887,2068.457845,3404.947333,9770.718434
2454.047216,2528.115143,5551.544565,6513.812290
2454.047545,2757.943793,4367.215058,5699.585753
2454.047874,3064.381992,2886.803174,5477.523971
2454.048203,2374.896044,814.226536,5995.668130
2454.048533,842.705048,-1184.329507,6587.832884
2454.048862,-1072.533697,-4441.235652,7179.997637
2454.049191,-1991.848295,-6809.894666,10140.821405
2454.049520,-2757.943793,-6143.709319,8882.471304
2454.049849,-2757.943793,-5181.441594,10362.883188
2454.050178,-3907.087040,-3923.091493,10955.047942
2454.050507,-2145.067394,-2738.761985,12361.439231
2454.050836,-1838.629195,-518.144159,13175.665768
2454.051165,-459.657299,1924.535449,11547.212695
2454.051494,0.000000,3182.885551,9474.636058
2454.051823,-459.657299,3775.050304,9474.636058
2454.052152,-536.266849,4515.256246,9548.656652
2454.052481,459.657299,2220.617826,9400.615463
2454.052810,1532.190996,3034.844362,5625.565159
2454.053139,2911.162892,1480.411884,5847.626942
2454.053469,2068.457845,-518.144159,4959.379811
2454.053798,919.314598,-1850.514855,6439.791695
2454.054127,76.609550,-4145.153275,7994.224174
2454.054456,383.047749,-4737.318029,8808.450710
2454.054785,0.000000,-3775.050304,9992.780217
2454.055114,-536.266849,-3775.050304,10658.965565
2454.055443,-919.314598,-1924.535449,12361.439231
2454.055772,229.828649,-740.205942,12065.356855
2454.056101,2068.457845,1702.473667,10436.903782
2454.056430,3140.991542,3849.070898,10140.821405
2454.056759,3524.039291,5699.585753,9326.594869
2454.057088,3294.210641,6809.894666,7624.121203
2454.057417,2451.505594,5551.544565,7031.956449
2454.057746,1608.800546,3923.091493,6957.935855
2454.058075,612.876398,1776.494261,6735.874072
2454.058405,-383.047749,-1480.411884,7994.224174
2454.058734,-1915.238745,-4145.153275,8660.409521
2454.059063,-1532.190996,-6217.729913,9622.677246
2454.059392,-2451.505594,-6513.812290,8364.327145
2454.059721,-1455.581446,-5773.606348,10881.027347
2454.060050,-1838.629195,-4293.194464,11547.212695
2454.060379,-1302.362347,-1998.556043,12065.356855
2454.060708,-919.314598,-518.144159,12065.356855
2454.061037,0.000000,1480.411884,11251.130318
2454.061366,-153.219100,2738.761985,10658.965565
2454.061695,-766.095498,3182.885551,10881.027347
2454.062024,612.876398,1850.514855,12065.356855
2454.062353,2298.286494,3256.906145,7624.121203
2454.062682,4290.134789,4219.173869,5551.544565
2454.063011,3370.820191,3256.906145,4071.132681
2454.063341,2987.772442,2294.638420,4959.379811
2454.063670,2681.334243,-0.000000,6365.771101
2454.063999,1455.581446,-2590.720797,5995.668130
2454.064328,919.314598,-4441.235652,8290.306550
2454.064657,-1455.581446,-4367.215058,10658.965565
2454.064986,-1838.629195,-5403.503377,11695.253884
2454.065315,-1915.238745,-3849.070898,12213.398043
2454.065644,-459.657299,-1554.432478,11621.233289
2454.065973,306.438199,-74.020594,11769.274478
2454.066302,536.266849,2516.700203,12065.356855
2454.066631,1532.190996,4145.153275,10881.027347
2454.066960,1838.629195,4589.276840,8512.368333
2454.067289,2681.334243,4737.318029,7624.121203
2454.067618,2298.286494,5033.400406,5625.565159
2454.067948,1762.019645,2442.679609,5847.626942
2454.068277,612.876398,370.102971,6069.688724
2454.068606,-459.657299,-2072.576638,6809.894666
2454.068935,-1225.752797,-5033.400406,8512.368333
2454.069264,-2221.676944,-6439.791695,8882.471304
2454.069593,-2145.067394,-6143.709319,8734.430116
2454.069922,-2145.067394,-4737.318029,10362.883188
2454.070251,-2604.724693,-3404.947333,10807.006753
2454.070580,-1915.238745,-1480.411884,12065.356855
2454.070909,-1608.800546,-0.000000,12435.459826
2454.071238,0.000000,1998.556043,10881.027347
2454.071567,612.876398,2146.597232,10140.821405
2454.071896,-766.095498,3923.091493,9252.574275
2454.072225,-995.924147,2960.823768,9548.656652
2454.072554,-689.485948,2738.761985,8512.368333
2454.072884,1685.410096,2146.597232,7328.038826
2454.073213,1378.971896,962.267725,5033.400406
2454.073542,1225.752797,-666.185348,5847.626942
2454.073871,995.924147,-2738.761985,6735.874072
2454.074200,612.876398,-4219.173869,7846.182985
2454.074529,689.485948,-3775.050304,8586.388927
2454.074858,383.047749,-3256.906145,9252.574275
2454.075187,76.609550,-3182.885551,11251.130318
2454.075516,153.219100,-1036.288319,11251.130318
2454.075845,995.924147,-0.000000,11251.130318
2454.076174,2068.457845,1480.411884,11103.089130
2454.076503,2298.286494,3256.906145,10732.986159
2454.076832,3294.210641,5329.482782,9400.615463
2454.077161,2834.553343,5699.585753,8216.285956
2454.077490,2145.067394,4885.359217,7105.977043
2454.077820,1532.190996,3108.864956,6957.935855
2454.078149,383.047749,1184.329507,7105.977043
2454.078478,-612.876398,-1702.473667,8142.265362
2454.078807,-1685.410096,-4663.297435,8660.409521
2454.079136,-1455.581446,-5403.503377,9104.533087
2454.079465,-1685.410096,-5181.441594,8808.450710
2454.079794,-1838.629195,-4885.359217,9844.739029
2454.080123,-2145.067394,-3701.029710,10881.027347
2454.080452,-766.095498,-1850.514855,12065.356855
2454.080781,-306.438199,592.164754,11621.233289
2454.081110,459.657299,1110.308913,10881.027347
2454.081439,0.000000,3034.844362,10362.883188
2454.081768,0.000000,3034.844362,11325.150913
2454.082097,1838.629195,2886.803174,9844.739029
2454.082426,3140.991542,4219.173869,5403.503377
2454.082756,4596.572988,3923.091493,5921.647536
2454.083085,3370.820191,3182.885551,3256.906145
2454.083414,3830.477490,1332.370696,5625.565159
2454.083743,1608.800546,-1110.308913,5847.626942
2454.084072,1532.190996,-3552.988522,7031.956449
2454.084401,-306.438199,-5403.503377,9326.594869
2454.084730,-1608.800546,-4959.379811,10362.883188
2454.085059,-1762.019645,-5403.503377,11769.274478
2454.085388,-1838.629195,-3256.906145,11473.192101
2454.085717,76.609550,-1628.453072,11621.233289
2454.086046,-153.219100,592.164754,11843.295072
2454.086375,536.266849,3034.844362,11695.253884
2454.086704,919.314598,3627.009116,11399.171507
2454.087033,1685.410096,4145.153275,8290.306550
2454.087362,1915.238745,5033.400406,7328.038826
2454.087692,2068.457845,3775.050304,5699.585753
2454.088021,1991.848295,2220.617826,6439.791695
2454.088350,229.828649,-0.000000,6661.853478
2454.088679,-229.828649,-2220.617826,6735.874072
2454.089008,-1608.800546,-5033.400406,8290.306550
2454.089337,-1455.581446,-6217.729913,9400.615463
2454.089666,-2221.676944,-5181.441594,8808.450710
2454.089995,-2528.115143,-4811.338623,11325.150913
2454.090324,-2757.943793,-3256.906145,11029.068536
2454.090653,-1915.238745,-1332.370696,12213.398043
2454.090982,-1072.533697,296.082377,11843.295072
2454.091311,-229.828649,2664.741391,9770.718434
2454.091640,153.219100,3330.926739,9548.656652
2454.091969,-536.266849,3627.009116,9400.615463
2454.092299,-383.047749,3182.885551,9400.615463
2454.092628,0.000000,2368.659014,8364.327145
2454.092957,1455.581446,2294.638420,6291.750507
2454.093286,1532.190996,518.144159,5403.503377
2454.093615,1378.971896,-1332.370696,5625.565159
2454.093944,842.705048,-2886.803174,6809.894666
2454.094273,306.438199,-4293.194464,8512.368333
2454.094602,612.876398,-3997.112087,8808.450710
2454.094931,0.000000,-3478.967927,10140.821405
2454.095260,153.219100,-3182.885551,11325.150913
2454.095590,229.828649,-1110.308913,11695.253884
2454.095919,1149.143247,148.041188,11621.233289
2454.096248,1915.238745,1776.494261,10881.027347
2454.096577,2681.334243,3775.050304,10510.924376
2454.096906,2987.772442,5033.400406,9400.615463
2454.097235,2221.676944,5329.482782,8142.265362
2454.097564,1608.800546,4219.173869,7402.059420
2454.097893,1378.971896,3256.906145,6735.874072
2454.098223,0.000000,888.247130,7105.977043
2454.098552,-919.314598,-1998.556043,8068.244768
2454.098881,-1608.800546,-4737.318029,9104.533087
2454.099210,-1685.410096,-5773.606348,9104.533087
2454.099539,-1685.410096,-5847.626942,8882.471304
2454.099868,-1915.238745,-4885.359217,10881.027347
2454.100197,-1762.019645,-3627.009116,11769.274478
2454.100526,-1149.143247,-1406.391290,12139.377449
2454.100856,-306.438199,222.061783,11621.233289
2454.101185,766.095498,2072.576638,10510.924376
2454.101514,0.000000,3552.988522,9474.636058
2454.101843,0.000000,3182.885551,11843.295072
2454.102172,2374.896044,2960.823768,9326.594869
2454.102501,4519.963438,4441.235652,5181.441594
2454.102830,4749.792088,3775.050304,4441.235652
2454.103159,3600.648841,2960.823768,3923.091493
2454.103489,3524.039291,1480.411884,6661.853478
2454.103818,1455.581446,-1776.494261,5625.565159
2454.104147,1149.143247,-4293.194464,7698.141797
2454.104476,-842.705048,-5773.606348,9696.697840
2454.104805,-2221.676944,-5995.668130,10658.965565
2454.105134,-2298.286494,-4959.379811,12139.377449
2454.105463,-1838.629195,-2368.659014,11621.233289
2454.105793,-306.438199,-1480.411884,11473.192101
2454.106122,0.000000,1184.329507,11843.295072
2454.106451,842.705048,3627.009116,11991.336260
2454.106780,2298.286494,2886.803174,9844.739029
2454.107109,2911.162892,3923.091493,7920.203579
2454.107438,2834.553343,5403.503377,6661.853478
2454.107767,2068.457845,3849.070898,5625.565159
2454.108096,1302.362347,1628.453072,6883.915261
2454.108426,0.000000,-740.205942,6883.915261
2454.108755,-612.876398,-3108.864956,7476.080014
2454.109084,-2451.505594,-6291.750507,9696.697840
2454.109413,-2681.334243,-6809.894666,9400.615463
2454.109742,-3217.601092,-5477.523971,10362.883188
2454.110071,-3294.210641,-4219.173869,10807.006753
2454.110400,-3294.210641,-2516.700203,11399.171507
2454.110729,-1838.629195,-1258.350101,12657.521608
2454.111059,-766.095498,1184.329507,11177.109724
2454.111388,919.314598,3330.926739,9474.636058
2454.111717,459.657299,3478.967927,8586.388927
2454.112046,0.000000,3849.070898,9918.759623
2454.112375,842.705048,3182.885551,8660.409521
2454.112704,2068.457845,4367.215058,5403.503377
2454.113033,2681.334243,2220.617826,5921.647536
2454.113362,1072.533697,-0.000000,5329.482782
2454.113692,1762.019645,-1776.494261,7105.977043
2454.114021,76.609550,-4145.153275,7846.182985
2454.114350,76.609550,-4885.359217,8660.409521
2454.114679,-612.876398,-4589.276840,9992.780217
2454.115008,-1225.752797,-3256.906145,10214.842000
2454.115337,-1149.143247,-2664.741391,11399.171507
2454.115666,306.438199,-1258.350101,11843.295072
2454.115995,2604.724693,518.144159,11103.089130
2454.116325,3294.210641,2738.761985,10510.924376
2454.116654,3677.258390,4663.297435,9178.553681
2454.116983,3447.429741,5329.482782,7920.203579
2454.117312,3140.991542,5107.421000,7772.162391
2454.117641,1991.848295,4885.359217,6291.750507
2454.117970,2145.067394,1850.514855,7254.018232
2454.118299,-383.047749,-222.061783,7698.141797
2454.118628,-1225.752797,-2960.823768,8808.450710
2454.118958,-2068.457845,-5477.523971,10436.903782
2454.119287,-2681.334243,-6513.812290,8956.491898
2454.119616,-2374.896044,-6143.709319,10658.965565
2454.119945,-2451.505594,-4441.235652,11473.192101
2454.120274,-1608.800546,-2442.679609,11695.253884
2454.120603,-919.314598,-1258.350101,11547.212695
2454.120932,229.828649,1258.350101,10881.027347
2454.121262,383.047749,2590.720797,9992.780217
2454.121591,1149.143247,2294.638420,12731.542202
2454.121920,2451.505594,3478.967927,8068.244768
2454.122249,4826.401637,4811.338623,6957.935855
2454.122578,4366.744339,4515.256246,5477.523971
2454.122907,4060.306139,4145.153275,4663.297435
2454.123236,3524.039291,2294.638420,6587.832884
2454.123565,2145.067394,518.144159,4737.318029
2454.123895,995.924147,-3182.885551,7179.997637
2454.124224,-1072.533697,-5255.462188,9252.574275
2454.124553,-1915.238745,-4885.359217,10140.821405
2454.124882,-2298.286494,-6143.709319,12509.480420
2454.125211,-2145.067394,-2368.659014,11325.150913
2454.125540,306.438199,-2590.720797,11547.212695
2454.125869,0.000000,-0.000000,11917.315666
2454.126198,229.828649,2886.803174,11251.130318
2454.126528,1149.143247,2072.576638,11473.192101
2454.126857,2528.115143,3775.050304,9030.512492
2454.127186,3217.601092,5995.668130,7179.997637
2454.127515,2528.115143,4293.194464,5625.565159
2454.127844,2451.505594,3256.906145,5699.585753
2454.128173,1762.019645,1184.329507,6291.750507
2454.128502,383.047749,-740.205942,6957.935855
2454.128831,-1532.190996,-3552.988522,7920.203579
2454.129161,-2221.676944,-6587.832884,10584.944971
2454.129490,-3447.429741,-5995.668130,9474.636058
2454.129819,-3447.429741,-4885.359217,10510.924376
2454.130148,-3677.258390,-3849.070898,11843.295072
2454.130477,-3600.648841,-2516.700203,12509.480420
2454.130806,-2145.067394,-592.164754,13101.645173
2454.131135,-842.705048,1554.432478,10658.965565
2454.131464,536.266849,2738.761985,9252.574275
2454.131794,0.000000,3552.988522,9326.594869
2454.132123,-1225.752797,4219.173869,9622.677246
2454.132452,0.000000,2664.741391,9030.512492
2454.132781,2298.286494,2960.823768,6143.709319
2454.133110,3140.991542,1554.432478,5403.503377
2454.133439,1838.629195,-148.041188,4367.215058
2454.133768,1455.581446,-1702.473667,6587.832884
2454.134098,536.266849,-3627.009116,8364.327145
2454.134427,-612.876398,-4293.194464,9030.512492
2454.134756,76.609550,-3182.885551,10066.800811
2454.135085,-842.705048,-3404.947333,10436.903782
2454.135414,-1225.752797,-2368.659014,11917.315666
2454.135743,76.609550,-518.144159,11621.233289
2454.136072,1915.238745,814.226536,10288.862594
2454.136401,2834.553343,2294.638420,10214.842000
2454.136731,3447.429741,4515.256246,8882.471304
2454.137060,3294.210641,5255.462188,7105.977043
2454.137389,2604.724693,4515.256246,6513.812290
2454.137718,1762.019645,3775.050304,6291.750507
2454.138047,995.924147,1628.453072,6513.812290
2454.138376,-306.438199,-888.247130,7920.203579
2454.138705,-1915.238745,-4219.173869,9104.533087
2454.139034,-1991.848295,-5773.606348,10066.800811
2454.139364,-2298.286494,-6143.709319,9178.553681
2454.139693,-1991.848295,-5773.606348,11325.150913
2454.140022,-2221.676944,-3923.091493,11547.212695
2454.140351,-842.705048,-1924.535449,11547.212695
2454.140680,-612.876398,-296.082377,11917.315666
2454.141009,153.219100,1332.370696,10732.986159
2454.141338,459.657299,1924.535449,10807.006753
2454.141667,1532.190996,1924.535449,12361.439231
2454.141997,2757.943793,3923.091493,6957.935855
2454.142326,4673.182538,4737.318029,7031.956449
2454.142655,4136.915689,4367.215058,4663.297435
2454.142984,3983.696590,4293.194464,5107.421000
2454.143313,3217.601092,1776.494261,6291.750507
2454.143642,1685.410096,-592.164754,5403.503377
2454.143971,383.047749,-4219.173869,8364.327145
2454.144300,-1072.533697,-5181.441594,9474.636058
2454.144630,-1838.629195,-5329.482782,10658.965565
2454.144959,-2451.505594,-5033.400406,11399.171507
2454.145288,-1072.533697,-3108.864956,11769.274478
2454.145617,153.219100,-2220.617826,11769.274478
2454.145946,612.876398,814.226536,11473.192101
2454.146275,1072.533697,2294.638420,11843.295072
2454.146604,2221.676944,2738.761985,10288.862594
2454.146933,3217.601092,5107.421000,7550.100608
2454.147263,3294.210641,6069.688724,6217.729913
2454.147592,2681.334243,4515.256246,5107.421000
2454.147921,2681.334243,3404.947333,6217.729913
2454.148250,1072.533697,666.185348,5329.482782
2454.148579,-1302.362347,-2220.617826,6809.894666
2454.148908,-2221.676944,-5921.647536,10066.800811
2454.149237,-2451.505594,-6291.750507,9178.553681
2454.149567,-3140.991542,-5403.503377,9548.656652
2454.149896,-4136.915689,-4441.235652,11029.068536
2454.150225,-3907.087040,-4219.173869,11917.315666
2454.150554,-2834.553343,-2442.679609,13471.748144
2454.150883,-1378.971896,-0.000000,11769.274478
2454.151212,-306.438199,1776.494261,9770.718434
2454.151541,0.000000,2812.782580,9548.656652
2454.151870,-995.924147,4367.215058,9326.594869
2454.152200,-153.219100,2516.700203,11029.068536
2454.152529,1302.362347,2886.803174,6587.832884
2454.152858,3217.601092,2590.720797,4959.379811
2454.153187,2987.772442,1406.391290,4663.297435
2454.153516,1762.019645,-74.020594,4663.297435
2454.153845,612.876398,-2516.700203,7994.224174
2454.154174,0.000000,-4219.173869,8438.347739
2454.154503,0.000000,-4145.153275,9548.656652
2454.154833,-612.876398,-4293.194464,10881.027347
2454.155162,-1532.190996,-3108.864956,10658.965565
2454.155491,-1302.362347,-2294.638420,12213.398043
2454.155820,0.000000,-740.205942,11399.171507
2454.156149,1532.190996,1110.308913,11621.233289
2454.156478,2681.334243,3182.885551,10362.883188
2454.156807,2987.772442,5699.585753,8586.388927
2454.157136,2451.505594,5107.421000,7328.038826
2454.157466,2911.162892,4737.318029,6439.791695
2454.157795,2068.457845,3478.967927,5995.668130
2454.158124,919.314598,666.185348,7105.977043
2454.158453,-383.047749,-1480.411884,7402.059420
2454.158782,-1532.190996,-3627.009116,9030.512492
2454.159111,-1608.800546,-5625.565159,9622.677246
2454.159440,-2374.896044,-5773.606348,8660.409521
2454.159769,-1532.190996,-5255.462188,11251.130318
2454.160099,-1455.581446,-4145.153275,11029.068536
2454.160428,-995.924147,-1332.370696,11695.253884
2454.160757,-459.657299,-0.000000,11769.274478
2454.161086,-229.828649,1184.329507,10436.903782
2454.161415,-383.047749,2294.638420,11547.212695
2454.161744,995.924147,2294.638420,11843.295072
2454.162073,2068.457845,3701.029710,7550.100608
2454.162403,4443.353888,4219.173869,7254.018232
2454.162732,3600.648841,4219.173869,5033.400406
2454.163061,3370.820191,3849.070898,5107.421000
2454.163390,2757.943793,962.267725,6883.915261
2454.163719,1455.581446,-1184.329507,5921.647536
2454.164048,766.095498,-4811.338623,8290.306550
2454.164377,-1378.971896,-5033.400406,10214.842000
2454.164706,-1225.752797,-5625.565159,10732.986159
2454.165036,-1762.019645,-4441.235652,11547.212695
2454.165365,-612.876398,-2886.803174,11621.233289
2454.165694,0.000000,-1258.350101,11325.150913
2454.166023,306.438199,962.267725,11917.315666
2454.166352,1149.143247,1998.556043,11991.336260
2454.166681,1378.971896,3552.988522,8660.409521
2454.167010,3830.477490,4811.338623,8290.306550
2454.167339,3140.991542,5625.565159,5477.523971
2454.167669,2987.772442,4219.173869,5403.503377
2454.167998,1532.190996,2516.700203,6143.709319
2454.168327,612.876398,222.061783,6069.688724
2454.168656,-1149.143247,-2664.741391,7994.224174
2454.168985,-1532.190996,-5699.585753,9474.636058
2454.169314,-2374.896044,-5847.626942,7550.100608
2454.169643,-3064.381992,-5921.647536,10658.965565
2454.169972,-3370.820191,-4441.235652,11177.109724
2454.170302,-2757.943793,-2886.803174,11769.274478
2454.170631,-2451.505594,-1776.494261,13249.686362
2454.170960,-1225.752797,666.185348,10510.924376
2454.171289,612.876398,1480.411884,10288.862594
2454.171618,-383.047749,3627.009116,8956.491898
2454.171947,-689.485948,3627.009116,10362.883188
2454.172276,0.000000,2812.782580,10066.800811
2454.172605,2681.334243,3478.967927,6883.915261
2454.172935,3140.991542,2738.761985,4885.359217
2454.173264,2681.334243,740.205942,4737.318029
2454.173593,1608.800546,-592.164754,4959.379811
2454.173922,766.095498,-3034.844362,7550.100608
2454.174251,229.828649,-4219.173869,8438.347739
2454.174580,-612.876398,-3923.091493,9474.636058
2454.174909,-1302.362347,-4959.379811,11103.089130
2454.175238,-1532.190996,-3108.864956,11325.150913
2454.175568,-1072.533697,-2294.638420,12435.459826
2454.175897,0.000000,-592.164754,11917.315666
2454.176226,1838.629195,740.205942,11843.295072
2454.176555,2528.115143,4367.215058,10140.821405
2454.176884,3447.429741,5625.565159,8808.450710
2454.177213,2681.334243,5551.544565,7476.080014
2454.177542,2528.115143,4737.318029,6735.874072
2454.177872,2298.286494,4441.235652,6365.771101
2454.178201,1608.800546,1480.411884,6365.771101
2454.178530,0.000000,-1776.494261,7550.100608
2454.178859,-1455.581446,-4441.235652,9030.512492
2454.179188,-1532.190996,-6217.729913,9992.780217
2454.179517,-2451.505594,-5847.626942,8512.368333
2454.179846,-1685.410096,-5551.544565,11177.109724
2454.180175,-1838.629195,-3330.926739,11251.130318
2454.180505,-536.266849,-888.247130,11695.253884
2454.180834,-536.266849,148.041188,12287.418637
2454.181163,0.000000,1628.453072,10510.924376
2454.181492,-153.219100,2886.803174,9918.759623
2454.181821,-306.438199,3330.926739,10658.965565
2454.182150,1455.581446,2886.803174,10066.800811
2454.182479,3064.381992,4441.235652,6217.729913
2454.182808,4826.401637,3923.091493,5847.626942
2454.183138,3524.039291,2960.823768,3775.050304
2454.183467,3983.696590,1332.370696,5181.441594
2454.183796,2298.286494,-814.226536,6069.688724
2454.184125,1378.971896,-3256.906145,7105.977043
2454.184454,0.000000,-4959.379811,9030.512492
2454.184783,-1685.410096,-5181.441594,10732.986159
2454.185112,-1685.410096,-5551.544565,11843.295072
2454.185441,-1302.362347,-3775.050304,11843.295072
2454.185771,612.876398,-2220.617826,11621.233289
2454.186100,0.000000,518.144159,11917.315666
2454.186429,1149.143247,3034.844362,11991.336260
2454.186758,1532.190996,4737.318029,9474.636058
2454.187087,2757.943793,4885.359217,8438.347739
2454.187416,2911.162892,5033.400406,6735.874072
2454.187745,2145.067394,4515.256246,5625.565159
2454.188074,1685.410096,1628.453072,6513.812290
2454.188404,0.000000,-296.082377,6513.812290
2454.188733,-612.876398,-3034.844362,7624.121203
2454.189062,-1608.800546,-5625.565159,9474.636058
2454.189391,-2068.457845,-6513.812290,8956.491898
2454.189720,-2068.457845,-5181.441594,10288.862594
2454.190049,-2145.067394,-4441.235652,10436.903782
2454.190378,-2681.334243,-1998.556043,10955.047942
2454.190708,-1838.629195,-370.102971,13027.624579
2454.191037,-1225.752797,666.185348,11769.274478
2454.191366,76.609550,2590.720797,10362.883188
2454.191695,-536.266849,3849.070898,9474.636058
2454.192024,-766.095498,3478.967927,10362.883188
2454.192353,0.000000,2812.782580,9696.697840
2454.192682,2068.457845,4071.132681,6513.812290
2454.193012,2528.115143,2516.700203,5033.400406
2454.193341,1991.848295,296.082377,5033.400406
2454.193670,1225.752797,-1036.288319,6143.709319
2454.193999,383.047749,-3552.988522,7179.997637
2454.194328,153.219100,-4663.297435,8512.368333
2454.194657,306.438199,-4885.359217,9474.636058
2454.194987,-383.047749,-5255.462188,10955.047942
2454.195316,-995.924147,-3478.967927,11473.192101
2454.195645,-536.266849,-2072.576638,12213.398043
2454.195974,919.314598,-0.000000,11621.233289
2454.196303,2451.505594,2368.659014,10881.027347
2454.196633,2451.505594,4737.318029,9992.780217
2454.196962,3064.381992,6069.688724,8438.347739
2454.197291,2911.162892,5773.606348,7328.038826
2454.197620,1378.971896,5033.400406,6809.894666
2454.197949,1149.143247,3330.926739,6513.812290
2454.198278,-612.876398,-0.000000,7328.038826
2454.198608,-1149.143247,-3108.864956,8068.244768
2454.198937,-1302.362347,-5181.441594,9326.594869
2454.199266,-2145.067394,-5921.647536,8068.244768
2454.199595,-2451.505594,-6809.894666,10066.800811
2454.199924,-2528.115143,-5773.606348,10807.006753
2454.200254,-1915.238745,-2960.823768,11177.109724
2454.200583,-1608.800546,-1406.391290,12139.377449
2454.200912,-536.266849,148.041188,11103.089130
2454.201241,689.485948,2368.659014,10658.965565
2454.201570,-76.609550,3849.070898,10288.862594
2454.201899,0.000000,2442.679609,11917.315666
2454.202229,2604.724693,4145.153275,7920.203579
2454.202558,5362.668486,5847.626942,4885.359217
2454.202887,3830.477490,4219.173869,4737.318029
2454.203216,3294.210641,3478.967927,4071.132681
2454.203545,4060.306139,1480.411884,6439.791695
2454.203875,1072.533697,-1924.535449,5847.626942
2454.204204,1149.143247,-4737.318029,7920.203579
2454.204533,-1072.533697,-4885.359217,9918.759623
2454.204862,-1302.362347,-7105.977043,11103.089130
2454.205191,-2221.676944,-4737.318029,11399.171507
2454.205520,-919.314598,-3034.844362,12657.521608
2454.205850,0.000000,-1554.432478,11547.212695
2454.206179,76.609550,1924.535449,12435.459826
2454.206508,153.219100,3552.988522,11621.233289
2454.206837,1149.143247,3627.009116,10436.903782
2454.207166,2298.286494,5107.421000,8882.471304
2454.207496,2604.724693,5773.606348,6513.812290
2454.207825,2068.457845,3627.009116,5847.626942
2454.208154,1685.410096,2072.576638,6143.709319
2454.208483,766.095498,-666.185348,6735.874072
2454.208812,-919.314598,-2738.761985,8068.244768
2454.209142,-1608.800546,-6143.709319,9474.636058
2454.209471,-1915.238745,-6513.812290,8364.327145
2454.209800,-2145.067394,-5847.626942,10214.842000
2454.210129,-2757.943793,-4441.235652,10584.944971
2454.210458,-3064.381992,-2590.720797,11621.233289
2454.210787,-1991.848295,-1998.556043,13545.768739
2454.211117,-995.924147,888.247130,11103.089130
2454.211446,0.000000,3404.947333,10362.883188
2454.211775,-459.657299,3849.070898,8882.471304
2454.212104,-766.095498,4071.132681,9622.677246
2454.212433,-383.047749,3849.070898,9474.636058
2454.212763,1915.238745,4071.132681,7105.977043
2454.213092,2451.505594,2146.597232,5033.400406
2454.213421,2221.676944,-592.164754,5181.441594
2454.213750,1302.362347,-2220.617826,6217.729913
2454.214079,153.219100,-4145.153275,7402.059420
2454.214408,0.000000,-4811.338623,8438.347739
2454.214738,0.000000,-4441.235652,9548.656652
2454.215067,0.000000,-3997.112087,10584.944971
2454.215396,-383.047749,-2812.782580,10658.965565
2454.215725,383.047749,-1702.473667,12213.398043
2454.216054,1838.629195,518.144159,11399.171507
2454.216384,2987.772442,3034.844362,10140.821405
2454.216713,3524.039291,4959.379811,9104.533087
2454.217042,3447.429741,6069.688724,8142.265362
2454.217371,3217.601092,6069.688724,7476.080014
2454.217700,2145.067394,4367.215058,6735.874072
2454.218029,689.485948,2368.659014,6957.935855
2454.218359,-612.876398,-962.267725,7476.080014
2454.218688,-1532.190996,-3775.050304,9696.697840
2454.219017,-1991.848295,-5477.523971,8734.430116
2454.219346,-2451.505594,-6735.874072,8734.430116
2454.219675,-2757.943793,-7254.018232,10955.047942
2454.220005,-2757.943793,-5329.482782,11843.295072
2454.220334,-2068.457845,-3108.864956,12509.480420
2454.220663,-1225.752797,-1332.370696,12287.418637
2454.220992,0.000000,1406.391290,10807.006753
2454.221321,-536.266849,3182.885551,10362.883188
2454.221651,459.657299,2960.823768,12805.562797
2454.221980,2911.162892,3923.091493,8882.471304
2454.222309,5056.230287,6069.688724,5033.400406
2454.222638,5132.839837,4441.235652,5255.462188
2454.222967,3370.820191,4737.318029,3775.050304
2454.223296,3830.477490,3923.091493,6661.853478
2454.223626,2451.505594,-0.000000,5033.400406
2454.223955,1685.410096,-2442.679609,5773.606348
2454.224284,76.609550,-6143.709319,10732.986159
2454.224613,-1915.238745,-5847.626942,8734.430116
2454.224942,-2834.553343,-7476.080014,13323.706956
2454.225272,-2451.505594,-5181.441594,11843.295072
2454.225601,-536.266849,-2294.638420,11917.315666
2454.225930,-612.876398,-814.226536,12657.521608
2454.226259,536.266849,3182.885551,11399.171507
2454.226588,2221.676944,3775.050304,10732.986159
2454.226917,3983.696590,5033.400406,8290.306550
2454.227247,4903.011187,6957.935855,6883.915261
2454.227576,3600.648841,4885.359217,5847.626942
2454.227905,2987.772442,3478.967927,5847.626942
2454.228234,1762.019645,2072.576638,5773.606348
2454.228563,153.219100,-1628.453072,6661.853478
2454.228893,-2221.676944,-4811.338623,8956.491898
2454.229222,-2298.286494,-7772.162391,10584.944971
2454.229551,-3370.820191,-7772.162391,9918.759623
2454.229880,-3524.039291,-5995.668130,10510.924376
2454.230209,-4213.525239,-5033.400406,11177.109724
2454.230538,-3524.039291,-2368.659014,12435.459826
2454.230868,-2145.067394,-0.000000,12583.501014
2454.231197,-459.657299,2368.659014,9770.718434
2454.231526,612.876398,3997.112087,8512.368333
2454.231855,-766.095498,3701.029710,10732.986159
2454.232184,1455.581446,3775.050304,9030.512492
2454.232514,2604.724693,5477.523971,5403.503377
2454.232843,3447.429741,4145.153275,6365.771101
2454.233172,2528.115143,2368.659014,4071.132681
2454.233501,2068.457845,-518.144159,7624.121203
2454.233830,-306.438199,-3034.844362,7254.018232
2454.234159,-459.657299,-5625.565159,7624.121203
2454.234489,-1532.190996,-6439.791695,10510.924376
2454.234818,-1838.629195,-4367.215058,9252.574275
2454.235147,-1838.629195,-4367.215058,11103.089130
2454.235476,-1762.019645,-2516.700203,11991.336260
2454.235805,459.657299,-740.205942,10732.986159
2454.236135,842.705048,1110.308913,12583.501014
2454.236464,3217.601092,3478.967927,9696.697840
2454.236793,3830.477490,5699.585753,7624.121203
2454.237122,3524.039291,5625.565159,8290.306550
2454.237451,2604.724693,6661.853478,5921.647536
2454.237781,2451.505594,4293.194464,7402.059420
2454.238110,1225.752797,1702.473667,7402.059420
2454.238439,919.314598,-888.247130,7105.977043
2454.238768,-1915.238745,-4367.215058,9252.574275
2454.239097,-2298.286494,-6661.853478,9548.656652
2454.239426,-2681.334243,-7476.080014,9474.636058
2454.239756,-2834.553343,-6143.709319,11621.233289
2454.240085,-2681.334243,-3923.091493,11177.109724
2454.240414,-1378.971896,-1924.535449,11991.336260
2454.240743,-919.314598,-444.123565,11991.336260
2454.241072,306.438199,2072.576638,10066.800811
2454.241402,689.485948,1998.556043,11695.253884
2454.241731,2068.457845,3923.091493,10066.800811
2454.242060,3447.429741,5403.503377,5847.626942
2454.242389,4443.353888,5107.421000,7254.018232
2454.242718,3064.381992,5477.523971,4589.276840
2454.243047,4826.401637,3330.926739,6143.709319
2454.243377,1608.800546,1036.288319,6069.688724
2454.243706,1225.752797,-1850.514855,6365.771101
2454.244035,-459.657299,-6069.688724,9474.636058
2454.244364,-2068.457845,-5625.565159,9622.677246
2454.244693,-2528.115143,-6365.771101,10658.965565
2454.245023,-2221.676944,-5033.400406,11473.192101
2454.245352,-612.876398,-3627.009116,11399.171507
2454.245681,153.219100,-962.267725,12065.356855
2454.246010,766.095498,666.185348,12139.377449
2454.246339,2145.067394,2812.782580,10881.027347
2454.246668,3524.039291,3923.091493,7698.141797
2454.246998,4443.353888,6365.771101,7624.121203
2454.247327,2911.162892,6439.791695,5625.565159
2454.247656,3600.648841,4441.235652,6439.791695
2454.247985,1991.848295,3256.906145,4885.359217
2454.248314,1762.019645,592.164754,5551.544565
2454.248644,-995.924147,-2812.782580,7698.141797
2454.248973,-2451.505594,-5847.626942,9252.574275
2454.249302,-2757.943793,-7105.977043,9992.780217
2454.249631,-3447.429741,-6069.688724,9622.677246
2454.249960,-3983.696590,-5033.400406,11029.068536
2454.250289,-3983.696590,-3775.050304,12583.501014
2454.250619,-1762.019645,-1184.329507,12731.542202
2454.250948,-1378.971896,1258.350101,11029.068536
2454.251277,306.438199,2072.576638,9992.780217
2454.251606,-383.047749,4219.173869,9326.594869
2454.251935,-229.828649,3478.967927,11399.171507
2454.252265,0.000000,3256.906145,8216.285956
2454.252594,2528.115143,4219.173869,6069.688724
2454.252923,3294.210641,2516.700203,5847.626942
2454.253252,1915.238745,1184.329507,4367.215058
2454.253581,1838.629195,-1258.350101,7550.100608
2454.253911,-229.828649,-2960.823768,7105.977043
2454.254240,76.609550,-4811.338623,8882.471304
2454.254569,-1532.190996,-4441.235652,10436.903782
2454.254898,-1685.410096,-4145.153275,10807.006753
2454.255227,-2221.676944,-3923.091493,12213.398043
2454.255556,-919.314598,-1480.411884,11843.295072
2454.255886,1072.533697,148.041188,11251.130318
2454.256215,2298.286494,2072.576638,10584.944971
2454.256544,3753.867940,4885.359217,9030.512492
2454.256873,3600.648841,5847.626942,7846.182985
2454.257202,2911.162892,5181.441594,7402.059420
2454.257532,2451.505594,5699.585753,6069.688724
2454.257861,1685.410096,2294.638420,6809.894666
2454.258190,536.266849,444.123565,7031.956449
2454.258519,-1302.362347,-2590.720797,8142.265362
2454.258848,-1991.848295,-5255.462188,10140.821405
2454.259177,-2298.286494,-7031.956449,9252.574275
2454.259507,-2221.676944,-5995.668130,9622.677246
2454.259836,-2681.334243,-5329.482782,11177.109724
2454.260165,-2757.943793,-2738.761985,11325.150913
2454.260494,-1302.362347,-1110.308913,12213.398043
2454.260823,-383.047749,592.164754,10881.027347
2454.261153,76.609550,2294.638420,9918.759623
2454.261482,229.828649,2146.597232,12065.356855
2454.261811,2145.067394,3552.988522,8512.368333
2454.262140,4366.744339,4219.173869,6439.791695
2454.262469,4060.306139,4589.276840,6069.688724
2454.262798,3217.601092,4071.132681,4219.173869
2454.263128,3140.991542,1776.494261,7105.977043
2454.263457,1608.800546,-666.185348,5773.606348
2454.263786,766.095498,-3034.844362,6809.894666
2454.264115,-1302.362347,-5921.647536,10362.883188
2454.264444,-1991.848295,-5403.503377,10214.842000
2454.264774,-2451.505594,-5921.647536,11547.212695
2454.265103,-1455.581446,-4145.153275,11769.274478
2454.265432,-229.828649,-2368.659014,11103.089130
2454.265761,0.000000,-0.000000,11843.295072
2454.266090,1072.533697,1924.535449,12509.480420
2454.266419,1532.190996,3256.906145,9770.718434
2454.266749,4213.525239,4293.194464,8290.306550
2454.267078,3600.648841,6513.812290,6143.709319
2454.267407,3217.601092,5255.462188,5551.544565
2454.267736,2681.334243,3627.009116,6883.915261
2454.268065,1455.581446,2146.597232,5551.544565
2454.268395,153.219100,-592.164754,6883.915261
2454.268724,-1762.019645,-3997.112087,7994.224174
2454.269053,-2068.457845,-5921.647536,9770.718434
2454.269382,-3370.820191,-6291.750507,8956.491898
2454.269711,-3600.648841,-5033.400406,11399.171507
2454.270041,-4136.915689,-4441.235652,11399.171507
2454.270370,-2604.724693,-2664.741391,13397.727550
2454.270699,-1915.238745,-148.041188,11991.336260
2454.271028,-766.095498,1554.432478,10288.862594
2454.271357,383.047749,3256.906145,9770.718434
2454.271686,-229.828649,3997.112087,10807.006753
2454.272016,1225.752797,3478.967927,10362.883188
2454.272345,2374.896044,5107.421000,5477.523971
2454.272674,4290.134789,3923.091493,6069.688724
2454.273003,2528.115143,2220.617826,4293.194464
2454.273332,2604.724693,962.267725,5995.668130
2454.273662,383.047749,-1554.432478,6661.853478
2454.273991,153.219100,-4441.235652,7994.224174
2454.274320,-766.095498,-4811.338623,10288.862594
2454.274649,-1838.629195,-4959.379811,10584.944971
2454.274978,-2221.676944,-4737.318029,11251.130318
2454.275307,-1762.019645,-2886.803174,12953.603985
2454.275637,0.000000,-1110.308913,11473.192101
2454.275966,76.609550,740.205942,12361.439231
2454.276295,1225.752797,1850.514855,12731.542202
2454.276624,1991.848295,4293.194464,9400.615463
2454.276953,3217.601092,4441.235652,8660.409521
2454.277283,3140.991542,5773.606348,6439.791695
2454.277612,2987.772442,4737.318029,5625.565159
2454.277941,2681.334243,2738.761985,6365.771101
2454.278270,2298.286494,1184.329507,5625.565159
2454.278599,689.485948,-1850.514855,7179.997637
2454.278928,-1991.848295,-4959.379811,8364.327145
2454.279258,-1378.971896,-6957.935855,10214.842000
2454.279587,-2987.772442,-6143.709319,9474.636058
2454.279916,-2298.286494,-4515.256246,11029.068536
2454.280245,-2604.724693,-3330.926739,11325.150913
2454.280574,-1149.143247,-1258.350101,12583.501014
2454.280904,-536.266849,370.102971,11843.295072
2454.281233,-306.438199,2072.576638,9474.636058
2454.281562,0.000000,2812.782580,10955.047942
2454.281891,842.705048,2960.823768,11473.192101
2454.282220,2221.676944,4145.153275,6809.894666
2454.282549,3907.087040,4663.297435,6513.812290
2454.282879,3983.696590,2664.741391,4367.215058
2454.283208,3294.210641,1480.411884,5255.462188
2454.283537,2451.505594,-518.144159,5403.503377
2454.283866,919.314598,-2516.700203,6365.771101
2454.284195,0.000000,-5255.462188,9178.553681
2454.284525,-1762.019645,-5551.544565,10214.842000
2454.284854,-1762.019645,-4811.338623,11103.089130
2454.285183,-1685.410096,-4589.276840,11917.315666
2454.285512,0.000000,-2886.803174,12139.377449
2454.285841,383.047749,-370.102971,11991.336260
2454.286171,1378.971896,1332.370696,12361.439231
2454.286500,2298.286494,3923.091493,9622.677246
2454.286829,3064.381992,4367.215058,8512.368333
2454.287158,3294.210641,5625.565159,7254.018232
2454.287487,2757.943793,5921.647536,5551.544565
2454.287816,2145.067394,2960.823768,6883.915261
2454.288146,919.314598,1554.432478,5995.668130
2454.288475,536.266849,-1406.391290,6809.894666
2454.288804,-2068.457845,-4145.153275,8216.285956
2454.289133,-1991.848295,-6513.812290,9474.636058
2454.289462,-2834.553343,-6217.729913,8660.409521
2454.289792,-2451.505594,-4885.359217,11177.109724
2454.290121,-2757.943793,-3627.009116,11251.130318
2454.290450,-2374.896044,-1998.556043,12435.459826
2454.290779,-1225.752797,-0.000000,12805.562797
2454.291108,0.000000,2368.659014,10288.862594
2454.291437,-153.219100,3552.988522,9326.594869
2454.291767,-459.657299,4071.132681,10362.883188
2454.292096,-229.828649,3330.926739,9844.739029
2454.292425,1838.629195,3701.029710,7624.121203
2454.292754,3064.381992,3775.050304,5255.462188
2454.293083,2834.553343,1702.473667,4663.297435
2454.293413,1838.629195,-0.000000,5107.421000
2454.293742,1455.581446,-1258.350101,6513.812290
2454.294071,0.000000,-4293.194464,7624.121203
2454.294400,-459.657299,-4885.359217,8956.491898
2454.294729,-1072.533697,-5033.400406,10881.027347
2454.295058,-1072.533697,-4071.132681,11695.253884
2454.295388,-1685.410096,-3330.926739,12435.459826
2454.295717,-459.657299,-1184.329507,11917.315666
2454.296046,1608.800546,666.185348,11843.295072
2454.296375,2451.505594,3627.009116,10807.006753
2454.296704,3217.601092,4959.379811,9474.636058
2454.297033,3447.429741,5107.421000,7920.203579
2454.297363,2911.162892,5107.421000,7031.956449
2454.297692,2911.162892,4219.173869,5699.585753
2454.298021,1762.019645,2072.576638,5773.606348
2454.298350,383.047749,-518.144159,6883.915261
2454.298679,-995.924147,-3182.885551,7772.162391
2454.299008,-2068.457845,-6143.709319,9696.697840
2454.299338,-2374.896044,-6809.894666,9252.574275
2454.299667,-1685.410096,-6069.688724,9844.739029
2454.299996,-1762.019645,-4441.235652,11325.150913
2454.300325,-2068.457845,-1850.514855,11547.212695
2454.300654,-1149.143247,-370.102971,12435.459826
2454.300984,-612.876398,1110.308913,11325.150913
2454.301313,0.000000,2960.823768,10362.883188
2454.301642,229.828649,3552.988522,10288.862594
2454.301971,689.485948,2368.659014,11177.109724
2454.302300,1915.238745,3182.885551,7624.121203
2454.302629,3677.258390,4367.215058,5773.606348
2454.302959,3907.087040,2812.782580,4219.173869
2454.303288,3370.820191,1554.432478,4663.297435
2454.303617,2987.772442,222.061783,5847.626942
2454.303946,1455.581446,-1998.556043,5921.647536
2454.304275,842.705048,-5107.421000,8364.327145
2454.304604,-1225.752797,-5181.441594,10510.924376
2454.304934,-2145.067394,-5255.462188,11103.089130
2454.305263,-1762.019645,-4219.173869,12361.439231
2454.305592,-995.924147,-2146.597232,11769.274478
2454.305921,-153.219100,-444.123565,11917.315666
2454.306250,689.485948,2072.576638,12361.439231
2454.306579,1685.410096,4367.215058,10288.862594
2454.306909,2298.286494,4515.256246,9030.512492
2454.307238,2451.505594,5329.482782,7105.977043
2454.307567,2451.505594,5773.606348,6291.750507
2454.307896,1532.190996,2516.700203,6365.771101
2454.308225,383.047749,814.226536,6661.853478
2454.308554,0.000000,-2368.659014,7105.977043
2454.308884,-1378.971896,-4589.276840,8734.430116
2454.309213,-1608.800546,-6439.791695,9844.739029
2454.309542,-2145.067394,-5847.626942,9252.574275
2454.309871,-1915.238745,-4589.276840,10732.986159
2454.310200,-2298.286494,-2664.741391,10881.027347
2454.310529,-1532.190996,-1332.370696,11769.274478
2454.310859,-1608.800546,370.102971,12287.418637
2454.311188,153.219100,1702.473667,10732.986159
2454.311517,-459.657299,3108.864956,10288.862594
2454.311846,-1225.752797,3775.050304,10510.924376
2454.312175,-919.314598,3034.844362,9326.594869
2454.312504,1225.752797,3552.988522,8512.368333
2454.312834,1838.629195,2960.823768,5403.503377
2454.313163,2528.115143,1258.350101,5625.565159
2454.313492,2374.896044,-0.000000,5403.503377
2454.313821,1991.848295,-1776.494261,5699.585753
2454.314150,536.266849,-4071.132681,7772.162391
2454.314479,383.047749,-4293.194464,8142.265362
2454.314809,-536.266849,-4441.235652,9918.759623
2454.315138,-995.924147,-3552.988522,11029.068536
2454.315467,-919.314598,-2368.659014,11769.274478
2454.315796,459.657299,-740.205942,12139.377449
2454.316125,1608.800546,1110.308913,10955.047942
2454.316455,2451.505594,3182.885551,10140.821405
2454.316784,2604.724693,4293.194464,9400.615463
2454.317113,2298.286494,5181.441594,7994.224174
2454.317442,2145.067394,4959.379811,7179.997637
2454.317771,1685.410096,3627.009116,6587.832884
2454.318100,612.876398,1480.411884,7105.977043
2454.318430,-383.047749,-1332.370696,7624.121203
2454.318759,-1608.800546,-3775.050304,8290.306550
2454.319088,-1378.971896,-6217.729913,9918.759623
2454.319417,-1762.019645,-6365.771101,9474.636058
2454.319746,-1532.190996,-5181.441594,10510.924376
2454.320075,-1838.629195,-3849.070898,10881.027347
2454.320405,-1302.362347,-1850.514855,11621.233289
2454.320734,-689.485948,-444.123565,11843.295072
2454.321063,-842.705048,1184.329507,11325.150913
2454.321392,0.000000,2442.679609,11177.109724
2454.321721,-306.438199,2664.741391,11473.192101
2454.322050,1762.019645,3701.029710,8882.471304
2454.322380,2834.553343,5033.400406,6069.688724
2454.322709,3983.696590,4515.256246,5847.626942
2454.323038,3064.381992,4367.215058,4663.297435
2454.323367,3753.867940,1924.535449,6217.729913
2454.323696,2068.457845,-518.144159,5847.626942
2454.324025,1149.143247,-3182.885551,6957.935855
2454.324355,-842.705048,-5847.626942,9474.636058
2454.324684,-1991.848295,-5477.523971,10362.883188
2454.325013,-1915.238745,-5699.585753,11547.212695
2454.325342,-1225.752797,-3923.091493,11177.109724
2454.325671,0.000000,-2294.638420,12213.398043
2454.326000,0.000000,518.144159,12287.418637
2454.326330,1225.752797,2294.638420,12879.583391
2454.326659,1762.019645,3775.050304,10140.821405
2454.326988,3370.820191,4663.297435,8956.491898
2454.327317,3370.820191,5847.626942,6957.935855
2454.327646,2604.724693,5403.503377,5551.544565
2454.327975,2987.772442,3108.864956,5847.626942
2454.328305,1302.362347,1036.288319,5773.606348
2454.328634,919.314598,-1998.556043,6735.874072
2454.328963,-1378.971896,-4737.318029,8216.285956
2454.329292,-1991.848295,-7031.956449,9992.780217
2454.329621,-2604.724693,-6735.874072,9400.615463
2454.329950,-2374.896044,-5551.544565,9992.780217
2454.330280,-2681.334243,-3923.091493,11769.274478
2454.330609,-2451.505594,-2368.659014,12805.562797
2454.330938,-2068.457845,-0.000000,13249.686362
2454.331267,-536.266849,1998.556043,11177.109724
2454.331596,-153.219100,3627.009116,9548.656652
2454.331925,-995.924147,4515.256246,10288.862594
2454.332255,-689.485948,3849.070898,10066.800811
2454.332584,919.314598,2886.803174,9178.553681
2454.332913,2451.505594,2886.803174,6217.729913
2454.333242,3294.210641,1406.391290,4737.318029
2454.333571,2221.676944,-296.082377,4589.276840
2454.333901,1608.800546,-1702.473667,5847.626942
2454.334230,1149.143247,-3627.009116,7179.997637
2454.334559,842.705048,-4515.256246,8512.368333
2454.334888,76.609550,-3997.112087,9622.677246
2454.335217,-306.438199,-3923.091493,11325.150913
2454.335546,-995.924147,-2442.679609,11769.274478
2454.335876,229.828649,-296.082377,11621.233289
2454.336205,1838.629195,1406.391290,11029.068536
2454.336534,2374.896044,3552.988522,10510.924376
2454.336863,2834.553343,5403.503377,9474.636058
2454.337192,2987.772442,5773.606348,7994.224174
2454.337521,1915.238745,5403.503377,6809.894666
2454.337851,1302.362347,3849.070898,5995.668130
2454.338180,612.876398,1036.288319,6957.935855
2454.338509,-689.485948,-2294.638420,7550.100608
2454.338838,-2221.676944,-4811.338623,8882.471304
2454.339167,-1915.238745,-7328.038826,10066.800811
2454.339496,-2451.505594,-7179.997637,9326.594869
2454.339826,-1838.629195,-6143.709319,10732.986159
2454.340155,-1991.848295,-4367.215058,11029.068536
2454.340484,-1378.971896,-1850.514855,11769.274478
2454.340813,-842.705048,148.041188,11917.315666
2454.341142,-383.047749,2294.638420,10510.924376
2454.341471,0.000000,2886.803174,11399.171507
2454.341801,2221.676944,3034.844362,12361.439231
2454.342130,2451.505594,5847.626942,5477.523971
2454.342459,4903.011187,4589.276840,6957.935855
2454.342788,3753.867940,5107.421000,3849.070898
2454.343117,4366.744339,4071.132681,5255.462188
2454.343446,2374.896044,1332.370696,5773.606348
2454.343776,766.095498,-1480.411884,5403.503377
2454.344105,-689.485948,-6291.750507,8734.430116
2454.344434,-2145.067394,-6365.771101,9474.636058
2454.344763,-3217.601092,-7476.080014,11473.192101
2454.345092,-2604.724693,-5255.462188,11473.192101
2454.345421,-766.095498,-3404.947333,11843.295072
2454.345751,-459.657299,-1036.288319,11843.295072
2454.346080,766.095498,2146.597232,11029.068536
2454.346409,1378.971896,2368.659014,12139.377449
2454.346738,2987.772442,3404.947333,8512.368333
2454.347067,4673.182538,7031.956449,7254.018232
2454.347396,3294.210641,5773.606348,5699.585753
2454.347726,3217.601092,4885.359217,5255.462188
2454.348055,2604.724693,3552.988522,5921.647536
2454.348384,1608.800546,-0.000000,5477.523971
2454.348713,-229.828649,-3108.864956,7254.018232
2454.349042,-2374.896044,-6513.812290,9474.636058
2454.349372,-2451.505594,-7772.162391,9918.759623
2454.349701,-3677.258390,-6513.812290,9252.574275
2454.350030,-3600.648841,-4589.276840,11177.109724
2454.350359,-3907.087040,-4071.132681,12953.603985
2454.350688,-2068.457845,-666.185348,13249.686362
2454.351017,-612.876398,1110.308913,11621.233289
2454.351347,229.828649,2960.823768,8586.388927
2454.351676,-153.219100,3997.112087,11325.150913
2454.352005,306.438199,3404.947333,12953.603985
2454.352334,1149.143247,4737.318029,6513.812290
2454.352663,3830.477490,4737.318029,7254.018232
2454.352992,3370.820191,2960.823768,3256.906145
2454.353322,3830.477490,2220.617826,4885.359217
2454.353651,1762.019645,-370.102971,7476.080014
2454.353980,0.000000,-3182.885551,6957.935855
2454.354309,0.000000,-5921.647536,9252.574275
2454.354638,-1608.800546,-5033.400406,10214.842000
2454.354967,-2221.676944,-4737.318029,10955.047942
2454.355297,-2528.115143,-3849.070898,12731.542202
2454.355626,-459.657299,-1332.370696,11917.315666
2454.355955,0.000000,-0.000000,11769.274478
2454.356284,1378.971896,1924.535449,12361.439231
2454.356613,2221.676944,4515.256246,9696.697840
2454.356942,3370.820191,4737.318029,8808.450710
2454.357272,3217.601092,5995.668130,7105.977043
2454.357601,2145.067394,6217.729913,5255.462188
2454.357930,2451.505594,2664.741391,6809.894666
2454.358259,1225.752797,1110.308913,6439.791695
2454.358588,153.219100,-2294.638420,7550.100608
2454.358917,-1838.629195,-4441.235652,7994.224174
2454.359247,-2681.334243,-7402.059420,10140.821405
2454.359576,-3294.210641,-6735.874072,9474.636058
2454.359905,-2604.724693,-5107.421000,11177.109724
2454.360234,-2451.505594,-3478.967927,11473.192101
2454.360563,-1762.019645,-1776.494261,11991.336260
2454.360892,-919.314598,370.102971,11695.253884
2454.361222,-459.657299,2368.659014,9918.759623
2454.361551,0.000000,2886.803174,10658.965565
2454.361880,1225.752797,3034.844362,11769.274478
2454.362209,2068.457845,4441.235652,6513.812290
2454.362538,3830.477490,4441.235652,7105.977043
2454.362867,2911.162892,4071.132681,4441.235652
2454.363197,4060.306139,2516.700203,5403.503377
2454.363526,2221.676944,-370.102971,6217.729913
2454.363855,919.314598,-2368.659014,6069.688724
2454.364184,0.000000,-5773.606348,8882.471304
2454.364513,-1915.238745,-5995.668130,9474.636058
2454.364843,-2451.505594,-5699.585753,11325.150913
2454.365172,-1915.238745,-4441.235652,11769.274478
2454.365501,76.609550,-2664.741391,11843.295072
2454.365830,153.219100,-296.082377,12509.480420
2454.366159,2068.457845,1850.514855,11547.212695
2454.366488,2834.553343,4515.256246,9030.512492
2454.366818,4060.306139,4441.235652,8734.430116
2454.367147,4060.306139,6143.709319,7179.997637
2454.367476,3370.820191,6143.709319,6217.729913
2454.367805,2681.334243,3923.091493,5847.626942
2454.368134,1685.410096,2072.576638,5329.482782
2454.368463,0.000000,-1628.453072,7402.059420
2454.368793,-2068.457845,-4219.173869,7698.141797
2454.369122,-2451.505594,-7105.977043,10436.903782
2454.369451,-3294.210641,-7328.038826,9844.739029
2454.369780,-3370.820191,-5181.441594,11103.089130
2454.370109,-3600.648841,-4959.379811,12287.418637
2454.370438,-3064.381992,-2294.638420,12065.356855
2454.370768,-1685.410096,-296.082377,12657.521608
2454.371097,-459.657299,1776.494261,9992.780217
2454.371426,153.219100,3997.112087,9252.574275
2454.371755,-229.828649,2664.741391,13027.624579
2454.372084,1532.190996,4219.173869,8438.347739
2454.372413,4213.525239,4885.359217,6587.832884
2454.372743,3907.087040,4589.276840,4441.235652
2454.373072,3140.991542,2886.803174,3997.112087
2454.373401,2834.553343,1332.370696,6883.915261
2454.373730,612.876398,-962.267725,5403.503377
2454.374059,536.266849,-4441.235652,8216.285956
2454.374388,-1455.581446,-6143.709319,10288.862594
2454.374718,-2298.286494,-5329.482782,11029.068536
2454.375047,-2757.943793,-5255.462188,12361.439231
2454.375376,-1915.238745,-2886.803174,12509.480420
2454.375705,0.000000,-1776.494261,11769.274478
2454.376034,0.000000,1332.370696,12361.439231
2454.376363,1762.019645,2960.823768,12583.501014
2454.376693,3064.381992,3775.050304,8808.450710
2454.377022,4213.525239,4737.318029,8734.430116
2454.377351,3447.429741,6661.853478,5773.606348
2454.377680,3064.381992,4515.256246,5551.544565
2454.378009,2681.334243,2664.741391,6069.688724
2454.378338,2221.676944,1332.370696,5551.544565
2454.378668,76.609550,-2516.700203,7550.100608
2454.378997,-2221.676944,-5699.585753,8512.368333
2454.379326,-2451.505594,-7624.121203,11029.068536
2454.379655,-3217.601092,-5921.647536,9844.739029
2454.379984,-2757.943793,-4219.173869,11399.171507
2454.380313,-3064.381992,-3182.885551,11843.295072
2454.380643,-1225.752797,-962.267725,12805.562797
2454.380972,0.000000,1258.350101,11399.171507
2454.381301,0.000000,2368.659014,9770.718434
2454.381630,-229.828649,2812.782580,10362.883188
2454.381959,1455.581446,2960.823768,11769.274478
2454.382289,2068.457845,4663.297435,5699.585753
2454.382618,4060.306139,4737.318029,6365.771101
2454.382947,3524.039291,2516.700203,4145.153275
2454.383276,4443.353888,1628.453072,5033.400406
2454.383605,2834.553343,-518.144159,6365.771101
2454.383934,612.876398,-2960.823768,6365.771101
2454.384264,0.000000,-6069.688724,9474.636058
2454.384593,-1762.019645,-4589.276840,10214.842000
2454.384922,-2298.286494,-5181.441594,11399.171507
2454.385251,-1991.848295,-4219.173869,12509.480420
2454.385580,-306.438199,-2368.659014,11917.315666
2454.385909,612.876398,-518.144159,12657.521608
2454.386239,1455.581446,1702.473667,11251.130318
2454.386568,3064.381992,4145.153275,9400.615463
2454.386897,3447.429741,4145.153275,8364.327145
2454.387226,3447.429741,6365.771101,6957.935855
2454.387555,2374.896044,5773.606348,5995.668130
2454.387884,1762.019645,2072.576638,6735.874072
2454.388214,919.314598,666.185348,6809.894666
2454.388543,-919.314598,-2738.761985,7698.141797
2454.388872,-2528.115143,-5033.400406,8290.306550
2454.389201,-2757.943793,-7328.038826,9474.636058
2454.389530,-3294.210641,-5921.647536,9696.697840
2454.389859,-3370.820191,-4737.318029,11695.253884
2454.390189,-3524.039291,-3404.947333,11769.274478
2454.390518,-1915.238745,-1776.494261,12731.542202
2454.390847,-536.266849,444.123565,11029.068536
2454.391176,0.000000,2664.741391,9252.574275
2454.391505,-383.047749,3478.967927,10807.006753
2454.391834,1378.971896,3108.864956,11029.068536
2454.392164,2374.896044,4737.318029,5477.523971
2454.392493,4903.011187,4737.318029,6587.832884
2454.392822,3294.210641,3775.050304,3701.029710
2454.393151,3677.258390,2664.741391,5403.503377
2454.393480,1378.971896,296.082377,5773.606348
2454.393809,459.657299,-2516.700203,6365.771101
2454.394139,-689.485948,-5847.626942,9770.718434
2454.394468,-1455.581446,-4737.318029,9770.718434
2454.394797,-2298.286494,-5995.668130,11547.212695
2454.395126,-2528.115143,-5033.400406,11769.274478
2454.395455,-612.876398,-3034.844362,12361.439231
2454.395784,0.000000,-814.226536,12361.439231
2454.396114,1685.410096,1998.556043,12805.562797
2454.396443,2451.505594,3997.112087,9622.677246
2454.396772,4060.306139,4145.153275,9030.512492
2454.397101,4290.134789,6513.812290,7105.977043
2454.397430,3370.820191,5477.523971,5255.462188
2454.397759,3064.381992,3627.009116,6735.874072
2454.398088,1838.629195,3182.885551,5107.421000
2454.398418,1225.752797,-222.061783,6735.874072
2454.398747,-1532.190996,-3627.009116,8216.285956
2454.399076,-2451.505594,-6587.832884,10214.842000
2454.399405,-2987.772442,-7624.121203,10362.883188
2454.399734,-3294.210641,-5255.462188,10288.862594
2454.400063,-3294.210641,-4145.153275,11695.253884
2454.400392,-2911.162892,-3256.906145,12435.459826
2454.400722,-1302.362347,-444.123565,12805.562797
2454.401051,-153.219100,1480.411884,10288.862594
2454.401380,459.657299,3701.029710,9326.594869
2454.401709,536.266849,3552.988522,11991.336260
2454.402038,2298.286494,3701.029710,8734.430116
2454.402367,3370.820191,5329.482782,5699.585753
2454.402696,3753.867940,4589.276840,5329.482782
2454.403025,2987.772442,2368.659014,3627.009116
2454.403355,3217.601092,1406.391290,6735.874072
2454.403684,1225.752797,-814.226536,5477.523971
2454.404013,459.657299,-3997.112087,7105.977043
2454.404342,-1455.581446,-5995.668130,10066.800811
2454.404671,-2145.067394,-4367.215058,10436.903782
2454.405000,-2451.505594,-5551.544565,12509.480420
2454.405329,-1762.019645,-3552.988522,11917.315666
2454.405659,-229.828649,-1924.535449,12065.356855
2454.405988,0.000000,592.164754,13027.624579
2454.406317,1685.410096,2738.761985,11399.171507
2454.406646,2528.115143,4071.132681,8882.471304
2454.406975,3677.258390,4737.318029,8734.430116
2454.407304,2757.943793,6513.812290,5995.668130
2454.407633,2528.115143,4589.276840,6143.709319
2454.407962,1608.800546,1998.556043,6513.812290
2454.408292,689.485948,-0.000000,6291.750507
2454.408621,-689.485948,-2960.823768,7846.182985
2454.408950,-2834.553343,-5847.626942,9030.512492
2454.409279,-2987.772442,-7624.121203,9992.780217
2454.409608,-3064.381992,-5773.606348,10140.821405
2454.409937,-2604.724693,-5329.482782,11103.089130
2454.410266,-3217.601092,-3478.967927,11399.171507
2454.410596,-1838.629195,-1406.391290,12731.542202
2454.410925,-995.924147,1036.288319,11251.130318
2454.411254,0.000000,2664.741391,9770.718434
2454.411583,-306.438199,3627.009116,10288.862594
2454.411912,-306.438199,2812.782580,10732.986159
2454.412241,1838.629195,3775.050304,7846.182985
2454.412570,2528.115143,4959.379811,6217.729913
2454.412899,2987.772442,2368.659014,4959.379811
2454.413229,2451.505594,1480.411884,4663.297435
2454.413558,1915.238745,-0.000000,6069.688724
2454.413887,459.657299,-2590.720797,6143.709319
2454.414216,-229.828649,-4959.379811,8660.409521
2454.414545,-689.485948,-4663.297435,9030.512492
2454.414874,-1762.019645,-4589.276840,11251.130318
2454.415203,-1608.800546,-3701.029710,12435.459826
2454.415533,0.000000,-1924.535449,12065.356855
2454.415862,1838.629195,-0.000000,11399.171507
2454.416191,2681.334243,2442.679609,10881.027347
2454.416520,3370.820191,4367.215058,9844.739029
2454.416849,3447.429741,5033.400406,9030.512492
2454.417178,3370.820191,5995.668130,8216.285956
2454.417507,2528.115143,5551.544565,6587.832884
2454.417836,2221.676944,3108.864956,6365.771101
2454.418166,1149.143247,1036.288319,6513.812290
2454.418495,-689.485948,-1628.453072,7846.182985
2454.418824,-2145.067394,-4367.215058,8734.430116
2454.419153,-2221.676944,-7254.018232,10288.862594
2454.419482,-1991.848295,-6217.729913,9474.636058
2454.419811,-2298.286494,-4959.379811,11325.150913
2454.420140,-2451.505594,-3330.926739,11695.253884
2454.420470,-1532.190996,-1628.453072,11843.295072
2454.420799,-842.705048,-0.000000,11917.315666
2454.421128,-229.828649,2072.576638,10510.924376
2454.421457,153.219100,3256.906145,11029.068536
2454.421786,842.705048,2368.659014,12361.439231
2454.422115,2068.457845,3701.029710,7254.018232
2454.422444,4213.525239,4737.318029,6957.935855
2454.422773,4060.306139,3923.091493,4071.132681
2454.423103,3830.477490,3404.947333,4441.235652
2454.423432,3140.991542,1554.432478,5181.441594
2454.423761,1915.238745,-370.102971,3997.112087
2454.424090,1149.143247,-4071.132681,8142.265362
2454.424419,-1302.362347,-5699.585753,9252.574275
2454.424748,-2681.334243,-5403.503377,10510.924376
2454.425077,-2374.896044,-5847.626942,12509.480420
2454.425407,-1455.581446,-3330.926739,11325.150913
2454.425736,-1072.533697,-1850.514855,12287.418637
2454.426065,-153.219100,666.185348,12287.418637
2454.426394,1225.752797,2812.782580,11769.274478
2454.426723,2221.676944,3701.029710,8956.491898
2454.427052,3600.648841,5477.523971,8290.306550
2454.427381,2987.772442,6365.771101,5995.668130
2454.427710,3064.381992,4367.215058,5921.647536
2454.428040,1915.238745,2368.659014,5995.668130
