#time,accel_x,accel_y,accel_z
2616.765247,612.876398,-666.185348,9178.553681
2616.765576,383.047749,-0.000000,9104.533087
2616.765905,153.219100,-296.082377,8882.471304
2616.766235,153.219100,-148.041188,8808.450710
2616.766564,229.828649,-0.000000,8956.491898
2616.766893,536.266849,-74.020594,8956.491898
2616.767222,153.219100,-148.041188,9104.533087
2616.767552,612.876398,-74.020594,9178.553681
2616.767881,-229.828649,-74.020594,8882.471304
2616.768210,612.876398,-296.082377,9030.512492
2616.768539,383.047749,-74.020594,8734.430116
2616.768869,153.219100,-148.041188,8956.491898
2616.769198,229.828649,-74.020594,9030.512492
2616.769527,306.438199,-370.102971,9104.533087
2616.769856,459.657299,-444.123565,9474.636058
2616.770186,383.047749,-444.123565,9252.574275
2616.770515,76.609550,-370.102971,9252.574275
2616.770844,76.609550,-148.041188,9252.574275
2616.771173,153.219100,-222.061783,9104.533087
2616.771503,383.047749,-74.020594,9252.574275
2616.771832,536.266849,-0.000000,9400.615463
2616.772161,-76.609550,-0.000000,9400.615463
2616.772490,612.876398,-222.061783,9104.533087
2616.772820,383.047749,-74.020594,9400.615463
2616.773149,306.438199,-74.020594,9252.574275
2616.773478,459.657299,-148.041188,8882.471304
2616.773807,76.609550,-148.041188,9326.594869
2616.774137,76.609550,-222.061783,9252.574275
2616.774466,459.657299,-592.164754,9326.594869
2616.774795,383.047749,-592.164754,9326.594869
2616.775124,383.047749,-222.061783,8734.430116
2616.775454,306.438199,-0.000000,9178.553681
2616.775783,306.438199,-0.000000,8956.491898
2616.776112,612.876398,-0.000000,8882.471304
2616.776441,153.219100,-0.000000,9252.574275
2616.776771,919.314598,-222.061783,8882.471304
2616.777100,536.266849,-74.020594,8808.450710
2616.777429,229.828649,-370.102971,8882.471304
2616.777758,306.438199,-74.020594,9178.553681
2616.778088,229.828649,-0.000000,8808.450710
2616.778417,383.047749,-222.061783,8808.450710
2616.778746,383.047749,-444.123565,8734.430116
2616.779075,-229.828649,-222.061783,9178.553681
2616.779405,766.095498,-296.082377,8956.491898
2616.779734,612.876398,-0.000000,9104.533087
2616.780063,459.657299,-0.000000,8882.471304
2616.780392,306.438199,-0.000000,9030.512492
2616.780722,383.047749,-74.020594,8882.471304
2616.781051,0.000000,-444.123565,9104.533087
2616.781380,153.219100,-518.144159,9104.533087
2616.781709,459.657299,-0.000000,9326.594869
2616.782039,153.219100,-444.123565,8734.430116
2616.782368,306.438199,-148.041188,9326.594869
2616.782697,229.828649,-370.102971,9326.594869
2616.783026,383.047749,-222.061783,9178.553681
2616.783356,306.438199,-148.041188,9474.636058
2616.783685,842.705048,-148.041188,9252.574275
2616.784014,459.657299,-148.041188,8586.388927
2616.784343,612.876398,-222.061783,9030.512492
2616.784673,383.047749,-148.041188,9178.553681
2616.785002,229.828649,-0.000000,9252.574275
2616.785331,383.047749,-222.061783,9178.553681
2616.785660,306.438199,-148.041188,9400.615463
2616.785990,-459.657299,-222.061783,9178.553681
2616.786319,766.095498,-592.164754,9104.533087
2616.786648,306.438199,-148.041188,9252.574275
2616.786977,76.609550,-74.020594,8882.471304
2616.787307,306.438199,-0.000000,8882.471304
2616.787636,383.047749,-0.000000,9030.512492
2616.787965,0.000000,222.061783,8808.450710
2616.788294,612.876398,-148.041188,8808.450710
2616.788624,383.047749,-74.020594,8734.430116
2616.788953,76.609550,370.102971,9400.615463
2616.789282,0.000000,-0.000000,8882.471304
2616.789611,76.609550,-0.000000,9104.533087
2616.789941,76.609550,-222.061783,8882.471304
2616.790270,383.047749,-592.164754,9326.594869
2616.790599,153.219100,-222.061783,8956.491898
2616.790928,306.438199,-222.061783,8808.450710
2616.791258,689.485948,-0.000000,8734.430116
2616.791587,459.657299,-0.000000,8882.471304
2616.791916,459.657299,-0.000000,8956.491898
2616.792245,612.876398,-148.041188,8882.471304
2616.792575,459.657299,-444.123565,9104.533087
2616.792904,306.438199,-740.205942,9030.512492
2616.793233,383.047749,-666.185348,9104.533087
2616.793562,229.828649,-296.082377,9104.533087
2616.793892,76.609550,-518.144159,9252.574275
2616.794221,306.438199,-444.123565,9474.636058
2616.794550,306.438199,-370.102971,9400.615463
2616.794879,383.047749,-222.061783,9104.533087
2616.795209,459.657299,-518.144159,9400.615463
2616.795538,536.266849,-74.020594,9178.553681
2616.795867,612.876398,-0.000000,8956.491898
2616.796196,459.657299,-0.000000,9030.512492
2616.796526,536.266849,-0.000000,8956.491898
2616.796855,229.828649,-222.061783,9030.512492
2616.797184,536.266849,-814.226536,9104.533087
2616.797513,153.219100,-592.164754,9030.512492
2616.797843,-229.828649,-148.041188,9474.636058
2616.798172,-383.047749,-74.020594,9474.636058
2616.798501,153.219100,-0.000000,9252.574275
2616.798830,229.828649,-148.041188,8808.450710
2616.799160,842.705048,-666.185348,9400.615463
2616.799489,1915.238745,-1036.288319,9178.553681
2616.799818,1915.238745,-148.041188,9252.574275
2616.800147,1608.800546,-370.102971,9252.574275
2616.800477,2298.286494,-0.000000,8660.409521
2616.800806,3140.991542,666.185348,8808.450710
2616.801135,3600.648841,-222.061783,8734.430116
2616.801464,3983.696590,-0.000000,8512.368333
2616.801794,3140.991542,148.041188,8882.471304
2616.802123,3217.601092,296.082377,8290.306550
2616.802452,2757.943793,-370.102971,8808.450710
2616.802781,2987.772442,-444.123565,9178.553681
2616.803111,1915.238745,-666.185348,9104.533087
2616.803440,1685.410096,-1258.350101,9918.759623
2616.803769,2374.896044,-2146.597232,9474.636058
2616.804098,3064.381992,-296.082377,8882.471304
2616.804428,2681.334243,-444.123565,9844.739029
2616.804757,3294.210641,-1036.288319,9474.636058
2616.805086,2834.553343,-0.000000,9326.594869
2616.805415,4979.620737,740.205942,8512.368333
2616.805745,4673.182538,666.185348,7698.141797
2616.806074,3907.087040,1406.391290,9548.656652
2616.806403,4979.620737,740.205942,8364.327145
2616.806732,3983.696590,666.185348,8068.244768
2616.807062,3140.991542,222.061783,9696.697840
2616.807391,2528.115143,-0.000000,8734.430116
2616.807720,2528.115143,296.082377,9548.656652
2616.808049,1302.362347,-888.247130,9548.656652
2616.808379,2068.457845,-370.102971,9474.636058
2616.808708,1608.800546,-1332.370696,9844.739029
2616.809037,1685.410096,-592.164754,9622.677246
2616.809366,1991.848295,-740.205942,9770.718434
2616.809696,3140.991542,740.205942,9400.615463
2616.810025,2834.553343,-74.020594,7920.203579
2616.810354,4290.134789,1110.308913,9770.718434
2616.810683,3830.477490,740.205942,8142.265362
2616.811013,4519.963438,740.205942,7994.224174
2616.811342,4213.525239,518.144159,9252.574275
2616.811671,3907.087040,-74.020594,9104.533087
2616.812000,3140.991542,-592.164754,8882.471304
2616.812330,2834.553343,-1480.411884,9622.677246
2616.812659,2451.505594,-1110.308913,9992.780217
2616.812988,2221.676944,-1924.535449,9400.615463
2616.813317,2145.067394,-1702.473667,9622.677246
2616.813647,2298.286494,-1110.308913,9548.656652
2616.813976,2757.943793,-148.041188,9474.636058
2616.814305,3677.258390,814.226536,8660.409521
2616.814634,4213.525239,1036.288319,8364.327145
2616.814964,3983.696590,1776.494261,7772.162391
2616.815293,4596.572988,2220.617826,7624.121203
2616.815622,4136.915689,1924.535449,7402.059420
2616.815951,3830.477490,1406.391290,8438.347739
2616.816281,3370.820191,1110.308913,8068.244768
2616.816610,2528.115143,-444.123565,8586.388927
2616.816939,2528.115143,-1480.411884,9844.739029
2616.817268,2145.067394,-2664.741391,10214.842000
2616.817598,2068.457845,-2664.741391,10288.862594
2616.817927,2451.505594,-2590.720797,10881.027347
2616.818256,3370.820191,-2368.659014,10881.027347
2616.818585,4596.572988,-814.226536,9770.718434
2616.818915,5056.230287,740.205942,9548.656652
2616.819244,5822.325785,1332.370696,8882.471304
2616.819573,5439.278036,2368.659014,7920.203579
2616.819902,4979.620737,2516.700203,7920.203579
2616.820232,4443.353888,3404.947333,7031.956449
2616.820561,3830.477490,2664.741391,7179.997637
2616.820890,4213.525239,2294.638420,6883.915261
2616.821219,3370.820191,148.041188,8290.306550
2616.821549,766.095498,-3034.844362,9992.780217
2616.821878,-459.657299,-4071.132681,10436.903782
2616.822207,-919.314598,-4293.194464,11991.336260
2616.822536,-842.705048,-4959.379811,11843.295072
2616.822866,-459.657299,-1554.432478,10288.862594
2616.823195,766.095498,-1110.308913,10732.986159
2616.823524,2068.457845,370.102971,10066.800811
2616.823853,4903.011187,1850.514855,9474.636058
2616.824183,7201.297681,1258.350101,8142.265362
2616.824512,6741.640382,1258.350101,7698.141797
2616.824841,6052.154434,666.185348,7920.203579
2616.825170,5132.839837,2220.617826,6513.812290
2616.825500,4903.011187,1110.308913,7105.977043
2616.825829,4826.401637,2294.638420,5921.647536
2616.826158,5209.449386,2738.761985,6809.894666
2616.826487,4596.572988,2146.597232,6143.709319
2616.826817,4443.353888,296.082377,6513.812290
2616.827146,2451.505594,-3849.070898,9326.594869
2616.827475,306.438199,-7254.018232,12139.377449
2616.827804,-1225.752797,-3256.906145,11251.130318
2616.828134,-1608.800546,-6143.709319,14878.139434
2616.828463,-1378.971896,-3849.070898,12435.459826
2616.828792,919.314598,1184.329507,11473.192101
2616.829121,3064.381992,-222.061783,11473.192101
2616.829451,4213.525239,1554.432478,9178.553681
2616.829780,7201.297681,518.144159,9844.739029
2616.830109,7354.516781,1554.432478,8438.347739
2616.830438,7507.735880,3775.050304,6365.771101
2616.830768,7507.735880,3627.009116,5329.482782
2616.831097,7354.516781,888.247130,5033.400406
2616.831426,6894.859482,2960.823768,5329.482782
2616.831755,6128.763984,888.247130,6957.935855
2616.832085,3600.648841,1924.535449,6143.709319
2616.832414,4290.134789,1998.556043,7254.018232
2616.832743,2145.067394,-2442.679609,9770.718434
2616.833072,-1608.800546,-5625.565159,11621.233289
2616.833402,-2451.505594,-888.247130,11917.315666
2616.833731,-1072.533697,-5477.523971,13841.851115
2616.834060,-1225.752797,-2960.823768,9992.780217
2616.834389,1455.581446,1850.514855,12731.542202
2616.834719,2221.676944,-222.061783,9400.615463
2616.835048,1378.971896,1554.432478,13101.645173
2616.835377,6128.763984,-666.185348,7772.162391
2616.835706,9806.022374,1924.535449,7254.018232
2616.836036,6205.373534,1924.535449,6365.771101
2616.836365,6358.592633,2442.679609,5107.421000
2616.836694,4903.011187,962.267725,6365.771101
2616.837023,4136.915689,888.247130,6439.791695
2616.837353,3600.648841,3256.906145,4293.194464
2616.837682,3370.820191,1850.514855,7550.100608
2616.838011,-1685.410096,-1332.370696,9474.636058
2616.838340,-1915.238745,-4737.318029,13915.871710
2616.838670,-1455.581446,-1258.350101,9622.677246
2616.838999,-2451.505594,-3330.926739,11843.295072
2616.839328,-2757.943793,-3701.029710,11695.253884
2616.839657,-2451.505594,-1258.350101,11917.315666
2616.839987,-153.219100,-1406.391290,11251.130318
2616.840316,-1378.971896,2146.597232,8142.265362
2616.840645,-919.314598,740.205942,10140.821405
2616.840974,-383.047749,-592.164754,9474.636058
2616.841304,459.657299,592.164754,9696.697840
2616.841633,459.657299,-518.144159,8068.244768
2616.841962,229.828649,-962.267725,7550.100608
2616.842291,1302.362347,-74.020594,7920.203579
2616.842620,1608.800546,1110.308913,6439.791695
2616.842949,383.047749,666.185348,8438.347739
2616.843278,-919.314598,-888.247130,9400.615463
2616.843607,-1072.533697,-2812.782580,10362.883188
2616.843936,-995.924147,-148.041188,9696.697840
2616.844265,-1915.238745,-0.000000,8808.450710
2616.844594,-995.924147,370.102971,10140.821405
2616.844923,689.485948,-148.041188,10955.047942
2616.845252,1378.971896,-148.041188,9696.697840
2616.845581,1378.971896,444.123565,8734.430116
2616.845909,1838.629195,2220.617826,8364.327145
2616.846238,3140.991542,1258.350101,7846.182985
2616.846567,3677.258390,1628.453072,7624.121203
2616.846896,2528.115143,-0.000000,8438.347739
2616.847225,919.314598,-1184.329507,8364.327145
2616.847554,0.000000,-370.102971,9178.553681
2616.847883,0.000000,-74.020594,9104.533087
2616.848212,-919.314598,-740.205942,8512.368333
2616.848541,-536.266849,-1628.453072,10140.821405
2616.848870,-1532.190996,-1184.329507,10658.965565
2616.849199,-1302.362347,-296.082377,10658.965565
2616.849528,-1378.971896,592.164754,9104.533087
2616.849857,-306.438199,1110.308913,9696.697840
2616.850186,0.000000,-444.123565,10732.986159
2616.850515,995.924147,-1628.453072,10658.965565
2616.850844,1608.800546,-888.247130,9252.574275
2616.851173,2374.896044,222.061783,8512.368333
2616.851502,3294.210641,1628.453072,7846.182985
2616.851830,3677.258390,1850.514855,7698.141797
2616.852159,3447.429741,444.123565,8660.409521
2616.852488,2528.115143,444.123565,7920.203579
2616.852817,1608.800546,518.144159,8660.409521
2616.853146,1072.533697,518.144159,8660.409521
2616.853475,-306.438199,-222.061783,9400.615463
2616.853804,-995.924147,-1406.391290,11029.068536
2616.854133,-766.095498,-2072.576638,9992.780217
2616.854462,-919.314598,-1036.288319,9992.780217
2616.854791,-1225.752797,592.164754,9252.574275
2616.855120,-229.828649,1850.514855,8660.409521
2616.855449,153.219100,444.123565,9030.512492
2616.855778,766.095498,-0.000000,8512.368333
2616.856107,919.314598,-222.061783,9030.512492
2616.856436,536.266849,148.041188,8216.285956
2616.856765,459.657299,666.185348,7846.182985
2616.857094,919.314598,-148.041188,8068.244768
2616.857423,995.924147,-962.267725,8586.388927
2616.857751,689.485948,-740.205942,9030.512492
2616.858080,536.266849,-1406.391290,9030.512492
2616.858409,-153.219100,222.061783,8512.368333
2616.858738,-153.219100,518.144159,8290.306550
2616.859067,-612.876398,-296.082377,9326.594869
2616.859396,-842.705048,-814.226536,10140.821405
2616.859725,-1762.019645,-962.267725,9474.636058
2616.860054,-1302.362347,-0.000000,8808.450710
2616.860383,-689.485948,666.185348,9770.718434
2616.860712,-229.828649,-592.164754,9474.636058
2616.861041,-689.485948,-1480.411884,9400.615463
2616.861370,-919.314598,-1998.556043,10140.821405
2616.861699,-1608.800546,-1628.453072,9178.553681
2616.862028,0.000000,-74.020594,9474.636058
2616.862357,-459.657299,-814.226536,8882.471304
2616.862686,-689.485948,-444.123565,9326.594869
2616.863015,-766.095498,-1110.308913,9400.615463
2616.863343,76.609550,-0.000000,8882.471304
2616.863672,536.266849,814.226536,9326.594869
2616.864001,383.047749,1036.288319,8660.409521
2616.864330,919.314598,-0.000000,8660.409521
2616.864659,1072.533697,-592.164754,9474.636058
2616.864988,229.828649,-740.205942,9548.656652
2616.865317,612.876398,592.164754,8734.430116
2616.865646,536.266849,444.123565,8512.368333
2616.865975,76.609550,518.144159,8808.450710
2616.866304,689.485948,-222.061783,9400.615463
2616.866633,919.314598,-814.226536,9252.574275
2616.866962,459.657299,-444.123565,9326.594869
2616.867291,383.047749,296.082377,8882.471304
2616.867620,1072.533697,222.061783,8734.430116
2616.867949,1991.848295,-222.061783,9030.512492
2616.868278,2068.457845,-1036.288319,8808.450710
2616.868607,1608.800546,-148.041188,9030.512492
2616.868936,1915.238745,888.247130,8734.430116
2616.869264,2145.067394,2146.597232,8290.306550
2616.869593,1762.019645,1036.288319,8438.347739
2616.869922,1225.752797,-0.000000,9252.574275
2616.870251,689.485948,-148.041188,9326.594869
2616.870580,229.828649,-148.041188,9400.615463
2616.870909,229.828649,-0.000000,9474.636058
2616.871238,383.047749,-444.123565,8586.388927
2616.871567,229.828649,-1480.411884,9770.718434
2616.871896,1302.362347,-1702.473667,10140.821405
2616.872225,842.705048,-1924.535449,9474.636058
2616.872554,995.924147,-222.061783,8586.388927
2616.872883,1149.143247,370.102971,8808.450710
2616.873212,1762.019645,370.102971,9178.553681
2616.873541,1149.143247,-0.000000,8956.491898
2616.873870,1072.533697,-666.185348,9178.553681
2616.874199,536.266849,962.267725,9474.636058
2616.874528,612.876398,1480.411884,8734.430116
2616.874857,0.000000,592.164754,8586.388927
2616.875185,0.000000,-592.164754,9696.697840
2616.875514,-842.705048,-1480.411884,9918.759623
2616.875843,-995.924147,-666.185348,9030.512492
2616.876172,-1149.143247,-518.144159,9770.718434
2616.876501,-1149.143247,222.061783,8216.285956
2616.876830,-689.485948,222.061783,8808.450710
2616.877159,-919.314598,-1110.308913,9178.553681
2616.877488,-1149.143247,-888.247130,9178.553681
2616.877817,-842.705048,-74.020594,9326.594869
2616.878146,-229.828649,-0.000000,8734.430116
2616.878475,-1225.752797,444.123565,9400.615463
2616.878804,-229.828649,-1110.308913,9770.718434
2616.879133,-1149.143247,-1628.453072,9844.739029
2616.879462,-1149.143247,-740.205942,9992.780217
2616.879791,-689.485948,-0.000000,9326.594869
2616.880120,-153.219100,518.144159,8364.327145
2616.880449,0.000000,222.061783,8290.306550
2616.880777,229.828649,-962.267725,8734.430116
2616.881106,-459.657299,-740.205942,9104.533087
2616.881435,-459.657299,-0.000000,8882.471304
2616.881764,-383.047749,888.247130,8216.285956
2616.882093,536.266849,-148.041188,9178.553681
2616.882422,689.485948,-1332.370696,8882.471304
2616.882751,0.000000,-1406.391290,9696.697840
2616.883080,919.314598,-666.185348,9326.594869
2616.883409,1072.533697,888.247130,8586.388927
2616.883738,1685.410096,888.247130,8068.244768
2616.884067,1302.362347,444.123565,9252.574275
2616.884396,1072.533697,-814.226536,9992.780217
2616.884725,459.657299,-592.164754,9400.615463
2616.885054,459.657299,-0.000000,9326.594869
2616.885383,689.485948,518.144159,9252.574275
2616.885712,919.314598,-0.000000,8512.368333
2616.886041,766.095498,-666.185348,9548.656652
2616.886370,1225.752797,-1036.288319,9104.533087
2616.886698,1532.190996,-0.000000,9400.615463
2616.887027,1532.190996,222.061783,8364.327145
2616.887356,1532.190996,814.226536,9326.594869
2616.887685,919.314598,-222.061783,9030.512492
2616.888014,2298.286494,-444.123565,9104.533087
2616.888343,1838.629195,-0.000000,9252.574275
2616.888672,1225.752797,592.164754,8808.450710
2616.889001,1532.190996,666.185348,8216.285956
2616.889330,1608.800546,-222.061783,8586.388927
2616.889659,1072.533697,-814.226536,9400.615463
2616.889988,536.266849,-1036.288319,9474.636058
2616.890317,612.876398,-444.123565,9252.574275
2616.890646,229.828649,1184.329507,8586.388927
2616.890975,459.657299,666.185348,8808.450710
2616.891304,-153.219100,-444.123565,9400.615463
2616.891633,-306.438199,-962.267725,9844.739029
2616.891962,76.609550,-740.205942,9622.677246
2616.892291,306.438199,-0.000000,8734.430116
2616.892619,766.095498,444.123565,8142.265362
2616.892948,995.924147,-740.205942,9030.512492
2616.893277,536.266849,-888.247130,9474.636058
2616.893606,306.438199,-1110.308913,8956.491898
2616.893935,306.438199,-74.020594,8808.450710
2616.894264,-153.219100,370.102971,8586.388927
2616.894593,1072.533697,222.061783,9326.594869
2616.894922,153.219100,-888.247130,9252.574275
2616.895251,-1149.143247,-666.185348,9622.677246
2616.895580,-919.314598,-148.041188,9326.594869
2616.895909,-995.924147,888.247130,9252.574275
2616.896238,-995.924147,296.082377,9178.553681
2616.896567,-536.266849,-1258.350101,9326.594869
2616.896896,-1149.143247,-1702.473667,9474.636058
2616.897225,-1149.143247,-1554.432478,9844.739029
2616.897554,-1225.752797,-74.020594,9178.553681
2616.897883,-842.705048,740.205942,8882.471304
2616.898211,-459.657299,222.061783,8512.368333
2616.898540,-383.047749,-148.041188,9104.533087
2616.898869,-612.876398,-518.144159,9622.677246
2616.899198,-306.438199,518.144159,8956.491898
2616.899527,-153.219100,-0.000000,9178.553681
2616.899856,0.000000,222.061783,8512.368333
2616.900185,459.657299,-740.205942,8660.409521
2616.900514,536.266849,-888.247130,9030.512492
2616.900843,766.095498,-370.102971,9104.533087
2616.901172,1149.143247,1184.329507,8290.306550
2616.901501,1838.629195,1702.473667,7994.224174
2616.901830,2068.457845,-0.000000,7846.182985
2616.902159,1532.190996,-592.164754,8882.471304
2616.902488,306.438199,-74.020594,9252.574275
2616.902817,612.876398,-0.000000,9178.553681
2616.903146,383.047749,888.247130,9326.594869
2616.903475,1149.143247,814.226536,9474.636058
2616.903804,919.314598,-888.247130,9992.780217
2616.904132,536.266849,-1110.308913,10732.986159
2616.904461,383.047749,-222.061783,9992.780217
2616.904790,919.314598,444.123565,9400.615463
2616.905119,766.095498,814.226536,9252.574275
2616.905448,1072.533697,-0.000000,9326.594869
2616.905777,1532.190996,-666.185348,9474.636058
2616.906106,1072.533697,-0.000000,9104.533087
2616.906435,1455.581446,444.123565,8734.430116
2616.906764,1455.581446,666.185348,8364.327145
2616.907093,1838.629195,-0.000000,8586.388927
2616.907422,1915.238745,-296.082377,8956.491898
2616.907751,1455.581446,-666.185348,8808.450710
2616.908080,536.266849,-74.020594,8586.388927
2616.908409,153.219100,-518.144159,9770.718434
2616.908738,766.095498,666.185348,8882.471304
2616.909067,766.095498,-1036.288319,8512.368333
2616.909396,0.000000,-1110.308913,9770.718434
2616.909725,76.609550,-74.020594,10510.924376
2616.910053,-306.438199,-0.000000,9696.697840
2616.910382,-229.828649,666.185348,8808.450710
2616.910711,919.314598,-518.144159,8808.450710
2616.911040,76.609550,-962.267725,9030.512492
2616.911369,-229.828649,-1184.329507,8808.450710
2616.911698,-383.047749,-370.102971,8290.306550
2616.912027,-995.924147,740.205942,7772.162391
2616.912356,-612.876398,592.164754,8586.388927
2616.912685,-842.705048,-814.226536,8808.450710
2616.913014,-1991.848295,-666.185348,9326.594869
2616.913343,-919.314598,-888.247130,9474.636058
2616.913672,-919.314598,-148.041188,8808.450710
2616.914001,-842.705048,-0.000000,8586.388927
2616.914330,-383.047749,-518.144159,8956.491898
2616.914659,0.000000,-1480.411884,9696.697840
2616.914988,0.000000,-1776.494261,9474.636058
2616.915317,-766.095498,-518.144159,8586.388927
2616.915646,383.047749,814.226536,8068.244768
2616.915974,842.705048,592.164754,8290.306550
2616.916303,919.314598,-0.000000,8438.347739
2616.916632,536.266849,-444.123565,8808.450710
2616.916961,306.438199,-0.000000,8438.347739
2616.917290,536.266849,962.267725,8586.388927
2616.917619,536.266849,518.144159,9030.512492
2616.917948,306.438199,-148.041188,9326.594869
2616.918277,-229.828649,-1110.308913,10288.862594
2616.918606,-766.095498,-1480.411884,10066.800811
2616.918935,-536.266849,-666.185348,9918.759623
2616.919264,0.000000,592.164754,9326.594869
2616.919593,459.657299,592.164754,8438.347739
2616.919922,995.924147,-1036.288319,9548.656652
2616.920251,919.314598,-888.247130,9178.553681
2616.920580,919.314598,1110.308913,8512.368333
2616.920909,1532.190996,888.247130,8438.347739
2616.921238,1915.238745,814.226536,7920.203579
2616.921566,1991.848295,444.123565,8882.471304
2616.921895,1762.019645,-592.164754,9400.615463
2616.922224,1608.800546,-296.082377,9178.553681
2616.922553,1608.800546,-0.000000,8956.491898
2616.922882,1991.848295,666.185348,8512.368333
2616.923211,1608.800546,-74.020594,9474.636058
2616.923540,842.705048,-1332.370696,9992.780217
2616.923869,383.047749,-740.205942,9178.553681
2616.924198,919.314598,-74.020594,9474.636058
2616.924527,536.266849,518.144159,9030.512492
2616.924856,689.485948,814.226536,8882.471304
2616.925185,1225.752797,-1332.370696,9696.697840
2616.925514,1378.971896,-518.144159,9844.739029
2616.925843,995.924147,-370.102971,9400.615463
2616.926172,0.000000,-0.000000,8660.409521
2616.926501,0.000000,888.247130,9252.574275
2616.926830,-459.657299,-0.000000,9400.615463
2616.927159,-842.705048,-888.247130,9326.594869
2616.927487,-536.266849,-1258.350101,9326.594869
2616.927816,-919.314598,370.102971,9548.656652
2616.928145,-536.266849,740.205942,8956.491898
2616.928474,0.000000,-148.041188,9178.553681
2616.928803,689.485948,-888.247130,9474.636058
2616.929132,1072.533697,-666.185348,9474.636058
2616.929461,766.095498,-222.061783,9178.553681
2616.929790,995.924147,444.123565,8660.409521
2616.930119,1685.410096,2072.576638,8142.265362
2616.930448,1532.190996,592.164754,8216.285956
2616.930777,612.876398,-0.000000,8660.409521
2616.931106,-536.266849,-0.000000,8956.491898
2616.931435,-995.924147,148.041188,8512.368333
2616.931764,-1302.362347,296.082377,8216.285956
2616.932093,-1608.800546,-1110.308913,8956.491898
2616.932422,-1302.362347,-2146.597232,9400.615463
2616.932751,-2068.457845,-2294.638420,10288.862594
2616.933080,-2298.286494,-1554.432478,9548.656652
2616.933408,-1532.190996,-74.020594,8660.409521
2616.933737,-1072.533697,148.041188,8808.450710
2616.934066,-766.095498,666.185348,9030.512492
2616.934395,0.000000,-222.061783,9696.697840
2616.934724,383.047749,-296.082377,9178.553681
2616.935053,1149.143247,1184.329507,8068.244768
2616.935382,1838.629195,1258.350101,8142.265362
2616.935711,1302.362347,740.205942,7402.059420
2616.936040,1608.800546,-518.144159,8586.388927
2616.936369,1532.190996,-444.123565,8808.450710
2616.936698,842.705048,-222.061783,8364.327145
2616.937027,383.047749,-148.041188,8142.265362
2616.937356,229.828649,-444.123565,9474.636058
2616.937685,0.000000,-814.226536,9326.594869
2616.938014,76.609550,-1776.494261,9770.718434
2616.938343,0.000000,-1110.308913,9622.677246
2616.938672,76.609550,-0.000000,9252.574275
2616.939000,1532.190996,518.144159,8660.409521
2616.939329,1762.019645,-0.000000,9252.574275
2616.939658,1838.629195,-888.247130,10140.821405
2616.939987,1915.238745,-296.082377,9474.636058
2616.940316,1455.581446,666.185348,8882.471304
2616.940645,1762.019645,1406.391290,8512.368333
2616.940974,1991.848295,962.267725,8586.388927
2616.941303,995.924147,-74.020594,9622.677246
2616.941632,1378.971896,-888.247130,9548.656652
2616.941961,689.485948,-296.082377,9178.553681
2616.942290,229.828649,-222.061783,9326.594869
2616.942619,459.657299,-0.000000,9252.574275
2616.942948,536.266849,-592.164754,9992.780217
2616.943277,919.314598,-1258.350101,9696.697840
2616.943606,1455.581446,-370.102971,9548.656652
2616.943935,1149.143247,888.247130,8586.388927
2616.944264,1991.848295,740.205942,8216.285956
2616.944593,1915.238745,1258.350101,8438.347739
2616.944922,1608.800546,666.185348,8512.368333
2616.945251,995.924147,148.041188,8512.368333
2616.945580,306.438199,296.082377,8956.491898
2616.945909,0.000000,888.247130,8586.388927
2616.946238,76.609550,222.061783,8882.471304
2616.946567,-306.438199,-1554.432478,9326.594869
2616.946896,-995.924147,-2368.659014,9918.759623
2616.947225,-1225.752797,-1998.556043,9696.697840
2616.947554,-1455.581446,-666.185348,9474.636058
2616.947883,-995.924147,-0.000000,8586.388927
2616.948212,-383.047749,-74.020594,8956.491898
2616.948541,-919.314598,-666.185348,9326.594869
2616.948870,-1225.752797,-888.247130,9548.656652
2616.949199,-1149.143247,-0.000000,8956.491898
2616.949528,-383.047749,296.082377,8660.409521
2616.949857,0.000000,148.041188,8438.347739
2616.950186,0.000000,-666.185348,8438.347739
2616.950515,76.609550,-1406.391290,9326.594869
2616.950844,76.609550,-962.267725,9400.615463
2616.951173,-536.266849,222.061783,8808.450710
2616.951502,153.219100,222.061783,8438.347739
2616.951831,459.657299,-0.000000,9030.512492
2616.952160,0.000000,-592.164754,9326.594869
2616.952489,-383.047749,-444.123565,9326.594869
2616.952818,0.000000,222.061783,9548.656652
2616.953147,-229.828649,740.205942,9252.574275
2616.953476,1302.362347,-0.000000,9474.636058
2616.953806,536.266849,-592.164754,9030.512492
2616.954135,153.219100,-740.205942,9548.656652
2616.954464,383.047749,-296.082377,9326.594869
2616.954793,306.438199,888.247130,8660.409521
2616.955122,76.609550,518.144159,8882.471304
2616.955451,153.219100,-444.123565,9474.636058
2616.955780,383.047749,-740.205942,8956.491898
2616.956109,229.828649,-962.267725,9252.574275
2616.956438,383.047749,-296.082377,9178.553681
2616.956767,536.266849,444.123565,8956.491898
2616.957096,1072.533697,-148.041188,9252.574275
2616.957425,1915.238745,-666.185348,9178.553681
2616.957754,2145.067394,-1110.308913,9326.594869
2616.958083,2068.457845,-370.102971,9326.594869
2616.958412,2374.896044,962.267725,8660.409521
2616.958741,2451.505594,962.267725,8290.306550
2616.959070,2221.676944,222.061783,8808.450710
2616.959399,2451.505594,-0.000000,8808.450710
2616.959728,1915.238745,222.061783,8734.430116
2616.960057,1072.533697,888.247130,9252.574275
2616.960386,1225.752797,-0.000000,8882.471304
2616.960715,842.705048,-666.185348,8882.471304
2616.961044,229.828649,-1628.453072,9992.780217
2616.961373,0.000000,-2146.597232,9992.780217
2616.961702,-383.047749,-666.185348,9770.718434
2616.962031,-306.438199,-148.041188,9696.697840
2616.962360,153.219100,296.082377,9326.594869
2616.962689,919.314598,-222.061783,9474.636058
2616.963018,612.876398,148.041188,8586.388927
2616.963347,0.000000,1036.288319,8734.430116
2616.963676,612.876398,814.226536,8956.491898
2616.964005,229.828649,592.164754,7328.038826
2616.964334,229.828649,-74.020594,8956.491898
2616.964663,153.219100,-1924.535449,9548.656652
2616.964992,-229.828649,-1036.288319,8734.430116
2616.965322,-689.485948,-444.123565,9104.533087
2616.965651,-536.266849,592.164754,8660.409521
2616.965980,-459.657299,-296.082377,8956.491898
2616.966309,-306.438199,-0.000000,9400.615463
2616.966638,0.000000,-1110.308913,9326.594869
2616.966967,-1378.971896,-296.082377,9622.677246
2616.967296,-919.314598,740.205942,8808.450710
2616.967625,-459.657299,888.247130,8290.306550
2616.967954,-229.828649,-888.247130,8660.409521
2616.968283,-306.438199,-1406.391290,9474.636058
2616.968612,-1149.143247,-1776.494261,9400.615463
2616.968941,-919.314598,-222.061783,9400.615463
2616.969270,-306.438199,370.102971,8512.368333
2616.969599,-612.876398,-0.000000,8364.327145
2616.969928,-842.705048,-444.123565,9474.636058
2616.970257,-1378.971896,-888.247130,9474.636058
2616.970586,-459.657299,-0.000000,9326.594869
2616.970915,-229.828649,592.164754,8660.409521
2616.971244,-536.266849,-222.061783,8068.244768
2616.971573,0.000000,-1184.329507,10288.862594
2616.971902,306.438199,-1110.308913,10214.842000
2616.972231,766.095498,-888.247130,9474.636058
2616.972560,842.705048,888.247130,8882.471304
2616.972889,1532.190996,1406.391290,9104.533087
2616.973218,1991.848295,592.164754,9400.615463
2616.973547,1685.410096,-740.205942,9178.553681
2616.973876,1302.362347,-148.041188,8512.368333
2616.974205,1608.800546,444.123565,9844.739029
2616.974534,766.095498,1258.350101,8734.430116
2616.974863,1302.362347,444.123565,8734.430116
2616.975192,1762.019645,-444.123565,9622.677246
2616.975521,1378.971896,-1184.329507,9844.739029
2616.975850,1225.752797,-740.205942,9474.636058
2616.976179,689.485948,296.082377,8660.409521
2616.976508,689.485948,962.267725,8808.450710
2616.976838,536.266849,-296.082377,9178.553681
2616.977167,842.705048,-74.020594,9622.677246
2616.977496,536.266849,-370.102971,9548.656652
2616.977825,612.876398,-0.000000,9104.533087
2616.978154,1149.143247,518.144159,9400.615463
2616.978483,1608.800546,222.061783,8438.347739
2616.978812,2451.505594,-1110.308913,9104.533087
2616.979141,1762.019645,-1036.288319,9326.594869
2616.979470,1838.629195,-222.061783,8808.450710
2616.979799,2298.286494,296.082377,7994.224174
2616.980128,2298.286494,1036.288319,7846.182985
2616.980457,1991.848295,296.082377,8364.327145
2616.980786,1608.800546,-518.144159,9104.533087
2616.981115,459.657299,-222.061783,8734.430116
2616.981444,766.095498,444.123565,8438.347739
2616.981773,76.609550,518.144159,8216.285956
2616.982102,-153.219100,-296.082377,8734.430116
2616.982431,-306.438199,-1702.473667,9474.636058
2616.982760,-1149.143247,-2072.576638,9622.677246
2616.983089,-1378.971896,-1554.432478,9992.780217
2616.983418,-1455.581446,-296.082377,8956.491898
2616.983747,-1378.971896,-74.020594,8734.430116
2616.984076,-1149.143247,-592.164754,9326.594869
2616.984405,-1149.143247,-518.144159,9622.677246
2616.984734,-1072.533697,-666.185348,9326.594869
2616.985063,-766.095498,222.061783,8734.430116
2616.985392,-612.876398,296.082377,8586.388927
2616.985721,-536.266849,-666.185348,8882.471304
2616.986050,-153.219100,-1406.391290,9548.656652
2616.986379,-766.095498,-1406.391290,9474.636058
2616.986708,-766.095498,-444.123565,8882.471304
2616.987037,-306.438199,592.164754,8586.388927
2616.987366,0.000000,814.226536,7920.203579
2616.987695,-229.828649,-296.082377,9104.533087
2616.988024,-306.438199,-666.185348,9474.636058
2616.988354,-1225.752797,-74.020594,9400.615463
2616.988683,-383.047749,518.144159,8808.450710
2616.989012,0.000000,518.144159,8512.368333
2616.989341,-306.438199,-296.082377,9252.574275
2616.989670,-153.219100,-1258.350101,9770.718434
2616.989999,76.609550,-1036.288319,9548.656652
2616.990328,-459.657299,-0.000000,9474.636058
2616.990657,689.485948,888.247130,8660.409521
2616.990986,153.219100,444.123565,8734.430116
2616.991315,536.266849,-296.082377,9400.615463
2616.991644,383.047749,-592.164754,8882.471304
2616.991973,689.485948,-222.061783,8882.471304
2616.992302,995.924147,666.185348,8438.347739
2616.992631,1991.848295,148.041188,8586.388927
2616.992960,1378.971896,-444.123565,9474.636058
2616.993289,1302.362347,-1110.308913,9696.697840
2616.993618,1072.533697,-592.164754,9696.697840
2616.993947,1302.362347,-0.000000,9326.594869
2616.994276,1915.238745,888.247130,9474.636058
2616.994605,1762.019645,-0.000000,9622.677246
2616.994934,1915.238745,-740.205942,10288.862594
2616.995263,1532.190996,-370.102971,9326.594869
2616.995592,2068.457845,444.123565,9474.636058
2616.995921,1915.238745,1258.350101,8882.471304
2616.996250,2221.676944,814.226536,8660.409521
2616.996579,2221.676944,-148.041188,9104.533087
2616.996908,1838.629195,-1184.329507,10214.842000
2616.997237,1608.800546,-666.185348,9474.636058
2616.997566,1072.533697,148.041188,8734.430116
2616.997895,689.485948,666.185348,9030.512492
2616.998224,459.657299,444.123565,9178.553681
2616.998553,306.438199,-592.164754,9326.594869
2616.998882,-306.438199,-1110.308913,9326.594869
2616.999211,0.000000,-148.041188,9104.533087
2616.999540,153.219100,-0.000000,8734.430116
2616.999870,0.000000,-0.000000,8956.491898
2617.000199,153.219100,-1036.288319,9400.615463
2617.000528,306.438199,-1702.473667,9104.533087
2617.000857,0.000000,-740.205942,9252.574275
2617.001186,76.609550,222.061783,8364.327145
2617.001515,919.314598,666.185348,7698.141797
2617.001844,1072.533697,-0.000000,8216.285956
2617.002173,0.000000,-148.041188,8882.471304
2617.002502,0.000000,-296.082377,8882.471304
2617.002831,-766.095498,-0.000000,8808.450710
2617.003160,-766.095498,666.185348,8216.285956
2617.003489,-842.705048,-814.226536,8882.471304
2617.003818,-842.705048,-2072.576638,9548.656652
2617.004147,-1225.752797,-1850.514855,9622.677246
2617.004476,-1532.190996,-1258.350101,9474.636058
2617.004805,-1762.019645,-74.020594,8956.491898
2617.005134,-919.314598,592.164754,8586.388927
2617.005463,-689.485948,-0.000000,8512.368333
2617.005792,-995.924147,-1110.308913,9178.553681
2617.006121,-766.095498,-1184.329507,9622.677246
2617.006450,-766.095498,-592.164754,9474.636058
2617.006779,-995.924147,-370.102971,9178.553681
2617.007108,-229.828649,-444.123565,9104.533087
2617.007437,-459.657299,-1036.288319,9770.718434
2617.007766,-459.657299,-1184.329507,9844.739029
2617.008095,612.876398,296.082377,9326.594869
2617.008424,919.314598,1480.411884,8438.347739
2617.008753,1149.143247,888.247130,8586.388927
2617.009082,1072.533697,-0.000000,9474.636058
2617.009411,383.047749,-0.000000,8586.388927
2617.009740,842.705048,-592.164754,10066.800811
2617.010069,766.095498,444.123565,8586.388927
2617.010398,1149.143247,962.267725,8734.430116
2617.010727,1532.190996,-518.144159,9622.677246
2617.011056,1838.629195,-1776.494261,9326.594869
2617.011386,1149.143247,-888.247130,9918.759623
2617.011715,1302.362347,-74.020594,9252.574275
2617.012044,1608.800546,740.205942,8808.450710
2617.012373,842.705048,814.226536,8882.471304
2617.012702,1762.019645,740.205942,8956.491898
2617.013031,1302.362347,-814.226536,9400.615463
2617.013360,919.314598,-0.000000,9178.553681
2617.013689,1072.533697,592.164754,9104.533087
2617.014018,1225.752797,592.164754,8660.409521
2617.014347,1225.752797,-0.000000,9326.594869
2617.014676,1149.143247,-1628.453072,9178.553681
2617.015005,1225.752797,-1702.473667,9696.697840
2617.015334,1225.752797,444.123565,8142.265362
2617.015663,842.705048,-0.000000,8660.409521
2617.015992,1378.971896,-518.144159,9992.780217
2617.016321,1685.410096,-296.082377,9178.553681
2617.016650,995.924147,-740.205942,9474.636058
2617.016979,459.657299,-0.000000,9030.512492
2617.017308,919.314598,1332.370696,8882.471304
2617.017637,766.095498,814.226536,9474.636058
2617.017966,612.876398,-888.247130,9104.533087
2617.018295,0.000000,-1850.514855,9326.594869
2617.018624,-306.438199,-1110.308913,9252.574275
2617.018953,-689.485948,-222.061783,9178.553681
2617.019282,-842.705048,-0.000000,8290.306550
2617.019611,-1225.752797,222.061783,8660.409521
2617.019940,-919.314598,-1036.288319,9474.636058
2617.020269,-1149.143247,-1258.350101,9548.656652
2617.020598,-995.924147,-740.205942,9474.636058
2617.020927,-919.314598,-0.000000,8364.327145
2617.021256,-306.438199,296.082377,8734.430116
2617.021585,153.219100,-814.226536,8882.471304
2617.021914,153.219100,-888.247130,8808.450710
2617.022243,383.047749,-0.000000,9474.636058
2617.022572,153.219100,740.205942,8512.368333
2617.022902,612.876398,1184.329507,7772.162391
2617.023231,383.047749,518.144159,8142.265362
2617.023560,306.438199,-370.102971,8808.450710
2617.023889,-383.047749,-962.267725,9104.533087
2617.024218,-459.657299,-444.123565,8808.450710
2617.024547,76.609550,-0.000000,8512.368333
2617.024876,-536.266849,-148.041188,9178.553681
2617.025205,-459.657299,-1258.350101,9548.656652
2617.025534,-459.657299,-1702.473667,10140.821405
2617.025863,-459.657299,-666.185348,9178.553681
2617.026192,0.000000,592.164754,9030.512492
2617.026521,229.828649,1036.288319,8660.409521
2617.026850,306.438199,814.226536,8956.491898
2617.027179,0.000000,-518.144159,9474.636058
2617.027508,536.266849,-592.164754,9548.656652
2617.027837,459.657299,-370.102971,9178.553681
2617.028166,842.705048,888.247130,8882.471304
2617.028495,1225.752797,-518.144159,9104.533087
2617.028824,995.924147,-888.247130,9030.512492
2617.029153,1149.143247,-1258.350101,9622.677246
2617.029482,766.095498,222.061783,9622.677246
2617.029811,1302.362347,1036.288319,8882.471304
2617.030140,1455.581446,1036.288319,8586.388927
2617.030469,1378.971896,-0.000000,9326.594869
2617.030798,1225.752797,-518.144159,9918.759623
2617.031127,995.924147,-0.000000,9104.533087
2617.031456,459.657299,592.164754,9178.553681
2617.031785,536.266849,1110.308913,9178.553681
2617.032114,1608.800546,-592.164754,8586.388927
2617.032443,1149.143247,-962.267725,9474.636058
2617.032772,995.924147,-1480.411884,9474.636058
2617.033101,306.438199,-518.144159,9178.553681
2617.033430,536.266849,888.247130,8438.347739
2617.033759,842.705048,666.185348,8586.388927
2617.034089,76.609550,-296.082377,9326.594869
2617.034418,995.924147,-814.226536,9104.533087
2617.034747,536.266849,-222.061783,8808.450710
2617.035076,689.485948,666.185348,8142.265362
2617.035405,766.095498,962.267725,7994.224174
2617.035734,766.095498,-444.123565,9030.512492
2617.036063,612.876398,-1184.329507,9474.636058
2617.036392,-536.266849,-1406.391290,9622.677246
2617.036721,-383.047749,-444.123565,9178.553681
2617.037050,-689.485948,148.041188,8882.471304
2617.037379,0.000000,148.041188,8882.471304
2617.037708,-229.828649,-518.144159,9326.594869
2617.038037,-459.657299,-962.267725,9844.739029
2617.038366,-612.876398,-814.226536,9400.615463
2617.038695,-536.266849,-0.000000,8882.471304
2617.039024,0.000000,296.082377,8512.368333
2617.039353,-153.219100,-888.247130,9178.553681
2617.039682,-612.876398,-1554.432478,9696.697840
2617.040011,-919.314598,-1258.350101,9400.615463
2617.040340,-536.266849,-0.000000,9400.615463
2617.040669,-766.095498,666.185348,8660.409521
2617.040998,-459.657299,1184.329507,9178.553681
2617.041327,-689.485948,-518.144159,9622.677246
2617.041656,-1149.143247,-740.205942,9696.697840
2617.041985,-842.705048,-592.164754,9474.636058
2617.042314,-689.485948,518.144159,8882.471304
2617.042643,0.000000,148.041188,8882.471304
2617.042972,153.219100,-148.041188,9992.780217
2617.043302,0.000000,-1036.288319,9474.636058
2617.043631,383.047749,-444.123565,9622.677246
2617.043960,919.314598,666.185348,8808.450710
2617.044289,1149.143247,1110.308913,8068.244768
2617.044618,1225.752797,666.185348,8290.306550
2617.044948,1378.971896,-0.000000,8956.491898
2617.045277,459.657299,-222.061783,9918.759623
2617.045606,766.095498,-0.000000,9326.594869
2617.045935,612.876398,1332.370696,8882.471304
2617.046264,153.219100,666.185348,9400.615463
2617.046593,229.828649,-444.123565,8734.430116
2617.046923,383.047749,-1628.453072,9844.739029
2617.047252,0.000000,-740.205942,9548.656652
2617.047581,919.314598,-0.000000,9030.512492
2617.047910,689.485948,740.205942,7994.224174
2617.048239,1149.143247,-0.000000,8956.491898
2617.048569,1302.362347,-74.020594,9696.697840
2617.048898,842.705048,-592.164754,9252.574275
2617.049227,1149.143247,296.082377,9104.533087
2617.049556,1455.581446,1184.329507,9400.615463
2617.049885,1608.800546,-296.082377,9104.533087
2617.050215,1991.848295,-1110.308913,9104.533087
2617.050544,1991.848295,-1258.350101,9622.677246
2617.050873,1455.581446,-666.185348,9178.553681
2617.051202,842.705048,296.082377,8956.491898
2617.051531,919.314598,296.082377,8586.388927
2617.051860,842.705048,-222.061783,9178.553681
2617.052190,1149.143247,-1480.411884,9030.512492
2617.052519,-76.609550,-962.267725,9474.636058
2617.052848,-229.828649,-0.000000,9326.594869
2617.053177,76.609550,370.102971,8808.450710
2617.053506,766.095498,222.061783,8438.347739
2617.053836,689.485948,-962.267725,9770.718434
2617.054165,76.609550,-814.226536,9622.677246
2617.054494,-229.828649,-666.185348,8956.491898
2617.054823,0.000000,666.185348,8142.265362
2617.055152,76.609550,518.144159,8364.327145
2617.055481,-306.438199,-0.000000,7920.203579
2617.055811,-459.657299,-0.000000,9548.656652
2617.056140,-766.095498,-962.267725,9400.615463
2617.056469,-1072.533697,-0.000000,8660.409521
2617.056798,-229.828649,518.144159,8882.471304
2617.057127,-459.657299,-370.102971,9178.553681
2617.057457,0.000000,-1184.329507,9326.594869
2617.057786,-383.047749,-888.247130,9252.574275
2617.058115,0.000000,-370.102971,8882.471304
2617.058444,153.219100,518.144159,8438.347739
2617.058773,76.609550,814.226536,7772.162391
2617.059103,306.438199,-0.000000,8586.388927
2617.059432,-153.219100,-666.185348,9030.512492
2617.059761,-536.266849,-518.144159,9400.615463
2617.060090,-306.438199,-0.000000,9178.553681
2617.060419,0.000000,444.123565,8808.450710
2617.060748,0.000000,-518.144159,9474.636058
2617.061078,-383.047749,-1628.453072,9696.697840
2617.061407,-536.266849,-1110.308913,9992.780217
2617.061736,-229.828649,-74.020594,9474.636058
2617.062065,459.657299,518.144159,8734.430116
2617.062394,383.047749,962.267725,8290.306550
2617.062724,536.266849,-0.000000,9474.636058
2617.063053,612.876398,-1702.473667,10658.965565
2617.063382,766.095498,-0.000000,9104.533087
2617.063711,995.924147,148.041188,8364.327145
2617.064040,1455.581446,962.267725,8438.347739
2617.064369,1685.410096,-0.000000,10362.883188
2617.064699,1149.143247,-1406.391290,10362.883188
2617.065028,459.657299,-1332.370696,9474.636058
2617.065357,1149.143247,-222.061783,9178.553681
2617.065686,1149.143247,888.247130,8586.388927
2617.066015,1762.019645,-0.000000,9178.553681
2617.066345,1532.190996,-518.144159,9178.553681
2617.066674,1455.581446,-518.144159,9178.553681
2617.067003,1532.190996,-148.041188,9326.594869
2617.067332,1225.752797,1036.288319,8142.265362
2617.067661,1532.190996,740.205942,7994.224174
2617.067991,1762.019645,-296.082377,8956.491898
2617.068320,1532.190996,-1480.411884,9400.615463
2617.068649,995.924147,-1036.288319,9178.553681
2617.068978,842.705048,-74.020594,9178.553681
2617.069307,995.924147,370.102971,8438.347739
2617.069636,459.657299,-222.061783,8216.285956
2617.069966,612.876398,-962.267725,9622.677246
2617.070295,536.266849,-1258.350101,9252.574275
2617.070624,0.000000,370.102971,9104.533087
2617.070953,153.219100,814.226536,8216.285956
2617.071282,536.266849,592.164754,8142.265362
2617.071612,1072.533697,-888.247130,8734.430116
2617.071941,383.047749,-1480.411884,9326.594869
2617.072270,-153.219100,-1184.329507,9030.512492
2617.072599,76.609550,-0.000000,8660.409521
2617.072928,229.828649,1036.288319,8438.347739
2617.073257,229.828649,-0.000000,8956.491898
2617.073587,0.000000,-148.041188,9400.615463
2617.073916,0.000000,-888.247130,9400.615463
2617.074245,-536.266849,296.082377,8808.450710
2617.074574,-1762.019645,222.061783,9104.533087
2617.074903,-766.095498,-592.164754,9252.574275
2617.075233,-1225.752797,-1184.329507,8586.388927
2617.075562,-1532.190996,-2294.638420,9918.759623
2617.075891,-1838.629195,-1332.370696,9844.739029
2617.076220,-1608.800546,222.061783,9622.677246
2617.076549,-1225.752797,814.226536,8586.388927
2617.076879,-919.314598,814.226536,8882.471304
2617.077208,-842.705048,-1184.329507,9326.594869
2617.077537,-306.438199,-0.000000,8882.471304
2617.077866,229.828649,444.123565,9104.533087
2617.078195,0.000000,1110.308913,8142.265362
2617.078524,842.705048,296.082377,8586.388927
2617.078854,1302.362347,-518.144159,8808.450710
2617.079183,689.485948,-740.205942,9474.636058
2617.079512,536.266849,-222.061783,8808.450710
2617.079841,383.047749,814.226536,8586.388927
2617.080170,306.438199,740.205942,8808.450710
2617.080500,612.876398,-148.041188,9326.594869
2617.080829,0.000000,-1110.308913,9844.739029
2617.081158,-995.924147,-814.226536,10288.862594
2617.081487,-153.219100,592.164754,9252.574275
2617.081816,536.266849,962.267725,9104.533087
2617.082145,1072.533697,-148.041188,8808.450710
2617.082475,1225.752797,-518.144159,9400.615463
2617.082804,842.705048,-1406.391290,9770.718434
2617.083133,842.705048,-222.061783,9400.615463
2617.083462,1072.533697,740.205942,9030.512492
2617.083791,995.924147,518.144159,8586.388927
2617.084121,1225.752797,148.041188,9474.636058
2617.084450,689.485948,-1036.288319,9992.780217
2617.084779,919.314598,-814.226536,9474.636058
2617.085108,842.705048,222.061783,9104.533087
2617.085437,1072.533697,-0.000000,8956.491898
2617.085767,1608.800546,148.041188,8808.450710
2617.086096,2068.457845,-1480.411884,9548.656652
2617.086425,1532.190996,-888.247130,9474.636058
2617.086754,1302.362347,592.164754,8808.450710
2617.087083,1608.800546,962.267725,8142.265362
2617.087412,1532.190996,1036.288319,7994.224174
2617.087742,1302.362347,-0.000000,8882.471304
2617.088071,689.485948,-1258.350101,9104.533087
2617.088400,536.266849,-370.102971,9326.594869
2617.088729,229.828649,592.164754,8660.409521
2617.089058,0.000000,666.185348,8364.327145
2617.089388,-153.219100,-666.185348,9252.574275
2617.089717,0.000000,-1406.391290,9696.697840
2617.090046,-306.438199,-1258.350101,9178.553681
2617.090375,-306.438199,-370.102971,8290.306550
2617.090704,0.000000,592.164754,8068.244768
2617.091033,-229.828649,444.123565,8216.285956
2617.091363,-842.705048,-148.041188,9178.553681
2617.091692,-995.924147,-592.164754,9178.553681
2617.092021,-1149.143247,-296.082377,9400.615463
2617.092350,-919.314598,-0.000000,9030.512492
2617.092679,-1225.752797,-666.185348,8586.388927
2617.093009,0.000000,-1702.473667,9178.553681
2617.093338,-229.828649,-1850.514855,10066.800811
2617.093667,-766.095498,-1702.473667,9770.718434
2617.093996,-306.438199,-296.082377,8808.450710
2617.094325,153.219100,888.247130,7920.203579
2617.094655,689.485948,-0.000000,9252.574275
2617.094984,536.266849,-740.205942,9104.533087
2617.095313,689.485948,-296.082377,9770.718434
2617.095642,306.438199,-0.000000,9178.553681
2617.095971,689.485948,888.247130,8512.368333
2617.096300,459.657299,444.123565,8956.491898
2617.096630,-306.438199,-666.185348,8956.491898
2617.096959,-459.657299,-1406.391290,10140.821405
2617.097288,-612.876398,-1258.350101,9548.656652
2617.097617,-306.438199,518.144159,9178.553681
2617.097946,383.047749,-0.000000,9326.594869
2617.098276,-383.047749,-222.061783,9252.574275
2617.098605,-306.438199,-222.061783,9918.759623
2617.098934,0.000000,-666.185348,9770.718434
2617.099263,229.828649,370.102971,8882.471304
2617.099592,1149.143247,1332.370696,8586.388927
2617.099921,2145.067394,814.226536,8512.368333
2617.100251,2145.067394,-296.082377,8956.491898
2617.100580,2221.676944,-518.144159,8808.450710
2617.100909,2987.772442,-0.000000,8586.388927
2617.101238,2221.676944,814.226536,8512.368333
2617.101567,2374.896044,1406.391290,7994.224174
2617.101897,2145.067394,-0.000000,8586.388927
2617.102226,1378.971896,-1258.350101,8734.430116
2617.102555,995.924147,-1036.288319,9474.636058
2617.102884,383.047749,-296.082377,9252.574275
2617.103213,612.876398,296.082377,8956.491898
2617.103543,536.266849,-222.061783,8808.450710
2617.103872,995.924147,-1332.370696,9474.636058
2617.104201,306.438199,-592.164754,9474.636058
2617.104530,306.438199,-1110.308913,9918.759623
2617.104859,1072.533697,296.082377,8734.430116
2617.105188,919.314598,962.267725,8512.368333
2617.105518,919.314598,-0.000000,8808.450710
2617.105847,536.266849,-370.102971,9178.553681
2617.106176,306.438199,-296.082377,9474.636058
2617.106505,536.266849,740.205942,8660.409521
2617.106834,1149.143247,222.061783,8364.327145
2617.107164,919.314598,-962.267725,9178.553681
2617.107493,1838.629195,-962.267725,9992.780217
2617.107822,536.266849,-1258.350101,9622.677246
2617.108151,459.657299,-0.000000,8956.491898
2617.108480,689.485948,1406.391290,8364.327145
2617.108809,919.314598,1258.350101,8438.347739
2617.109139,919.314598,-0.000000,8956.491898
2617.109468,-612.876398,-814.226536,9252.574275
2617.109797,-842.705048,-888.247130,9474.636058
2617.110126,-995.924147,444.123565,8882.471304
2617.110455,-1149.143247,-0.000000,8586.388927
2617.110785,-1302.362347,-1332.370696,8956.491898
2617.111114,-1378.971896,-1702.473667,9548.656652
2617.111443,-1685.410096,-1628.453072,9474.636058
2617.111772,-1838.629195,-222.061783,8586.388927
2617.112101,-995.924147,-0.000000,8808.450710
2617.112431,-1072.533697,1036.288319,8142.265362
2617.112760,-1072.533697,-222.061783,8512.368333
2617.113089,-766.095498,-1480.411884,10214.842000
2617.113418,0.000000,296.082377,9474.636058
2617.113747,229.828649,222.061783,7994.224174
2617.114076,995.924147,592.164754,8216.285956
2617.114406,459.657299,-1184.329507,8734.430116
2617.114735,306.438199,-814.226536,9622.677246
2617.115064,689.485948,-888.247130,9400.615463
2617.115393,383.047749,222.061783,8142.265362
2617.115722,153.219100,592.164754,8068.244768
2617.116052,689.485948,444.123565,9252.574275
2617.116381,612.876398,-814.226536,9252.574275
2617.116710,459.657299,-1184.329507,10214.842000
2617.117039,153.219100,-296.082377,10140.821405
2617.117368,229.828649,592.164754,9178.553681
2617.117697,383.047749,592.164754,8808.450710
2617.118027,1072.533697,-74.020594,9400.615463
2617.118356,612.876398,-740.205942,10362.883188
2617.118685,842.705048,-888.247130,9918.759623
2617.119014,766.095498,222.061783,9252.574275
2617.119343,612.876398,814.226536,8586.388927
2617.119673,689.485948,-222.061783,9178.553681
2617.120002,842.705048,-666.185348,9548.656652
2617.120331,919.314598,-814.226536,9474.636058
2617.120660,1072.533697,-222.061783,9030.512492
2617.120989,1302.362347,592.164754,8438.347739
2617.121319,1532.190996,-0.000000,8586.388927
2617.121648,1915.238745,-592.164754,9178.553681
2617.121977,1915.238745,-666.185348,9104.533087
2617.122306,1532.190996,-0.000000,9326.594869
2617.122635,1608.800546,740.205942,8438.347739
2617.122964,1915.238745,1406.391290,8438.347739
2617.123294,1762.019645,518.144159,9030.512492
2617.123623,1838.629195,-74.020594,8956.491898
2617.123952,536.266849,-592.164754,9474.636058
2617.124281,766.095498,-296.082377,9178.553681
2617.124610,383.047749,740.205942,7846.182985
2617.124940,0.000000,-370.102971,8808.450710
2617.125269,689.485948,-1480.411884,9326.594869
2617.125598,153.219100,-1924.535449,9992.780217
2617.125927,-612.876398,-1406.391290,9770.718434
2617.126256,0.000000,-0.000000,8512.368333
2617.126586,0.000000,518.144159,8438.347739
2617.126915,0.000000,444.123565,8734.430116
2617.127244,153.219100,-444.123565,9474.636058
2617.127573,-689.485948,-74.020594,9400.615463
2617.127902,0.000000,222.061783,8734.430116
2617.128231,-689.485948,444.123565,8660.409521
2617.128561,-459.657299,-740.205942,9252.574275
2617.128890,-842.705048,-1406.391290,9252.574275
2617.129219,-1072.533697,-1850.514855,9918.759623
2617.129548,-1532.190996,-1110.308913,9474.636058
2617.129877,-842.705048,222.061783,7994.224174
2617.130207,-689.485948,222.061783,8290.306550
2617.130536,-229.828649,-148.041188,9622.677246
2617.130865,-229.828649,-1406.391290,9696.697840
2617.131194,-536.266849,-518.144159,9400.615463
2617.131523,-229.828649,148.041188,8660.409521
2617.131852,0.000000,1184.329507,8142.265362
2617.132182,536.266849,-296.082377,8734.430116
2617.132511,689.485948,-518.144159,9178.553681
2617.132840,459.657299,-666.185348,9400.615463
2617.133169,1149.143247,-0.000000,8660.409521
2617.133498,229.828649,1406.391290,8142.265362
2617.133828,76.609550,962.267725,8586.388927
2617.134157,-383.047749,-0.000000,9030.512492
2617.134486,-919.314598,-1628.453072,9770.718434
2617.134815,-306.438199,-1258.350101,9474.636058
2617.135144,-153.219100,-296.082377,9030.512492
2617.135474,-306.438199,-148.041188,9104.533087
2617.135803,229.828649,-370.102971,9474.636058
2617.136132,612.876398,-1258.350101,9992.780217
2617.136461,1149.143247,-1406.391290,9918.759623
2617.136790,1302.362347,370.102971,9474.636058
2617.137119,1532.190996,1184.329507,8586.388927
2617.137449,2987.772442,740.205942,8290.306550
2617.137778,2374.896044,-0.000000,10066.800811
2617.138107,2757.943793,-148.041188,9548.656652
2617.138436,2145.067394,1258.350101,9474.636058
2617.138765,1762.019645,1258.350101,8660.409521
2617.139095,2374.896044,1554.432478,7994.224174
2617.139424,2221.676944,-0.000000,9104.533087
2617.139753,842.705048,-1776.494261,9770.718434
2617.140082,229.828649,-2220.617826,10140.821405
2617.140411,-919.314598,-1110.308913,10066.800811
2617.140740,0.000000,-222.061783,9030.512492
2617.141070,-842.705048,-148.041188,9474.636058
2617.141399,-459.657299,-814.226536,9992.780217
2617.141728,-459.657299,-592.164754,9696.697840
2617.142057,0.000000,-0.000000,9548.656652
2617.142386,0.000000,814.226536,7994.224174
2617.142716,842.705048,962.267725,8290.306550
2617.143045,2068.457845,-0.000000,8734.430116
2617.143374,1608.800546,-518.144159,8660.409521
2617.143703,1455.581446,-74.020594,8734.430116
2617.144032,1072.533697,1184.329507,7920.203579
2617.144362,1149.143247,1998.556043,7328.038826
2617.144691,919.314598,444.123565,8068.244768
2617.145020,-306.438199,-666.185348,9400.615463
2617.145349,-306.438199,-1258.350101,9400.615463
2617.145678,-1225.752797,-1110.308913,8956.491898
2617.146007,-1762.019645,-222.061783,8290.306550
2617.146336,-1225.752797,-888.247130,9178.553681
2617.146666,-1378.971896,-1554.432478,9474.636058
2617.146995,-1685.410096,-2294.638420,9992.780217
2617.147324,-1532.190996,-1998.556043,9622.677246
2617.147653,-1302.362347,370.102971,8734.430116
2617.147982,-842.705048,1036.288319,8438.347739
2617.148311,-459.657299,370.102971,8882.471304
2617.148640,-306.438199,-444.123565,9104.533087
2617.148970,-536.266849,-592.164754,9474.636058
2617.149299,0.000000,-74.020594,8734.430116
2617.149628,0.000000,-74.020594,8586.388927
2617.149957,0.000000,-296.082377,9326.594869
2617.150286,229.828649,-1406.391290,9918.759623
2617.150615,76.609550,-1554.432478,9474.636058
2617.150944,0.000000,-666.185348,9474.636058
2617.151274,306.438199,592.164754,8438.347739
2617.151603,1149.143247,740.205942,8734.430116
2617.151932,612.876398,-148.041188,8734.430116
2617.152261,1072.533697,-814.226536,10066.800811
2617.152590,842.705048,-1110.308913,9400.615463
2617.152919,612.876398,1184.329507,8956.491898
2617.153248,1072.533697,1036.288319,8586.388927
2617.153578,1455.581446,-0.000000,8882.471304
2617.153907,1608.800546,-592.164754,9178.553681
2617.154236,1149.143247,-1110.308913,9474.636058
2617.154565,1149.143247,-74.020594,9104.533087
2617.154894,383.047749,888.247130,8882.471304
2617.155223,612.876398,1332.370696,8808.450710
2617.155552,459.657299,-0.000000,9548.656652
2617.155882,306.438199,-444.123565,10066.800811
2617.156211,383.047749,-296.082377,9104.533087
2617.156540,612.876398,222.061783,9326.594869
2617.156869,766.095498,370.102971,8512.368333
2617.157198,1685.410096,-74.020594,9178.553681
2617.157527,1762.019645,-814.226536,9400.615463
2617.157857,1455.581446,-740.205942,9030.512492
2617.158186,1608.800546,296.082377,8660.409521
2617.158515,1991.848295,1184.329507,7772.162391
2617.158844,1838.629195,888.247130,8068.244768
2617.159173,1915.238745,-0.000000,8882.471304
2617.159502,1225.752797,-814.226536,9474.636058
2617.159831,306.438199,-518.144159,9548.656652
2617.160161,229.828649,666.185348,8808.450710
2617.160490,536.266849,370.102971,8586.388927
2617.160819,459.657299,-666.185348,9326.594869
2617.161148,306.438199,-888.247130,9474.636058
2617.161477,-612.876398,-1702.473667,9474.636058
2617.161806,-1149.143247,-370.102971,9252.574275
2617.162135,-383.047749,370.102971,8808.450710
2617.162465,-383.047749,296.082377,7624.121203
2617.162794,-919.314598,-888.247130,9178.553681
2617.163123,-689.485948,-1480.411884,9844.739029
2617.163452,-766.095498,-592.164754,8882.471304
2617.163781,-919.314598,-370.102971,8956.491898
2617.164110,-612.876398,-148.041188,8808.450710
2617.164439,-459.657299,-1184.329507,8956.491898
2617.164769,-153.219100,-1184.329507,9992.780217
2617.165098,0.000000,-814.226536,9178.553681
2617.165427,-689.485948,-0.000000,9104.533087
2617.165756,153.219100,518.144159,8660.409521
2617.166085,306.438199,296.082377,8364.327145
2617.166414,229.828649,-592.164754,8956.491898
2617.166743,-459.657299,-814.226536,9474.636058
2617.167073,0.000000,-666.185348,8956.491898
2617.167402,-229.828649,518.144159,7772.162391
2617.167731,0.000000,-592.164754,8364.327145
2617.168060,-153.219100,-1554.432478,9548.656652
2617.168389,0.000000,-1702.473667,10066.800811
2617.168718,-459.657299,-1258.350101,9326.594869
2617.169047,153.219100,592.164754,8438.347739
2617.169377,306.438199,1036.288319,8586.388927
2617.169706,612.876398,1480.411884,8512.368333
2617.170035,689.485948,-0.000000,9622.677246
2617.170364,153.219100,-148.041188,9770.718434
2617.170693,229.828649,-74.020594,9326.594869
2617.171022,766.095498,222.061783,9104.533087
2617.171351,306.438199,-296.082377,9030.512492
2617.171681,842.705048,-1036.288319,9696.697840
2617.172010,536.266849,-1776.494261,10140.821405
2617.172339,229.828649,-888.247130,9548.656652
2617.172668,919.314598,222.061783,8438.347739
2617.172997,1532.190996,1480.411884,8808.450710
2617.173326,1762.019645,518.144159,9104.533087
2617.173655,1532.190996,-518.144159,9474.636058
2617.173985,1302.362347,-370.102971,9104.533087
2617.174314,1149.143247,222.061783,8808.450710
2617.174643,1532.190996,1110.308913,8216.285956
2617.174972,2298.286494,370.102971,8808.450710
2617.175301,1685.410096,-1036.288319,9104.533087
2617.175630,1762.019645,-1036.288319,9474.636058
2617.175960,689.485948,-296.082377,9474.636058
2617.176289,306.438199,518.144159,8660.409521
2617.176618,689.485948,1110.308913,8734.430116
2617.176947,153.219100,-0.000000,9030.512492
2617.177276,229.828649,-888.247130,9622.677246
2617.177605,536.266849,-1110.308913,9326.594869
2617.177934,0.000000,222.061783,8734.430116
2617.178264,536.266849,666.185348,8068.244768
2617.178593,612.876398,-0.000000,8142.265362
2617.178922,612.876398,-962.267725,9030.512492
2617.179251,459.657299,-1184.329507,9252.574275
2617.179580,0.000000,-74.020594,8660.409521
2617.179909,-919.314598,370.102971,8734.430116
2617.180238,76.609550,222.061783,8734.430116
2617.180568,76.609550,-518.144159,9326.594869
2617.180897,-766.095498,-1406.391290,9696.697840
2617.181226,-766.095498,-1332.370696,9548.656652
2617.181555,-766.095498,-370.102971,9326.594869
2617.181884,-766.095498,-0.000000,8734.430116
2617.182213,-1225.752797,-518.144159,9326.594869
2617.182542,-612.876398,-1554.432478,9844.739029
2617.182872,-229.828649,-2146.597232,9252.574275
2617.183201,-306.438199,-74.020594,8216.285956
2617.183530,-383.047749,296.082377,7920.203579
2617.183859,-766.095498,592.164754,8290.306550
2617.184188,-1072.533697,-518.144159,9696.697840
2617.184517,-1302.362347,-1480.411884,10066.800811
2617.184846,-919.314598,-1258.350101,9474.636058
2617.185176,-1225.752797,-518.144159,9326.594869
2617.185505,-689.485948,-74.020594,8660.409521
2617.185834,-153.219100,-814.226536,9548.656652
2617.186163,153.219100,-1702.473667,9770.718434
2617.186492,689.485948,-888.247130,9326.594869
2617.186821,919.314598,370.102971,9104.533087
2617.187150,1455.581446,2072.576638,7846.182985
2617.187480,1455.581446,1554.432478,8068.244768
2617.187809,1762.019645,-0.000000,9030.512492
2617.188138,1608.800546,-222.061783,9030.512492
2617.188467,1302.362347,-0.000000,8586.388927
2617.188796,1302.362347,666.185348,8512.368333
2617.189125,1149.143247,518.144159,8956.491898
2617.189454,1608.800546,-962.267725,9326.594869
2617.189784,1072.533697,-1850.514855,9474.636058
2617.190113,995.924147,-1110.308913,9400.615463
2617.190442,612.876398,222.061783,8808.450710
2617.190771,612.876398,1480.411884,8512.368333
2617.191100,1455.581446,222.061783,9030.512492
2617.191429,2374.896044,296.082377,9104.533087
2617.191758,1762.019645,-592.164754,9474.636058
2617.192088,1455.581446,74.020594,9104.533087
2617.192417,1378.971896,666.185348,8216.285956
2617.192746,1455.581446,148.041188,8882.471304
2617.193075,1532.190996,-592.164754,9178.553681
2617.193404,1685.410096,-1628.453072,9548.656652
2617.193733,842.705048,-592.164754,8956.491898
2617.194063,536.266849,296.082377,8660.409521
2617.194392,536.266849,222.061783,8364.327145
2617.194721,842.705048,-74.020594,9104.533087
2617.195050,612.876398,-814.226536,9474.636058
2617.195379,76.609550,-1110.308913,9400.615463
2617.195708,0.000000,148.041188,9400.615463
2617.196037,766.095498,370.102971,8586.388927
2617.196367,842.705048,296.082377,8660.409521
2617.196696,1378.971896,-814.226536,9622.677246
2617.197025,766.095498,-370.102971,9474.636058
2617.197354,76.609550,-148.041188,8956.491898
2617.197683,0.000000,962.267725,8586.388927
2617.198012,229.828649,1184.329507,8364.327145
2617.198341,-689.485948,222.061783,9400.615463
2617.198671,-536.266849,-1036.288319,9770.718434
2617.199000,-995.924147,-1184.329507,9696.697840
2617.199329,-1685.410096,-592.164754,9400.615463
2617.199658,-1455.581446,148.041188,8512.368333
2617.199987,-1149.143247,-592.164754,8660.409521
2617.200316,-766.095498,-1702.473667,9548.656652
2617.200645,-842.705048,-1406.391290,9326.594869
2617.200975,-536.266849,-814.226536,8956.491898
2617.201304,-689.485948,592.164754,8364.327145
2617.201633,0.000000,1036.288319,7624.121203
2617.201962,306.438199,-0.000000,8216.285956
2617.202291,229.828649,-666.185348,9104.533087
2617.202620,-689.485948,-296.082377,9252.574275
2617.202949,-919.314598,-296.082377,9474.636058
2617.203279,229.828649,-0.000000,8956.491898
2617.203608,-689.485948,-370.102971,8364.327145
2617.203937,0.000000,-1554.432478,9400.615463
2617.204266,-689.485948,-2072.576638,9474.636058
2617.204595,-459.657299,-666.185348,9178.553681
2617.204924,229.828649,-0.000000,8438.347739
2617.205253,-153.219100,-148.041188,8142.265362
2617.205583,0.000000,-222.061783,8438.347739
2617.205912,1072.533697,-740.205942,9400.615463
2617.206241,383.047749,-518.144159,9030.512492
2617.206570,766.095498,-0.000000,9030.512492
2617.206899,1072.533697,518.144159,8808.450710
2617.207228,1225.752797,-888.247130,9104.533087
2617.207557,1455.581446,-1332.370696,9400.615463
2617.207887,1838.629195,-1406.391290,9696.697840
2617.208216,1149.143247,-148.041188,9474.636058
2617.208545,1608.800546,1036.288319,8142.265362
2617.208874,2374.896044,814.226536,8808.450710
2617.209203,1915.238745,-296.082377,9474.636058
2617.209532,1762.019645,-222.061783,9178.553681
2617.209861,1608.800546,-444.123565,9844.739029
2617.210191,1455.581446,666.185348,8808.450710
2617.210520,1455.581446,1332.370696,8364.327145
2617.210849,1838.629195,-0.000000,8808.450710
2617.211178,1685.410096,-814.226536,9474.636058
2617.211507,919.314598,-814.226536,9696.697840
2617.211836,459.657299,-0.000000,8734.430116
2617.212165,919.314598,1258.350101,8364.327145
2617.212495,995.924147,518.144159,8660.409521
2617.212824,1302.362347,518.144159,9326.594869
2617.213153,306.438199,-0.000000,9770.718434
2617.213482,-612.876398,-0.000000,9474.636058
2617.213811,229.828649,444.123565,9474.636058
2617.214140,383.047749,-74.020594,8364.327145
2617.214470,-383.047749,-740.205942,9844.739029
2617.214799,0.000000,-2146.597232,11029.068536
2617.215128,-689.485948,-962.267725,9474.636058
2617.215457,0.000000,370.102971,8512.368333
2617.215786,306.438199,962.267725,8290.306550
2617.216115,459.657299,148.041188,8808.450710
2617.216444,306.438199,-0.000000,9178.553681
2617.216774,459.657299,-666.185348,9844.739029
2617.217103,-1225.752797,-222.061783,8882.471304
2617.217432,-306.438199,-296.082377,8364.327145
2617.217761,-536.266849,666.185348,8290.306550
2617.218090,-612.876398,-1406.391290,9400.615463
2617.218419,-612.876398,-1776.494261,9844.739029
2617.218748,-1455.581446,-962.267725,9474.636058
2617.219078,-1455.581446,-0.000000,9474.636058
2617.219407,-1225.752797,592.164754,7994.224174
2617.219736,-1915.238745,-296.082377,8882.471304
2617.220065,-1302.362347,-1332.370696,9844.739029
2617.220394,-1225.752797,-1258.350101,9622.677246
2617.220723,-1072.533697,-296.082377,9178.553681
2617.221052,-229.828649,148.041188,8290.306550
2617.221382,536.266849,-370.102971,8882.471304
2617.221711,689.485948,-962.267725,9252.574275
2617.222040,842.705048,-740.205942,9326.594869
2617.222369,612.876398,-148.041188,8956.491898
2617.222698,919.314598,1554.432478,7476.080014
2617.223027,1378.971896,1702.473667,7846.182985
2617.223356,1532.190996,518.144159,7994.224174
2617.223686,766.095498,-370.102971,9474.636058
2617.224015,0.000000,-740.205942,9622.677246
2617.224344,919.314598,-222.061783,8734.430116
2617.224673,306.438199,814.226536,8216.285956
2617.225002,306.438199,-592.164754,9252.574275
2617.225331,612.876398,-1480.411884,9696.697840
2617.225660,229.828649,-2072.576638,10584.944971
2617.225990,842.705048,-666.185348,9622.677246
2617.226319,919.314598,518.144159,7994.224174
2617.226648,1149.143247,1184.329507,9326.594869
2617.226977,2068.457845,592.164754,8882.471304
2617.227306,2068.457845,-0.000000,9474.636058
2617.227635,1762.019645,-296.082377,9474.636058
2617.227964,1915.238745,370.102971,9030.512492
2617.228294,2298.286494,962.267725,8734.430116
2617.228623,1225.752797,-0.000000,8660.409521
2617.228952,2451.505594,-666.185348,9548.656652
2617.229281,1149.143247,-962.267725,9622.677246
2617.229610,842.705048,-0.000000,9474.636058
2617.229939,1225.752797,444.123565,8734.430116
2617.230268,229.828649,962.267725,9252.574275
2617.230598,919.314598,-296.082377,9918.759623
2617.230927,842.705048,-962.267725,9770.718434
2617.231256,0.000000,-222.061783,9992.780217
2617.231585,536.266849,518.144159,8956.491898
2617.231914,689.485948,1036.288319,8660.409521
2617.232243,842.705048,-0.000000,9030.512492
2617.232573,612.876398,-740.205942,9252.574275
2617.232902,153.219100,-740.205942,9104.533087
2617.233231,536.266849,222.061783,9104.533087
2617.233560,306.438199,1554.432478,8290.306550
2617.233889,306.438199,740.205942,8512.368333
2617.234218,0.000000,-74.020594,9252.574275
2617.234547,-766.095498,-814.226536,9104.533087
2617.234877,-1685.410096,-888.247130,9474.636058
2617.235206,-1838.629195,-370.102971,9178.553681
2617.235535,-1378.971896,-0.000000,8808.450710
2617.235864,-689.485948,-1480.411884,9474.636058
2617.236193,-1149.143247,-1406.391290,9474.636058
2617.236522,-995.924147,-1628.453072,9474.636058
2617.236851,-689.485948,-74.020594,8660.409521
2617.237181,-459.657299,592.164754,7920.203579
2617.237510,-153.219100,-74.020594,8734.430116
2617.237839,-459.657299,-444.123565,9474.636058
2617.238168,-306.438199,-1184.329507,9400.615463
2617.238497,-842.705048,-592.164754,9030.512492
2617.238826,-229.828649,296.082377,8068.244768
2617.239155,-229.828649,-296.082377,8364.327145
2617.239485,-536.266849,-740.205942,8956.491898
2617.239814,0.000000,-2072.576638,9622.677246
2617.240143,-383.047749,-1406.391290,9252.574275
2617.240472,-766.095498,-296.082377,9474.636058
2617.240801,-153.219100,592.164754,8512.368333
2617.241130,76.609550,-0.000000,8290.306550
2617.241459,0.000000,-296.082377,9474.636058
2617.241789,536.266849,-888.247130,9622.677246
2617.242118,229.828649,-148.041188,9104.533087
2617.242447,995.924147,444.123565,8216.285956
2617.242776,1225.752797,-370.102971,8586.388927
2617.243105,995.924147,-666.185348,9326.594869
2617.243434,1378.971896,-1406.391290,9696.697840
2617.243763,1072.533697,-296.082377,9252.574275
2617.244092,1685.410096,1110.308913,8956.491898
2617.244422,1838.629195,1924.535449,8808.450710
2617.244751,2145.067394,814.226536,9622.677246
2617.245080,1762.019645,222.061783,9844.739029
2617.245409,1072.533697,592.164754,9844.739029
2617.245738,536.266849,814.226536,9696.697840
2617.246067,919.314598,814.226536,8956.491898
2617.246396,1149.143247,962.267725,9178.553681
2617.246725,1302.362347,-888.247130,9400.615463
2617.247054,919.314598,-888.247130,9992.780217
2617.247383,306.438199,-888.247130,9844.739029
2617.247712,612.876398,296.082377,8956.491898
2617.248041,306.438199,518.144159,8956.491898
2617.248370,1149.143247,592.164754,8956.491898
2617.248699,1225.752797,148.041188,8882.471304
2617.249029,612.876398,-0.000000,9178.553681
2617.249358,1532.190996,222.061783,9178.553681
2617.249687,1608.800546,962.267725,8216.285956
2617.250016,1225.752797,-222.061783,8956.491898
2617.250345,1149.143247,-444.123565,8956.491898
2617.250674,76.609550,-1332.370696,9474.636058
2617.251003,-229.828649,-740.205942,9696.697840
2617.251332,-612.876398,74.020594,9178.553681
2617.251661,0.000000,-0.000000,9030.512492
2617.251990,-153.219100,-666.185348,9400.615463
2617.252319,-766.095498,-1036.288319,9770.718434
2617.252648,-1532.190996,-1480.411884,9918.759623
2617.252977,-1072.533697,-370.102971,8956.491898
2617.253307,-612.876398,-0.000000,8216.285956
2617.253636,459.657299,-370.102971,8512.368333
2617.253965,0.000000,-1184.329507,8734.430116
2617.254294,0.000000,-1480.411884,9474.636058
2617.254623,-383.047749,296.082377,8142.265362
2617.254952,0.000000,1258.350101,7328.038826
2617.255281,0.000000,888.247130,7920.203579
2617.255610,-306.438199,-0.000000,8586.388927
2617.255939,-919.314598,-962.267725,9918.759623
2617.256268,-1915.238745,-814.226536,8734.430116
2617.256597,-766.095498,-592.164754,8734.430116
2617.256926,-1072.533697,-296.082377,8586.388927
2617.257255,-1149.143247,-1036.288319,9104.533087
2617.257584,-766.095498,-2294.638420,10066.800811
2617.257914,-306.438199,-1480.411884,8808.450710
2617.258243,-229.828649,-0.000000,8882.471304
2617.258572,76.609550,888.247130,8364.327145
2617.258901,1685.410096,296.082377,8586.388927
2617.259230,1149.143247,-0.000000,9474.636058
2617.259559,995.924147,-518.144159,9696.697840
2617.259888,919.314598,222.061783,9400.615463
2617.260217,1302.362347,-0.000000,8882.471304
2617.260546,1532.190996,666.185348,8808.450710
2617.260875,1072.533697,-888.247130,9178.553681
2617.261204,1455.581446,-1332.370696,9992.780217
2617.261533,919.314598,-444.123565,9548.656652
2617.261862,919.314598,888.247130,9474.636058
2617.262191,689.485948,1036.288319,8660.409521
2617.262521,689.485948,666.185348,9104.533087
2617.262850,383.047749,-296.082377,10066.800811
2617.263179,383.047749,-1258.350101,10066.800811
2617.263508,0.000000,-518.144159,10214.842000
2617.263837,612.876398,-0.000000,9252.574275
2617.264166,1302.362347,444.123565,8734.430116
2617.264495,1685.410096,-518.144159,9770.718434
2617.264824,2068.457845,-888.247130,9474.636058
2617.265153,1762.019645,296.082377,9326.594869
2617.265482,2068.457845,518.144159,8734.430116
2617.265811,2834.553343,1998.556043,8216.285956
2617.266140,2451.505594,1258.350101,8512.368333
2617.266469,2451.505594,592.164754,9104.533087
2617.266799,1685.410096,-0.000000,8808.450710
2617.267128,1302.362347,592.164754,8808.450710
2617.267457,1608.800546,888.247130,8438.347739
2617.267786,919.314598,-222.061783,8364.327145
2617.268115,0.000000,-1258.350101,9326.594869
2617.268444,-766.095498,-1850.514855,9696.697840
2617.268773,-1378.971896,-1628.453072,9474.636058
2617.269102,-1762.019645,-296.082377,8586.388927
2617.269431,-1225.752797,814.226536,8734.430116
2617.269760,-1302.362347,-592.164754,8808.450710
2617.270089,-1838.629195,-962.267725,9474.636058
2617.270418,-1072.533697,-814.226536,9474.636058
2617.270747,-1455.581446,-740.205942,9252.574275
2617.271076,-689.485948,518.144159,8808.450710
2617.271406,0.000000,-222.061783,8364.327145
2617.271735,-153.219100,-1480.411884,9178.553681
2617.272064,-153.219100,-1332.370696,9400.615463
2617.272393,-612.876398,-1406.391290,8586.388927
2617.272722,76.609550,-148.041188,8216.285956
2617.273051,229.828649,740.205942,8364.327145
2617.273380,0.000000,-296.082377,8882.471304
2617.273709,-689.485948,-1406.391290,9326.594869
2617.274038,-842.705048,-1036.288319,9400.615463
2617.274367,-842.705048,-888.247130,8734.430116
2617.274696,-153.219100,370.102971,8438.347739
2617.275025,0.000000,-814.226536,8956.491898
2617.275354,-612.876398,-2072.576638,9474.636058
2617.275683,-919.314598,-888.247130,9400.615463
2617.276013,-383.047749,-666.185348,9178.553681
2617.276342,-612.876398,740.205942,8512.368333
2617.276671,0.000000,1480.411884,8882.471304
2617.277000,612.876398,-0.000000,9400.615463
2617.277329,1072.533697,-518.144159,9104.533087
2617.277658,536.266849,-296.082377,9474.636058
2617.277987,842.705048,-0.000000,9104.533087
2617.278316,1149.143247,1332.370696,8438.347739
2617.278645,1915.238745,-74.020594,9178.553681
2617.278974,2298.286494,-962.267725,9104.533087
2617.279303,1762.019645,-518.144159,9474.636058
2617.279632,1455.581446,-74.020594,9104.533087
2617.279961,1685.410096,962.267725,8586.388927
2617.280291,1608.800546,1110.308913,8660.409521
2617.280620,1762.019645,-0.000000,9400.615463
2617.280949,1608.800546,-0.000000,9770.718434
2617.281278,383.047749,-296.082377,9474.636058
2617.281607,1149.143247,222.061783,9252.574275
2617.281936,1302.362347,1110.308913,9030.512492
2617.282265,1455.581446,-370.102971,9474.636058
2617.282594,1302.362347,-444.123565,9770.718434
2617.282923,766.095498,-888.247130,9770.718434
2617.283252,306.438199,-148.041188,9474.636058
2617.283581,1455.581446,1110.308913,8438.347739
2617.283910,919.314598,592.164754,8290.306550
2617.284239,919.314598,-0.000000,9474.636058
2617.284568,306.438199,-666.185348,9548.656652
2617.284898,383.047749,-74.020594,9992.780217
2617.285227,153.219100,296.082377,8734.430116
2617.285556,306.438199,370.102971,8438.347739
2617.285885,229.828649,-592.164754,10140.821405
2617.286214,0.000000,-1184.329507,9918.759623
2617.286543,153.219100,-666.185348,10362.883188
2617.286872,536.266849,666.185348,8512.368333
2617.287201,229.828649,888.247130,7624.121203
2617.287530,612.876398,740.205942,9104.533087
2617.287859,459.657299,-444.123565,9252.574275
2617.288188,383.047749,-592.164754,9178.553681
2617.288517,306.438199,-740.205942,8882.471304
2617.288846,0.000000,962.267725,8216.285956
2617.289175,-383.047749,518.144159,7994.224174
2617.289505,-459.657299,-1184.329507,9104.533087
2617.289834,-1608.800546,-1924.535449,9918.759623
2617.290163,-1762.019645,-1702.473667,9252.574275
2617.290492,-2451.505594,-370.102971,10362.883188
2617.290821,-1762.019645,-0.000000,8956.491898
2617.291150,-1302.362347,222.061783,8216.285956
2617.291479,-2068.457845,-740.205942,10066.800811
2617.291808,-1685.410096,-1184.329507,10510.924376
2617.292137,-689.485948,-962.267725,9918.759623
2617.292466,-995.924147,-0.000000,7846.182985
2617.292795,689.485948,222.061783,8216.285956
2617.293124,842.705048,-1480.411884,9400.615463
2617.293453,689.485948,-666.185348,8586.388927
2617.293783,1378.971896,-592.164754,9104.533087
2617.294112,612.876398,814.226536,7846.182985
2617.294441,1532.190996,1628.453072,7550.100608
2617.294770,1608.800546,370.102971,9474.636058
2617.295099,612.876398,-962.267725,9400.615463
2617.295428,0.000000,-1184.329507,9918.759623
2617.295757,-229.828649,-666.185348,9474.636058
2617.296086,-153.219100,222.061783,8882.471304
2617.296415,0.000000,-296.082377,9178.553681
2617.296744,76.609550,-1258.350101,9992.780217
2617.297073,229.828649,-1554.432478,10214.842000
2617.297402,229.828649,-814.226536,9030.512492
2617.297731,766.095498,666.185348,8290.306550
2617.298060,2145.067394,1406.391290,8364.327145
2617.298390,1378.971896,518.144159,8660.409521
2617.298719,1685.410096,-0.000000,9696.697840
2617.299048,1685.410096,-296.082377,9104.533087
2617.299377,1532.190996,666.185348,8364.327145
2617.299706,1762.019645,1628.453072,8512.368333
2617.300035,1838.629195,444.123565,8512.368333
2617.300364,2528.115143,-1110.308913,9474.636058
2617.300693,1225.752797,-296.082377,9548.656652
2617.301022,1455.581446,-444.123565,9252.574275
2617.301351,689.485948,518.144159,8512.368333
2617.301680,1225.752797,1036.288319,8142.265362
2617.302009,1302.362347,-222.061783,8808.450710
2617.302338,919.314598,-222.061783,9696.697840
2617.302667,229.828649,-148.041188,9844.739029
2617.302997,766.095498,222.061783,8512.368333
2617.303326,612.876398,962.267725,8660.409521
2617.303655,1302.362347,-444.123565,9030.512492
2617.303984,766.095498,-888.247130,9326.594869
2617.304313,383.047749,-518.144159,9992.780217
2617.304642,1608.800546,-74.020594,9104.533087
2617.304971,689.485948,1110.308913,8364.327145
2617.305300,-76.609550,1258.350101,8882.471304
2617.305629,0.000000,-148.041188,9326.594869
2617.305958,-1072.533697,-962.267725,9696.697840
2617.306287,-1378.971896,-1480.411884,10140.821405
2617.306616,-1608.800546,-296.082377,9400.615463
2617.306945,-1149.143247,-740.205942,9548.656652
2617.307275,-1225.752797,-1258.350101,9548.656652
2617.307604,-995.924147,-1924.535449,10066.800811
2617.307933,-1302.362347,-1480.411884,9770.718434
2617.308262,-689.485948,-518.144159,8734.430116
2617.308591,-153.219100,1110.308913,8142.265362
2617.308920,76.609550,296.082377,8216.285956
2617.309249,766.095498,-740.205942,8882.471304
2617.309578,0.000000,-1036.288319,9400.615463
2617.309907,306.438199,-222.061783,8734.430116
2617.310236,459.657299,444.123565,7994.224174
2617.310565,306.438199,518.144159,7994.224174
2617.310894,306.438199,-592.164754,9030.512492
2617.311223,0.000000,-1110.308913,9252.574275
2617.311552,-766.095498,-592.164754,9400.615463
2617.311882,-229.828649,-0.000000,8956.491898
2617.312211,-459.657299,888.247130,8290.306550
2617.312540,-842.705048,296.082377,8808.450710
2617.312869,-536.266849,-1036.288319,9622.677246
2617.313198,-689.485948,-1110.308913,9326.594869
2617.313527,-612.876398,-518.144159,9178.553681
2617.313856,153.219100,222.061783,8660.409521
2617.314185,766.095498,-0.000000,8586.388927
2617.314514,1302.362347,-1480.411884,9400.615463
2617.314843,2604.724693,-1554.432478,8956.491898
2617.315172,1608.800546,-666.185348,9178.553681
2617.315501,2068.457845,740.205942,8142.265362
2617.315830,2681.334243,1776.494261,8142.265362
2617.316160,2528.115143,1036.288319,8586.388927
2617.316489,2604.724693,148.041188,9400.615463
2617.316818,1838.629195,-0.000000,9474.636058
2617.317147,1532.190996,-148.041188,9326.594869
2617.317476,919.314598,-0.000000,8734.430116
2617.317805,842.705048,-0.000000,9326.594869
2617.318134,612.876398,-1184.329507,9770.718434
2617.318463,0.000000,-1406.391290,10584.944971
2617.318792,-229.828649,-740.205942,10214.842000
2617.319121,0.000000,-0.000000,9400.615463
2617.319450,612.876398,592.164754,8734.430116
2617.319779,612.876398,370.102971,9622.677246
2617.320108,306.438199,-518.144159,10066.800811
2617.320437,536.266849,-74.020594,9622.677246
2617.320767,919.314598,518.144159,9104.533087
2617.321096,1225.752797,1184.329507,8142.265362
2617.321425,1532.190996,814.226536,8586.388927
2617.321754,1685.410096,-148.041188,8882.471304
2617.322083,1302.362347,-518.144159,9178.553681
2617.322412,689.485948,-0.000000,8660.409521
2617.322741,0.000000,1184.329507,7920.203579
2617.323070,76.609550,962.267725,8586.388927
2617.323399,-383.047749,-222.061783,8660.409521
2617.323728,-612.876398,-1258.350101,9622.677246
2617.324057,-536.266849,-1406.391290,9770.718434
2617.324386,-1685.410096,-1110.308913,9548.656652
2617.324715,-1455.581446,-0.000000,8956.491898
2617.325044,-919.314598,-888.247130,8586.388927
2617.325374,-919.314598,-1702.473667,9622.677246
2617.325703,-995.924147,-1776.494261,9622.677246
2617.326032,0.000000,-1036.288319,9104.533087
2617.326361,-689.485948,814.226536,8068.244768
2617.326690,-383.047749,888.247130,8512.368333
2617.327019,-459.657299,-74.020594,8512.368333
2617.327348,-766.095498,-814.226536,9474.636058
2617.327677,-766.095498,-814.226536,9326.594869
2617.328006,-919.314598,148.041188,8512.368333
2617.328335,-612.876398,-222.061783,8364.327145
2617.328664,-766.095498,-888.247130,8586.388927
2617.328993,-612.876398,-1776.494261,9696.697840
2617.329322,-842.705048,-1702.473667,9474.636058
2617.329652,-612.876398,-370.102971,8882.471304
2617.329981,-229.828649,296.082377,8586.388927
2617.330310,459.657299,296.082377,8660.409521
2617.330639,842.705048,-1258.350101,9622.677246
2617.330968,612.876398,-1406.391290,9400.615463
2617.331297,1685.410096,-296.082377,9104.533087
2617.331626,1225.752797,1110.308913,7846.182985
2617.331955,2068.457845,1184.329507,8068.244768
2617.332284,2298.286494,444.123565,8586.388927
2617.332613,2145.067394,-444.123565,9326.594869
2617.332942,2374.896044,-814.226536,9400.615463
2617.333271,1378.971896,-370.102971,8882.471304
2617.333600,919.314598,888.247130,8290.306550
2617.333929,0.000000,370.102971,8438.347739
2617.334259,689.485948,-888.247130,9622.677246
2617.334588,-153.219100,-740.205942,9474.636058
2617.334917,-459.657299,-222.061783,9770.718434
2617.335246,536.266849,-0.000000,9104.533087
2617.335575,0.000000,962.267725,8438.347739
2617.335904,76.609550,-518.144159,9400.615463
2617.336233,0.000000,-74.020594,9696.697840
2617.336562,-383.047749,-888.247130,9326.594869
2617.336891,-383.047749,1184.329507,9030.512492
2617.337220,-459.657299,1406.391290,8216.285956
2617.337549,-1762.019645,1184.329507,8734.430116
2617.337878,-1302.362347,-148.041188,10658.965565
2617.338207,-2068.457845,-592.164754,10584.944971
2617.338536,-3600.648841,-888.247130,9770.718434
2617.338866,-2834.553343,-222.061783,9178.553681
2617.339195,-2834.553343,148.041188,8586.388927
2617.339524,-2681.334243,-1184.329507,9178.553681
2617.339853,-2604.724693,-1258.350101,9400.615463
2617.340182,-2757.943793,-1184.329507,9844.739029
2617.340511,-3294.210641,-740.205942,9252.574275
2617.340840,-3294.210641,-0.000000,8142.265362
2617.341169,-3294.210641,666.185348,7994.224174
2617.341498,-3294.210641,518.144159,8586.388927
2617.341827,-3524.039291,-0.000000,9178.553681
2617.342156,-3447.429741,-1036.288319,9252.574275
2617.342485,-3447.429741,-296.082377,8956.491898
2617.342814,-2528.115143,-518.144159,8512.368333
2617.343144,-3370.820191,-518.144159,8290.306550
2617.343473,-3294.210641,-222.061783,8808.450710
2617.343802,-3217.601092,-962.267725,9252.574275
2617.344131,-2604.724693,-1110.308913,8290.306550
2617.344460,-2451.505594,-592.164754,8142.265362
2617.344789,-2604.724693,-148.041188,8586.388927
2617.345118,-3140.991542,-74.020594,8216.285956
2617.345447,-3447.429741,370.102971,8364.327145
2617.345776,-3677.258390,814.226536,8364.327145
2617.346105,-4213.525239,592.164754,8512.368333
2617.346434,-4136.915689,-444.123565,7402.059420
2617.346763,-4136.915689,-814.226536,9252.574275
2617.347092,-4136.915689,-518.144159,9474.636058
2617.347421,-4749.792088,-1480.411884,9844.739029
2617.347751,-4366.744339,-1480.411884,9474.636058
2617.348080,-3983.696590,-888.247130,9474.636058
2617.348409,-2757.943793,-592.164754,9104.533087
2617.348738,-2145.067394,-518.144159,9178.553681
2617.349068,-2451.505594,-592.164754,8586.388927
2617.349397,-2374.896044,-222.061783,9474.636058
2617.349726,-2374.896044,-518.144159,10066.800811
2617.350055,-3140.991542,-74.020594,9548.656652
2617.350384,-2604.724693,814.226536,9770.718434
2617.350713,-2451.505594,370.102971,9252.574275
2617.351042,-2451.505594,1850.514855,8808.450710
2617.351371,-2298.286494,1036.288319,9474.636058
2617.351700,-1762.019645,444.123565,9030.512492
2617.352029,-1608.800546,-148.041188,9474.636058
2617.352358,-689.485948,-666.185348,9844.739029
2617.352687,-689.485948,-1110.308913,9474.636058
2617.353016,-995.924147,-0.000000,9474.636058
2617.353345,0.000000,-0.000000,8734.430116
2617.353674,459.657299,740.205942,8142.265362
2617.354003,306.438199,740.205942,8438.347739
2617.354332,306.438199,1258.350101,8290.306550
2617.354661,-536.266849,222.061783,8808.450710
2617.354990,-1302.362347,-666.185348,9252.574275
2617.355320,-2221.676944,-518.144159,9400.615463
2617.355649,-3064.381992,-1850.514855,10510.924376
2617.355978,-3524.039291,-2146.597232,10214.842000
2617.356307,-3217.601092,-1184.329507,9622.677246
2617.356636,-3140.991542,-962.267725,9474.636058
2617.356965,-2298.286494,-74.020594,8808.450710
2617.357294,-2068.457845,-0.000000,8290.306550
2617.357623,-1762.019645,518.144159,8512.368333
2617.357952,-1378.971896,962.267725,7846.182985
2617.358281,-1302.362347,592.164754,7698.141797
2617.358610,-1685.410096,222.061783,7994.224174
2617.358939,-1608.800546,-814.226536,8882.471304
2617.359268,-1532.190996,-1036.288319,8586.388927
2617.359597,-1532.190996,-740.205942,8438.347739
2617.359926,-1455.581446,-1036.288319,8438.347739
2617.360255,-1915.238745,-222.061783,8438.347739
2617.360584,-2451.505594,-0.000000,9104.533087
2617.360913,-2451.505594,-370.102971,9326.594869
2617.361242,-2681.334243,-0.000000,9326.594869
2617.361571,-2528.115143,-0.000000,8956.491898
2617.361900,-3447.429741,-148.041188,8956.491898
2617.362229,-3753.867940,444.123565,8882.471304
2617.362558,-4060.306139,296.082377,8660.409521
2617.362887,-4366.744339,-222.061783,8512.368333
2617.363216,-4903.011187,-666.185348,8734.430116
2617.363545,-5362.668486,-1776.494261,9178.553681
2617.363874,-5898.935335,-2220.617826,9474.636058
2617.364203,-5898.935335,-3034.844362,10140.821405
2617.364532,-5822.325785,-2442.679609,10510.924376
2617.364861,-5209.449386,-2146.597232,10436.903782
2617.365190,-4366.744339,-1110.308913,9992.780217
2617.365519,-3600.648841,-0.000000,9770.718434
2617.365848,-2757.943793,1110.308913,9178.553681
2617.366177,-1225.752797,1998.556043,9030.512492
2617.366506,-1149.143247,2886.803174,8438.347739
2617.366835,-1455.581446,2442.679609,8438.347739
2617.367164,-1225.752797,2368.659014,8290.306550
2617.367493,-2145.067394,1924.535449,7698.141797
2617.367822,-1838.629195,1406.391290,8142.265362
2617.368151,-1838.629195,444.123565,7402.059420
2617.368480,-2221.676944,370.102971,7920.203579
2617.368809,-1991.848295,-222.061783,8290.306550
2617.369138,-2374.896044,-296.082377,8364.327145
2617.369468,-2834.553343,148.041188,8956.491898
2617.369797,-2987.772442,1110.308913,8882.471304
2617.370126,-3294.210641,1554.432478,9474.636058
2617.370455,-3370.820191,666.185348,10584.944971
2617.370784,-2911.162892,1776.494261,9918.759623
2617.371113,-2834.553343,666.185348,10510.924376
2617.371442,-2834.553343,518.144159,11769.274478
2617.371771,-2145.067394,370.102971,11177.109724
2617.372100,-1302.362347,888.247130,10288.862594
2617.372429,-689.485948,962.267725,9622.677246
2617.372758,-1072.533697,1924.535449,8734.430116
2617.373087,-1225.752797,-0.000000,11103.089130
2617.373416,2068.457845,1628.453072,9548.656652
2617.373745,2911.162892,2516.700203,6809.894666
2617.374074,4290.134789,3256.906145,7179.997637
2617.374403,3217.601092,3701.029710,5773.606348
2617.374732,3907.087040,4589.276840,7846.182985
2617.375061,2451.505594,4663.297435,6957.935855
2617.375390,3064.381992,4441.235652,8142.265362
2617.375719,2068.457845,2590.720797,9326.594869
2617.376048,0.000000,3034.844362,9992.780217
2617.376377,-1302.362347,1332.370696,11399.171507
2617.376706,-1685.410096,1480.411884,9992.780217
2617.377035,-919.314598,814.226536,10881.027347
2617.377364,-766.095498,1332.370696,10510.924376
2617.377693,689.485948,3034.844362,9252.574275
2617.378022,995.924147,2738.761985,7994.224174
2617.378351,1378.971896,2664.741391,7550.100608
2617.378680,2528.115143,4811.338623,6217.729913
2617.379009,2145.067394,4737.318029,6513.812290
2617.379338,1838.629195,4737.318029,7031.956449
2617.379667,76.609550,3923.091493,7328.038826
2617.379996,-995.924147,2294.638420,9030.512492
2617.380325,-2911.162892,2146.597232,9400.615463
2617.380654,-3294.210641,740.205942,11251.130318
2617.380983,-3217.601092,1184.329507,10510.924376
2617.381312,-2834.553343,2886.803174,9622.677246
2617.381641,-2987.772442,2368.659014,10510.924376
2617.381970,-3524.039291,2590.720797,10140.821405
2617.382299,-2681.334243,2146.597232,11103.089130
2617.382628,-1838.629195,2442.679609,9844.739029
2617.382957,-612.876398,2960.823768,9030.512492
2617.383287,-1225.752797,2886.803174,8290.306550
2617.383616,-1455.581446,2812.782580,10066.800811
2617.383945,-919.314598,1702.473667,11325.150913
2617.384274,2145.067394,3256.906145,8438.347739
2617.384603,3830.477490,4885.359217,6809.894666
2617.384932,3140.991542,5403.503377,6217.729913
2617.385261,2528.115143,6217.729913,7254.018232
2617.385590,2911.162892,7402.059420,8438.347739
2617.385919,1991.848295,5699.585753,7846.182985
2617.386248,1532.190996,6439.791695,7624.121203
2617.386577,383.047749,5699.585753,9178.553681
2617.386906,0.000000,3701.029710,9178.553681
2617.387235,-1991.848295,1258.350101,12435.459826
2617.387564,-2145.067394,-74.020594,12065.356855
2617.387893,-1225.752797,1184.329507,11399.171507
2617.388222,-1455.581446,-518.144159,12361.439231
2617.388551,-1762.019645,3182.885551,8882.471304
2617.388880,229.828649,2738.761985,10807.006753
2617.389209,1149.143247,4367.215058,8734.430116
2617.389538,2528.115143,4737.318029,7920.203579
2617.389867,3370.820191,4737.318029,7179.997637
2617.390196,3600.648841,5699.585753,7550.100608
2617.390525,2451.505594,5773.606348,7920.203579
2617.390854,1762.019645,3997.112087,6809.894666
2617.391183,0.000000,2220.617826,9326.594869
2617.391512,-1149.143247,-74.020594,11769.274478
2617.391841,-1915.238745,592.164754,11103.089130
2617.392170,-2145.067394,296.082377,11843.295072
2617.392499,-2604.724693,-0.000000,9326.594869
2617.392828,-1532.190996,1554.432478,11029.068536
2617.393157,-1378.971896,1628.453072,9400.615463
2617.393486,-919.314598,2072.576638,9178.553681
2617.393815,2451.505594,1110.308913,11103.089130
2617.394144,3600.648841,2590.720797,5699.585753
2617.394473,5132.839837,2146.597232,9104.533087
2617.394802,2987.772442,3552.988522,5995.668130
2617.395131,3907.087040,4145.153275,5625.565159
2617.395460,2987.772442,3330.926739,7772.162391
2617.395789,2451.505594,4811.338623,5551.544565
2617.396118,1532.190996,4219.173869,8512.368333
2617.396447,0.000000,1998.556043,8512.368333
2617.396776,-2911.162892,-1628.453072,12953.603985
2617.397105,-3983.696590,-3256.906145,11843.295072
2617.397435,-2604.724693,444.123565,11251.130318
2617.397764,-3064.381992,-1628.453072,11991.336260
2617.398093,-2987.772442,1702.473667,9622.677246
2617.398422,-766.095498,2072.576638,8586.388927
2617.398751,-383.047749,2812.782580,7994.224174
2617.399080,383.047749,3701.029710,8216.285956
2617.399409,4596.572988,1850.514855,11103.089130
2617.399738,2451.505594,3775.050304,3182.885551
2617.400067,4443.353888,4367.215058,9104.533087
2617.400396,2528.115143,5477.523971,4367.215058
2617.400725,5132.839837,3478.967927,7031.956449
2617.401054,2604.724693,4811.338623,5625.565159
2617.401383,2987.772442,4367.215058,6809.894666
2617.401712,766.095498,4441.235652,6883.915261
2617.402041,-919.314598,3256.906145,8586.388927
2617.402370,-5209.449386,-2590.720797,16062.468941
2617.402699,-5822.325785,-2220.617826,13249.686362
2617.403028,-3983.696590,1702.473667,9770.718434
2617.403357,-2987.772442,-5995.668130,14285.974681
2617.403686,-5362.668486,74.020594,11029.068536
2617.404015,-995.924147,1036.288319,12731.542202
2617.404344,-1991.848295,2072.576638,7772.162391
2617.404673,-1685.410096,4811.338623,8290.306550
2617.405002,1838.629195,370.102971,14211.954086
2617.405331,3907.087040,3923.091493,6809.894666
2617.405660,4979.620737,4811.338623,8142.265362
2617.405989,4060.306139,2516.700203,3404.947333
2617.406318,3753.867940,4367.215058,5773.606348
2617.406647,2068.457845,4663.297435,11177.109724
2617.406976,0.000000,5847.626942,7476.080014
2617.407305,306.438199,3775.050304,10732.986159
2617.407634,-2451.505594,-1406.391290,13249.686362
2617.407963,-2834.553343,-962.267725,11325.150913
2617.408292,-2987.772442,-148.041188,12361.439231
2617.408621,-2374.896044,-2812.782580,11695.253884
2617.408950,-2757.943793,-444.123565,8660.409521
2617.409279,-1302.362347,-1110.308913,11473.192101
2617.409608,-1302.362347,-0.000000,11325.150913
2617.409937,-153.219100,-148.041188,8956.491898
2617.410266,3447.429741,2590.720797,6365.771101
2617.410595,4366.744339,6217.729913,5551.544565
2617.410924,2681.334243,4145.153275,6513.812290
2617.411254,2068.457845,3330.926739,8882.471304
2617.411583,1302.362347,3997.112087,8364.327145
2617.411912,2221.676944,3034.844362,6883.915261
2617.412241,0.000000,-0.000000,8142.265362
2617.412570,-1072.533697,-1258.350101,10066.800811
2617.412899,-1302.362347,-3330.926739,12805.562797
2617.413228,-1532.190996,-1776.494261,11251.130318
2617.413557,-383.047749,-2738.761985,10214.842000
2617.413886,0.000000,-2220.617826,9918.759623
2617.414215,1685.410096,2368.659014,7772.162391
2617.414544,2681.334243,2442.679609,6291.750507
2617.414873,4136.915689,2072.576638,6661.853478
2617.415202,3753.867940,2516.700203,7846.182985
2617.415531,3064.381992,1776.494261,7698.141797
2617.415860,2451.505594,2368.659014,7402.059420
2617.416189,1685.410096,-222.061783,7105.977043
2617.416518,153.219100,-2368.659014,10066.800811
2617.416847,-1149.143247,-2590.720797,10732.986159
2617.417176,-1991.848295,-3997.112087,12435.459826
2617.417505,-2604.724693,-4293.194464,11769.274478
2617.417834,-2911.162892,-888.247130,10362.883188
2617.418163,-1991.848295,-1332.370696,10288.862594
2617.418492,-1685.410096,-962.267725,9992.780217
2617.418821,0.000000,-518.144159,10066.800811
2617.419150,1762.019645,-0.000000,8438.347739
2617.419479,2911.162892,1924.535449,6809.894666
2617.419808,2681.334243,962.267725,6365.771101
2617.420137,2987.772442,-74.020594,6735.874072
2617.420466,2298.286494,-444.123565,7994.224174
2617.420795,919.314598,-2146.597232,8882.471304
2617.421124,-459.657299,-2146.597232,9474.636058
2617.421453,-1685.410096,-1184.329507,9474.636058
2617.421782,-1915.238745,-962.267725,10436.903782
2617.422111,-2757.943793,-1332.370696,10881.027347
2617.422440,-2221.676944,-2368.659014,10288.862594
2617.422769,-2221.676944,-1036.288319,9326.594869
2617.423098,-2221.676944,-518.144159,10140.821405
2617.423427,-919.314598,-1924.535449,11621.233289
2617.423756,1072.533697,-1702.473667,9622.677246
2617.424085,2757.943793,-814.226536,8882.471304
2617.424414,2987.772442,-370.102971,6217.729913
2617.424743,2987.772442,1850.514855,6217.729913
2617.425072,2451.505594,1850.514855,6661.853478
2617.425402,2681.334243,2516.700203,6365.771101
2617.425731,2221.676944,1258.350101,7994.224174
2617.426060,536.266849,-1406.391290,9696.697840
2617.426389,-2374.896044,-2072.576638,10214.842000
2617.426718,-2528.115143,-2368.659014,11251.130318
2617.427047,-2451.505594,-2442.679609,11029.068536
2617.427376,-2145.067394,-1702.473667,11103.089130
2617.427705,-2451.505594,-888.247130,11251.130318
2617.428034,-1532.190996,-74.020594,10436.903782
2617.428363,-229.828649,-0.000000,8808.450710
2617.428692,842.705048,1332.370696,7698.141797
2617.429021,1838.629195,2960.823768,7624.121203
2617.429350,2681.334243,2146.597232,8068.244768
2617.429679,1915.238745,1184.329507,7550.100608
2617.430008,1608.800546,1036.288319,7698.141797
2617.430337,1378.971896,592.164754,7550.100608
2617.430666,1762.019645,-814.226536,8734.430116
2617.430995,1455.581446,-1776.494261,9474.636058
2617.431324,383.047749,-1702.473667,9696.697840
2617.431653,-536.266849,-666.185348,10436.903782
2617.431982,-1685.410096,148.041188,10066.800811
2617.432311,-1225.752797,1480.411884,9622.677246
2617.432640,-612.876398,2442.679609,9474.636058
2617.432969,76.609550,1776.494261,9770.718434
2617.433298,306.438199,1110.308913,9844.739029
2617.433627,153.219100,-0.000000,9178.553681
2617.433956,1149.143247,518.144159,8068.244768
2617.434285,995.924147,592.164754,8438.347739
2617.434614,1225.752797,-370.102971,8808.450710
2617.434943,1225.752797,-1036.288319,8956.491898
2617.435272,919.314598,-1480.411884,8364.327145
2617.435601,842.705048,-888.247130,8734.430116
2617.435930,1072.533697,444.123565,8512.368333
2617.436259,153.219100,1184.329507,9326.594869
2617.436588,459.657299,518.144159,9696.697840
2617.436917,0.000000,-0.000000,9770.718434
2617.437246,0.000000,-0.000000,10288.862594
2617.437575,229.828649,148.041188,9548.656652
2617.437904,842.705048,-0.000000,9400.615463
2617.438233,306.438199,-222.061783,9252.574275
2617.438562,1072.533697,-814.226536,9030.512492
2617.438891,76.609550,-0.000000,8586.388927
2617.439221,0.000000,518.144159,8290.306550
2617.439550,306.438199,740.205942,8142.265362
2617.439879,689.485948,-222.061783,8512.368333
2617.440208,306.438199,-1406.391290,8808.450710
2617.440537,0.000000,-1998.556043,9622.677246
2617.440866,0.000000,-1554.432478,9178.553681
2617.441195,306.438199,-740.205942,8956.491898
2617.441524,612.876398,444.123565,8956.491898
2617.441853,919.314598,-148.041188,9400.615463
2617.442182,1302.362347,-148.041188,9696.697840
2617.442511,612.876398,-74.020594,8512.368333
2617.442840,153.219100,666.185348,8734.430116
2617.443169,153.219100,1036.288319,9178.553681
2617.443498,0.000000,296.082377,9178.553681
2617.443827,-459.657299,-518.144159,9252.574275
2617.444156,-689.485948,-1628.453072,9030.512492
2617.444485,-1149.143247,-2146.597232,9326.594869
2617.444814,-766.095498,-2146.597232,8734.430116
2617.445143,0.000000,-2072.576638,8734.430116
2617.445472,0.000000,-2220.617826,9030.512492
2617.445801,-383.047749,-2072.576638,8882.471304
2617.446130,0.000000,-1184.329507,8734.430116
2617.446459,0.000000,-370.102971,8290.306550
2617.446788,536.266849,666.185348,8364.327145
2617.447117,919.314598,666.185348,8586.388927
2617.447446,459.657299,-148.041188,9178.553681
2617.447775,153.219100,-296.082377,9252.574275
2617.448104,0.000000,-444.123565,9030.512492
2617.448433,-306.438199,-814.226536,8882.471304
2617.448762,-229.828649,-1110.308913,9252.574275
2617.449091,229.828649,-1776.494261,9474.636058
2617.449420,0.000000,-2664.741391,9844.739029
2617.449750,0.000000,-1628.453072,8808.450710
2617.450079,-459.657299,-666.185348,8142.265362
2617.450408,0.000000,518.144159,8364.327145
2617.450737,842.705048,-0.000000,8808.450710
2617.451066,1302.362347,-0.000000,9178.553681
2617.451395,689.485948,-0.000000,8364.327145
2617.451724,1378.971896,296.082377,8734.430116
2617.452053,306.438199,-0.000000,8808.450710
2617.452382,1302.362347,-0.000000,9474.636058
2617.452711,1455.581446,-592.164754,9326.594869
2617.453040,919.314598,-222.061783,9104.533087
2617.453369,536.266849,370.102971,8438.347739
2617.453698,689.485948,1184.329507,9104.533087
2617.454027,383.047749,888.247130,8808.450710
2617.454356,536.266849,-0.000000,9326.594869
2617.454685,0.000000,-148.041188,9178.553681
2617.455014,0.000000,-444.123565,9030.512492
2617.455343,0.000000,-370.102971,9178.553681
2617.455672,612.876398,-222.061783,9104.533087
2617.456001,1532.190996,592.164754,9030.512492
2617.456330,1072.533697,-518.144159,9400.615463
2617.456659,1149.143247,-148.041188,9326.594869
2617.456988,1149.143247,1184.329507,9178.553681
2617.457317,1072.533697,2220.617826,8142.265362
2617.457646,995.924147,2590.720797,8734.430116
2617.457976,536.266849,1850.514855,9178.553681
2617.458305,229.828649,518.144159,10214.842000
2617.458634,0.000000,222.061783,9696.697840
2617.458963,0.000000,-1332.370696,9474.636058
2617.459292,-995.924147,-962.267725,9844.739029
2617.459621,-689.485948,-1332.370696,9696.697840
2617.459950,-536.266849,-2072.576638,9844.739029
2617.460279,-995.924147,-1110.308913,9400.615463
2617.460608,-689.485948,-296.082377,9030.512492
2617.460937,0.000000,222.061783,8734.430116
2617.461266,306.438199,2146.597232,9104.533087
2617.461595,689.485948,888.247130,9030.512492
2617.461924,229.828649,518.144159,9474.636058
2617.462253,0.000000,148.041188,9474.636058
2617.462582,536.266849,-74.020594,9252.574275
2617.462911,842.705048,-296.082377,8882.471304
2617.463240,919.314598,-0.000000,8956.491898
2617.463569,229.828649,-592.164754,9548.656652
2617.463898,-689.485948,-296.082377,9030.512492
2617.464227,0.000000,-222.061783,8290.306550
2617.464556,-229.828649,-0.000000,8660.409521
2617.464885,-306.438199,740.205942,8290.306550
2617.465214,76.609550,-444.123565,9104.533087
2617.465543,0.000000,-1332.370696,8660.409521
2617.465872,-536.266849,-888.247130,9252.574275
2617.466202,0.000000,-740.205942,9326.594869
2617.466531,383.047749,-1036.288319,8438.347739
2617.466860,766.095498,-814.226536,9252.574275
2617.467189,995.924147,-814.226536,8882.471304
2617.467518,1455.581446,-296.082377,8586.388927
2617.467847,612.876398,296.082377,8956.491898
2617.468176,1225.752797,1036.288319,8512.368333
2617.468505,1302.362347,1184.329507,9030.512492
2617.468834,919.314598,148.041188,8882.471304
2617.469163,459.657299,-296.082377,9178.553681
2617.469492,459.657299,-518.144159,9104.533087
2617.469821,995.924147,-592.164754,8734.430116
2617.470150,842.705048,-296.082377,8808.450710
2617.470479,536.266849,-1406.391290,9622.677246
2617.470808,306.438199,-1554.432478,10140.821405
2617.471137,76.609550,-814.226536,8660.409521
2617.471466,0.000000,-0.000000,8660.409521
2617.471795,229.828649,370.102971,9030.512492
2617.472124,536.266849,296.082377,9030.512492
2617.472453,459.657299,-666.185348,10066.800811
2617.472782,229.828649,-666.185348,9696.697840
2617.473111,766.095498,-740.205942,9474.636058
2617.473440,689.485948,-888.247130,9326.594869
2617.473769,919.314598,-444.123565,9178.553681
2617.474098,919.314598,-1480.411884,9696.697840
2617.474428,153.219100,-1480.411884,9252.574275
2617.474757,689.485948,-148.041188,8808.450710
2617.475086,383.047749,-0.000000,8882.471304
2617.475415,229.828649,592.164754,8438.347739
2617.475744,306.438199,148.041188,9178.553681
2617.476073,383.047749,-962.267725,9178.553681
2617.476402,0.000000,-296.082377,9030.512492
2617.476731,76.609550,-444.123565,9178.553681
2617.477060,766.095498,-666.185348,8364.327145
2617.477389,689.485948,-0.000000,8808.450710
2617.477718,842.705048,-888.247130,9474.636058
2617.478047,919.314598,-444.123565,8882.471304
2617.478376,306.438199,592.164754,8512.368333
2617.478705,459.657299,962.267725,7994.224174
2617.479034,689.485948,1184.329507,8512.368333
2617.479363,536.266849,666.185348,9252.574275
2617.479692,0.000000,-0.000000,8438.347739
2617.480021,-229.828649,296.082377,8956.491898
2617.480350,-612.876398,-444.123565,8956.491898
2617.480679,-612.876398,-666.185348,8882.471304
2617.481008,-612.876398,-1184.329507,9918.759623
2617.481337,-306.438199,-1628.453072,9400.615463
2617.481666,-689.485948,-740.205942,9252.574275
2617.481995,-612.876398,444.123565,8734.430116
2617.482324,0.000000,1184.329507,8956.491898
2617.482654,76.609550,1480.411884,9178.553681
2617.482983,1149.143247,666.185348,9030.512492
2617.483312,689.485948,222.061783,8660.409521
2617.483641,306.438199,296.082377,9178.553681
2617.483970,536.266849,222.061783,9104.533087
2617.484299,919.314598,-0.000000,9400.615463
2617.484628,1378.971896,-148.041188,9474.636058
2617.484957,1378.971896,-370.102971,9622.677246
2617.485286,0.000000,-0.000000,9622.677246
2617.485615,459.657299,1036.288319,8882.471304
2617.485944,306.438199,1110.308913,8438.347739
2617.486273,229.828649,1110.308913,9326.594869
2617.486602,306.438199,444.123565,9548.656652
2617.486931,229.828649,-296.082377,9770.718434
2617.487260,0.000000,-74.020594,9992.780217
2617.487589,76.609550,-296.082377,9622.677246
2617.487918,689.485948,-0.000000,9474.636058
2617.488247,612.876398,-444.123565,9474.636058
2617.488576,842.705048,-370.102971,9622.677246
2617.488905,689.485948,-370.102971,9326.594869
2617.489234,919.314598,592.164754,8660.409521
2617.489563,76.609550,1406.391290,8882.471304
2617.489892,995.924147,1406.391290,9104.533087
2617.490221,842.705048,-0.000000,9252.574275
2617.490550,383.047749,-222.061783,9400.615463
2617.490880,306.438199,-444.123565,9030.512492
2617.491209,459.657299,-888.247130,8734.430116
2617.491538,229.828649,-888.247130,9474.636058
2617.491867,1149.143247,-1110.308913,9326.594869
2617.492196,689.485948,-592.164754,8956.491898
2617.492525,689.485948,-444.123565,8216.285956
2617.492854,306.438199,518.144159,8068.244768
2617.493183,536.266849,814.226536,8808.450710
2617.493512,842.705048,740.205942,8956.491898
2617.493841,612.876398,-814.226536,8882.471304
2617.494170,689.485948,-814.226536,9178.553681
2617.494499,76.609550,-1036.288319,9400.615463
2617.494828,0.000000,-888.247130,9622.677246
2617.495157,153.219100,-1184.329507,9326.594869
2617.495486,306.438199,-1406.391290,9252.574275
2617.495815,383.047749,-1036.288319,9400.615463
2617.496144,76.609550,-222.061783,8882.471304
2617.496473,0.000000,-0.000000,8956.491898
2617.496802,-383.047749,592.164754,8808.450710
2617.497131,-229.828649,222.061783,9252.574275
2617.497460,0.000000,-1036.288319,9252.574275
2617.497789,-229.828649,-1332.370696,9104.533087
2617.498118,0.000000,-740.205942,8882.471304
2617.498447,612.876398,-1184.329507,8882.471304
2617.498776,536.266849,-1110.308913,9548.656652
2617.499106,1378.971896,-888.247130,9178.553681
2617.499435,842.705048,-74.020594,8882.471304
2617.499764,383.047749,518.144159,8068.244768
2617.500093,536.266849,888.247130,8216.285956
2617.500422,1149.143247,1480.411884,8882.471304
2617.500751,536.266849,222.061783,9178.553681
2617.501080,459.657299,-296.082377,9548.656652
2617.501409,0.000000,148.041188,9326.594869
2617.501738,-153.219100,-518.144159,8586.388927
2617.502067,-306.438199,-296.082377,9030.512492
2617.502396,0.000000,-814.226536,9474.636058
2617.502725,-153.219100,-1628.453072,9770.718434
2617.503054,-459.657299,-1036.288319,9326.594869
2617.503383,76.609550,-148.041188,8956.491898
2617.503712,0.000000,-0.000000,8882.471304
2617.504041,229.828649,666.185348,8882.471304
2617.504370,536.266849,-0.000000,9104.533087
2617.504699,919.314598,-0.000000,9474.636058
2617.505028,995.924147,518.144159,9030.512492
2617.505357,842.705048,370.102971,9252.574275
2617.505686,1532.190996,592.164754,8586.388927
2617.506015,1991.848295,592.164754,8808.450710
2617.506344,919.314598,-0.000000,9696.697840
2617.506673,1302.362347,-148.041188,9252.574275
2617.507002,689.485948,518.144159,9104.533087
2617.507332,459.657299,370.102971,8734.430116
2617.507661,995.924147,370.102971,9178.553681
2617.507990,459.657299,814.226536,10066.800811
2617.508319,0.000000,-296.082377,9178.553681
2617.508648,-383.047749,444.123565,8512.368333
2617.508977,0.000000,-0.000000,9178.553681
2617.509306,229.828649,-518.144159,9178.553681
2617.509635,536.266849,-666.185348,9622.677246
2617.509964,612.876398,-1406.391290,9400.615463
2617.510293,459.657299,-592.164754,9252.574275
2617.510622,153.219100,-0.000000,8438.347739
2617.510951,-229.828649,1110.308913,8808.450710
2617.511280,229.828649,740.205942,8956.491898
2617.511609,459.657299,888.247130,8882.471304
2617.511938,383.047749,-0.000000,8734.430116
2617.512267,306.438199,-296.082377,8438.347739
2617.512596,383.047749,-814.226536,9326.594869
2617.512925,919.314598,-962.267725,9178.553681
2617.513254,459.657299,-888.247130,9030.512492
2617.513583,229.828649,-1406.391290,9474.636058
2617.513912,229.828649,-444.123565,8438.347739
2617.514241,229.828649,370.102971,8364.327145
2617.514570,383.047749,888.247130,8586.388927
2617.514899,153.219100,888.247130,9326.594869
2617.515228,0.000000,444.123565,9326.594869
2617.515558,-919.314598,-222.061783,9696.697840
2617.515887,-689.485948,-148.041188,9400.615463
2617.516216,-536.266849,-666.185348,9326.594869
2617.516545,-306.438199,-740.205942,9474.636058
2617.516874,-459.657299,-1480.411884,9844.739029
2617.517203,-383.047749,-1702.473667,10140.821405
2617.517532,76.609550,-740.205942,9030.512492
2617.517861,0.000000,-0.000000,8216.285956
2617.518190,0.000000,962.267725,8364.327145
2617.518519,229.828649,814.226536,8660.409521
2617.518848,536.266849,-592.164754,9104.533087
2617.519177,536.266849,-814.226536,9104.533087
2617.519506,766.095498,-1110.308913,8438.347739
2617.519835,536.266849,-1258.350101,8808.450710
2617.520164,1149.143247,-518.144159,9030.512492
2617.520493,842.705048,-1406.391290,9844.739029
2617.520822,766.095498,-814.226536,9030.512492
2617.521151,612.876398,-74.020594,8660.409521
2617.521480,1149.143247,962.267725,8734.430116
2617.521809,689.485948,1554.432478,8512.368333
2617.522138,995.924147,444.123565,8882.471304
2617.522467,1072.533697,-222.061783,9326.594869
2617.522796,153.219100,-222.061783,8808.450710
2617.523125,0.000000,-888.247130,9326.594869
2617.523454,229.828649,-1110.308913,8734.430116
2617.523784,842.705048,-1258.350101,8956.491898
2617.524113,689.485948,-1036.288319,9622.677246
2617.524442,536.266849,-1258.350101,9104.533087
2617.524771,-612.876398,-444.123565,8956.491898
2617.525100,0.000000,592.164754,8882.471304
2617.525429,0.000000,740.205942,8882.471304
2617.525758,0.000000,518.144159,9400.615463
2617.526087,0.000000,-888.247130,9474.636058
2617.526416,0.000000,-888.247130,9696.697840
2617.526745,-153.219100,-1184.329507,9992.780217
2617.527074,612.876398,-1258.350101,9178.553681
2617.527403,1455.581446,-740.205942,9104.533087
2617.527732,995.924147,-740.205942,9548.656652
2617.528061,1302.362347,-666.185348,8586.388927
2617.528390,1225.752797,814.226536,8660.409521
2617.528719,1455.581446,1036.288319,8290.306550
2617.529048,1685.410096,1036.288319,8438.347739
2617.529377,842.705048,370.102971,9178.553681
2617.529706,306.438199,-0.000000,9104.533087
2617.530035,153.219100,-0.000000,9326.594869
2617.530364,-383.047749,-592.164754,9178.553681
2617.530693,-153.219100,-888.247130,9400.615463
2617.531022,0.000000,-814.226536,10066.800811
2617.531351,-306.438199,-1702.473667,9918.759623
2617.531680,-612.876398,-1480.411884,9178.553681
2617.532010,-766.095498,-148.041188,8882.471304
2617.532339,-842.705048,666.185348,8956.491898
2617.532668,-153.219100,888.247130,8586.388927
2617.532997,153.219100,222.061783,8808.450710
2617.533326,0.000000,-518.144159,9178.553681
2617.533655,0.000000,-518.144159,9252.574275
2617.533984,842.705048,-888.247130,8216.285956
2617.534313,766.095498,-370.102971,8808.450710
2617.534642,919.314598,-148.041188,8808.450710
2617.534971,689.485948,-740.205942,8734.430116
2617.535300,536.266849,592.164754,9104.533087
2617.535629,383.047749,740.205942,8438.347739
2617.535958,76.609550,666.185348,8216.285956
2617.536287,536.266849,1258.350101,8586.388927
2617.536616,0.000000,-0.000000,9104.533087
2617.536945,-306.438199,-74.020594,9178.553681
2617.537274,-306.438199,-296.082377,9326.594869
2617.537603,153.219100,-962.267725,8882.471304
2617.537932,0.000000,-814.226536,8882.471304
2617.538261,383.047749,-74.020594,9548.656652
2617.538590,0.000000,-740.205942,9548.656652
2617.538919,76.609550,370.102971,8586.388927
2617.539248,153.219100,962.267725,8512.368333
2617.539577,306.438199,1406.391290,8956.491898
2617.539906,383.047749,962.267725,9474.636058
2617.540236,459.657299,-666.185348,10066.800811
2617.540565,306.438199,-666.185348,9770.718434
2617.540894,842.705048,-444.123565,9548.656652
2617.541223,536.266849,-296.082377,9400.615463
2617.541552,766.095498,-0.000000,9696.697840
2617.541881,1149.143247,296.082377,9622.677246
2617.542210,1302.362347,-518.144159,8882.471304
2617.542539,1072.533697,-0.000000,8660.409521
2617.542868,1149.143247,518.144159,8438.347739
2617.543197,1225.752797,740.205942,9030.512492
2617.543526,1072.533697,296.082377,9400.615463
2617.543855,536.266849,-74.020594,9178.553681
2617.544184,0.000000,-518.144159,9326.594869
2617.544513,0.000000,-444.123565,9474.636058
2617.544842,536.266849,-296.082377,9178.553681
2617.545171,383.047749,-592.164754,9696.697840
2617.545500,459.657299,-1554.432478,9770.718434
2617.545829,76.609550,-1480.411884,9696.697840
2617.546158,0.000000,-666.185348,9178.553681
2617.546487,0.000000,-296.082377,8734.430116
2617.546816,229.828649,518.144159,8586.388927
2617.547145,229.828649,-222.061783,8808.450710
2617.547474,689.485948,-888.247130,9770.718434
2617.547803,0.000000,-888.247130,8882.471304
2617.548132,0.000000,-370.102971,8142.265362
2617.548461,536.266849,-0.000000,8290.306550
2617.548790,689.485948,-592.164754,8956.491898
2617.549119,306.438199,-1184.329507,9326.594869
2617.549448,612.876398,-1406.391290,9474.636058
2617.549777,995.924147,-888.247130,8512.368333
2617.550106,995.924147,-592.164754,8512.368333
2617.550435,689.485948,-0.000000,8660.409521
2617.550764,383.047749,-0.000000,9252.574275
2617.551093,0.000000,-370.102971,8956.491898
2617.551422,0.000000,-74.020594,8660.409521
2617.551751,229.828649,222.061783,8586.388927
2617.552080,76.609550,-592.164754,9030.512492
2617.552410,766.095498,-666.185348,9030.512492
2617.552739,536.266849,-1554.432478,8956.491898
2617.553068,0.000000,-1184.329507,8734.430116
2617.553397,0.000000,-592.164754,8660.409521
2617.553726,-153.219100,-0.000000,8882.471304
2617.554055,0.000000,666.185348,8586.388927
2617.554384,76.609550,740.205942,9104.533087
2617.554713,383.047749,-0.000000,9104.533087
2617.555042,-153.219100,-0.000000,9252.574275
2617.555371,0.000000,-518.144159,9252.574275
2617.555700,536.266849,-370.102971,8956.491898
2617.556029,612.876398,-0.000000,9178.553681
2617.556358,1149.143247,-814.226536,9622.677246
2617.556687,689.485948,-444.123565,8956.491898
2617.557016,536.266849,222.061783,9030.512492
2617.557345,1225.752797,962.267725,8808.450710
2617.557674,1072.533697,814.226536,9030.512492
2617.558003,842.705048,592.164754,9400.615463
2617.558332,536.266849,444.123565,9474.636058
2617.558661,76.609550,-0.000000,9400.615463
2617.558990,1149.143247,-222.061783,9622.677246
2617.559319,1378.971896,-222.061783,9326.594869
2617.559648,689.485948,-666.185348,10140.821405
2617.559977,459.657299,-1184.329507,9918.759623
2617.560306,306.438199,-814.226536,9474.636058
2617.560635,-229.828649,-0.000000,9030.512492
2617.560964,-306.438199,740.205942,9252.574275
2617.561293,0.000000,1628.453072,9992.780217
2617.561622,-536.266849,-0.000000,10214.842000
2617.561951,-153.219100,-148.041188,9696.697840
2617.562280,0.000000,-444.123565,8808.450710
2617.562609,76.609550,-444.123565,9178.553681
2617.562938,995.924147,-148.041188,9326.594869
2617.563267,1302.362347,-518.144159,9400.615463
2617.563596,1991.848295,-222.061783,9326.594869
2617.563925,1455.581446,888.247130,8512.368333
2617.564254,1225.752797,1258.350101,7920.203579
2617.564583,1838.629195,2368.659014,7624.121203
2617.564912,1608.800546,1998.556043,8216.285956
2617.565241,689.485948,1110.308913,8734.430116
2617.565570,229.828649,518.144159,8734.430116
2617.565899,-229.828649,-222.061783,9326.594869
2617.566228,0.000000,-444.123565,8808.450710
2617.566557,-766.095498,-518.144159,9104.533087
2617.566886,-689.485948,-1480.411884,9474.636058
2617.567215,-842.705048,-1184.329507,9178.553681
2617.567544,-689.485948,-222.061783,8956.491898
2617.567873,-383.047749,-0.000000,8290.306550
2617.568202,689.485948,1036.288319,7994.224174
2617.568531,-153.219100,888.247130,8734.430116
2617.568860,229.828649,-0.000000,8882.471304
2617.569189,76.609550,-370.102971,8734.430116
2617.569518,0.000000,-444.123565,8586.388927
2617.569847,459.657299,-592.164754,9104.533087
2617.570176,229.828649,-370.102971,8882.471304
2617.570505,459.657299,-1554.432478,9474.636058
2617.570834,0.000000,-518.144159,9474.636058
2617.571163,-689.485948,-962.267725,9178.553681
2617.571492,-229.828649,-0.000000,8956.491898
2617.571821,0.000000,444.123565,9178.553681
2617.572150,76.609550,-0.000000,9844.739029
2617.572479,0.000000,-518.144159,9918.759623
2617.572808,0.000000,-444.123565,9548.656652
2617.573137,-536.266849,-444.123565,9696.697840
2617.573466,842.705048,222.061783,9030.512492
2617.573795,842.705048,222.061783,9474.636058
2617.574124,689.485948,-222.061783,9548.656652
2617.574453,536.266849,-296.082377,9696.697840
2617.574782,459.657299,-222.061783,9178.553681
2617.575112,536.266849,370.102971,8438.347739
2617.575441,689.485948,962.267725,9400.615463
2617.575770,153.219100,370.102971,9844.739029
2617.576099,76.609550,-296.082377,10436.903782
2617.576428,0.000000,-370.102971,9622.677246
2617.576757,229.828649,-740.205942,9104.533087
2617.577086,919.314598,-0.000000,9252.574275
2617.577415,1149.143247,-296.082377,9474.636058
2617.577744,1149.143247,-296.082377,9400.615463
2617.578073,1302.362347,-296.082377,9178.553681
2617.578402,1225.752797,296.082377,8068.244768
2617.578731,1378.971896,518.144159,8216.285956
2617.579060,1378.971896,740.205942,8364.327145
2617.579389,1608.800546,-0.000000,8882.471304
2617.579718,1532.190996,-444.123565,8512.368333
2617.580047,76.609550,-0.000000,8956.491898
2617.580376,689.485948,-444.123565,8364.327145
2617.580705,536.266849,-814.226536,8882.471304
2617.581034,383.047749,-814.226536,8660.409521
2617.581363,383.047749,-1628.453072,8734.430116
2617.581692,-306.438199,-1924.535449,9030.512492
2617.582021,-383.047749,-888.247130,8438.347739
2617.582350,0.000000,-962.267725,8586.388927
2617.582679,-459.657299,-444.123565,9104.533087
2617.583008,-459.657299,-666.185348,8956.491898
2617.583337,-536.266849,-1332.370696,9400.615463
2617.583666,-536.266849,-1332.370696,9474.636058
2617.583995,-229.828649,-740.205942,8438.347739
2617.584324,689.485948,-814.226536,9030.512492
2617.584653,306.438199,-592.164754,9326.594869
2617.584982,995.924147,-1110.308913,9400.615463
2617.585311,612.876398,-666.185348,8734.430116
2617.585640,306.438199,-74.020594,8216.285956
2617.585969,306.438199,888.247130,8660.409521
2617.586298,306.438199,592.164754,8808.450710
2617.586627,0.000000,444.123565,9326.594869
2617.586956,0.000000,-148.041188,9400.615463
2617.587285,-306.438199,-0.000000,9030.512492
2617.587614,-229.828649,-148.041188,8956.491898
2617.587943,0.000000,-0.000000,9622.677246
2617.588272,-459.657299,-592.164754,10066.800811
2617.588601,0.000000,-1184.329507,10140.821405
2617.588930,-383.047749,-148.041188,9474.636058
2617.589259,-229.828649,888.247130,9104.533087
2617.589588,153.219100,2220.617826,8808.450710
2617.589917,383.047749,1554.432478,9104.533087
2617.590246,306.438199,1184.329507,9252.574275
2617.590575,383.047749,1110.308913,9474.636058
2617.590904,306.438199,296.082377,9400.615463
2617.591233,689.485948,222.061783,9400.615463
2617.591562,995.924147,-0.000000,9474.636058
2617.591891,1072.533697,-1036.288319,10066.800811
2617.592220,612.876398,-592.164754,9548.656652
2617.592549,229.828649,-962.267725,8882.471304
2617.592878,229.828649,666.185348,8512.368333
2617.593207,306.438199,1406.391290,9030.512492
2617.593536,76.609550,888.247130,9178.553681
2617.593865,306.438199,444.123565,9252.574275
2617.594194,306.438199,296.082377,8882.471304
2617.594523,383.047749,-592.164754,8734.430116
2617.594852,842.705048,-222.061783,9178.553681
2617.595181,1072.533697,-740.205942,8882.471304
2617.595510,1225.752797,-592.164754,9326.594869
2617.595839,919.314598,-962.267725,9326.594869
2617.596168,766.095498,-0.000000,8660.409521
2617.596497,459.657299,1110.308913,8290.306550
2617.596826,995.924147,1998.556043,8216.285956
2617.597155,842.705048,1036.288319,8808.450710
2617.597484,459.657299,-0.000000,9326.594869
2617.597814,689.485948,-1110.308913,9030.512492
2617.598143,153.219100,-1554.432478,8882.471304
2617.598472,536.266849,-1110.308913,8956.491898
2617.598801,919.314598,-1036.288319,8734.430116
2617.599130,383.047749,-1480.411884,9844.739029
2617.599459,229.828649,-814.226536,9104.533087
2617.599788,459.657299,-888.247130,8142.265362
2617.600117,306.438199,592.164754,8364.327145
2617.600446,689.485948,1258.350101,8290.306550
