#time,accel_x,accel_y,accel_z
2413.102989,306.438199,-74.020594,9252.574275
2413.103318,536.266849,-148.041188,9326.594869
2413.103647,536.266849,-444.123565,9400.615463
2413.103976,459.657299,-444.123565,9104.533087
2413.104304,76.609550,-444.123565,9400.615463
2413.104633,153.219100,-0.000000,9474.636058
2413.104962,0.000000,-74.020594,9104.533087
2413.105291,459.657299,-148.041188,9252.574275
2413.105620,383.047749,-296.082377,9030.512492
2413.105949,229.828649,-74.020594,9326.594869
2413.106278,0.000000,-296.082377,9400.615463
2413.106607,229.828649,-296.082377,9178.553681
2413.106936,229.828649,-296.082377,9326.594869
2413.107265,306.438199,-370.102971,8956.491898
2413.107593,153.219100,-74.020594,8808.450710
2413.107922,76.609550,-0.000000,8956.491898
2413.108251,306.438199,-0.000000,8808.450710
2413.108580,306.438199,-148.041188,9104.533087
2413.108909,306.438199,-518.144159,8882.471304
2413.109238,229.828649,-0.000000,9104.533087
2413.109567,306.438199,-0.000000,8956.491898
2413.109896,306.438199,-148.041188,8808.450710
2413.110225,229.828649,-0.000000,8956.491898
2413.110554,76.609550,-0.000000,8808.450710
2413.110882,76.609550,-0.000000,9030.512492
2413.111211,459.657299,-370.102971,8438.347739
2413.111540,306.438199,-296.082377,8586.388927
2413.111869,459.657299,-74.020594,9104.533087
2413.112198,306.438199,-74.020594,9252.574275
2413.112527,0.000000,-222.061783,9252.574275
2413.112856,536.266849,-222.061783,9326.594869
2413.113185,459.657299,-222.061783,9178.553681
2413.113514,919.314598,-518.144159,8808.450710
2413.113842,229.828649,-296.082377,8808.450710
2413.114171,306.438199,-148.041188,9030.512492
2413.114500,383.047749,-0.000000,9104.533087
2413.114829,383.047749,-222.061783,9252.574275
2413.115158,536.266849,-296.082377,9400.615463
2413.115487,-612.876398,-222.061783,9474.636058
2413.115816,612.876398,-222.061783,9326.594869
2413.116145,459.657299,-296.082377,9252.574275
2413.116474,383.047749,-370.102971,9104.533087
2413.116803,306.438199,-148.041188,9178.553681
2413.117131,306.438199,-296.082377,9178.553681
2413.117460,0.000000,-148.041188,9178.553681
2413.117789,383.047749,-296.082377,9252.574275
2413.118118,383.047749,-0.000000,8956.491898
2413.118447,229.828649,-74.020594,8734.430116
2413.118776,383.047749,-0.000000,8882.471304
2413.119105,383.047749,-0.000000,9030.512492
2413.119434,383.047749,-222.061783,8882.471304
2413.119763,0.000000,-518.144159,8808.450710
2413.120092,689.485948,-74.020594,8882.471304
2413.120420,383.047749,-0.000000,8734.430116
2413.120749,229.828649,-74.020594,8956.491898
2413.121078,229.828649,-74.020594,8882.471304
2413.121407,229.828649,-74.020594,8808.450710
2413.121736,383.047749,-74.020594,8882.471304
2413.122065,383.047749,296.082377,9252.574275
2413.122394,76.609550,-148.041188,9104.533087
2413.122723,459.657299,-74.020594,9252.574275
2413.123052,536.266849,-148.041188,9104.533087
2413.123381,306.438199,-74.020594,8956.491898
2413.123709,229.828649,-0.000000,8956.491898
2413.124038,153.219100,-74.020594,9178.553681
2413.124367,306.438199,-518.144159,9178.553681
2413.124696,306.438199,-444.123565,9252.574275
2413.125025,536.266849,-296.082377,9400.615463
2413.125354,306.438199,-296.082377,9030.512492
2413.125683,306.438199,-222.061783,9104.533087
2413.126012,229.828649,-148.041188,9178.553681
2413.126341,459.657299,-74.020594,9178.553681
2413.126670,76.609550,-222.061783,9252.574275
2413.126998,229.828649,-518.144159,9104.533087
2413.127327,229.828649,-0.000000,9178.553681
2413.127656,306.438199,-296.082377,9252.574275
2413.127985,536.266849,-0.000000,9030.512492
2413.128314,383.047749,-296.082377,9400.615463
2413.128643,1149.143247,-1036.288319,9844.739029
2413.128972,1149.143247,-1110.308913,9252.574275
2413.129301,1302.362347,-592.164754,9400.615463
2413.129630,1915.238745,-592.164754,9104.533087
2413.129958,2528.115143,-0.000000,8364.327145
2413.130287,3294.210641,370.102971,8956.491898
2413.130616,4136.915689,-74.020594,8586.388927
2413.130945,3677.258390,370.102971,8216.285956
2413.131274,2757.943793,-0.000000,8734.430116
2413.131603,3830.477490,592.164754,8068.244768
2413.131932,3447.429741,-370.102971,9326.594869
2413.132261,2528.115143,-444.123565,9104.533087
2413.132590,1455.581446,-592.164754,9400.615463
2413.132919,1991.848295,-1702.473667,9770.718434
2413.133247,2451.505594,-1184.329507,9326.594869
2413.133576,2834.553343,-222.061783,9252.574275
2413.133905,2987.772442,-1406.391290,9992.780217
2413.134234,3064.381992,-1036.288319,8882.471304
2413.134563,4290.134789,518.144159,9548.656652
2413.134892,5515.887586,592.164754,7550.100608
2413.135221,4903.011187,1258.350101,8290.306550
2413.135550,4903.011187,1184.329507,9326.594869
2413.135879,4596.572988,666.185348,7105.977043
2413.136208,4136.915689,444.123565,8808.450710
2413.136536,3447.429741,-0.000000,8808.450710
2413.136865,2451.505594,222.061783,8882.471304
2413.137194,1532.190996,-370.102971,9770.718434
2413.137523,689.485948,-888.247130,9474.636058
2413.137852,1149.143247,-518.144159,9622.677246
2413.138181,0.000000,-1036.288319,10214.842000
2413.138510,612.876398,-222.061783,9696.697840
2413.138839,459.657299,-666.185348,9918.759623
2413.139168,1302.362347,444.123565,8290.306550
2413.139497,1072.533697,-148.041188,9030.512492
2413.139825,2145.067394,1184.329507,9474.636058
2413.140154,1302.362347,-74.020594,7994.224174
2413.140483,2681.334243,1110.308913,8808.450710
2413.140812,1532.190996,-0.000000,9474.636058
2413.141141,995.924147,-0.000000,7994.224174
2413.141470,919.314598,-814.226536,9622.677246
2413.141799,76.609550,-666.185348,9326.594869
2413.142128,459.657299,-888.247130,9548.656652
2413.142457,0.000000,-1924.535449,9326.594869
2413.142785,0.000000,-1110.308913,9474.636058
2413.143114,-229.828649,-814.226536,9474.636058
2413.143443,76.609550,-888.247130,9326.594869
2413.143772,0.000000,-444.123565,8660.409521
2413.144101,995.924147,-592.164754,9696.697840
2413.144430,306.438199,-74.020594,8216.285956
2413.144759,1225.752797,370.102971,8438.347739
2413.145088,1225.752797,444.123565,8512.368333
2413.145417,1455.581446,740.205942,8290.306550
2413.145746,2068.457845,1184.329507,8142.265362
2413.146074,1685.410096,814.226536,8734.430116
2413.146403,1072.533697,666.185348,8512.368333
2413.146732,919.314598,296.082377,8068.244768
2413.147061,689.485948,444.123565,8512.368333
2413.147390,0.000000,-74.020594,8808.450710
2413.147719,0.000000,-370.102971,9252.574275
2413.148048,-612.876398,-666.185348,9474.636058
2413.148377,-612.876398,-1036.288319,9696.697840
2413.148706,-536.266849,-1036.288319,9622.677246
2413.149035,-612.876398,-888.247130,9844.739029
2413.149363,-383.047749,-888.247130,10288.862594
2413.149692,0.000000,-1110.308913,10140.821405
2413.150021,76.609550,-888.247130,9844.739029
2413.150350,1072.533697,-814.226536,9992.780217
2413.150679,1762.019645,-444.123565,9474.636058
2413.151008,2145.067394,370.102971,9178.553681
2413.151337,2834.553343,1110.308913,8734.430116
2413.151666,2987.772442,1998.556043,7994.224174
2413.151995,3140.991542,2072.576638,7994.224174
2413.152324,2604.724693,1924.535449,7402.059420
2413.152652,1608.800546,1850.514855,8364.327145
2413.152981,689.485948,444.123565,8438.347739
2413.153310,-1072.533697,-0.000000,8660.409521
2413.153639,-1149.143247,-814.226536,9474.636058
2413.153968,-1532.190996,-1480.411884,9992.780217
2413.154297,-1608.800546,-1850.514855,9030.512492
2413.154626,-1532.190996,-1702.473667,9326.594869
2413.154955,-1302.362347,-1406.391290,9178.553681
2413.155284,-1455.581446,-1924.535449,9992.780217
2413.155613,-612.876398,-1924.535449,10584.944971
2413.155941,-612.876398,-1258.350101,10214.842000
2413.156270,-306.438199,-1554.432478,9918.759623
2413.156599,-229.828649,-888.247130,9326.594869
2413.156928,-229.828649,-444.123565,9622.677246
2413.157257,0.000000,-370.102971,9622.677246
2413.157586,153.219100,222.061783,9030.512492
2413.157915,1532.190996,-0.000000,9178.553681
2413.158244,2068.457845,1924.535449,6809.894666
2413.158573,2681.334243,2368.659014,6587.832884
2413.158901,2145.067394,2072.576638,6513.812290
2413.159230,1608.800546,1480.411884,7031.956449
2413.159559,919.314598,962.267725,8512.368333
2413.159888,-306.438199,-518.144159,8882.471304
2413.160217,-919.314598,-1406.391290,9400.615463
2413.160546,-1838.629195,-1850.514855,10066.800811
2413.160875,-1302.362347,-1998.556043,9400.615463
2413.161204,-995.924147,-1332.370696,9992.780217
2413.161533,-383.047749,-888.247130,10510.924376
2413.161862,-459.657299,-370.102971,10436.903782
2413.162190,-383.047749,-370.102971,10436.903782
2413.162519,-459.657299,-222.061783,9992.780217
2413.162848,0.000000,-1406.391290,9474.636058
2413.163177,0.000000,-370.102971,10140.821405
2413.163506,76.609550,-444.123565,9474.636058
2413.163835,612.876398,-296.082377,9326.594869
2413.164164,1072.533697,296.082377,8586.388927
2413.164493,2604.724693,1110.308913,7476.080014
2413.164822,2987.772442,1258.350101,7624.121203
2413.165151,3064.381992,1554.432478,7105.977043
2413.165479,2451.505594,1924.535449,7328.038826
2413.165808,1915.238745,1628.453072,7920.203579
2413.166137,1072.533697,1258.350101,8142.265362
2413.166466,0.000000,-0.000000,9252.574275
2413.166795,0.000000,-444.123565,9252.574275
2413.167124,-766.095498,-1110.308913,9474.636058
2413.167453,-919.314598,-1998.556043,10436.903782
2413.167782,-919.314598,-1258.350101,9622.677246
2413.168111,-459.657299,-1406.391290,10362.883188
2413.168440,-689.485948,-1110.308913,9622.677246
2413.168768,-689.485948,-1258.350101,9474.636058
2413.169097,-842.705048,-1406.391290,10362.883188
2413.169426,0.000000,-2442.679609,9992.780217
2413.169755,-383.047749,-1184.329507,9548.656652
2413.170084,0.000000,-1036.288319,9400.615463
2413.170413,0.000000,-444.123565,9474.636058
2413.170742,459.657299,-222.061783,9400.615463
2413.171071,1532.190996,-0.000000,9252.574275
2413.171400,2068.457845,888.247130,7920.203579
2413.171729,2528.115143,1628.453072,7772.162391
2413.172057,2604.724693,1998.556043,7105.977043
2413.172386,2145.067394,1850.514855,7624.121203
2413.172715,1532.190996,1110.308913,8290.306550
2413.173044,766.095498,666.185348,8364.327145
2413.173373,76.609550,-296.082377,8734.430116
2413.173702,-612.876398,-518.144159,9474.636058
2413.174031,-1532.190996,-1036.288319,10140.821405
2413.174360,-995.924147,-1110.308913,9918.759623
2413.174689,-459.657299,-592.164754,9622.677246
2413.175017,-459.657299,-592.164754,9548.656652
2413.175346,-229.828649,-148.041188,9474.636058
2413.175675,-612.876398,-74.020594,9918.759623
2413.176004,0.000000,-740.205942,9992.780217
2413.176333,76.609550,-666.185348,9548.656652
2413.176662,459.657299,-74.020594,9696.697840
2413.176991,612.876398,-518.144159,9400.615463
2413.177320,766.095498,-74.020594,9400.615463
2413.177649,1838.629195,-0.000000,9104.533087
2413.177978,2528.115143,740.205942,7624.121203
2413.178306,2834.553343,1776.494261,7624.121203
2413.178635,2757.943793,1554.432478,7328.038826
2413.178964,2298.286494,1776.494261,7550.100608
2413.179293,1762.019645,1628.453072,7624.121203
2413.179622,689.485948,740.205942,7772.162391
2413.179951,-229.828649,-0.000000,8882.471304
2413.180280,-1455.581446,-814.226536,9548.656652
2413.180609,-1378.971896,-1998.556043,10140.821405
2413.180938,-919.314598,-2072.576638,9400.615463
2413.181267,-1455.581446,-1998.556043,9844.739029
2413.181596,-1532.190996,-1406.391290,9844.739029
2413.181925,-1455.581446,-1184.329507,9992.780217
2413.182254,-1915.238745,-2146.597232,11103.089130
2413.182583,-1762.019645,-2294.638420,9992.780217
2413.182912,-842.705048,-1998.556043,10807.006753
2413.183241,-689.485948,-1184.329507,9992.780217
2413.183570,-229.828649,-592.164754,9252.574275
2413.183899,0.000000,222.061783,9400.615463
2413.184228,306.438199,222.061783,9400.615463
2413.184557,306.438199,518.144159,8808.450710
2413.184886,536.266849,888.247130,8364.327145
2413.185215,919.314598,444.123565,8068.244768
2413.185544,229.828649,740.205942,7698.141797
2413.185873,1762.019645,1258.350101,7105.977043
2413.186202,1532.190996,2146.597232,7179.997637
2413.186531,1915.238745,1258.350101,7254.018232
2413.186860,1302.362347,1480.411884,7624.121203
2413.187189,612.876398,518.144159,7698.141797
2413.187518,383.047749,-444.123565,8956.491898
2413.187847,-306.438199,-888.247130,9622.677246
2413.188176,-536.266849,-1110.308913,10066.800811
2413.188505,-995.924147,-1036.288319,9918.759623
2413.188834,-536.266849,-518.144159,9696.697840
2413.189163,-153.219100,-888.247130,9696.697840
2413.189492,0.000000,-740.205942,9992.780217
2413.189821,153.219100,-888.247130,9770.718434
2413.190150,306.438199,-740.205942,9326.594869
2413.190479,612.876398,-962.267725,9918.759623
2413.190808,919.314598,-222.061783,9326.594869
2413.191137,1378.971896,-74.020594,9326.594869
2413.191466,1915.238745,370.102971,8216.285956
2413.191795,2911.162892,1110.308913,7920.203579
2413.192124,2911.162892,1702.473667,7254.018232
2413.192453,3294.210641,1184.329507,7846.182985
2413.192781,2221.676944,1258.350101,7994.224174
2413.193110,1532.190996,1036.288319,8734.430116
2413.193439,0.000000,370.102971,8808.450710
2413.193768,-842.705048,-518.144159,9474.636058
2413.194097,-1225.752797,-1628.453072,10732.986159
2413.194426,-1225.752797,-1776.494261,10436.903782
2413.194755,-766.095498,-1850.514855,10140.821405
2413.195084,-612.876398,-1702.473667,9918.759623
2413.195413,-919.314598,-1480.411884,9696.697840
2413.195742,-689.485948,-1184.329507,10066.800811
2413.196071,-842.705048,-1110.308913,10288.862594
2413.196400,-459.657299,-1258.350101,9548.656652
2413.196729,-459.657299,-888.247130,9548.656652
2413.197058,-229.828649,-296.082377,9326.594869
2413.197387,-153.219100,-666.185348,9696.697840
2413.197716,-306.438199,-0.000000,8882.471304
2413.198045,229.828649,222.061783,8586.388927
2413.198374,0.000000,592.164754,8364.327145
2413.198703,0.000000,1036.288319,8216.285956
2413.199032,612.876398,888.247130,8290.306550
2413.199361,919.314598,1110.308913,7624.121203
2413.199690,1302.362347,1184.329507,7254.018232
2413.200019,1685.410096,814.226536,7105.977043
2413.200348,1302.362347,888.247130,7550.100608
2413.200677,842.705048,814.226536,8586.388927
2413.201006,383.047749,-74.020594,8586.388927
2413.201335,-229.828649,-740.205942,9104.533087
2413.201664,-459.657299,-1406.391290,9770.718434
2413.201993,0.000000,-1702.473667,9770.718434
2413.202322,-459.657299,-1480.411884,9622.677246
2413.202651,0.000000,-888.247130,10066.800811
2413.202980,0.000000,-1036.288319,9844.739029
2413.203309,0.000000,-888.247130,9622.677246
2413.203638,306.438199,-592.164754,9844.739029
2413.203967,1149.143247,-518.144159,9918.759623
2413.204296,1915.238745,-0.000000,8956.491898
2413.204625,2911.162892,740.205942,8364.327145
2413.204954,2987.772442,1184.329507,8290.306550
2413.205283,2681.334243,1628.453072,7624.121203
2413.205612,2451.505594,1554.432478,7846.182985
2413.205941,1685.410096,1406.391290,7772.162391
2413.206270,842.705048,666.185348,8216.285956
2413.206599,153.219100,-0.000000,9104.533087
2413.206928,-995.924147,-888.247130,9844.739029
2413.207257,-1302.362347,-2294.638420,10436.903782
2413.207586,-1838.629195,-1998.556043,9770.718434
2413.207914,-1072.533697,-1702.473667,9770.718434
2413.208243,-1072.533697,-1332.370696,9844.739029
2413.208572,-995.924147,-814.226536,9992.780217
2413.208901,-995.924147,-814.226536,10436.903782
2413.209230,-1149.143247,-1184.329507,10066.800811
2413.209559,76.609550,-962.267725,9844.739029
2413.209888,-612.876398,-740.205942,10066.800811
2413.210217,0.000000,-444.123565,9104.533087
2413.210546,0.000000,-74.020594,9030.512492
2413.210875,0.000000,-0.000000,9104.533087
2413.211204,383.047749,370.102971,8438.347739
2413.211533,459.657299,666.185348,8142.265362
2413.211862,612.876398,1036.288319,8290.306550
2413.212191,536.266849,740.205942,7772.162391
2413.212520,842.705048,962.267725,7328.038826
2413.212849,1149.143247,1332.370696,7550.100608
2413.213178,1378.971896,962.267725,7920.203579
2413.213507,1149.143247,740.205942,7846.182985
2413.213836,459.657299,-0.000000,8438.347739
2413.214165,153.219100,-592.164754,8734.430116
2413.214494,0.000000,-888.247130,9030.512492
2413.214823,-766.095498,-1184.329507,10140.821405
2413.215152,-689.485948,-1332.370696,10288.862594
2413.215481,-459.657299,-1036.288319,9696.697840
2413.215810,-383.047749,-1406.391290,9918.759623
2413.216139,306.438199,-1258.350101,10214.842000
2413.216468,306.438199,-740.205942,9844.739029
2413.216797,229.828649,-592.164754,9474.636058
2413.217126,1302.362347,-444.123565,9474.636058
2413.217455,1915.238745,-0.000000,8734.430116
2413.217784,2298.286494,1110.308913,8364.327145
2413.218113,2681.334243,1184.329507,8142.265362
2413.218442,2987.772442,962.267725,8068.244768
2413.218771,2068.457845,1554.432478,7772.162391
2413.219100,1991.848295,1480.411884,8290.306550
2413.219429,1532.190996,1110.308913,8734.430116
2413.219758,536.266849,518.144159,8734.430116
2413.220087,-612.876398,-74.020594,9252.574275
2413.220416,-919.314598,-888.247130,9622.677246
2413.220745,-1149.143247,-1258.350101,10140.821405
2413.221074,-919.314598,-1184.329507,9770.718434
2413.221403,-689.485948,-1184.329507,9548.656652
2413.221732,-919.314598,-1184.329507,9178.553681
2413.222061,-306.438199,-962.267725,9400.615463
2413.222390,-536.266849,-1184.329507,9992.780217
2413.222719,-536.266849,-1258.350101,9770.718434
2413.223047,-459.657299,-1406.391290,9918.759623
2413.223376,0.000000,-1036.288319,9548.656652
2413.223705,-536.266849,-814.226536,9178.553681
2413.224034,76.609550,-370.102971,9400.615463
2413.224363,459.657299,-74.020594,9400.615463
2413.224692,0.000000,666.185348,8882.471304
2413.225021,459.657299,740.205942,8512.368333
2413.225350,612.876398,1184.329507,8586.388927
2413.225679,1072.533697,1036.288319,8290.306550
2413.226008,1072.533697,1036.288319,8068.244768
2413.226337,1302.362347,1258.350101,7550.100608
2413.226666,995.924147,814.226536,7550.100608
2413.226995,919.314598,888.247130,8290.306550
2413.227324,229.828649,370.102971,8956.491898
2413.227653,0.000000,-888.247130,9252.574275
2413.227982,-612.876398,-1184.329507,8808.450710
2413.228311,-459.657299,-1480.411884,10140.821405
2413.228640,-919.314598,-1258.350101,9622.677246
2413.228969,-383.047749,-814.226536,9918.759623
2413.229298,0.000000,-1036.288319,9844.739029
2413.229627,76.609550,-518.144159,9770.718434
2413.229956,536.266849,-370.102971,9844.739029
2413.230285,1455.581446,-444.123565,9696.697840
2413.230614,1608.800546,296.082377,9326.594869
2413.230943,2298.286494,740.205942,8290.306550
2413.231272,2757.943793,814.226536,7624.121203
2413.231601,2987.772442,1554.432478,7476.080014
2413.231930,2834.553343,1406.391290,7624.121203
2413.232259,2374.896044,1628.453072,7254.018232
2413.232588,2145.067394,1480.411884,7698.141797
2413.232917,766.095498,296.082377,8216.285956
2413.233246,0.000000,-0.000000,9104.533087
2413.233575,-1302.362347,-962.267725,9770.718434
2413.233904,-1302.362347,-1480.411884,10288.862594
2413.234233,-1302.362347,-1702.473667,9770.718434
2413.234562,-1455.581446,-1924.535449,9474.636058
2413.234891,-459.657299,-1110.308913,9992.780217
2413.235220,-689.485948,-1702.473667,10510.924376
2413.235549,-995.924147,-1850.514855,10362.883188
2413.235878,-995.924147,-1480.411884,10140.821405
2413.236207,-689.485948,-1628.453072,10066.800811
2413.236536,-842.705048,-1110.308913,9844.739029
2413.236865,-459.657299,-814.226536,9548.656652
2413.237194,0.000000,-666.185348,9400.615463
2413.237523,0.000000,-222.061783,8882.471304
2413.237852,153.219100,370.102971,9178.553681
2413.238180,842.705048,888.247130,8808.450710
2413.238509,1302.362347,1776.494261,7476.080014
2413.238838,1685.410096,962.267725,7402.059420
2413.239167,1685.410096,1184.329507,7254.018232
2413.239496,1685.410096,1554.432478,7105.977043
2413.239825,1072.533697,1110.308913,8364.327145
2413.240154,612.876398,1110.308913,7920.203579
2413.240483,76.609550,-74.020594,8808.450710
2413.240812,-536.266849,-740.205942,9400.615463
2413.241141,-612.876398,-1036.288319,9622.677246
2413.241470,-766.095498,-1924.535449,9992.780217
2413.241799,-229.828649,-962.267725,9178.553681
2413.242128,-306.438199,-814.226536,9844.739029
2413.242457,-229.828649,-888.247130,9770.718434
2413.242786,0.000000,-814.226536,9696.697840
2413.243115,76.609550,-962.267725,9474.636058
2413.243444,306.438199,-666.185348,9326.594869
2413.243773,1072.533697,-518.144159,9622.677246
2413.244102,1838.629195,-0.000000,8956.491898
2413.244431,2221.676944,1036.288319,8512.368333
2413.244760,2834.553343,1184.329507,7476.080014
2413.245089,3294.210641,1628.453072,7105.977043
2413.245418,2757.943793,1554.432478,7624.121203
2413.245747,2374.896044,1628.453072,7476.080014
2413.246076,1915.238745,814.226536,8438.347739
2413.246405,306.438199,74.020594,9326.594869
2413.246734,-842.705048,-74.020594,9474.636058
2413.247063,-1762.019645,-1628.453072,9992.780217
2413.247392,-1608.800546,-1850.514855,10732.986159
2413.247721,-1225.752797,-1924.535449,9992.780217
2413.248050,-1072.533697,-1628.453072,9918.759623
2413.248379,-689.485948,-1258.350101,9622.677246
2413.248708,-536.266849,-1850.514855,10436.903782
2413.249037,-1532.190996,-1406.391290,10584.944971
2413.249366,-689.485948,-1258.350101,10214.842000
2413.249695,-383.047749,-1332.370696,10140.821405
2413.250024,-536.266849,-592.164754,9622.677246
2413.250353,-153.219100,-666.185348,9474.636058
2413.250682,-383.047749,-518.144159,9622.677246
2413.251011,1072.533697,148.041188,8734.430116
2413.251340,1149.143247,962.267725,9252.574275
2413.251669,1149.143247,1850.514855,7550.100608
2413.251998,1762.019645,2368.659014,7328.038826
2413.252327,1685.410096,1850.514855,7254.018232
2413.252656,1302.362347,1702.473667,7402.059420
2413.252984,1532.190996,1258.350101,7772.162391
2413.253313,1225.752797,888.247130,7698.141797
2413.253642,76.609550,148.041188,8882.471304
2413.253971,-459.657299,-666.185348,9326.594869
2413.254300,-842.705048,-1406.391290,9548.656652
2413.254629,-842.705048,-1480.411884,9548.656652
2413.254958,-229.828649,-1110.308913,9400.615463
2413.255287,-536.266849,-814.226536,9622.677246
2413.255616,536.266849,-296.082377,9844.739029
2413.255945,0.000000,-888.247130,9770.718434
2413.256274,229.828649,-814.226536,9844.739029
2413.256603,229.828649,-592.164754,9992.780217
2413.256932,1149.143247,-740.205942,9992.780217
2413.257261,1762.019645,222.061783,8586.388927
2413.257590,2987.772442,518.144159,8512.368333
2413.257919,3677.258390,962.267725,7550.100608
2413.258248,4519.963438,1184.329507,7624.121203
2413.258577,3294.210641,1850.514855,7920.203579
2413.258906,2528.115143,1554.432478,7402.059420
2413.259235,1378.971896,962.267725,8142.265362
2413.259564,229.828649,222.061783,8808.450710
2413.259893,-1072.533697,-370.102971,9548.656652
2413.260222,-1838.629195,-1628.453072,10732.986159
2413.260551,-1838.629195,-1850.514855,10510.924376
2413.260880,-1302.362347,-1702.473667,9844.739029
2413.261209,-1378.971896,-1258.350101,9770.718434
2413.261538,-1225.752797,-1184.329507,9918.759623
2413.261867,-1302.362347,-1480.411884,10288.862594
2413.262196,-1762.019645,-1850.514855,9918.759623
2413.262525,-306.438199,-1258.350101,9992.780217
2413.262854,-689.485948,-1850.514855,9844.739029
2413.263183,-612.876398,-888.247130,9474.636058
2413.263512,-536.266849,-222.061783,9104.533087
2413.263841,0.000000,-0.000000,9400.615463
2413.264170,0.000000,148.041188,8438.347739
2413.264499,536.266849,740.205942,8882.471304
2413.264828,612.876398,962.267725,8438.347739
2413.265157,1225.752797,1776.494261,7031.956449
2413.265486,1608.800546,1332.370696,7179.997637
2413.265815,1455.581446,1776.494261,7105.977043
2413.266144,1225.752797,1554.432478,7254.018232
2413.266473,766.095498,1110.308913,7994.224174
2413.266802,383.047749,296.082377,7920.203579
2413.267131,-383.047749,-518.144159,8216.285956
2413.267460,-536.266849,-1110.308913,9178.553681
2413.267789,-995.924147,-1184.329507,9918.759623
2413.268117,-766.095498,-1480.411884,9918.759623
2413.268446,-459.657299,-814.226536,9770.718434
2413.268775,-536.266849,-1258.350101,9400.615463
2413.269104,-306.438199,-740.205942,9548.656652
2413.269433,0.000000,-962.267725,10066.800811
2413.269762,306.438199,-1406.391290,10362.883188
2413.270091,919.314598,-370.102971,9696.697840
2413.270420,1838.629195,-74.020594,9030.512492
2413.270749,2757.943793,518.144159,8660.409521
2413.271078,3140.991542,1184.329507,8216.285956
2413.271407,3447.429741,1184.329507,8068.244768
2413.271736,3140.991542,1406.391290,7994.224174
2413.272065,3447.429741,1036.288319,7994.224174
2413.272394,1991.848295,962.267725,8586.388927
2413.272723,383.047749,888.247130,9178.553681
2413.273052,-612.876398,-222.061783,9696.697840
2413.273381,-995.924147,-814.226536,9548.656652
2413.273710,-1762.019645,-1258.350101,9844.739029
2413.274039,-1072.533697,-1554.432478,10584.944971
2413.274368,-1685.410096,-1332.370696,9400.615463
2413.274697,-1455.581446,-1110.308913,10214.842000
2413.275026,-766.095498,-1184.329507,9992.780217
2413.275355,-689.485948,-1036.288319,9696.697840
2413.275684,-766.095498,-1036.288319,10066.800811
2413.276013,-842.705048,-1332.370696,9992.780217
2413.276342,383.047749,-1110.308913,9326.594869
2413.276671,153.219100,-518.144159,9326.594869
2413.277000,612.876398,-222.061783,9400.615463
2413.277329,842.705048,222.061783,8808.450710
2413.277658,1685.410096,962.267725,7772.162391
2413.277987,1685.410096,1480.411884,7105.977043
2413.278316,1455.581446,1554.432478,7254.018232
2413.278646,1378.971896,1480.411884,7846.182985
2413.278975,842.705048,1036.288319,7920.203579
2413.279304,229.828649,-0.000000,7994.224174
2413.279633,-459.657299,-222.061783,8216.285956
2413.279962,-689.485948,-740.205942,8808.450710
2413.280291,-1225.752797,-666.185348,9548.656652
2413.280620,-536.266849,-740.205942,9326.594869
2413.280950,-919.314598,-1184.329507,9548.656652
2413.281279,-1455.581446,-1036.288319,9622.677246
2413.281608,-459.657299,-888.247130,9400.615463
2413.281937,-383.047749,-814.226536,9622.677246
2413.282266,0.000000,-740.205942,9400.615463
2413.282595,459.657299,-666.185348,9548.656652
2413.282924,1072.533697,-666.185348,9474.636058
2413.283254,1608.800546,-296.082377,9030.512492
2413.283583,2374.896044,-0.000000,8216.285956
2413.283912,2911.162892,740.205942,8068.244768
2413.284241,2834.553343,666.185348,8216.285956
2413.284570,2451.505594,740.205942,8142.265362
2413.284899,2221.676944,1110.308913,8586.388927
2413.285228,1532.190996,814.226536,8882.471304
2413.285558,383.047749,666.185348,9252.574275
2413.285887,0.000000,296.082377,9178.553681
2413.286216,-383.047749,-148.041188,9252.574275
2413.286545,-612.876398,-0.000000,9326.594869
2413.286874,-919.314598,-592.164754,9622.677246
2413.287203,-995.924147,-444.123565,9696.697840
2413.287532,-1302.362347,-888.247130,9696.697840
2413.287862,-1915.238745,-962.267725,9326.594869
2413.288191,-689.485948,-1036.288319,9918.759623
2413.288520,-995.924147,-1036.288319,9770.718434
2413.288849,-1072.533697,-1406.391290,9622.677246
2413.289178,-689.485948,-1406.391290,9622.677246
2413.289507,-383.047749,-1110.308913,9474.636058
2413.289836,0.000000,-814.226536,9548.656652
2413.290166,153.219100,-740.205942,9400.615463
2413.290495,612.876398,-222.061783,9474.636058
2413.290824,766.095498,740.205942,8364.327145
2413.291153,1685.410096,1258.350101,8364.327145
2413.291482,1762.019645,1702.473667,7624.121203
2413.291811,1685.410096,1776.494261,7846.182985
2413.292140,1532.190996,1258.350101,7994.224174
2413.292470,536.266849,888.247130,7698.141797
2413.292799,76.609550,222.061783,8734.430116
2413.293128,-459.657299,-222.061783,8956.491898
2413.293457,-766.095498,-518.144159,9400.615463
2413.293786,-1149.143247,-814.226536,9252.574275
2413.294115,-995.924147,-1332.370696,9622.677246
2413.294444,-1225.752797,-1628.453072,9548.656652
2413.294774,-612.876398,-1258.350101,10214.842000
2413.295103,0.000000,-814.226536,9918.759623
2413.295432,-153.219100,-1036.288319,9326.594869
2413.295761,229.828649,-740.205942,9696.697840
2413.296090,536.266849,-666.185348,9918.759623
2413.296419,1225.752797,-592.164754,8882.471304
2413.296748,2298.286494,-0.000000,8660.409521
2413.297078,1991.848295,666.185348,7994.224174
2413.297407,3447.429741,888.247130,8068.244768
2413.297736,2987.772442,962.267725,7994.224174
2413.298065,2604.724693,1258.350101,8216.285956
2413.298394,1915.238745,962.267725,7920.203579
2413.298723,766.095498,740.205942,8142.265362
2413.299052,459.657299,222.061783,8882.471304
2413.299382,0.000000,-444.123565,9252.574275
2413.299711,-306.438199,-814.226536,9548.656652
2413.300040,-919.314598,-518.144159,9474.636058
2413.300369,-995.924147,-296.082377,9548.656652
2413.300698,-995.924147,-296.082377,9548.656652
2413.301027,-766.095498,-888.247130,9474.636058
2413.301356,-1225.752797,-1110.308913,9918.759623
2413.301686,-306.438199,-1702.473667,9548.656652
2413.302015,-689.485948,-1184.329507,9400.615463
2413.302344,-383.047749,-1554.432478,9844.739029
2413.302673,76.609550,-1036.288319,9474.636058
2413.303002,229.828649,-814.226536,9400.615463
2413.303331,842.705048,-444.123565,9178.553681
2413.303660,689.485948,-0.000000,9326.594869
2413.303990,1378.971896,518.144159,8734.430116
2413.304319,1149.143247,1258.350101,8438.347739
2413.304648,766.095498,740.205942,8438.347739
2413.304977,76.609550,814.226536,8586.388927
2413.305306,76.609550,666.185348,8734.430116
2413.305635,-306.438199,370.102971,8808.450710
2413.305964,-612.876398,-0.000000,9104.533087
2413.306294,0.000000,-296.082377,9400.615463
2413.306623,-689.485948,-296.082377,9252.574275
2413.306952,-153.219100,-296.082377,9178.553681
2413.307281,-306.438199,-370.102971,9326.594869
2413.307610,-229.828649,-666.185348,9252.574275
2413.307939,0.000000,-888.247130,9178.553681
2413.308268,766.095498,-888.247130,9474.636058
2413.308598,842.705048,-222.061783,9400.615463
2413.308927,766.095498,-518.144159,9030.512492
2413.309256,1762.019645,-370.102971,8808.450710
2413.309585,1915.238745,-0.000000,8512.368333
2413.309914,2298.286494,148.041188,8512.368333
2413.310243,2604.724693,296.082377,8586.388927
2413.310572,2374.896044,444.123565,8512.368333
2413.310901,2451.505594,222.061783,8734.430116
2413.311231,2451.505594,592.164754,8808.450710
2413.311560,2145.067394,814.226536,8734.430116
2413.311889,1302.362347,296.082377,9104.533087
2413.312218,995.924147,518.144159,8660.409521
2413.312547,689.485948,740.205942,8586.388927
2413.312876,306.438199,296.082377,8882.471304
2413.313205,-153.219100,-0.000000,9030.512492
2413.313535,-383.047749,-592.164754,9178.553681
2413.313864,-459.657299,-1036.288319,9622.677246
2413.314193,-1149.143247,-1554.432478,9770.718434
2413.314522,-1532.190996,-1702.473667,9622.677246
2413.314851,-1455.581446,-1480.411884,9918.759623
2413.315180,-1225.752797,-1554.432478,10066.800811
2413.315509,-1149.143247,-1332.370696,9696.697840
2413.315839,0.000000,-1258.350101,9992.780217
2413.316168,-459.657299,-1110.308913,9918.759623
2413.316497,76.609550,-444.123565,9844.739029
2413.316826,0.000000,-296.082377,9696.697840
2413.317155,459.657299,-0.000000,9104.533087
2413.317484,842.705048,592.164754,8512.368333
2413.317813,1302.362347,740.205942,8512.368333
2413.318143,2068.457845,1406.391290,7994.224174
2413.318472,1302.362347,1036.288319,7179.997637
2413.318801,1378.971896,1332.370696,7920.203579
2413.319130,612.876398,1184.329507,7920.203579
2413.319459,76.609550,666.185348,8586.388927
2413.319788,-383.047749,148.041188,8808.450710
2413.320117,-842.705048,-370.102971,8882.471304
2413.320447,-1072.533697,-888.247130,9326.594869
2413.320776,-766.095498,-1036.288319,8808.450710
2413.321105,-919.314598,-814.226536,9474.636058
2413.321434,-689.485948,-962.267725,9030.512492
2413.321763,-459.657299,-814.226536,9474.636058
2413.322092,0.000000,-740.205942,9474.636058
2413.322421,0.000000,-962.267725,9548.656652
2413.322751,612.876398,-1110.308913,9474.636058
2413.323080,919.314598,-814.226536,9178.553681
2413.323409,1762.019645,-518.144159,8808.450710
2413.323738,2451.505594,-0.000000,8290.306550
2413.324067,2681.334243,518.144159,8290.306550
2413.324396,2987.772442,962.267725,8512.368333
2413.324725,2834.553343,888.247130,8216.285956
2413.325055,2374.896044,1258.350101,7994.224174
2413.325384,1685.410096,1332.370696,8512.368333
2413.325713,2068.457845,222.061783,8290.306550
2413.326042,459.657299,148.041188,9474.636058
2413.326371,0.000000,-296.082377,9178.553681
2413.326700,-689.485948,-740.205942,9474.636058
2413.327029,-1072.533697,-666.185348,9474.636058
2413.327359,-1149.143247,-1110.308913,9770.718434
2413.327688,-995.924147,-592.164754,10658.965565
2413.328017,-1072.533697,-1480.411884,9844.739029
2413.328346,-1378.971896,-1480.411884,9844.739029
2413.328675,-842.705048,-1184.329507,9548.656652
2413.329004,-689.485948,-1258.350101,9770.718434
2413.329333,-536.266849,-1110.308913,9844.739029
2413.329663,-76.609550,-1184.329507,9474.636058
2413.329992,-383.047749,-740.205942,9696.697840
2413.330321,459.657299,-370.102971,9474.636058
2413.330650,919.314598,370.102971,8808.450710
2413.330979,1072.533697,962.267725,8216.285956
2413.331308,1455.581446,1184.329507,7624.121203
2413.331637,1302.362347,1702.473667,7550.100608
2413.331967,1302.362347,1554.432478,7698.141797
2413.332296,1455.581446,1184.329507,7698.141797
2413.332625,383.047749,518.144159,7994.224174
2413.332954,0.000000,-0.000000,8438.347739
2413.333283,-612.876398,-74.020594,8956.491898
2413.333612,-919.314598,-444.123565,9252.574275
2413.333941,-919.314598,-888.247130,9400.615463
2413.334271,-689.485948,-814.226536,9474.636058
2413.334600,-612.876398,-1406.391290,9104.533087
2413.334929,-153.219100,-814.226536,9622.677246
2413.335258,-229.828649,-740.205942,9474.636058
2413.335587,0.000000,-888.247130,9696.697840
2413.335916,536.266849,-1036.288319,9770.718434
2413.336245,1455.581446,-666.185348,9178.553681
2413.336575,2221.676944,-0.000000,9178.553681
2413.336904,2298.286494,592.164754,8586.388927
2413.337233,3064.381992,666.185348,8364.327145
2413.337562,3064.381992,592.164754,8068.244768
2413.337891,2834.553343,888.247130,8216.285956
2413.338220,2221.676944,814.226536,8512.368333
2413.338549,1302.362347,814.226536,8956.491898
2413.338879,459.657299,222.061783,8808.450710
2413.339208,76.609550,-74.020594,9326.594869
2413.339537,-689.485948,-0.000000,9844.739029
2413.339866,-919.314598,-222.061783,9992.780217
2413.340195,-995.924147,-222.061783,9622.677246
2413.340524,-1072.533697,-370.102971,9326.594869
2413.340853,-995.924147,-518.144159,9326.594869
2413.341183,-1072.533697,-666.185348,9474.636058
2413.341512,-1225.752797,-814.226536,9548.656652
2413.341841,-766.095498,-1406.391290,9918.759623
2413.342170,-689.485948,-1406.391290,9474.636058
2413.342499,-612.876398,-1406.391290,9474.636058
2413.342828,-383.047749,-1110.308913,9474.636058
2413.343157,-229.828649,-814.226536,9400.615463
2413.343487,76.609550,-518.144159,9178.553681
2413.343816,383.047749,-0.000000,8956.491898
2413.344145,383.047749,518.144159,8734.430116
2413.344474,689.485948,592.164754,8512.368333
2413.344803,1378.971896,1332.370696,7624.121203
2413.345132,1302.362347,1628.453072,7624.121203
2413.345461,842.705048,1184.329507,7772.162391
2413.345791,995.924147,888.247130,7846.182985
2413.346120,689.485948,444.123565,8438.347739
2413.346449,-459.657299,-0.000000,8438.347739
2413.346778,-459.657299,-444.123565,8808.450710
2413.347107,-766.095498,-888.247130,9104.533087
2413.347436,-995.924147,-1036.288319,9548.656652
2413.347765,-842.705048,-1184.329507,9696.697840
2413.348094,-612.876398,-1184.329507,9770.718434
2413.348424,-229.828649,-1480.411884,9770.718434
2413.348753,-153.219100,-1258.350101,9696.697840
2413.349082,0.000000,-592.164754,9918.759623
2413.349411,842.705048,-740.205942,10140.821405
2413.349740,1532.190996,-666.185348,9326.594869
2413.350069,2145.067394,-0.000000,9104.533087
2413.350398,2604.724693,-0.000000,8512.368333
2413.350728,2834.553343,518.144159,8364.327145
2413.351057,3140.991542,222.061783,8142.265362
2413.351386,2834.553343,814.226536,8290.306550
2413.351715,2451.505594,1036.288319,7994.224174
2413.352044,1762.019645,1036.288319,8364.327145
2413.352373,1149.143247,740.205942,8660.409521
2413.352702,612.876398,-0.000000,9104.533087
2413.353032,76.609550,-444.123565,9252.574275
2413.353361,-766.095498,-444.123565,9178.553681
2413.353690,-1072.533697,-296.082377,9548.656652
2413.354019,-919.314598,-1406.391290,9622.677246
2413.354348,-1149.143247,-1332.370696,9548.656652
2413.354677,-1608.800546,-1036.288319,9474.636058
2413.355006,-1072.533697,-1110.308913,9474.636058
2413.355336,-995.924147,-1110.308913,9696.697840
2413.355665,-766.095498,-1184.329507,9918.759623
2413.355994,-536.266849,-1406.391290,9622.677246
2413.356323,-306.438199,-1258.350101,9400.615463
2413.356652,306.438199,-888.247130,9400.615463
2413.356981,153.219100,-148.041188,9474.636058
2413.357310,536.266849,222.061783,8734.430116
2413.357640,766.095498,740.205942,8290.306550
2413.357969,1532.190996,1110.308913,7920.203579
2413.358298,1149.143247,1184.329507,7550.100608
2413.358627,1378.971896,1480.411884,7105.977043
2413.358956,536.266849,740.205942,8068.244768
2413.359285,153.219100,666.185348,8586.388927
2413.359614,0.000000,370.102971,8808.450710
2413.359944,-766.095498,-148.041188,9104.533087
2413.360273,-919.314598,-814.226536,9474.636058
2413.360602,-1378.971896,-962.267725,9770.718434
2413.360931,-1072.533697,-888.247130,9770.718434
2413.361260,-383.047749,-1110.308913,9474.636058
2413.361589,-612.876398,-888.247130,9992.780217
2413.361918,76.609550,-592.164754,9548.656652
2413.362248,229.828649,-962.267725,9622.677246
2413.362577,689.485948,-740.205942,9326.594869
2413.362906,1378.971896,-444.123565,9326.594869
2413.363235,2145.067394,-0.000000,9030.512492
2413.363564,2757.943793,148.041188,8586.388927
2413.363893,2604.724693,296.082377,8290.306550
2413.364222,2681.334243,518.144159,8068.244768
2413.364552,2528.115143,518.144159,8290.306550
2413.364881,2145.067394,962.267725,8586.388927
2413.365210,1608.800546,1036.288319,8808.450710
2413.365539,689.485948,666.185348,8734.430116
2413.365868,459.657299,444.123565,8808.450710
2413.366197,229.828649,296.082377,8956.491898
2413.366526,-229.828649,-0.000000,9104.533087
2413.366856,-459.657299,-148.041188,9104.533087
2413.367185,-689.485948,-444.123565,9104.533087
2413.367514,-995.924147,-1110.308913,9696.697840
2413.367843,-919.314598,-1332.370696,9326.594869
2413.368172,-995.924147,-1332.370696,9696.697840
2413.368501,-919.314598,-1480.411884,9770.718434
2413.368830,-1072.533697,-1554.432478,9696.697840
2413.369160,-995.924147,-1406.391290,9622.677246
2413.369489,-229.828649,-1258.350101,9844.739029
2413.369818,76.609550,-1110.308913,9622.677246
2413.370147,76.609550,-296.082377,9326.594869
2413.370476,689.485948,-0.000000,9326.594869
2413.370805,1072.533697,666.185348,8734.430116
2413.371134,1378.971896,888.247130,8512.368333
2413.371464,1608.800546,1480.411884,7994.224174
2413.371793,1302.362347,1480.411884,7994.224174
2413.372122,459.657299,1036.288319,8290.306550
2413.372451,919.314598,740.205942,8216.285956
2413.372780,383.047749,592.164754,8734.430116
2413.373109,-536.266849,-0.000000,8956.491898
2413.373438,-919.314598,-444.123565,9178.553681
2413.373768,-1072.533697,-888.247130,9474.636058
2413.374097,-842.705048,-1036.288319,9474.636058
2413.374426,-689.485948,-1036.288319,9622.677246
2413.374755,-842.705048,-740.205942,9844.739029
2413.375084,0.000000,-518.144159,9696.697840
2413.375413,-306.438199,-740.205942,9474.636058
2413.375742,76.609550,-592.164754,9474.636058
2413.376072,383.047749,-814.226536,9696.697840
2413.376401,919.314598,-740.205942,9400.615463
2413.376730,2374.896044,-518.144159,8734.430116
2413.377059,2451.505594,-0.000000,8364.327145
2413.377388,2681.334243,444.123565,8438.347739
2413.377717,3140.991542,1332.370696,8216.285956
2413.378046,2681.334243,1184.329507,7994.224174
2413.378376,2451.505594,1036.288319,7772.162391
2413.378705,1762.019645,1184.329507,8068.244768
2413.379034,1225.752797,444.123565,8660.409521
2413.379363,612.876398,-0.000000,9030.512492
2413.379692,-842.705048,-370.102971,9622.677246
2413.380022,-919.314598,-666.185348,9474.636058
2413.380351,-919.314598,-666.185348,9770.718434
2413.380680,-1225.752797,-1036.288319,9844.739029
2413.381009,-1225.752797,-1036.288319,9474.636058
2413.381339,-1149.143247,-1554.432478,9918.759623
2413.381668,-995.924147,-1628.453072,9992.780217
2413.381997,-766.095498,-1480.411884,10140.821405
2413.382326,-536.266849,-1628.453072,9770.718434
2413.382656,-536.266849,-1332.370696,9622.677246
2413.382985,-153.219100,-1110.308913,9474.636058
2413.383314,0.000000,-444.123565,9474.636058
2413.383643,76.609550,-518.144159,9696.697840
2413.383973,536.266849,-74.020594,9400.615463
2413.384302,766.095498,740.205942,8068.244768
2413.384631,995.924147,1110.308913,8142.265362
2413.384960,1225.752797,1554.432478,7920.203579
2413.385290,1072.533697,1258.350101,8142.265362
2413.385619,689.485948,1184.329507,8216.285956
2413.385948,689.485948,1036.288319,7698.141797
2413.386277,306.438199,666.185348,8290.306550
2413.386607,0.000000,-0.000000,8734.430116
2413.386936,-536.266849,-518.144159,9400.615463
2413.387265,-612.876398,-740.205942,9252.574275
2413.387594,-306.438199,-888.247130,9104.533087
2413.387924,-536.266849,-814.226536,9400.615463
2413.388253,0.000000,-962.267725,9770.718434
2413.388582,0.000000,-1184.329507,9400.615463
2413.388911,0.000000,-888.247130,9178.553681
2413.389241,536.266849,-1036.288319,9474.636058
2413.389570,842.705048,-1036.288319,9622.677246
2413.389899,1225.752797,-296.082377,9030.512492
2413.390228,2221.676944,-0.000000,8882.471304
2413.390558,2681.334243,518.144159,8216.285956
2413.390887,2681.334243,592.164754,7994.224174
2413.391216,2757.943793,814.226536,8586.388927
2413.391545,2681.334243,1258.350101,8586.388927
2413.391875,2221.676944,814.226536,8660.409521
2413.392204,1685.410096,666.185348,8364.327145
2413.392533,689.485948,444.123565,8586.388927
2413.392863,76.609550,-148.041188,9400.615463
2413.393192,-229.828649,-814.226536,9548.656652
2413.393521,-919.314598,-888.247130,10066.800811
2413.393850,-612.876398,-1110.308913,10362.883188
2413.394180,-1149.143247,-592.164754,9474.636058
2413.394509,-1225.752797,-1110.308913,9696.697840
2413.394838,-1532.190996,-1258.350101,10140.821405
2413.395167,-1302.362347,-1628.453072,9992.780217
2413.395497,-689.485948,-1628.453072,9104.533087
2413.395826,-689.485948,-1924.535449,10288.862594
2413.396155,-229.828649,-1628.453072,10140.821405
2413.396484,0.000000,-592.164754,9104.533087
2413.396814,0.000000,-592.164754,9178.553681
2413.397143,0.000000,-0.000000,9178.553681
2413.397472,995.924147,370.102971,9474.636058
2413.397801,306.438199,888.247130,9030.512492
2413.398131,1378.971896,1628.453072,7994.224174
2413.398460,1532.190996,1110.308913,7254.018232
2413.398789,1378.971896,2072.576638,7105.977043
2413.399118,1455.581446,1554.432478,7550.100608
2413.399448,689.485948,1332.370696,7698.141797
2413.399777,459.657299,444.123565,8290.306550
2413.400106,383.047749,-148.041188,8660.409521
2413.400435,-919.314598,-1110.308913,9178.553681
2413.400765,-1302.362347,-1332.370696,9474.636058
2413.401094,-1072.533697,-1258.350101,9326.594869
2413.401423,-842.705048,-888.247130,9548.656652
2413.401752,-459.657299,-1036.288319,9400.615463
2413.402082,-153.219100,-888.247130,9178.553681
2413.402411,-153.219100,-1036.288319,9992.780217
2413.402740,229.828649,-888.247130,9474.636058
2413.403069,995.924147,-1258.350101,10140.821405
2413.403399,1149.143247,-740.205942,9622.677246
2413.403728,1991.848295,-148.041188,8734.430116
2413.404057,2221.676944,370.102971,8882.471304
2413.404386,2987.772442,888.247130,8216.285956
2413.404716,2911.162892,1110.308913,7920.203579
2413.405045,2528.115143,1184.329507,7920.203579
2413.405374,2145.067394,1110.308913,7994.224174
2413.405703,1225.752797,1184.329507,9326.594869
2413.406033,919.314598,370.102971,8956.491898
2413.406362,76.609550,-74.020594,9474.636058
2413.406691,-612.876398,-518.144159,9474.636058
2413.407020,-995.924147,-592.164754,9548.656652
2413.407350,-766.095498,-962.267725,10362.883188
2413.407679,-995.924147,-518.144159,9622.677246
2413.408008,-766.095498,-1036.288319,9918.759623
2413.408337,-612.876398,-1554.432478,10510.924376
2413.408667,-1149.143247,-962.267725,9770.718434
2413.408996,-919.314598,-1406.391290,10214.842000
2413.409325,-689.485948,-1554.432478,9696.697840
2413.409654,-306.438199,-1184.329507,9548.656652
2413.409984,0.000000,-222.061783,9548.656652
2413.410313,229.828649,-592.164754,9104.533087
2413.410642,306.438199,-444.123565,9696.697840
2413.410972,383.047749,222.061783,8660.409521
2413.411301,995.924147,1184.329507,8216.285956
2413.411630,1225.752797,1702.473667,7624.121203
2413.411959,1149.143247,1776.494261,7846.182985
2413.412289,1455.581446,1480.411884,7846.182985
2413.412618,689.485948,1184.329507,7476.080014
2413.412947,689.485948,1184.329507,7846.182985
2413.413276,-306.438199,222.061783,8882.471304
2413.413606,-612.876398,-74.020594,8956.491898
2413.413935,-766.095498,-814.226536,9178.553681
2413.414264,-766.095498,-1406.391290,9474.636058
2413.414593,-383.047749,-1776.494261,9474.636058
2413.414923,-383.047749,-1776.494261,9992.780217
2413.415252,-766.095498,-1406.391290,9844.739029
2413.415581,-383.047749,-1406.391290,9696.697840
2413.415910,0.000000,-814.226536,9622.677246
2413.416240,229.828649,-1036.288319,9844.739029
2413.416569,842.705048,-814.226536,9992.780217
2413.416898,2298.286494,-222.061783,9030.512492
2413.417227,2528.115143,370.102971,8586.388927
2413.417557,2681.334243,1332.370696,7846.182985
2413.417886,3294.210641,1184.329507,7476.080014
2413.418215,2681.334243,1332.370696,7846.182985
2413.418544,2451.505594,1258.350101,7920.203579
2413.418874,1532.190996,814.226536,8216.285956
2413.419203,612.876398,444.123565,8660.409521
2413.419532,76.609550,-148.041188,9104.533087
2413.419861,-612.876398,-370.102971,9474.636058
2413.420191,-1378.971896,-962.267725,9622.677246
2413.420520,-1225.752797,-1258.350101,9918.759623
2413.420849,-1072.533697,-888.247130,9770.718434
2413.421178,-1532.190996,-814.226536,9696.697840
2413.421508,-1378.971896,-1184.329507,10288.862594
2413.421837,-1915.238745,-1258.350101,10214.842000
2413.422166,-919.314598,-740.205942,9844.739029
2413.422495,-536.266849,-1110.308913,9622.677246
2413.422825,-612.876398,-814.226536,9696.697840
2413.423154,76.609550,-888.247130,10066.800811
2413.423483,689.485948,-296.082377,8586.388927
2413.423812,1532.190996,-0.000000,8586.388927
2413.424142,1685.410096,666.185348,7624.121203
2413.424471,2145.067394,1332.370696,7772.162391
2413.424800,1685.410096,1406.391290,7846.182985
2413.425129,1455.581446,1554.432478,7624.121203
2413.425459,919.314598,962.267725,8142.265362
2413.425788,76.609550,444.123565,8364.327145
2413.426117,-229.828649,-0.000000,8808.450710
2413.426446,-1149.143247,-592.164754,8660.409521
2413.426776,-1149.143247,-740.205942,9696.697840
2413.427105,-995.924147,-740.205942,9696.697840
2413.427434,-995.924147,-444.123565,9548.656652
2413.427763,-919.314598,-592.164754,9474.636058
2413.428093,-612.876398,-814.226536,9548.656652
2413.428422,0.000000,-888.247130,9844.739029
2413.428751,153.219100,-592.164754,9474.636058
2413.429081,1072.533697,-444.123565,9548.656652
2413.429410,1532.190996,-148.041188,9104.533087
2413.429739,2145.067394,-0.000000,8438.347739
2413.430068,1991.848295,444.123565,8660.409521
2413.430398,2451.505594,518.144159,8290.306550
2413.430727,2911.162892,-0.000000,8290.306550
2413.431056,2145.067394,296.082377,8808.450710
2413.431385,1532.190996,888.247130,8660.409521
2413.431715,1225.752797,-74.020594,8882.471304
2413.432044,612.876398,-0.000000,9178.553681
2413.432373,306.438199,-0.000000,8956.491898
2413.432702,229.828649,-148.041188,8734.430116
2413.433032,383.047749,-0.000000,8808.450710
2413.433361,153.219100,-444.123565,9104.533087
2413.433690,-153.219100,-222.061783,8956.491898
2413.434019,-842.705048,-222.061783,9400.615463
2413.434349,-689.485948,-740.205942,9252.574275
2413.434678,-689.485948,-1110.308913,9474.636058
2413.435007,-919.314598,-1406.391290,9622.677246
2413.435336,-612.876398,-1998.556043,9696.697840
2413.435666,-689.485948,-1776.494261,10140.821405
2413.435995,-1149.143247,-1406.391290,9696.697840
2413.436324,0.000000,-1406.391290,9474.636058
2413.436653,229.828649,-666.185348,9474.636058
2413.436983,689.485948,-74.020594,9104.533087
2413.437312,689.485948,370.102971,8808.450710
2413.437641,1225.752797,888.247130,8438.347739
2413.437970,1225.752797,1110.308913,8438.347739
2413.438300,612.876398,1036.288319,8068.244768
2413.438629,842.705048,1036.288319,8660.409521
2413.438958,306.438199,592.164754,8438.347739
2413.439287,0.000000,518.144159,8586.388927
2413.439617,-229.828649,-0.000000,9326.594869
2413.439946,-766.095498,-222.061783,9178.553681
2413.440275,-689.485948,-444.123565,9548.656652
2413.440604,-383.047749,-666.185348,9474.636058
2413.440934,-612.876398,-518.144159,9474.636058
2413.441263,-306.438199,-592.164754,9400.615463
2413.441592,0.000000,-444.123565,9696.697840
2413.441921,229.828649,-444.123565,9548.656652
2413.442251,1225.752797,-148.041188,9252.574275
2413.442580,1685.410096,-74.020594,9104.533087
2413.442909,2681.334243,-0.000000,8586.388927
2413.443238,2451.505594,296.082377,8512.368333
2413.443568,2221.676944,370.102971,8512.368333
2413.443897,2298.286494,444.123565,8512.368333
2413.444226,1991.848295,444.123565,8512.368333
2413.444555,1455.581446,-0.000000,8882.471304
2413.444885,1685.410096,-0.000000,9030.512492
2413.445214,689.485948,-222.061783,9030.512492
2413.445543,459.657299,296.082377,8808.450710
2413.445872,229.828649,222.061783,9104.533087
2413.446202,0.000000,-0.000000,8586.388927
2413.446531,-306.438199,296.082377,9178.553681
2413.446860,-459.657299,-0.000000,8808.450710
2413.447190,-1072.533697,-148.041188,8882.471304
2413.447519,-1302.362347,-888.247130,9918.759623
2413.447848,-1378.971896,-1554.432478,9918.759623
2413.448177,-1532.190996,-1258.350101,9918.759623
2413.448507,-1225.752797,-1628.453072,10362.883188
2413.448836,-919.314598,-1628.453072,9548.656652
2413.449165,-459.657299,-1406.391290,9918.759623
2413.449494,0.000000,-1406.391290,9844.739029
2413.449824,459.657299,-1110.308913,9400.615463
2413.450153,306.438199,-370.102971,9178.553681
2413.450482,1072.533697,518.144159,9104.533087
2413.450811,1455.581446,592.164754,8364.327145
2413.451141,1455.581446,962.267725,8438.347739
2413.451470,1149.143247,1184.329507,8142.265362
2413.451799,842.705048,1258.350101,7920.203579
2413.452128,306.438199,444.123565,8142.265362
2413.452458,536.266849,592.164754,8216.285956
2413.452787,-459.657299,-0.000000,8660.409521
2413.453116,-536.266849,-296.082377,8882.471304
2413.453445,-766.095498,-518.144159,8956.491898
2413.453775,-842.705048,-444.123565,8882.471304
2413.454104,-766.095498,-592.164754,9326.594869
2413.454433,-459.657299,-1110.308913,9178.553681
2413.454762,0.000000,-962.267725,9252.574275
2413.455092,229.828649,-444.123565,9474.636058
2413.455421,383.047749,-518.144159,8956.491898
2413.455750,766.095498,-444.123565,8956.491898
2413.456079,1455.581446,-222.061783,8956.491898
2413.456409,1991.848295,-74.020594,8512.368333
2413.456738,2298.286494,-0.000000,9030.512492
2413.457067,2604.724693,-296.082377,8808.450710
2413.457396,2451.505594,-0.000000,8882.471304
2413.457726,1685.410096,370.102971,9030.512492
2413.458055,1762.019645,-0.000000,8882.471304
2413.458384,1378.971896,370.102971,8956.491898
2413.458713,995.924147,444.123565,9104.533087
2413.459043,1225.752797,666.185348,9252.574275
2413.459372,689.485948,-222.061783,8956.491898
2413.459701,612.876398,-74.020594,8882.471304
2413.460030,306.438199,-74.020594,9252.574275
2413.460360,-383.047749,-74.020594,9474.636058
2413.460689,-612.876398,-518.144159,9918.759623
2413.461018,-919.314598,-814.226536,9622.677246
2413.461347,-1225.752797,-1110.308913,9770.718434
2413.461677,-1532.190996,-1628.453072,10066.800811
2413.462006,-842.705048,-1258.350101,10140.821405
2413.462335,-1149.143247,-1554.432478,10362.883188
2413.462664,-689.485948,-1036.288319,9474.636058
2413.462994,-229.828649,-962.267725,9400.615463
2413.463323,229.828649,-148.041188,9474.636058
2413.463652,612.876398,-0.000000,9104.533087
2413.463982,306.438199,148.041188,8734.430116
2413.464311,1762.019645,814.226536,8290.306550
2413.464640,1149.143247,814.226536,8068.244768
2413.464969,1072.533697,1406.391290,7920.203579
2413.465299,842.705048,1184.329507,8216.285956
2413.465628,383.047749,814.226536,7846.182985
2413.465957,536.266849,740.205942,8438.347739
2413.466286,0.000000,-0.000000,8734.430116
2413.466616,-689.485948,-0.000000,9696.697840
2413.466945,-766.095498,-814.226536,9474.636058
2413.467274,-612.876398,-740.205942,8956.491898
2413.467603,-306.438199,-666.185348,9326.594869
2413.467933,-306.438199,-814.226536,9400.615463
2413.468262,229.828649,-888.247130,9326.594869
2413.468591,536.266849,-666.185348,9400.615463
2413.468920,766.095498,-592.164754,9178.553681
2413.469250,1608.800546,-666.185348,9178.553681
2413.469579,1762.019645,-296.082377,8882.471304
2413.469908,1838.629195,-74.020594,9104.533087
2413.470237,2068.457845,-74.020594,8882.471304
2413.470567,1915.238745,-0.000000,8660.409521
2413.470896,2145.067394,-148.041188,9178.553681
2413.471225,1608.800546,-148.041188,9178.553681
2413.471554,1149.143247,-0.000000,9474.636058
2413.471884,919.314598,148.041188,9178.553681
2413.472213,612.876398,370.102971,8882.471304
2413.472542,229.828649,370.102971,8882.471304
2413.472871,306.438199,148.041188,9104.533087
2413.473201,-229.828649,-0.000000,9104.533087
2413.473530,-459.657299,-370.102971,9104.533087
2413.473859,-689.485948,-814.226536,9104.533087
2413.474188,-1149.143247,-888.247130,9400.615463
2413.474518,-1225.752797,-1110.308913,9548.656652
2413.474847,-1378.971896,-1184.329507,9696.697840
2413.475176,-1149.143247,-1332.370696,9844.739029
2413.475505,-766.095498,-1480.411884,9178.553681
2413.475835,-1149.143247,-1480.411884,9770.718434
2413.476164,229.828649,-1406.391290,9474.636058
2413.476493,-229.828649,-888.247130,9474.636058
2413.476822,0.000000,-222.061783,9400.615463
2413.477152,459.657299,-0.000000,8956.491898
2413.477481,612.876398,518.144159,8660.409521
2413.477810,1225.752797,740.205942,8438.347739
2413.478139,1762.019645,1480.411884,7846.182985
2413.478469,1608.800546,1628.453072,7846.182985
2413.478798,1149.143247,1184.329507,7994.224174
2413.479127,536.266849,1110.308913,7920.203579
2413.479456,0.000000,370.102971,8290.306550
2413.479786,-306.438199,-0.000000,9030.512492
2413.480115,-229.828649,-888.247130,8882.471304
2413.480444,-536.266849,-740.205942,9252.574275
2413.480773,-842.705048,-814.226536,9770.718434
2413.481103,-536.266849,-814.226536,9474.636058
2413.481432,-536.266849,-814.226536,9474.636058
2413.481761,-306.438199,-888.247130,9622.677246
2413.482090,0.000000,-888.247130,9696.697840
2413.482420,153.219100,-666.185348,9918.759623
2413.482749,1532.190996,-296.082377,9548.656652
2413.483078,2145.067394,-296.082377,9252.574275
2413.483407,2145.067394,-148.041188,8882.471304
2413.483736,2604.724693,370.102971,8882.471304
2413.484065,2681.334243,518.144159,8512.368333
2413.484395,2451.505594,592.164754,8734.430116
2413.484724,2681.334243,666.185348,8882.471304
2413.485053,2374.896044,740.205942,8660.409521
2413.485382,1455.581446,1036.288319,8956.491898
2413.485711,1302.362347,888.247130,9030.512492
2413.486041,689.485948,444.123565,8808.450710
2413.486370,76.609550,-0.000000,9030.512492
2413.486699,-383.047749,-74.020594,9030.512492
2413.487028,-766.095498,-740.205942,9474.636058
2413.487357,-919.314598,-740.205942,9696.697840
2413.487687,-1378.971896,-1184.329507,9474.636058
2413.488016,-1608.800546,-1406.391290,9474.636058
2413.488345,-1149.143247,-1480.411884,9622.677246
2413.488674,-919.314598,-1480.411884,9474.636058
2413.489003,-995.924147,-1332.370696,9696.697840
2413.489333,-229.828649,-1332.370696,9474.636058
2413.489662,0.000000,-1258.350101,9326.594869
2413.489991,383.047749,-518.144159,9474.636058
2413.490320,383.047749,-0.000000,9400.615463
2413.490649,459.657299,296.082377,8734.430116
2413.490978,1149.143247,740.205942,8290.306550
2413.491308,1685.410096,1184.329507,7846.182985
2413.491637,1608.800546,1554.432478,7698.141797
2413.491966,1302.362347,962.267725,7698.141797
2413.492295,536.266849,888.247130,8364.327145
2413.492624,306.438199,74.020594,8438.347739
2413.492954,-229.828649,-0.000000,8734.430116
2413.493283,-919.314598,-518.144159,9400.615463
2413.493612,-1149.143247,-1036.288319,9474.636058
2413.493941,-1455.581446,-888.247130,9770.718434
2413.494270,-766.095498,-1480.411884,9622.677246
2413.494600,-459.657299,-1184.329507,9918.759623
2413.494929,-536.266849,-814.226536,9622.677246
2413.495258,0.000000,-444.123565,9696.697840
2413.495587,306.438199,-592.164754,9474.636058
2413.495916,1149.143247,-370.102971,9326.594869
2413.496246,1915.238745,-0.000000,9030.512492
2413.496575,2374.896044,-0.000000,8956.491898
2413.496904,2374.896044,888.247130,8808.450710
2413.497233,2298.286494,518.144159,7994.224174
2413.497562,2451.505594,518.144159,8438.347739
2413.497892,2298.286494,370.102971,8512.368333
2413.498221,1608.800546,296.082377,8808.450710
2413.498550,1149.143247,296.082377,8956.491898
2413.498879,689.485948,-74.020594,8586.388927
2413.499208,76.609550,444.123565,9030.512492
2413.499537,0.000000,740.205942,9326.594869
2413.499867,-153.219100,370.102971,9104.533087
2413.500196,-536.266849,296.082377,9030.512492
2413.500525,-689.485948,-148.041188,9104.533087
2413.500854,-919.314598,-666.185348,9474.636058
2413.501183,-689.485948,-962.267725,9622.677246
2413.501513,-1225.752797,-1110.308913,9844.739029
2413.501842,-1302.362347,-1554.432478,9548.656652
2413.502171,-1072.533697,-1702.473667,9696.697840
2413.502500,-689.485948,-1332.370696,9844.739029
2413.502829,0.000000,-1258.350101,9844.739029
2413.503159,0.000000,-1332.370696,9770.718434
2413.503488,459.657299,-814.226536,9474.636058
2413.503817,842.705048,-0.000000,8956.491898
2413.504146,1378.971896,740.205942,8660.409521
2413.504475,1455.581446,1110.308913,8586.388927
2413.504805,1532.190996,1406.391290,7920.203579
2413.505134,1455.581446,1406.391290,7846.182985
2413.505463,766.095498,1036.288319,8216.285956
2413.505792,1072.533697,1110.308913,8290.306550
2413.506121,0.000000,-0.000000,8660.409521
2413.506450,-842.705048,-444.123565,8808.450710
2413.506780,-1072.533697,-666.185348,9178.553681
2413.507109,-1225.752797,-740.205942,9474.636058
2413.507438,-919.314598,-962.267725,9474.636058
2413.507767,-689.485948,-1480.411884,9474.636058
2413.508096,-306.438199,-814.226536,9474.636058
2413.508426,0.000000,-666.185348,9474.636058
2413.508755,153.219100,-666.185348,9400.615463
2413.509084,536.266849,-444.123565,9548.656652
2413.509413,1225.752797,-370.102971,8660.409521
2413.509742,1991.848295,-74.020594,8586.388927
2413.510072,1991.848295,-0.000000,8660.409521
2413.510401,2834.553343,148.041188,8216.285956
2413.510730,2451.505594,592.164754,8364.327145
2413.511059,1991.848295,222.061783,8364.327145
2413.511388,2298.286494,518.144159,8512.368333
2413.511718,1762.019645,592.164754,8438.347739
2413.512047,1455.581446,666.185348,8808.450710
2413.512376,995.924147,370.102971,9252.574275
2413.512705,383.047749,-0.000000,8882.471304
2413.513034,306.438199,148.041188,9548.656652
2413.513364,0.000000,-74.020594,9400.615463
2413.513693,-612.876398,-74.020594,9326.594869
2413.514022,-1225.752797,-518.144159,9548.656652
2413.514351,-1225.752797,-740.205942,9548.656652
2413.514680,-1532.190996,-962.267725,9992.780217
2413.515009,-1149.143247,-1702.473667,10140.821405
2413.515339,-1378.971896,-1628.453072,9992.780217
2413.515668,-1302.362347,-1480.411884,9770.718434
2413.515997,-689.485948,-962.267725,9918.759623
2413.516326,-383.047749,-962.267725,9770.718434
2413.516655,0.000000,-814.226536,9622.677246
2413.516985,612.876398,-222.061783,9326.594869
2413.517314,995.924147,74.020594,8882.471304
2413.517643,766.095498,814.226536,8512.368333
2413.517972,1532.190996,1184.329507,8142.265362
2413.518301,1532.190996,1554.432478,8290.306550
2413.518631,1149.143247,1332.370696,8216.285956
2413.518960,919.314598,1184.329507,8068.244768
2413.519289,536.266849,740.205942,7920.203579
2413.519618,0.000000,296.082377,8438.347739
2413.519947,-306.438199,-148.041188,8882.471304
2413.520277,-842.705048,-296.082377,9178.553681
2413.520606,-689.485948,-962.267725,9252.574275
2413.520935,-842.705048,-1258.350101,9104.533087
2413.521264,-612.876398,-1110.308913,9326.594869
2413.521593,0.000000,-1258.350101,9400.615463
2413.521922,383.047749,-1036.288319,9400.615463
2413.522252,1072.533697,-814.226536,8808.450710
2413.522581,1149.143247,-370.102971,9400.615463
2413.522910,1608.800546,-222.061783,9030.512492
2413.523239,2374.896044,-0.000000,8586.388927
2413.523568,2604.724693,518.144159,8364.327145
2413.523898,2451.505594,370.102971,8364.327145
2413.524227,2911.162892,370.102971,8438.347739
2413.524556,2681.334243,296.082377,8734.430116
2413.524885,2145.067394,592.164754,8882.471304
2413.525214,1455.581446,518.144159,8512.368333
2413.525544,919.314598,296.082377,8660.409521
2413.525873,229.828649,296.082377,8882.471304
2413.526202,0.000000,-74.020594,9252.574275
2413.526531,-766.095498,-888.247130,9474.636058
2413.526860,-766.095498,-370.102971,9548.656652
2413.527190,-1149.143247,-962.267725,9178.553681
2413.527519,-1608.800546,-1036.288319,9622.677246
2413.527848,-1378.971896,-1258.350101,10066.800811
2413.528177,-1532.190996,-1406.391290,9918.759623
2413.528506,-1608.800546,-1702.473667,9918.759623
2413.528836,-1072.533697,-1480.411884,9992.780217
2413.529165,-766.095498,-1110.308913,9992.780217
2413.529494,-842.705048,-888.247130,9622.677246
2413.529823,0.000000,-888.247130,9474.636058
2413.530152,459.657299,-444.123565,9326.594869
2413.530481,842.705048,592.164754,8808.450710
2413.530811,1532.190996,1036.288319,8290.306550
2413.531140,1455.581446,814.226536,7698.141797
2413.531469,1072.533697,1036.288319,7772.162391
2413.531798,1455.581446,1332.370696,7698.141797
2413.532127,689.485948,1110.308913,7846.182985
2413.532457,0.000000,666.185348,8290.306550
2413.532786,-459.657299,-0.000000,8660.409521
2413.533115,-919.314598,-370.102971,8956.491898
2413.533444,-612.876398,-666.185348,9104.533087
2413.533773,-459.657299,-962.267725,8290.306550
2413.534103,-995.924147,-518.144159,9474.636058
2413.534432,-612.876398,-444.123565,9474.636058
2413.534761,-536.266849,-518.144159,9030.512492
2413.535090,0.000000,-444.123565,9326.594869
2413.535419,153.219100,-444.123565,9622.677246
2413.535749,919.314598,-740.205942,9178.553681
2413.536078,1532.190996,-592.164754,9178.553681
2413.536407,2145.067394,-74.020594,8808.450710
2413.536736,2298.286494,-0.000000,8808.450710
2413.537065,2298.286494,296.082377,8956.491898
2413.537394,2145.067394,222.061783,8586.388927
2413.537724,2145.067394,-0.000000,8956.491898
2413.538053,2374.896044,-0.000000,8734.430116
2413.538382,1838.629195,-0.000000,8882.471304
2413.538711,1838.629195,-592.164754,9178.553681
2413.539040,766.095498,-0.000000,9400.615463
2413.539370,536.266849,296.082377,9030.512492
2413.539699,536.266849,-0.000000,8882.471304
2413.540028,0.000000,296.082377,9104.533087
2413.540357,-459.657299,444.123565,9474.636058
2413.540686,-919.314598,-296.082377,9622.677246
2413.541016,-995.924147,-740.205942,9548.656652
2413.541345,-1149.143247,-962.267725,9474.636058
2413.541674,-1072.533697,-1332.370696,9622.677246
2413.542003,-1072.533697,-1554.432478,9548.656652
2413.542332,-766.095498,-1628.453072,9474.636058
2413.542662,0.000000,-1406.391290,9474.636058
2413.542991,0.000000,-1406.391290,9326.594869
2413.543320,0.000000,-888.247130,9104.533087
2413.543649,153.219100,-148.041188,9326.594869
2413.543978,229.828649,148.041188,9178.553681
2413.544308,612.876398,740.205942,8438.347739
2413.544637,1225.752797,888.247130,8216.285956
2413.544966,1378.971896,1332.370696,7698.141797
2413.545295,1532.190996,1406.391290,7772.162391
2413.545624,995.924147,1110.308913,8364.327145
2413.545953,459.657299,1184.329507,7920.203579
2413.546283,76.609550,222.061783,8438.347739
2413.546612,-383.047749,-0.000000,8808.450710
2413.546941,-766.095498,-592.164754,9400.615463
2413.547270,-536.266849,-1628.453072,9474.636058
2413.547599,-459.657299,-1480.411884,9474.636058
2413.547929,-383.047749,-1406.391290,9770.718434
2413.548258,-612.876398,-1258.350101,10066.800811
2413.548587,-153.219100,-962.267725,9622.677246
2413.548916,0.000000,-1036.288319,9696.697840
2413.549245,612.876398,-814.226536,9770.718434
2413.549575,1072.533697,-518.144159,9400.615463
2413.549904,3064.381992,-0.000000,9030.512492
2413.550233,2451.505594,-74.020594,8290.306550
2413.550562,2681.334243,666.185348,8216.285956
2413.550891,2451.505594,962.267725,8216.285956
2413.551221,2451.505594,740.205942,8290.306550
2413.551550,2145.067394,592.164754,8364.327145
2413.551879,1149.143247,296.082377,8512.368333
2413.552208,689.485948,1184.329507,8808.450710
2413.552537,-306.438199,222.061783,9326.594869
2413.552867,0.000000,-0.000000,9178.553681
2413.553196,-612.876398,-148.041188,9326.594869
2413.553525,-689.485948,-148.041188,9252.574275
2413.553854,-766.095498,-296.082377,9104.533087
2413.554183,-842.705048,-518.144159,9474.636058
2413.554512,-612.876398,-518.144159,9770.718434
2413.554842,-689.485948,-1258.350101,9548.656652
2413.555171,-1072.533697,-1184.329507,9918.759623
2413.555500,-766.095498,-1110.308913,9474.636058
2413.555829,-536.266849,-962.267725,9770.718434
2413.556158,-383.047749,-1184.329507,9622.677246
2413.556488,229.828649,-666.185348,9474.636058
2413.556817,-306.438199,-1036.288319,9252.574275
2413.557146,306.438199,-444.123565,9622.677246
2413.557475,153.219100,296.082377,9030.512492
2413.557804,842.705048,592.164754,8660.409521
2413.558134,1072.533697,1258.350101,8216.285956
2413.558463,1532.190996,1480.411884,7624.121203
2413.558792,1455.581446,1554.432478,7994.224174
2413.559121,536.266849,1110.308913,8290.306550
2413.559450,612.876398,74.020594,8068.244768
2413.559780,-383.047749,370.102971,8660.409521
2413.560109,-612.876398,-370.102971,9104.533087
2413.560438,-842.705048,-666.185348,9400.615463
2413.560767,-995.924147,-888.247130,9918.759623
2413.561096,-766.095498,-1332.370696,9474.636058
2413.561425,-1149.143247,-1258.350101,9696.697840
2413.561755,0.000000,-962.267725,9474.636058
2413.562084,0.000000,-740.205942,9696.697840
2413.562413,-229.828649,-1110.308913,9992.780217
2413.562742,229.828649,-814.226536,9770.718434
2413.563071,919.314598,-740.205942,9400.615463
2413.563401,1455.581446,-592.164754,9178.553681
2413.563730,2451.505594,518.144159,8660.409521
2413.564059,2987.772442,592.164754,8808.450710
2413.564388,2911.162892,888.247130,8290.306550
2413.564717,2911.162892,888.247130,7846.182985
2413.565047,2834.553343,962.267725,8068.244768
2413.565376,2068.457845,1406.391290,8216.285956
2413.565705,1762.019645,962.267725,8364.327145
2413.566034,689.485948,296.082377,8216.285956
2413.566363,0.000000,-0.000000,9104.533087
2413.566693,0.000000,-74.020594,9326.594869
2413.567022,-995.924147,-592.164754,9178.553681
2413.567351,-1225.752797,-518.144159,9622.677246
2413.567680,-995.924147,-888.247130,9474.636058
2413.568009,-1225.752797,-1184.329507,9400.615463
2413.568339,-1685.410096,-1776.494261,9918.759623
2413.568668,-1149.143247,-2072.576638,9992.780217
2413.568997,-842.705048,-1850.514855,9770.718434
2413.569326,-766.095498,-1702.473667,9992.780217
2413.569655,-383.047749,-1332.370696,9474.636058
2413.569984,-383.047749,-666.185348,9548.656652
2413.570314,0.000000,-666.185348,9622.677246
2413.570643,153.219100,-74.020594,9474.636058
2413.570972,689.485948,888.247130,8512.368333
2413.571301,1532.190996,1406.391290,8438.347739
2413.571630,1378.971896,1628.453072,7772.162391
2413.571960,1455.581446,1702.473667,8068.244768
2413.572289,1225.752797,1406.391290,7846.182985
2413.572618,766.095498,962.267725,8290.306550
2413.572947,536.266849,-0.000000,8734.430116
2413.573276,-229.828649,-296.082377,8882.471304
2413.573606,-689.485948,-814.226536,9474.636058
2413.573935,-1072.533697,-1110.308913,9474.636058
2413.574264,-842.705048,-1332.370696,9548.656652
2413.574593,-766.095498,-1110.308913,9844.739029
2413.574922,-689.485948,-962.267725,9770.718434
2413.575252,0.000000,-888.247130,9252.574275
2413.575581,0.000000,-666.185348,9622.677246
2413.575910,919.314598,-296.082377,9474.636058
2413.576239,1455.581446,-222.061783,8734.430116
2413.576568,1838.629195,-0.000000,8364.327145
2413.576897,2374.896044,370.102971,8216.285956
2413.577227,2528.115143,444.123565,7698.141797
2413.577556,2681.334243,296.082377,8068.244768
2413.577885,2451.505594,-74.020594,7994.224174
2413.578214,1762.019645,518.144159,8660.409521
2413.578543,1762.019645,-0.000000,8882.471304
2413.578873,612.876398,370.102971,8438.347739
2413.579202,76.609550,296.082377,8956.491898
2413.579531,612.876398,296.082377,9326.594869
2413.579860,383.047749,-666.185348,9030.512492
2413.580189,-383.047749,-0.000000,9030.512492
2413.580519,-766.095498,-148.041188,9696.697840
2413.580848,-1302.362347,-518.144159,9400.615463
2413.581177,-1302.362347,-1036.288319,9622.677246
2413.581506,-1532.190996,-1332.370696,9992.780217
2413.581835,-1149.143247,-2294.638420,9918.759623
2413.582165,-1072.533697,-2072.576638,10214.842000
2413.582494,-842.705048,-1554.432478,10066.800811
2413.582823,0.000000,-1850.514855,9770.718434
2413.583152,0.000000,-1184.329507,9770.718434
2413.583482,612.876398,-296.082377,9548.656652
2413.583811,1149.143247,370.102971,9030.512492
2413.584140,1762.019645,962.267725,8290.306550
2413.584469,1838.629195,1406.391290,8142.265362
2413.584798,2145.067394,1702.473667,7402.059420
2413.585128,1915.238745,1924.535449,7920.203579
2413.585457,1149.143247,1332.370696,8216.285956
2413.585786,229.828649,814.226536,8290.306550
2413.586115,0.000000,222.061783,8586.388927
2413.586444,-919.314598,-296.082377,9178.553681
2413.586774,-1149.143247,-1258.350101,9326.594869
2413.587103,-1608.800546,-888.247130,9474.636058
2413.587432,-1378.971896,-888.247130,9548.656652
2413.587761,-919.314598,-814.226536,9474.636058
2413.588091,-689.485948,-592.164754,9178.553681
2413.588420,-229.828649,-370.102971,9400.615463
2413.588749,229.828649,-444.123565,9770.718434
2413.589078,1072.533697,-518.144159,9548.656652
2413.589407,1685.410096,-518.144159,8438.347739
2413.589737,2451.505594,-74.020594,8512.368333
2413.590066,2374.896044,592.164754,8142.265362
2413.590395,2911.162892,814.226536,8512.368333
2413.590724,3064.381992,666.185348,8364.327145
2413.591053,2528.115143,222.061783,8586.388927
2413.591383,2145.067394,-0.000000,8586.388927
2413.591712,1455.581446,-74.020594,8882.471304
2413.592041,536.266849,-296.082377,9622.677246
2413.592370,229.828649,-0.000000,9474.636058
2413.592700,0.000000,-148.041188,9474.636058
2413.593029,-153.219100,-444.123565,9474.636058
2413.593358,0.000000,-0.000000,9326.594869
2413.593687,-1149.143247,-0.000000,9474.636058
2413.594016,-459.657299,-222.061783,9548.656652
2413.594346,-536.266849,-74.020594,9474.636058
2413.594675,-1149.143247,-740.205942,9548.656652
2413.595004,-1149.143247,-1406.391290,9696.697840
2413.595333,-842.705048,-1776.494261,9696.697840
2413.595662,-995.924147,-1332.370696,9400.615463
2413.595992,-383.047749,-1184.329507,9696.697840
2413.596321,-536.266849,-1184.329507,9548.656652
2413.596650,0.000000,-1036.288319,9696.697840
2413.596979,0.000000,-222.061783,9104.533087
2413.597308,383.047749,222.061783,8586.388927
2413.597638,689.485948,666.185348,8438.347739
2413.597967,766.095498,962.267725,8290.306550
2413.598296,612.876398,1110.308913,8512.368333
2413.598625,842.705048,888.247130,8364.327145
2413.598955,919.314598,666.185348,8216.285956
2413.599284,306.438199,666.185348,7920.203579
2413.599613,0.000000,592.164754,8438.347739
2413.599942,0.000000,296.082377,8734.430116
2413.600271,-229.828649,-74.020594,8734.430116
2413.600601,0.000000,-592.164754,8808.450710
2413.600930,-306.438199,-888.247130,9326.594869
2413.601259,-153.219100,-666.185348,9252.574275
2413.601588,153.219100,-814.226536,9474.636058
2413.601917,383.047749,-370.102971,9326.594869
2413.602247,689.485948,-592.164754,9326.594869
2413.602576,919.314598,-296.082377,9474.636058
2413.602905,919.314598,-592.164754,9326.594869
2413.603234,1915.238745,-222.061783,9178.553681
2413.603564,2068.457845,-296.082377,8956.491898
2413.603893,2068.457845,-222.061783,8808.450710
2413.604222,1915.238745,444.123565,9178.553681
2413.604551,1915.238745,444.123565,9400.615463
2413.604880,1685.410096,370.102971,8808.450710
2413.605210,1608.800546,592.164754,8956.491898
2413.605539,1608.800546,518.144159,8734.430116
2413.605868,1072.533697,444.123565,8734.430116
2413.606197,459.657299,444.123565,9104.533087
2413.606526,0.000000,-0.000000,8734.430116
2413.606856,-612.876398,-148.041188,9178.553681
2413.607185,-919.314598,-518.144159,9400.615463
2413.607514,-919.314598,-1184.329507,9474.636058
2413.607843,-1378.971896,-1258.350101,9770.718434
2413.608173,-1302.362347,-2072.576638,9622.677246
2413.608502,-1225.752797,-1554.432478,9844.739029
2413.608831,-919.314598,-1480.411884,9696.697840
2413.609160,-612.876398,-1332.370696,9696.697840
2413.609489,-229.828649,-1258.350101,9474.636058
2413.609819,153.219100,-962.267725,9252.574275
2413.610148,766.095498,-444.123565,8660.409521
2413.610477,1378.971896,-0.000000,8512.368333
2413.610806,1072.533697,740.205942,7994.224174
2413.611135,1072.533697,1036.288319,7994.224174
2413.611465,1072.533697,1332.370696,7698.141797
2413.611794,766.095498,1332.370696,7698.141797
2413.612123,383.047749,592.164754,8290.306550
2413.612452,-306.438199,-0.000000,8068.244768
2413.612781,-689.485948,-148.041188,8808.450710
2413.613111,-1149.143247,-666.185348,8808.450710
2413.613440,-1378.971896,-666.185348,9326.594869
2413.613769,-1225.752797,-814.226536,9326.594869
2413.614098,-995.924147,-666.185348,9474.636058
2413.614428,-919.314598,-814.226536,9474.636058
2413.614757,-229.828649,-1036.288319,9696.697840
2413.615086,0.000000,-592.164754,9770.718434
2413.615415,383.047749,-666.185348,9548.656652
2413.615744,766.095498,-222.061783,9178.553681
2413.616074,1685.410096,-370.102971,9178.553681
2413.616403,2068.457845,-74.020594,8586.388927
2413.616732,2374.896044,148.041188,8734.430116
2413.617061,2298.286494,-0.000000,8882.471304
2413.617390,2987.772442,296.082377,9104.533087
2413.617720,2374.896044,222.061783,9104.533087
2413.618049,1915.238745,-0.000000,9104.533087
2413.618378,1225.752797,-0.000000,9326.594869
2413.618707,1072.533697,518.144159,9252.574275
2413.619037,995.924147,444.123565,9178.553681
2413.619366,766.095498,592.164754,8808.450710
2413.619695,842.705048,518.144159,9326.594869
2413.620024,383.047749,518.144159,8956.491898
2413.620353,-306.438199,-74.020594,9104.533087
2413.620683,-766.095498,-0.000000,9104.533087
2413.621012,-1072.533697,-666.185348,9400.615463
2413.621341,-1149.143247,-888.247130,9622.677246
2413.621670,-1532.190996,-1258.350101,9770.718434
2413.621999,-1072.533697,-1332.370696,9696.697840
2413.622329,-1378.971896,-1702.473667,9696.697840
2413.622658,-766.095498,-1184.329507,9770.718434
2413.622987,-383.047749,-1036.288319,9474.636058
2413.623316,-229.828649,-370.102971,9992.780217
2413.623646,153.219100,-296.082377,9400.615463
2413.623975,842.705048,222.061783,9104.533087
2413.624304,1378.971896,592.164754,8290.306550
2413.624633,1608.800546,1110.308913,8512.368333
2413.624962,1608.800546,1406.391290,7994.224174
2413.625292,1608.800546,1628.453072,7772.162391
2413.625621,995.924147,1036.288319,7920.203579
2413.625950,689.485948,592.164754,7994.224174
2413.626279,0.000000,148.041188,8882.471304
2413.626608,-459.657299,-370.102971,8882.471304
2413.626938,-612.876398,-1406.391290,8808.450710
2413.627267,-1149.143247,-1628.453072,9622.677246
2413.627596,-689.485948,-1036.288319,9770.718434
2413.627925,-995.924147,-1258.350101,9474.636058
2413.628254,-459.657299,-962.267725,9844.739029
2413.628584,0.000000,-962.267725,9474.636058
2413.628913,689.485948,-518.144159,9400.615463
2413.629242,1378.971896,-296.082377,8956.491898
2413.629571,2298.286494,-148.041188,9178.553681
2413.629901,2528.115143,-370.102971,8660.409521
2413.630230,2528.115143,222.061783,8438.347739
2413.630559,2834.553343,444.123565,8216.285956
2413.630888,2374.896044,444.123565,7994.224174
2413.631217,1685.410096,444.123565,8586.388927
2413.631547,1991.848295,222.061783,8364.327145
2413.631876,1532.190996,222.061783,8290.306550
2413.632205,612.876398,444.123565,8660.409521
2413.632534,383.047749,148.041188,8882.471304
2413.632863,0.000000,296.082377,8956.491898
2413.633193,-383.047749,-0.000000,9104.533087
2413.633522,-689.485948,-0.000000,9178.553681
2413.633851,-1225.752797,-74.020594,9548.656652
2413.634180,-383.047749,-518.144159,9622.677246
2413.634510,-842.705048,-1036.288319,9844.739029
2413.634839,-919.314598,-1184.329507,9696.697840
2413.635168,-766.095498,-1258.350101,9770.718434
2413.635497,-842.705048,-1480.411884,9474.636058
2413.635826,-612.876398,-1332.370696,9696.697840
2413.636156,-383.047749,-1406.391290,9992.780217
2413.636485,0.000000,-1036.288319,9400.615463
2413.636814,153.219100,-74.020594,9770.718434
2413.637143,612.876398,-0.000000,9178.553681
2413.637472,919.314598,666.185348,8808.450710
2413.637802,842.705048,814.226536,8586.388927
2413.638131,766.095498,1184.329507,8290.306550
2413.638460,76.609550,1184.329507,8290.306550
2413.638789,306.438199,814.226536,8734.430116
2413.639119,0.000000,666.185348,8512.368333
2413.639448,-459.657299,-0.000000,8512.368333
2413.639777,-766.095498,-0.000000,8882.471304
2413.640106,-689.485948,-296.082377,9326.594869
2413.640435,-919.314598,-518.144159,9326.594869
2413.640765,-689.485948,-592.164754,9474.636058
2413.641094,-612.876398,-592.164754,9400.615463
2413.641423,-383.047749,-444.123565,9104.533087
2413.641752,-459.657299,-740.205942,9548.656652
2413.642081,153.219100,-592.164754,9326.594869
2413.642411,842.705048,-518.144159,9104.533087
2413.642740,1302.362347,-148.041188,8956.491898
2413.643069,1991.848295,-222.061783,8808.450710
2413.643398,2221.676944,296.082377,9104.533087
2413.643727,2374.896044,-0.000000,8512.368333
2413.644057,2451.505594,-0.000000,8142.265362
2413.644386,2374.896044,222.061783,8512.368333
2413.644715,2145.067394,370.102971,8512.368333
2413.645044,2068.457845,370.102971,8660.409521
2413.645374,1915.238745,296.082377,8956.491898
2413.645703,1455.581446,296.082377,8956.491898
2413.646032,1685.410096,-0.000000,8216.285956
2413.646361,383.047749,-0.000000,8956.491898
2413.646690,0.000000,-0.000000,9326.594869
2413.647020,-153.219100,-0.000000,9178.553681
2413.647349,-842.705048,-444.123565,9474.636058
2413.647678,-1225.752797,-814.226536,9474.636058
2413.648007,-2374.896044,-1258.350101,10214.842000
2413.648336,-1532.190996,-1406.391290,9918.759623
2413.648666,-1072.533697,-1406.391290,9918.759623
2413.648995,-766.095498,-1406.391290,9622.677246
2413.649324,-536.266849,-1184.329507,9696.697840
2413.649653,-306.438199,-962.267725,10066.800811
2413.649983,76.609550,-962.267725,10066.800811
2413.650312,612.876398,-888.247130,9104.533087
2413.650641,995.924147,370.102971,9400.615463
2413.650970,995.924147,1110.308913,9030.512492
2413.651299,1225.752797,1036.288319,7994.224174
2413.651629,1608.800546,1332.370696,8142.265362
2413.651958,1455.581446,1406.391290,8290.306550
2413.652287,1225.752797,962.267725,8216.285956
2413.652616,459.657299,1036.288319,8216.285956
2413.652945,-229.828649,296.082377,8882.471304
2413.653275,-76.609550,-0.000000,9104.533087
2413.653604,-766.095498,-444.123565,8734.430116
2413.653933,-689.485948,-666.185348,9252.574275
2413.654262,-766.095498,-740.205942,9474.636058
2413.654592,-689.485948,-814.226536,9178.553681
2413.654921,-383.047749,-592.164754,9178.553681
2413.655250,-536.266849,-962.267725,9326.594869
2413.655579,0.000000,-814.226536,9474.636058
2413.655908,766.095498,-444.123565,9326.594869
2413.656238,1378.971896,-296.082377,9178.553681
2413.656567,1991.848295,-0.000000,8734.430116
2413.656896,2145.067394,444.123565,8438.347739
2413.657225,2451.505594,518.144159,8586.388927
2413.657554,2374.896044,666.185348,8512.368333
2413.657884,2374.896044,444.123565,8882.471304
2413.658213,1838.629195,444.123565,8660.409521
2413.658542,1072.533697,518.144159,8956.491898
2413.658871,919.314598,666.185348,9030.512492
2413.659201,459.657299,296.082377,9252.574275
2413.659530,0.000000,-0.000000,9400.615463
2413.659859,-229.828649,-74.020594,9622.677246
2413.660188,-612.876398,-370.102971,9474.636058
2413.660517,-1072.533697,-222.061783,9918.759623
2413.660847,-766.095498,-962.267725,10140.821405
2413.661176,-1378.971896,-1258.350101,9992.780217
2413.661505,-1072.533697,-1184.329507,9696.697840
2413.661834,-1149.143247,-1406.391290,10066.800811
2413.662163,-995.924147,-1332.370696,9696.697840
2413.662493,-383.047749,-1184.329507,9622.677246
2413.662822,-229.828649,-1554.432478,9548.656652
2413.663151,153.219100,-1036.288319,9548.656652
2413.663480,459.657299,-296.082377,8882.471304
2413.663809,1302.362347,-0.000000,8586.388927
2413.664139,1302.362347,888.247130,8364.327145
2413.664468,1455.581446,1110.308913,7920.203579
2413.664797,1608.800546,962.267725,7624.121203
2413.665126,1149.143247,740.205942,7772.162391
2413.665456,153.219100,296.082377,7920.203579
2413.665785,0.000000,592.164754,8290.306550
2413.666114,-536.266849,-74.020594,8512.368333
2413.666443,-995.924147,-296.082377,8882.471304
2413.666772,-1149.143247,-370.102971,9178.553681
2413.667102,-612.876398,-962.267725,9104.533087
2413.667431,-689.485948,-370.102971,9252.574275
2413.667760,-612.876398,-740.205942,9252.574275
2413.668089,-153.219100,-592.164754,8808.450710
2413.668418,0.000000,-444.123565,9474.636058
2413.668748,306.438199,-592.164754,9400.615463
2413.669077,1072.533697,-296.082377,8808.450710
2413.669406,1685.410096,-444.123565,9178.553681
2413.669735,1915.238745,-444.123565,8586.388927
2413.670065,2451.505594,-0.000000,8734.430116
2413.670394,2451.505594,222.061783,8808.450710
2413.670723,2681.334243,296.082377,8660.409521
2413.671052,1991.848295,-0.000000,9030.512492
2413.671381,1685.410096,296.082377,9030.512492
2413.671711,1532.190996,370.102971,9400.615463
2413.672040,995.924147,296.082377,9474.636058
2413.672369,1149.143247,296.082377,9252.574275
2413.672698,612.876398,148.041188,9252.574275
2413.673027,76.609550,370.102971,9252.574275
2413.673357,-306.438199,296.082377,9474.636058
2413.673686,-612.876398,-0.000000,9474.636058
2413.674015,-995.924147,-148.041188,9474.636058
2413.674344,-1072.533697,-962.267725,8882.471304
2413.674674,-1378.971896,-1036.288319,9474.636058
2413.675003,-1149.143247,-1258.350101,10140.821405
2413.675332,-1072.533697,-1332.370696,9400.615463
2413.675661,-842.705048,-1110.308913,9474.636058
2413.675990,-612.876398,-1184.329507,9696.697840
2413.676320,-306.438199,-962.267725,9844.739029
2413.676649,0.000000,-222.061783,9548.656652
2413.676978,306.438199,-148.041188,9252.574275
2413.677307,766.095498,-0.000000,8364.327145
2413.677636,1072.533697,740.205942,8142.265362
2413.677966,1149.143247,888.247130,8142.265362
2413.678295,995.924147,1036.288319,7846.182985
2413.678624,1149.143247,1184.329507,8068.244768
2413.678953,536.266849,814.226536,8068.244768
2413.679282,383.047749,740.205942,7994.224174
2413.679612,-306.438199,222.061783,8808.450710
2413.679941,-689.485948,-222.061783,8882.471304
2413.680270,-995.924147,-518.144159,9252.574275
2413.680599,-919.314598,-814.226536,9252.574275
2413.680929,-689.485948,-1184.329507,9548.656652
2413.681258,-689.485948,-1406.391290,9474.636058
2413.681587,0.000000,-1258.350101,9918.759623
2413.681916,0.000000,-888.247130,9400.615463
2413.682245,383.047749,-740.205942,9326.594869
2413.682574,1149.143247,-592.164754,9326.594869
2413.682904,1762.019645,-370.102971,9326.594869
2413.683233,2221.676944,-592.164754,8734.430116
2413.683562,2374.896044,-222.061783,8290.306550
2413.683891,2681.334243,-0.000000,8660.409521
2413.684220,2374.896044,370.102971,8512.368333
2413.684549,2221.676944,370.102971,8734.430116
2413.684878,1915.238745,370.102971,8586.388927
2413.685207,1532.190996,518.144159,8734.430116
2413.685536,1378.971896,666.185348,9104.533087
2413.685866,612.876398,592.164754,9326.594869
2413.686195,536.266849,-0.000000,9178.553681
2413.686524,0.000000,-518.144159,8586.388927
2413.686853,-306.438199,296.082377,9104.533087
2413.687182,-766.095498,-222.061783,9326.594869
2413.687511,-1378.971896,-370.102971,9548.656652
2413.687840,-995.924147,-962.267725,9770.718434
2413.688169,-1072.533697,-1702.473667,9474.636058
2413.688498,-919.314598,-1406.391290,9622.677246
2413.688828,-1149.143247,-1480.411884,9696.697840
2413.689157,-842.705048,-1184.329507,9548.656652
2413.689486,-536.266849,-1184.329507,9548.656652
2413.689815,-153.219100,-962.267725,9474.636058
2413.690144,383.047749,-666.185348,9400.615463
2413.690473,459.657299,-0.000000,8808.450710
2413.690802,766.095498,740.205942,8660.409521
2413.691131,1455.581446,962.267725,8216.285956
2413.691460,1302.362347,1480.411884,7994.224174
2413.691790,842.705048,1406.391290,7920.203579
2413.692119,383.047749,1406.391290,8438.347739
2413.692448,76.609550,592.164754,8438.347739
2413.692777,-229.828649,-0.000000,8808.450710
2413.693106,-842.705048,-518.144159,9252.574275
2413.693435,-1838.629195,-740.205942,9992.780217
2413.693764,-1149.143247,-1036.288319,9548.656652
2413.694093,-689.485948,-888.247130,9326.594869
2413.694422,-842.705048,-814.226536,9474.636058
2413.694752,-459.657299,-592.164754,9474.636058
2413.695081,0.000000,-518.144159,9992.780217
2413.695410,-306.438199,-444.123565,10066.800811
2413.695739,306.438199,-518.144159,9474.636058
2413.696068,1149.143247,-222.061783,9252.574275
2413.696397,1608.800546,-74.020594,8660.409521
2413.696726,2374.896044,-0.000000,8586.388927
2413.697055,2681.334243,296.082377,8734.430116
2413.697384,2528.115143,-0.000000,8216.285956
2413.697714,2451.505594,592.164754,7994.224174
2413.698043,2681.334243,222.061783,8364.327145
2413.698372,1915.238745,888.247130,8364.327145
2413.698701,1302.362347,222.061783,8734.430116
2413.699030,995.924147,370.102971,8660.409521
2413.699359,919.314598,-148.041188,8882.471304
2413.699688,229.828649,-0.000000,9030.512492
2413.700017,76.609550,-0.000000,9474.636058
2413.700346,0.000000,-370.102971,8956.491898
2413.700676,-766.095498,-222.061783,9400.615463
2413.701005,-689.485948,-518.144159,9400.615463
2413.701334,-995.924147,-814.226536,9474.636058
2413.701663,-1608.800546,-1406.391290,9696.697840
2413.701992,-919.314598,-1554.432478,9770.718434
2413.702321,-1149.143247,-2072.576638,9622.677246
2413.702650,-153.219100,-1184.329507,10140.821405
2413.702979,-153.219100,-1258.350101,9696.697840
2413.703308,0.000000,-814.226536,9696.697840
2413.703638,689.485948,-222.061783,9252.574275
2413.703967,383.047749,444.123565,8882.471304
2413.704296,1685.410096,296.082377,8808.450710
2413.704625,1378.971896,444.123565,8882.471304
2413.704954,1149.143247,1036.288319,8586.388927
2413.705283,1072.533697,1258.350101,8216.285956
2413.705612,1072.533697,1184.329507,8438.347739
2413.705941,383.047749,740.205942,8734.430116
2413.706270,76.609550,444.123565,8808.450710
2413.706600,-306.438199,-74.020594,9178.553681
2413.706929,-766.095498,-592.164754,9474.636058
2413.707258,-766.095498,-962.267725,9622.677246
2413.707587,-766.095498,-1110.308913,9474.636058
2413.707916,-766.095498,-888.247130,9474.636058
2413.708245,-459.657299,-962.267725,9548.656652
2413.708574,0.000000,-592.164754,9400.615463
2413.708903,153.219100,-814.226536,9400.615463
2413.709232,919.314598,-518.144159,9252.574275
2413.709562,1838.629195,-74.020594,9252.574275
2413.709891,1915.238745,-0.000000,8512.368333
2413.710220,2451.505594,296.082377,8142.265362
2413.710549,2528.115143,592.164754,8216.285956
2413.710878,2374.896044,666.185348,8364.327145
2413.711207,2374.896044,370.102971,8142.265362
2413.711536,1991.848295,370.102971,8364.327145
2413.711865,1838.629195,148.041188,8586.388927
2413.712194,919.314598,666.185348,8808.450710
2413.712524,306.438199,296.082377,8956.491898
2413.712853,-229.828649,-0.000000,9178.553681
2413.713182,-536.266849,-148.041188,8586.388927
2413.713511,-766.095498,-518.144159,9400.615463
2413.713840,-766.095498,-592.164754,9474.636058
2413.714169,-995.924147,-1554.432478,9696.697840
2413.714498,-1149.143247,-1184.329507,9770.718434
2413.714827,-1072.533697,-1480.411884,9844.739029
2413.715156,-1302.362347,-1184.329507,9918.759623
2413.715486,-1225.752797,-1480.411884,9770.718434
2413.715815,-536.266849,-1406.391290,9918.759623
2413.716144,-229.828649,-1702.473667,9696.697840
2413.716473,0.000000,-1110.308913,9474.636058
2413.716802,459.657299,-296.082377,9474.636058
2413.717131,766.095498,370.102971,9030.512492
2413.717460,1149.143247,666.185348,8660.409521
2413.717789,1225.752797,814.226536,8216.285956
2413.718118,1455.581446,740.205942,8142.265362
2413.718448,689.485948,592.164754,8068.244768
2413.718777,766.095498,592.164754,8438.347739
2413.719106,76.609550,518.144159,8364.327145
2413.719435,-229.828649,296.082377,8660.409521
2413.719764,-536.266849,-148.041188,8660.409521
2413.720093,-919.314598,-444.123565,8734.430116
2413.720422,-612.876398,-296.082377,9474.636058
2413.720751,-612.876398,-296.082377,9030.512492
2413.721080,-229.828649,-444.123565,9030.512492
2413.721410,-383.047749,-444.123565,9252.574275
2413.721739,0.000000,-296.082377,9178.553681
2413.722068,229.828649,-296.082377,9252.574275
2413.722397,612.876398,-296.082377,9030.512492
2413.722726,1225.752797,-518.144159,9178.553681
2413.723055,1762.019645,-370.102971,8586.388927
2413.723384,1838.629195,-74.020594,9030.512492
2413.723713,2145.067394,-0.000000,8882.471304
2413.724042,2298.286494,-296.082377,8586.388927
2413.724372,2221.676944,-74.020594,8882.471304
2413.724701,2221.676944,-0.000000,8660.409521
2413.725030,2068.457845,370.102971,9178.553681
2413.725359,1532.190996,-0.000000,8364.327145
2413.725688,1608.800546,518.144159,8882.471304
2413.726017,1072.533697,592.164754,8586.388927
2413.726346,766.095498,518.144159,9104.533087
2413.726675,153.219100,296.082377,9178.553681
2413.727004,0.000000,222.061783,9178.553681
2413.727334,-1378.971896,-74.020594,9474.636058
2413.727663,-995.924147,-1036.288319,9770.718434
2413.727992,-1532.190996,-1184.329507,9696.697840
2413.728321,-1532.190996,-1554.432478,10140.821405
2413.728650,-1455.581446,-1332.370696,9622.677246
2413.728979,-1149.143247,-1480.411884,9548.656652
2413.729308,-995.924147,-1110.308913,9918.759623
2413.729637,0.000000,-1184.329507,9844.739029
2413.729966,-536.266849,-962.267725,9992.780217
2413.730296,76.609550,-814.226536,9400.615463
2413.730625,0.000000,-296.082377,9696.697840
2413.730954,612.876398,518.144159,8956.491898
2413.731283,842.705048,1036.288319,8216.285956
2413.731612,1072.533697,1184.329507,7846.182985
2413.731941,1991.848295,1554.432478,7550.100608
2413.732270,1608.800546,1776.494261,7920.203579
2413.732599,919.314598,1628.453072,7550.100608
2413.732928,612.876398,888.247130,7476.080014
2413.733258,0.000000,-0.000000,8216.285956
2413.733587,-689.485948,-296.082377,8586.388927
2413.733916,-995.924147,-1036.288319,8956.491898
2413.734245,-689.485948,-1258.350101,9844.739029
2413.734574,-842.705048,-1406.391290,9844.739029
2413.734903,-383.047749,-1702.473667,9474.636058
2413.735232,-536.266849,-814.226536,9474.636058
2413.735561,-229.828649,-962.267725,9770.718434
2413.735890,612.876398,-518.144159,9770.718434
2413.736220,1072.533697,-370.102971,9474.636058
2413.736549,1838.629195,-148.041188,8808.450710
2413.736878,1608.800546,518.144159,8438.347739
2413.737207,2145.067394,666.185348,8586.388927
2413.737536,2451.505594,962.267725,8364.327145
2413.737865,2374.896044,666.185348,8660.409521
2413.738194,2145.067394,592.164754,8364.327145
2413.738523,1455.581446,592.164754,8660.409521
2413.738852,689.485948,148.041188,8956.491898
2413.739182,306.438199,-74.020594,9474.636058
2413.739511,0.000000,-518.144159,9252.574275
2413.739840,-919.314598,-592.164754,9844.739029
2413.740169,-919.314598,-592.164754,9622.677246
2413.740498,-995.924147,-444.123565,9548.656652
2413.740827,-919.314598,-222.061783,9770.718434
2413.741156,-536.266849,-592.164754,9622.677246
2413.741485,-766.095498,-0.000000,9696.697840
2413.741814,-1455.581446,-1036.288319,9918.759623
2413.742144,-383.047749,-814.226536,9622.677246
2413.742473,-383.047749,-740.205942,9474.636058
2413.742802,0.000000,-888.247130,9400.615463
2413.743131,76.609550,-814.226536,9030.512492
2413.743460,229.828649,-444.123565,9104.533087
2413.743789,306.438199,-222.061783,8882.471304
2413.744118,842.705048,-0.000000,8734.430116
2413.744447,995.924147,518.144159,8512.368333
2413.744776,1072.533697,666.185348,7920.203579
2413.745106,995.924147,1036.288319,7920.203579
2413.745435,612.876398,1036.288319,8216.285956
2413.745764,766.095498,740.205942,8142.265362
2413.746093,-229.828649,370.102971,8512.368333
2413.746422,-536.266849,-0.000000,8882.471304
2413.746751,-612.876398,-0.000000,9030.512492
2413.747080,-689.485948,-148.041188,9104.533087
2413.747409,-919.314598,-370.102971,9178.553681
2413.747738,-842.705048,-888.247130,9326.594869
2413.748068,-459.657299,-1258.350101,9474.636058
2413.748397,-306.438199,-1110.308913,9770.718434
2413.748726,0.000000,-888.247130,9474.636058
2413.749055,459.657299,-814.226536,9326.594869
2413.749384,1302.362347,-1110.308913,9474.636058
2413.749713,1532.190996,-666.185348,9252.574275
2413.750042,2068.457845,-148.041188,9252.574275
2413.750371,2374.896044,-0.000000,8808.450710
2413.750700,2451.505594,296.082377,8882.471304
2413.751030,2374.896044,370.102971,8808.450710
2413.751359,2145.067394,666.185348,8808.450710
2413.751688,2221.676944,592.164754,9030.512492
2413.752017,1455.581446,444.123565,8660.409521
2413.752346,1149.143247,666.185348,8808.450710
2413.752675,536.266849,518.144159,8586.388927
2413.753004,153.219100,-0.000000,8956.491898
2413.753333,-383.047749,-74.020594,9548.656652
2413.753662,-306.438199,-592.164754,9252.574275
2413.753992,-1225.752797,-666.185348,9474.636058
2413.754321,-1149.143247,-814.226536,9474.636058
2413.754650,-1455.581446,-888.247130,9696.697840
2413.754979,-1455.581446,-1184.329507,9770.718434
2413.755308,-1072.533697,-1184.329507,9696.697840
2413.755637,-536.266849,-1332.370696,9548.656652
2413.755966,-383.047749,-962.267725,9918.759623
2413.756295,995.924147,-1036.288319,9400.615463
2413.756624,842.705048,-444.123565,9400.615463
2413.756954,842.705048,-0.000000,8734.430116
2413.757283,1225.752797,296.082377,8586.388927
2413.757612,1302.362347,666.185348,8216.285956
2413.757941,1608.800546,1036.288319,8734.430116
2413.758270,1072.533697,962.267725,8512.368333
2413.758599,1532.190996,592.164754,8586.388927
2413.758928,0.000000,592.164754,8512.368333
2413.759257,0.000000,148.041188,8808.450710
2413.759586,-612.876398,-0.000000,9178.553681
2413.759916,-919.314598,-370.102971,9326.594869
2413.760245,-459.657299,-592.164754,9400.615463
2413.760574,-383.047749,-444.123565,9178.553681
2413.760903,-383.047749,-370.102971,9696.697840
2413.761232,-459.657299,-444.123565,9548.656652
2413.761561,0.000000,-592.164754,9474.636058
2413.761890,689.485948,-370.102971,9252.574275
2413.762219,1072.533697,-74.020594,9030.512492
2413.762548,1302.362347,-148.041188,9326.594869
2413.762878,1991.848295,-74.020594,9252.574275
2413.763207,1838.629195,-0.000000,9030.512492
2413.763536,2068.457845,-74.020594,8882.471304
2413.763865,1685.410096,-0.000000,8734.430116
2413.764194,1302.362347,-0.000000,8882.471304
2413.764523,1225.752797,-0.000000,8882.471304
2413.764852,1532.190996,-296.082377,9030.512492
2413.765181,842.705048,222.061783,8882.471304
2413.765510,1072.533697,-0.000000,9104.533087
2413.765840,766.095498,444.123565,8808.450710
2413.766169,612.876398,740.205942,8586.388927
2413.766498,766.095498,666.185348,8660.409521
2413.766827,306.438199,518.144159,8586.388927
2413.767156,689.485948,222.061783,8808.450710
2413.767485,-459.657299,-296.082377,9474.636058
2413.767814,-919.314598,-814.226536,9548.656652
2413.768143,-995.924147,-1628.453072,9474.636058
2413.768472,-1608.800546,-1554.432478,9770.718434
2413.768802,-1685.410096,-1702.473667,9992.780217
2413.769131,-1532.190996,-1702.473667,9844.739029
2413.769460,-689.485948,-1628.453072,10066.800811
2413.769789,-306.438199,-1110.308913,9696.697840
2413.770118,-229.828649,-740.205942,10140.821405
2413.770447,0.000000,-148.041188,9696.697840
2413.770776,536.266849,222.061783,8586.388927
2413.771105,919.314598,666.185348,8660.409521
2413.771434,1225.752797,1258.350101,8142.265362
2413.771764,2145.067394,1776.494261,8438.347739
2413.772093,1225.752797,1258.350101,8438.347739
2413.772422,995.924147,1184.329507,8290.306550
2413.772751,0.000000,74.020594,8290.306550
2413.773080,0.000000,222.061783,8660.409521
2413.773409,-995.924147,-74.020594,9178.553681
2413.773738,-1225.752797,-740.205942,9474.636058
2413.774067,-1608.800546,-1036.288319,9400.615463
2413.774396,-1149.143247,-1184.329507,9992.780217
2413.774726,-919.314598,-1110.308913,9918.759623
2413.775055,-612.876398,-962.267725,9770.718434
2413.775384,-153.219100,-740.205942,9548.656652
2413.775713,306.438199,-740.205942,9474.636058
2413.776042,919.314598,-444.123565,9326.594869
2413.776371,1762.019645,-444.123565,9178.553681
2413.776700,2298.286494,-148.041188,9030.512492
2413.777029,2451.505594,370.102971,8734.430116
2413.777358,2987.772442,518.144159,8364.327145
2413.777688,3140.991542,962.267725,8142.265362
2413.778017,2834.553343,962.267725,8216.285956
2413.778346,2451.505594,962.267725,8290.306550
2413.778675,1685.410096,814.226536,8734.430116
2413.779004,842.705048,518.144159,8956.491898
2413.779333,306.438199,592.164754,9548.656652
2413.779662,-306.438199,-0.000000,9474.636058
2413.779991,-919.314598,-518.144159,9548.656652
2413.780320,-1532.190996,-740.205942,9622.677246
2413.780650,-1685.410096,-1036.288319,9770.718434
2413.780979,-1608.800546,-1184.329507,9622.677246
2413.781308,-1225.752797,-1332.370696,9622.677246
2413.781637,-919.314598,-1554.432478,10436.903782
2413.781966,-1072.533697,-2072.576638,9622.677246
2413.782295,-689.485948,-1258.350101,9696.697840
2413.782624,-229.828649,-962.267725,9548.656652
2413.782953,306.438199,-666.185348,9474.636058
2413.783282,689.485948,-444.123565,9104.533087
2413.783611,1302.362347,-0.000000,8586.388927
2413.783940,1072.533697,444.123565,8364.327145
2413.784269,1225.752797,518.144159,8956.491898
2413.784598,995.924147,444.123565,8512.368333
2413.784927,229.828649,592.164754,8068.244768
2413.785256,306.438199,-0.000000,8586.388927
2413.785585,0.000000,-0.000000,8586.388927
2413.785914,0.000000,-0.000000,9474.636058
2413.786243,-1225.752797,-296.082377,9178.553681
2413.786572,-1455.581446,-0.000000,8808.450710
2413.786901,-459.657299,-444.123565,9030.512492
2413.787230,-229.828649,-0.000000,8660.409521
2413.787559,0.000000,-148.041188,9104.533087
2413.787888,153.219100,-296.082377,8882.471304
2413.788217,306.438199,-222.061783,8512.368333
2413.788546,0.000000,-222.061783,9178.553681
2413.788875,766.095498,-222.061783,8512.368333
2413.789204,1072.533697,-74.020594,8660.409521
2413.789533,1532.190996,-444.123565,8956.491898
2413.789862,1532.190996,-148.041188,8586.388927
2413.790191,1685.410096,-370.102971,9104.533087
2413.790520,1378.971896,-740.205942,9030.512492
2413.790849,1685.410096,-518.144159,9400.615463
2413.791178,1072.533697,-0.000000,9326.594869
2413.791507,1072.533697,-148.041188,9178.553681
2413.791836,1302.362347,-0.000000,9178.553681
2413.792165,1225.752797,370.102971,9030.512492
2413.792494,1149.143247,888.247130,9104.533087
2413.792823,842.705048,740.205942,9030.512492
2413.793152,689.485948,518.144159,9030.512492
2413.793481,306.438199,296.082377,9326.594869
2413.793810,-306.438199,-370.102971,9400.615463
2413.794139,-995.924147,-518.144159,9918.759623
2413.794468,-1302.362347,-1110.308913,10066.800811
2413.794797,-1532.190996,-1406.391290,9992.780217
2413.795126,-1302.362347,-1184.329507,10214.842000
2413.795455,-995.924147,-1406.391290,9770.718434
2413.795784,-1072.533697,-1110.308913,9770.718434
2413.796113,-995.924147,-1110.308913,9918.759623
2413.796442,-306.438199,-1332.370696,9474.636058
2413.796771,-612.876398,-814.226536,9474.636058
2413.797100,0.000000,-518.144159,9474.636058
2413.797429,229.828649,148.041188,8808.450710
2413.797758,842.705048,666.185348,8290.306550
2413.798087,1149.143247,1036.288319,7698.141797
2413.798416,1225.752797,1332.370696,7698.141797
2413.798745,1685.410096,1110.308913,7920.203579
2413.799074,612.876398,1184.329507,7698.141797
2413.799403,689.485948,962.267725,7846.182985
2413.799732,306.438199,370.102971,7994.224174
2413.800061,-229.828649,-74.020594,8660.409521
2413.800390,-383.047749,-222.061783,9326.594869
2413.800719,-1991.848295,-444.123565,9178.553681
2413.801048,-612.876398,-1036.288319,9326.594869
2413.801377,-766.095498,-888.247130,9400.615463
2413.801706,-536.266849,-814.226536,9474.636058
2413.802035,-383.047749,-888.247130,9474.636058
2413.802364,0.000000,-740.205942,9400.615463
2413.802693,1302.362347,-740.205942,9326.594869
2413.803022,1149.143247,-888.247130,8956.491898
2413.803351,1838.629195,-370.102971,9326.594869
2413.803680,2298.286494,-148.041188,9178.553681
2413.804009,2145.067394,-0.000000,8290.306550
2413.804338,2374.896044,370.102971,8512.368333
2413.804667,2451.505594,518.144159,8882.471304
2413.804996,2068.457845,518.144159,8956.491898
2413.805325,1762.019645,444.123565,8808.450710
2413.805654,1149.143247,740.205942,8956.491898
2413.805983,459.657299,148.041188,8734.430116
2413.806312,0.000000,-0.000000,9326.594869
2413.806641,-612.876398,222.061783,9326.594869
2413.806970,-842.705048,-222.061783,9474.636058
2413.807299,-1225.752797,-814.226536,9622.677246
2413.807628,-689.485948,-592.164754,9918.759623
2413.807957,-1225.752797,-888.247130,9696.697840
2413.808286,-1149.143247,-888.247130,9844.739029
2413.808615,-1072.533697,-1332.370696,9696.697840
2413.808944,-995.924147,-1258.350101,9696.697840
2413.809273,-612.876398,-1184.329507,9696.697840
2413.809602,-612.876398,-1036.288319,9770.718434
2413.809931,383.047749,-888.247130,9474.636058
2413.810260,229.828649,-296.082377,9400.615463
2413.810589,842.705048,-0.000000,8882.471304
2413.810918,1149.143247,814.226536,8512.368333
2413.811247,1302.362347,1258.350101,7994.224174
2413.811576,1762.019645,1258.350101,7846.182985
2413.811905,1762.019645,1184.329507,7772.162391
2413.812234,766.095498,1036.288319,7772.162391
2413.812563,0.000000,518.144159,8586.388927
2413.812892,0.000000,148.041188,8512.368333
2413.813221,-536.266849,-222.061783,8660.409521
2413.813550,-995.924147,-148.041188,8956.491898
2413.813879,-766.095498,-814.226536,9400.615463
2413.814208,-459.657299,-962.267725,9474.636058
2413.814537,-689.485948,-1184.329507,9548.656652
2413.814866,-383.047749,-666.185348,9770.718434
2413.815195,0.000000,-740.205942,9474.636058
2413.815524,306.438199,-296.082377,9474.636058
2413.815853,612.876398,-296.082377,9178.553681
2413.816182,1608.800546,-74.020594,9326.594869
2413.816511,1532.190996,-444.123565,8808.450710
2413.816840,2298.286494,296.082377,8586.388927
2413.817169,2221.676944,222.061783,9030.512492
2413.817498,2374.896044,-0.000000,8512.368333
2413.817827,1991.848295,148.041188,8882.471304
2413.818156,1762.019645,-0.000000,8808.450710
2413.818485,1149.143247,370.102971,8956.491898
2413.818814,1072.533697,-148.041188,9178.553681
2413.819143,1149.143247,-0.000000,8882.471304
2413.819472,612.876398,-0.000000,8808.450710
2413.819801,459.657299,-0.000000,9104.533087
2413.820130,0.000000,148.041188,9030.512492
2413.820459,-153.219100,-0.000000,9326.594869
2413.820788,-612.876398,-222.061783,8956.491898
2413.821117,-842.705048,-814.226536,9030.512492
2413.821446,-919.314598,-1554.432478,9622.677246
2413.821775,-1149.143247,-1554.432478,9696.697840
2413.822104,-919.314598,-1628.453072,9474.636058
2413.822433,-1149.143247,-1554.432478,9474.636058
2413.822762,-536.266849,-1110.308913,9474.636058
2413.823091,-229.828649,-888.247130,9400.615463
2413.823420,229.828649,-740.205942,9770.718434
2413.823749,306.438199,-518.144159,9474.636058
2413.824078,306.438199,-0.000000,8586.388927
2413.824407,919.314598,444.123565,8364.327145
2413.824736,1455.581446,1110.308913,7846.182985
2413.825065,1455.581446,1406.391290,7624.121203
2413.825394,1225.752797,1332.370696,8142.265362
2413.825723,766.095498,962.267725,8142.265362
2413.826052,153.219100,666.185348,8216.285956
2413.826381,0.000000,-0.000000,8808.450710
2413.826710,-612.876398,-296.082377,9104.533087
2413.827039,-995.924147,-592.164754,9696.697840
2413.827368,-1225.752797,-962.267725,9474.636058
2413.827697,-1072.533697,-888.247130,9696.697840
2413.828026,-1072.533697,-592.164754,10140.821405
2413.828355,-689.485948,-888.247130,10214.842000
2413.828684,-766.095498,-962.267725,10066.800811
2413.829013,-229.828649,-740.205942,9696.697840
2413.829342,536.266849,-370.102971,9474.636058
2413.829671,1378.971896,-222.061783,9178.553681
2413.830000,1762.019645,222.061783,9178.553681
2413.830329,2604.724693,-0.000000,8586.388927
2413.830658,2528.115143,-0.000000,8216.285956
2413.830987,2298.286494,518.144159,8512.368333
2413.831316,2374.896044,592.164754,8734.430116
2413.831645,2221.676944,888.247130,8512.368333
2413.831974,1915.238745,814.226536,8512.368333
2413.832303,1225.752797,666.185348,8660.409521
2413.832632,842.705048,444.123565,8734.430116
2413.832961,459.657299,518.144159,8956.491898
2413.833290,0.000000,222.061783,8512.368333
2413.833619,-689.485948,-74.020594,9104.533087
2413.833948,-766.095498,-592.164754,9326.594869
2413.834277,-1302.362347,-518.144159,9326.594869
2413.834606,-1072.533697,-1184.329507,9918.759623
2413.834935,-1225.752797,-1776.494261,9474.636058
2413.835264,-1149.143247,-1702.473667,9696.697840
2413.835593,-689.485948,-1850.514855,10066.800811
2413.835922,-766.095498,-1406.391290,9770.718434
2413.836251,-1225.752797,-1110.308913,9770.718434
2413.836580,0.000000,-888.247130,9548.656652
2413.836909,459.657299,-740.205942,9474.636058
2413.837238,842.705048,222.061783,8512.368333
2413.837567,1532.190996,666.185348,8586.388927
2413.837896,1532.190996,1332.370696,8364.327145
2413.838225,995.924147,1406.391290,8142.265362
2413.838554,1608.800546,1554.432478,8142.265362
2413.838883,1302.362347,1036.288319,7920.203579
2413.839212,459.657299,666.185348,8216.285956
2413.839541,0.000000,148.041188,8512.368333
2413.839870,-842.705048,-666.185348,9252.574275
2413.840199,-383.047749,-814.226536,9548.656652
2413.840528,-536.266849,-1184.329507,9622.677246
2413.840857,-612.876398,-1184.329507,9474.636058
2413.841186,-919.314598,-888.247130,9400.615463
2413.841515,-383.047749,-518.144159,9474.636058
2413.841844,76.609550,-370.102971,9252.574275
2413.842173,689.485948,-0.000000,9178.553681
2413.842502,1225.752797,-0.000000,9400.615463
2413.842831,1608.800546,-0.000000,8808.450710
2413.843160,2068.457845,-0.000000,8438.347739
2413.843489,2604.724693,222.061783,8290.306550
2413.843818,2451.505594,370.102971,8364.327145
2413.844147,2145.067394,-0.000000,8364.327145
2413.844476,1762.019645,296.082377,8734.430116
2413.844805,1608.800546,-0.000000,8734.430116
2413.845134,1302.362347,296.082377,9030.512492
2413.845463,1072.533697,-148.041188,9030.512492
2413.845792,536.266849,666.185348,9252.574275
2413.846121,383.047749,-0.000000,8956.491898
2413.846450,0.000000,148.041188,9104.533087
2413.846779,0.000000,296.082377,9400.615463
2413.847108,-229.828649,-0.000000,9474.636058
2413.847437,-612.876398,-0.000000,9696.697840
2413.847766,-1149.143247,-370.102971,9770.718434
2413.848095,-1302.362347,-1184.329507,9992.780217
2413.848424,-1378.971896,-1406.391290,10066.800811
2413.848753,-1378.971896,-1554.432478,10140.821405
2413.849082,-1149.143247,-1776.494261,9844.739029
2413.849411,-689.485948,-2220.617826,9844.739029
2413.849740,-383.047749,-1628.453072,9474.636058
2413.850070,76.609550,-888.247130,10140.821405
2413.850399,536.266849,-148.041188,9400.615463
2413.850728,919.314598,296.082377,8734.430116
2413.851057,1378.971896,888.247130,8290.306550
2413.851386,1455.581446,1258.350101,8068.244768
2413.851715,1455.581446,1850.514855,8068.244768
2413.852044,1072.533697,1332.370696,8068.244768
2413.852373,459.657299,962.267725,8290.306550
2413.852702,0.000000,370.102971,8438.347739
2413.853031,-229.828649,296.082377,8734.430116
2413.853360,-995.924147,-148.041188,9178.553681
2413.853689,-995.924147,-740.205942,9178.553681
2413.854018,-1378.971896,-592.164754,8882.471304
2413.854347,-1072.533697,-1036.288319,9400.615463
2413.854676,-1149.143247,-1406.391290,9252.574275
2413.855005,-306.438199,-962.267725,9622.677246
2413.855334,0.000000,-444.123565,9474.636058
2413.855663,306.438199,-444.123565,9178.553681
2413.855992,842.705048,-296.082377,9178.553681
2413.856321,1532.190996,-222.061783,8734.430116
2413.856650,2298.286494,-518.144159,8734.430116
2413.856979,2374.896044,296.082377,8068.244768
2413.857308,2298.286494,-0.000000,8290.306550
2413.857637,2604.724693,296.082377,8586.388927
2413.857966,2374.896044,370.102971,8808.450710
2413.858295,2374.896044,296.082377,8660.409521
2413.858624,1685.410096,222.061783,8734.430116
2413.858953,1532.190996,444.123565,8586.388927
2413.859282,995.924147,444.123565,9030.512492
2413.859611,536.266849,-0.000000,9030.512492
2413.859940,-383.047749,-0.000000,9326.594869
2413.860269,-689.485948,-0.000000,9474.636058
2413.860598,-1532.190996,-370.102971,9326.594869
2413.860927,-1225.752797,-814.226536,9918.759623
2413.861256,-1149.143247,-1184.329507,9696.697840
2413.861585,-1915.238745,-1702.473667,10436.903782
2413.861914,-1378.971896,-1406.391290,10140.821405
2413.862243,-1149.143247,-1628.453072,9844.739029
2413.862572,-612.876398,-1406.391290,9992.780217
2413.862901,-306.438199,-1184.329507,9696.697840
2413.863230,-153.219100,-962.267725,9622.677246
2413.863559,229.828649,-592.164754,9400.615463
2413.863888,842.705048,296.082377,9030.512492
2413.864217,1532.190996,518.144159,8734.430116
2413.864546,1378.971896,1258.350101,8142.265362
2413.864875,1608.800546,1776.494261,7772.162391
2413.865204,1072.533697,1480.411884,7772.162391
2413.865533,1149.143247,1406.391290,7624.121203
2413.865862,306.438199,740.205942,8438.347739
2413.866191,0.000000,148.041188,8734.430116
2413.866520,-689.485948,-222.061783,8808.450710
2413.866849,-1149.143247,-814.226536,9178.553681
2413.867178,-842.705048,-740.205942,9400.615463
2413.867507,-919.314598,-888.247130,9326.594869
2413.867836,-612.876398,-888.247130,9400.615463
2413.868165,0.000000,-518.144159,9400.615463
2413.868494,0.000000,-1036.288319,9400.615463
2413.868823,383.047749,-296.082377,9696.697840
2413.869152,1149.143247,-0.000000,9326.594869
2413.869481,1532.190996,-0.000000,9104.533087
2413.869810,2145.067394,-0.000000,8438.347739
2413.870139,2145.067394,296.082377,8364.327145
2413.870468,2374.896044,-0.000000,8438.347739
2413.870797,2068.457845,222.061783,8512.368333
2413.871126,1762.019645,-0.000000,8956.491898
2413.871455,1762.019645,-0.000000,9030.512492
2413.871784,919.314598,-0.000000,8956.491898
2413.872113,536.266849,-0.000000,9548.656652
2413.872442,536.266849,296.082377,8956.491898
2413.872771,229.828649,296.082377,9474.636058
2413.873100,-229.828649,-148.041188,9696.697840
2413.873429,-229.828649,444.123565,9474.636058
2413.873758,-383.047749,-0.000000,9622.677246
2413.874087,-612.876398,-222.061783,9474.636058
2413.874416,-995.924147,-518.144159,9622.677246
2413.874745,-1072.533697,-1332.370696,9770.718434
2413.875074,-995.924147,-1406.391290,9770.718434
2413.875403,-536.266849,-1480.411884,9696.697840
2413.875732,-459.657299,-1776.494261,9104.533087
2413.876061,-689.485948,-1480.411884,9474.636058
2413.876390,0.000000,-1184.329507,9474.636058
2413.876719,0.000000,-592.164754,9326.594869
2413.877048,306.438199,-888.247130,9326.594869
2413.877377,919.314598,222.061783,8364.327145
2413.877706,536.266849,666.185348,7994.224174
2413.878035,1915.238745,1036.288319,7994.224174
2413.878364,1149.143247,1480.411884,7772.162391
2413.878693,995.924147,1554.432478,7920.203579
2413.879022,459.657299,1110.308913,7920.203579
2413.879351,383.047749,814.226536,7994.224174
2413.879680,0.000000,-370.102971,8660.409521
2413.880009,-76.609550,-666.185348,8660.409521
2413.880338,-766.095498,-666.185348,9104.533087
2413.880667,-919.314598,-888.247130,9178.553681
2413.880996,-689.485948,-1110.308913,9400.615463
2413.881325,-842.705048,-888.247130,9548.656652
2413.881654,-459.657299,-1036.288319,9696.697840
2413.881983,-689.485948,-962.267725,9622.677246
2413.882312,76.609550,-666.185348,9622.677246
2413.882641,229.828649,-888.247130,9696.697840
2413.882969,1225.752797,-666.185348,9474.636058
2413.883298,1762.019645,-74.020594,9104.533087
2413.883627,2298.286494,-0.000000,8882.471304
2413.883956,2451.505594,296.082377,8586.388927
2413.884285,3294.210641,666.185348,8364.327145
2413.884614,2681.334243,370.102971,9030.512492
2413.884943,2298.286494,296.082377,8512.368333
2413.885272,1608.800546,592.164754,8512.368333
2413.885601,1378.971896,666.185348,8734.430116
2413.885930,1072.533697,370.102971,8734.430116
2413.886259,306.438199,-0.000000,9178.553681
2413.886588,-229.828649,-74.020594,9178.553681
2413.886917,-612.876398,-0.000000,9400.615463
2413.887246,-1072.533697,-148.041188,9548.656652
2413.887575,-1225.752797,-666.185348,9548.656652
2413.887904,-1072.533697,-740.205942,9770.718434
2413.888233,-1149.143247,-888.247130,9696.697840
2413.888562,-995.924147,-1184.329507,9770.718434
2413.888891,-689.485948,-1258.350101,9696.697840
2413.889220,-766.095498,-1036.288319,10140.821405
2413.889549,-306.438199,-1036.288319,9474.636058
2413.889878,76.609550,-1110.308913,9326.594869
2413.890207,76.609550,-592.164754,9474.636058
2413.890536,536.266849,-0.000000,8956.491898
2413.890865,1149.143247,296.082377,8734.430116
2413.891194,1455.581446,666.185348,8438.347739
2413.891523,1685.410096,740.205942,7994.224174
2413.891852,1532.190996,1036.288319,8216.285956
2413.892181,1072.533697,1110.308913,8290.306550
2413.892510,689.485948,888.247130,8216.285956
2413.892839,0.000000,296.082377,8660.409521
2413.893168,-536.266849,-222.061783,8956.491898
2413.893497,-995.924147,-1110.308913,9326.594869
2413.893826,-1225.752797,-666.185348,9696.697840
2413.894155,-306.438199,-1036.288319,9474.636058
2413.894484,-842.705048,-888.247130,9474.636058
2413.894813,-536.266849,-888.247130,9400.615463
2413.895142,0.000000,-592.164754,9326.594869
2413.895471,766.095498,-296.082377,9178.553681
2413.895800,689.485948,-148.041188,9326.594869
2413.896129,1608.800546,-0.000000,9030.512492
2413.896458,1149.143247,-74.020594,8512.368333
2413.896787,2068.457845,-0.000000,8956.491898
2413.897116,2145.067394,148.041188,8734.430116
2413.897445,2068.457845,222.061783,8660.409521
2413.897774,2145.067394,222.061783,8512.368333
2413.898103,1762.019645,-148.041188,8882.471304
2413.898432,1608.800546,296.082377,8882.471304
2413.898761,1378.971896,444.123565,9030.512492
2413.899090,919.314598,518.144159,8586.388927
2413.899419,459.657299,518.144159,8586.388927
2413.899748,229.828649,370.102971,8660.409521
2413.900077,-306.438199,296.082377,8882.471304
2413.900406,-229.828649,-296.082377,8956.491898
2413.900735,-459.657299,-370.102971,9474.636058
2413.901064,-919.314598,-1258.350101,9696.697840
2413.901393,-1072.533697,-1480.411884,9548.656652
2413.901722,-1302.362347,-1480.411884,9844.739029
2413.902051,-995.924147,-1776.494261,9992.780217
2413.902380,-995.924147,-1702.473667,9918.759623
2413.902709,-459.657299,-1332.370696,10288.862594
2413.903038,0.000000,-666.185348,9844.739029
2413.903367,229.828649,-814.226536,9548.656652
2413.903696,612.876398,-0.000000,9104.533087
2413.904025,995.924147,444.123565,8216.285956
2413.904354,766.095498,1036.288319,8364.327145
2413.904683,689.485948,962.267725,8512.368333
2413.905012,766.095498,1184.329507,8512.368333
2413.905341,0.000000,592.164754,8586.388927
2413.905670,-153.219100,-0.000000,8734.430116
2413.905999,-383.047749,222.061783,8734.430116
2413.906328,-766.095498,-74.020594,9104.533087
2413.906657,-995.924147,-74.020594,9178.553681
2413.906986,-459.657299,-296.082377,9622.677246
2413.907315,-536.266849,-444.123565,9326.594869
2413.907644,-459.657299,-814.226536,9252.574275
2413.907973,153.219100,-370.102971,9696.697840
2413.908302,76.609550,-444.123565,9104.533087
2413.908632,919.314598,-296.082377,9104.533087
2413.908961,1072.533697,-148.041188,8734.430116
2413.909290,1302.362347,-0.000000,9030.512492
2413.909619,1915.238745,-296.082377,8882.471304
2413.909948,1608.800546,-740.205942,8882.471304
2413.910277,1608.800546,-296.082377,8956.491898
2413.910606,1532.190996,-222.061783,8734.430116
2413.910935,1685.410096,-0.000000,8808.450710
2413.911264,1608.800546,296.082377,8882.471304
2413.911593,1838.629195,444.123565,8808.450710
2413.911922,1915.238745,222.061783,8142.265362
2413.912251,1378.971896,518.144159,8882.471304
2413.912580,1532.190996,814.226536,8956.491898
2413.912909,689.485948,518.144159,8808.450710
2413.913238,153.219100,148.041188,8808.450710
2413.913567,0.000000,-0.000000,8956.491898
2413.913896,-536.266849,-444.123565,9326.594869
2413.914225,-842.705048,-962.267725,9918.759623
2413.914554,-1532.190996,-1480.411884,9918.759623
2413.914883,-1302.362347,-1998.556043,9992.780217
2413.915212,-1455.581446,-2146.597232,10140.821405
2413.915541,-1302.362347,-1628.453072,10066.800811
2413.915870,-766.095498,-1258.350101,9844.739029
2413.916199,-153.219100,-1258.350101,9770.718434
2413.916528,153.219100,-444.123565,9474.636058
2413.916857,612.876398,-222.061783,9326.594869
2413.917186,1838.629195,148.041188,8512.368333
2413.917515,1455.581446,592.164754,8512.368333
2413.917844,1378.971896,1184.329507,8512.368333
2413.918173,1149.143247,1110.308913,7994.224174
2413.918502,995.924147,1110.308913,8216.285956
2413.918831,689.485948,518.144159,8364.327145
2413.919160,0.000000,-0.000000,8438.347739
2413.919489,-306.438199,-370.102971,8660.409521
2413.919818,-1149.143247,-74.020594,8956.491898
2413.920147,-766.095498,-296.082377,8734.430116
2413.920476,-842.705048,-444.123565,9030.512492
2413.920805,-766.095498,-296.082377,9252.574275
2413.921134,-612.876398,-888.247130,9178.553681
2413.921463,0.000000,-444.123565,9474.636058
2413.921792,383.047749,-444.123565,9178.553681
2413.922121,995.924147,-0.000000,9104.533087
2413.922450,1072.533697,-74.020594,8882.471304
2413.922779,1608.800546,-148.041188,8882.471304
2413.923108,1991.848295,-0.000000,8734.430116
2413.923437,2451.505594,-296.082377,8956.491898
2413.923766,2145.067394,-0.000000,8808.450710
2413.924095,1685.410096,-222.061783,9030.512492
2413.924424,1608.800546,148.041188,8882.471304
2413.924753,1225.752797,296.082377,8882.471304
2413.925082,1149.143247,370.102971,8956.491898
2413.925411,919.314598,518.144159,9400.615463
2413.925740,766.095498,370.102971,8956.491898
2413.926069,306.438199,-0.000000,8660.409521
2413.926398,0.000000,-0.000000,9178.553681
2413.926727,-306.438199,-0.000000,9326.594869
2413.927056,-689.485948,-518.144159,9474.636058
2413.927385,-1149.143247,-814.226536,9622.677246
2413.927714,-1225.752797,-1258.350101,9474.636058
2413.928043,-1072.533697,-1406.391290,9992.780217
2413.928372,-1149.143247,-1554.432478,9770.718434
2413.928701,-229.828649,-1628.453072,9918.759623
2413.929030,-459.657299,-1184.329507,9696.697840
2413.929359,0.000000,-888.247130,9474.636058
2413.929688,306.438199,-592.164754,9474.636058
2413.930017,689.485948,-0.000000,9104.533087
2413.930346,766.095498,-0.000000,8586.388927
2413.930675,1149.143247,592.164754,8438.347739
2413.931004,1072.533697,740.205942,8290.306550
2413.931333,995.924147,962.267725,8068.244768
2413.931662,536.266849,814.226536,8216.285956
2413.931991,0.000000,518.144159,8364.327145
2413.932320,-383.047749,222.061783,8438.347739
2413.932649,-766.095498,-222.061783,8808.450710
2413.932978,-306.438199,-814.226536,8956.491898
2413.933307,-459.657299,-296.082377,8956.491898
2413.933636,-1149.143247,-148.041188,8956.491898
2413.933965,-306.438199,-0.000000,8882.471304
2413.934294,0.000000,-0.000000,9030.512492
2413.934623,459.657299,-0.000000,8882.471304
2413.934952,689.485948,-222.061783,9104.533087
2413.935281,1072.533697,-444.123565,8808.450710
2413.935610,536.266849,-148.041188,8882.471304
