#time,accel_x,accel_y,accel_z
2613.465152,536.266849,-74.020594,9030.512492
2613.465481,459.657299,-74.020594,8956.491898
2613.465810,383.047749,148.041188,9030.512492
2613.466139,229.828649,-0.000000,8956.491898
2613.466468,306.438199,-0.000000,9178.553681
2613.466797,229.828649,-74.020594,9104.533087
2613.467127,536.266849,-74.020594,9030.512492
2613.467456,306.438199,-74.020594,8956.491898
2613.467785,383.047749,-74.020594,9030.512492
2613.468114,459.657299,-0.000000,8956.491898
2613.468443,459.657299,-0.000000,9030.512492
2613.468772,459.657299,-74.020594,8882.471304
2613.469101,0.000000,-74.020594,9326.594869
2613.469430,612.876398,-518.144159,8956.491898
2613.469759,612.876398,-148.041188,9178.553681
2613.470088,383.047749,-370.102971,9104.533087
2613.470417,229.828649,-74.020594,9400.615463
2613.470746,383.047749,-148.041188,9104.533087
2613.471075,383.047749,-74.020594,9178.553681
2613.471404,459.657299,-518.144159,9178.553681
2613.471733,306.438199,-0.000000,9252.574275
2613.472062,459.657299,-370.102971,9104.533087
2613.472392,459.657299,-74.020594,9400.615463
2613.472721,459.657299,-222.061783,9104.533087
2613.473050,229.828649,-148.041188,9326.594869
2613.473379,306.438199,-222.061783,9178.553681
2613.473708,229.828649,-0.000000,8956.491898
2613.474037,229.828649,-222.061783,9326.594869
2613.474366,766.095498,-222.061783,8956.491898
2613.474695,76.609550,-222.061783,9030.512492
2613.475024,229.828649,-296.082377,9104.533087
2613.475353,153.219100,-222.061783,9030.512492
2613.475682,306.438199,-0.000000,9104.533087
2613.476011,0.000000,-74.020594,9178.553681
2613.476340,612.876398,-148.041188,9030.512492
2613.476669,229.828649,222.061783,9252.574275
2613.476998,0.000000,-0.000000,9178.553681
2613.477327,383.047749,74.020594,9030.512492
2613.477657,229.828649,-0.000000,8882.471304
2613.477986,306.438199,-0.000000,8882.471304
2613.478315,536.266849,-0.000000,8956.491898
2613.478644,459.657299,-74.020594,8808.450710
2613.478973,-383.047749,-222.061783,9104.533087
2613.479302,383.047749,-148.041188,8956.491898
2613.479631,229.828649,-148.041188,8882.471304
2613.479960,306.438199,-74.020594,9030.512492
2613.480289,229.828649,-222.061783,8956.491898
2613.480618,383.047749,-296.082377,8808.450710
2613.480947,153.219100,-148.041188,9178.553681
2613.481276,0.000000,-148.041188,9252.574275
2613.481605,153.219100,-222.061783,9104.533087
2613.481934,306.438199,-222.061783,9252.574275
2613.482263,306.438199,-74.020594,8956.491898
2613.482592,306.438199,-222.061783,9104.533087
2613.482922,536.266849,-74.020594,9178.553681
2613.483251,0.000000,-296.082377,9326.594869
2613.483580,306.438199,-222.061783,9474.636058
2613.483909,383.047749,-296.082377,9326.594869
2613.484238,383.047749,-444.123565,9104.533087
2613.484567,229.828649,-222.061783,9104.533087
2613.484896,306.438199,-370.102971,9252.574275
2613.485225,536.266849,-518.144159,9178.553681
2613.485554,229.828649,-148.041188,8956.491898
2613.485883,229.828649,-370.102971,9104.533087
2613.486212,383.047749,-222.061783,9104.533087
2613.486541,153.219100,-222.061783,9326.594869
2613.486870,229.828649,-74.020594,9030.512492
2613.487199,229.828649,-0.000000,8956.491898
2613.487528,536.266849,-0.000000,8808.450710
2613.487858,536.266849,-0.000000,8882.471304
2613.488187,536.266849,-592.164754,8956.491898
2613.488516,612.876398,-296.082377,8882.471304
2613.488845,306.438199,-74.020594,8882.471304
2613.489174,536.266849,-0.000000,8808.450710
2613.489503,306.438199,-148.041188,8808.450710
2613.489832,306.438199,-0.000000,8882.471304
2613.490161,153.219100,-148.041188,8882.471304
2613.490490,306.438199,-74.020594,9252.574275
2613.490819,536.266849,-222.061783,9030.512492
2613.491148,306.438199,-222.061783,8956.491898
2613.491477,229.828649,-0.000000,9104.533087
2613.491806,306.438199,-0.000000,9030.512492
2613.492135,536.266849,-592.164754,9474.636058
2613.492464,1378.971896,-1036.288319,9474.636058
2613.492793,1838.629195,-1036.288319,9326.594869
2613.493123,1915.238745,-740.205942,9326.594869
2613.493452,1608.800546,-666.185348,9178.553681
2613.493781,1915.238745,-0.000000,8734.430116
2613.494110,3370.820191,-0.000000,9104.533087
2613.494439,4136.915689,-222.061783,8808.450710
2613.494768,3294.210641,148.041188,8512.368333
2613.495097,3140.991542,370.102971,8586.388927
2613.495426,2987.772442,-0.000000,8734.430116
2613.495755,2604.724693,-592.164754,9770.718434
2613.496084,1838.629195,-666.185348,9474.636058
2613.496413,1532.190996,-962.267725,9992.780217
2613.496742,2221.676944,-1776.494261,9622.677246
2613.497071,2681.334243,-814.226536,9326.594869
2613.497400,2911.162892,-148.041188,9474.636058
2613.497729,3370.820191,-1406.391290,9770.718434
2613.498058,3524.039291,-0.000000,8956.491898
2613.498388,4749.792088,1184.329507,9104.533087
2613.498717,5515.887586,888.247130,7179.997637
2613.499046,4443.353888,1332.370696,8364.327145
2613.499375,4826.401637,1110.308913,8882.471304
2613.499704,4366.744339,888.247130,7105.977043
2613.500033,3600.648841,444.123565,9104.533087
2613.500362,3217.601092,-0.000000,8882.471304
2613.500691,1608.800546,-0.000000,8882.471304
2613.501020,1225.752797,-1036.288319,9844.739029
2613.501349,1378.971896,-962.267725,9474.636058
2613.501678,1302.362347,-1036.288319,9918.759623
2613.502007,919.314598,-1332.370696,9474.636058
2613.502336,2068.457845,-148.041188,9474.636058
2613.502665,1532.190996,-370.102971,10066.800811
2613.502994,3064.381992,370.102971,7772.162391
2613.503323,4060.306139,518.144159,9548.656652
2613.503653,4519.963438,1184.329507,7994.224174
2613.503982,4596.572988,814.226536,8142.265362
2613.504311,4903.011187,1332.370696,8364.327145
2613.504640,3983.696590,296.082377,9030.512492
2613.504969,3370.820191,-296.082377,9252.574275
2613.505298,2911.162892,-1110.308913,9696.697840
2613.505627,2221.676944,-1480.411884,9844.739029
2613.505956,2145.067394,-2072.576638,10584.944971
2613.506285,1838.629195,-1850.514855,9992.780217
2613.506614,2221.676944,-1998.556043,10214.842000
2613.506943,2528.115143,-518.144159,9696.697840
2613.507272,3064.381992,222.061783,9696.697840
2613.507601,4213.525239,518.144159,8142.265362
2613.507930,4596.572988,1850.514855,8438.347739
2613.508259,4903.011187,2590.720797,7772.162391
2613.508588,4673.182538,2738.761985,7179.997637
2613.508918,4673.182538,2368.659014,7476.080014
2613.509247,3830.477490,1628.453072,7846.182985
2613.509576,3294.210641,370.102971,8364.327145
2613.509905,2604.724693,-592.164754,9918.759623
2613.510234,2068.457845,-2072.576638,9918.759623
2613.510563,1762.019645,-2886.803174,10658.965565
2613.510892,1991.848295,-3108.864956,10732.986159
2613.511221,2528.115143,-2960.823768,10584.944971
2613.511550,3677.258390,-1924.535449,9770.718434
2613.511879,4903.011187,-296.082377,8734.430116
2613.512208,5822.325785,888.247130,8882.471304
2613.512537,6205.373534,2294.638420,7994.224174
2613.512866,5592.497135,2886.803174,7772.162391
2613.513195,4903.011187,3256.906145,7254.018232
2613.513524,4826.401637,3997.112087,6735.874072
2613.513853,4136.915689,2368.659014,7031.956449
2613.514183,2451.505594,444.123565,7994.224174
2613.514512,383.047749,-2294.638420,10140.821405
2613.514841,-995.924147,-3923.091493,10584.944971
2613.515170,-1225.752797,-5107.421000,11843.295072
2613.515499,-1149.143247,-4885.359217,11251.130318
2613.515828,-229.828649,-2146.597232,10658.965565
2613.516157,536.266849,-1406.391290,11251.130318
2613.516486,919.314598,-74.020594,9770.718434
2613.516815,4213.525239,740.205942,10732.986159
2613.517144,6741.640382,1998.556043,7772.162391
2613.517473,7814.174080,1702.473667,8216.285956
2613.517802,5975.544884,962.267725,7624.121203
2613.518131,6281.983084,1554.432478,6587.832884
2613.518460,5822.325785,3034.844362,8290.306550
2613.518789,4596.572988,1924.535449,6957.935855
2613.519118,5056.230287,3182.885551,6143.709319
2613.519448,4903.011187,2590.720797,6143.709319
2613.519777,4060.306139,-740.205942,8068.244768
2613.520106,76.609550,-4663.297435,11103.089130
2613.520435,-306.438199,-6513.812290,12361.439231
2613.520764,-1838.629195,-3701.029710,12509.480420
2613.521093,-1302.362347,-6883.915261,13915.871710
2613.521422,-1915.238745,-1480.411884,10584.944971
2613.521751,1302.362347,-518.144159,11917.315666
2613.522080,2298.286494,1554.432478,9696.697840
2613.522409,6205.373534,1332.370696,9252.574275
2613.522738,8273.831378,1332.370696,9030.512492
2613.523067,7048.078582,1480.411884,7994.224174
2613.523396,7431.126331,2368.659014,7179.997637
2613.523725,8044.002729,4441.235652,5625.565159
2613.524054,7584.345430,1480.411884,6513.812290
2613.524384,7354.516781,3182.885551,4737.318029
2613.524713,6435.202183,1332.370696,6957.935855
2613.525042,3600.648841,1850.514855,5995.668130
2613.525371,4673.182538,518.144159,7550.100608
2613.525700,-229.828649,-3404.947333,10288.862594
2613.526029,-1991.848295,-7105.977043,12805.562797
2613.526358,-2528.115143,666.185348,11695.253884
2613.526687,-1685.410096,-7402.059420,12805.562797
2613.527016,-1608.800546,-1184.329507,10066.800811
2613.527345,2374.896044,1184.329507,13545.768739
2613.527674,1608.800546,962.267725,10362.883188
2613.528003,-536.266849,1332.370696,11473.192101
2613.528332,6358.592633,-1480.411884,11695.253884
2613.528661,7660.954980,2664.741391,5033.400406
2613.528990,6358.592633,2220.617826,8290.306550
2613.529319,5056.230287,1184.329507,4959.379811
2613.529649,5822.325785,2664.741391,5847.626942
2613.529978,4673.182538,1702.473667,7105.977043
2613.530307,4366.744339,3849.070898,3330.926739
2613.530636,3140.991542,3997.112087,8438.347739
2613.530965,153.219100,-1036.288319,8512.368333
2613.531294,-2145.067394,-3478.967927,11769.274478
2613.531623,-2221.676944,-2664.741391,10510.924376
2613.531952,-1915.238745,-962.267725,9770.718434
2613.532281,-2681.334243,-5625.565159,13545.768739
2613.532610,-3370.820191,-740.205942,10288.862594
2613.532939,-689.485948,-1480.411884,11769.274478
2613.533268,-2681.334243,-740.205942,9474.636058
2613.533597,-229.828649,370.102971,8808.450710
2613.533926,306.438199,518.144159,9770.718434
2613.534255,-536.266849,1998.556043,8660.409521
2613.534584,153.219100,148.041188,9622.677246
2613.534914,383.047749,-74.020594,6291.750507
2613.535243,2145.067394,-74.020594,7920.203579
2613.535572,1378.971896,888.247130,6291.750507
2613.535901,1915.238745,666.185348,7328.038826
2613.536230,0.000000,222.061783,9474.636058
2613.536559,-306.438199,-2590.720797,9178.553681
2613.536888,-689.485948,-666.185348,9252.574275
2613.537217,-1608.800546,-888.247130,9474.636058
2613.537546,-689.485948,-74.020594,9474.636058
2613.537875,-383.047749,-370.102971,10066.800811
2613.538204,1225.752797,-296.082377,10140.821405
2613.538533,842.705048,-740.205942,9622.677246
2613.538862,842.705048,1406.391290,9104.533087
2613.539191,1838.629195,2146.597232,8512.368333
2613.539520,2451.505594,1258.350101,7328.038826
2613.539849,2451.505594,296.082377,7624.121203
2613.540178,1532.190996,-1036.288319,8216.285956
2613.540507,0.000000,-1628.453072,9474.636058
2613.540836,-689.485948,-1184.329507,9326.594869
2613.541165,-1149.143247,-592.164754,9104.533087
2613.541493,-1149.143247,-1406.391290,10362.883188
2613.541822,-1608.800546,-1110.308913,10140.821405
2613.542151,-1149.143247,-1406.391290,10510.924376
2613.542480,-1225.752797,370.102971,10066.800811
2613.542809,229.828649,2146.597232,9622.677246
2613.543138,76.609550,1110.308913,10214.842000
2613.543467,842.705048,-888.247130,10510.924376
2613.543796,1302.362347,-962.267725,9770.718434
2613.544125,2681.334243,1036.288319,8290.306550
2613.544454,2834.553343,962.267725,7476.080014
2613.544783,2911.162892,2146.597232,7772.162391
2613.545112,3600.648841,1480.411884,8216.285956
2613.545441,2451.505594,-370.102971,8512.368333
2613.545770,1149.143247,-296.082377,8216.285956
2613.546099,0.000000,-740.205942,9622.677246
2613.546428,-536.266849,-666.185348,9252.574275
2613.546757,-536.266849,-592.164754,10140.821405
2613.547086,0.000000,-1998.556043,10362.883188
2613.547415,0.000000,-2664.741391,10584.944971
2613.547744,0.000000,-592.164754,9474.636058
2613.548073,612.876398,1480.411884,9326.594869
2613.548402,1149.143247,2146.597232,7994.224174
2613.548731,1838.629195,1554.432478,8660.409521
2613.549059,2374.896044,1554.432478,8660.409521
2613.549388,1532.190996,222.061783,8660.409521
2613.549717,612.876398,-0.000000,8808.450710
2613.550046,229.828649,-0.000000,8068.244768
2613.550375,0.000000,-370.102971,8438.347739
2613.550704,-306.438199,-1702.473667,8956.491898
2613.551033,-536.266849,-1850.514855,9696.697840
2613.551362,-1149.143247,-2368.659014,10584.944971
2613.551691,-1302.362347,-740.205942,9400.615463
2613.552020,-919.314598,-0.000000,9030.512492
2613.552349,-612.876398,-222.061783,8734.430116
2613.552678,-612.876398,-222.061783,9622.677246
2613.553007,-1378.971896,-296.082377,9918.759623
2613.553336,-766.095498,444.123565,9030.512492
2613.553665,153.219100,1110.308913,8068.244768
2613.553994,229.828649,1702.473667,7698.141797
2613.554323,1149.143247,-148.041188,8882.471304
2613.554652,689.485948,-1184.329507,9548.656652
2613.554981,-229.828649,-1258.350101,7920.203579
2613.555310,-1608.800546,-444.123565,9548.656652
2613.555639,-1378.971896,-222.061783,9474.636058
2613.555968,-1915.238745,-1036.288319,8882.471304
2613.556296,-919.314598,-518.144159,8660.409521
2613.556625,-995.924147,-814.226536,9178.553681
2613.556954,-459.657299,-148.041188,9918.759623
2613.557283,-689.485948,518.144159,9030.512492
2613.557612,-229.828649,814.226536,9474.636058
2613.557941,0.000000,-518.144159,9474.636058
2613.558270,153.219100,-1110.308913,9770.718434
2613.558599,383.047749,-1332.370696,10436.903782
2613.558928,1455.581446,-0.000000,8882.471304
2613.559257,1685.410096,1332.370696,8438.347739
2613.559586,1915.238745,962.267725,7624.121203
2613.559915,2528.115143,370.102971,8290.306550
2613.560244,1915.238745,-74.020594,8808.450710
2613.560573,1455.581446,296.082377,8216.285956
2613.560902,1225.752797,296.082377,8882.471304
2613.561231,1762.019645,296.082377,8882.471304
2613.561560,919.314598,-518.144159,9474.636058
2613.561889,0.000000,-1702.473667,10658.965565
2613.562218,-383.047749,-1110.308913,10140.821405
2613.562547,0.000000,-74.020594,9696.697840
2613.562876,76.609550,296.082377,8882.471304
2613.563205,1991.848295,666.185348,9252.574275
2613.563533,995.924147,-0.000000,9400.615463
2613.563862,919.314598,-74.020594,9400.615463
2613.564191,919.314598,148.041188,8956.491898
2613.564520,1302.362347,518.144159,8660.409521
2613.564849,1302.362347,666.185348,8734.430116
2613.565178,1762.019645,-444.123565,8882.471304
2613.565507,1608.800546,-1332.370696,9178.553681
2613.565836,1072.533697,-1406.391290,9178.553681
2613.566165,842.705048,-592.164754,9104.533087
2613.566494,229.828649,888.247130,8216.285956
2613.566823,459.657299,-0.000000,9178.553681
2613.567152,0.000000,-296.082377,8956.491898
2613.567481,-383.047749,-740.205942,9474.636058
2613.567810,-612.876398,-666.185348,10140.821405
2613.568139,76.609550,222.061783,8586.388927
2613.568468,-153.219100,370.102971,8586.388927
2613.568797,0.000000,-0.000000,9030.512492
2613.569126,-306.438199,-1258.350101,9326.594869
2613.569455,-383.047749,-666.185348,9400.615463
2613.569784,-919.314598,-444.123565,8512.368333
2613.570113,0.000000,666.185348,8216.285956
2613.570442,-459.657299,-0.000000,8438.347739
2613.570771,-689.485948,-74.020594,8882.471304
2613.571099,-919.314598,-1332.370696,9696.697840
2613.571428,-766.095498,-666.185348,9474.636058
2613.571757,-612.876398,-148.041188,9104.533087
2613.572086,-383.047749,370.102971,8734.430116
2613.572415,-689.485948,-518.144159,9474.636058
2613.572744,-689.485948,-1850.514855,10140.821405
2613.573073,-842.705048,-1776.494261,9918.759623
2613.573402,-919.314598,-888.247130,9770.718434
2613.573731,-766.095498,-74.020594,9252.574275
2613.574060,-383.047749,-0.000000,8586.388927
2613.574389,-459.657299,-444.123565,9178.553681
2613.574718,0.000000,-962.267725,9326.594869
2613.575047,459.657299,-0.000000,9474.636058
2613.575376,766.095498,-0.000000,9104.533087
2613.575705,1149.143247,814.226536,8290.306550
2613.576034,1762.019645,-518.144159,8364.327145
2613.576363,1455.581446,-740.205942,9252.574275
2613.576692,1302.362347,-296.082377,9030.512492
2613.577021,842.705048,148.041188,8734.430116
2613.577350,1378.971896,1110.308913,8216.285956
2613.577679,1608.800546,814.226536,8364.327145
2613.578008,1302.362347,-0.000000,9400.615463
2613.578336,153.219100,-740.205942,9252.574275
2613.578665,383.047749,-666.185348,9548.656652
2613.578994,612.876398,-296.082377,9104.533087
2613.579323,919.314598,370.102971,8512.368333
2613.579652,1302.362347,-666.185348,9104.533087
2613.579981,1991.848295,-444.123565,9030.512492
2613.580310,1991.848295,-1110.308913,8734.430116
2613.580639,2068.457845,-666.185348,8808.450710
2613.580968,2145.067394,518.144159,8364.327145
2613.581297,2145.067394,1184.329507,8364.327145
2613.581626,1685.410096,-0.000000,8660.409521
2613.581955,1608.800546,-518.144159,9622.677246
2613.582284,689.485948,-296.082377,9696.697840
2613.582613,1072.533697,-0.000000,8660.409521
2613.582942,153.219100,-222.061783,8808.450710
2613.583271,536.266849,-740.205942,8956.491898
2613.583600,766.095498,-1480.411884,9622.677246
2613.583929,459.657299,-1850.514855,9400.615463
2613.584258,0.000000,-962.267725,9252.574275
2613.584587,306.438199,-0.000000,8660.409521
2613.584916,153.219100,370.102971,8142.265362
2613.585245,459.657299,-148.041188,8734.430116
2613.585573,229.828649,-296.082377,9400.615463
2613.585902,0.000000,-296.082377,9178.553681
2613.586231,306.438199,592.164754,8734.430116
2613.586560,536.266849,1258.350101,8290.306550
2613.586889,536.266849,-0.000000,9474.636058
2613.587218,0.000000,-1036.288319,10362.883188
2613.587547,-842.705048,-370.102971,8882.471304
2613.587876,-536.266849,-888.247130,9918.759623
2613.588205,-612.876398,-148.041188,8586.388927
2613.588534,-229.828649,814.226536,8512.368333
2613.588863,0.000000,-814.226536,9178.553681
2613.589192,-306.438199,-814.226536,8956.491898
2613.589521,-536.266849,-0.000000,9326.594869
2613.589850,-766.095498,-370.102971,8956.491898
2613.590179,-689.485948,222.061783,8512.368333
2613.590508,-1072.533697,-740.205942,8956.491898
2613.590837,-766.095498,-1258.350101,9474.636058
2613.591166,-1532.190996,-1776.494261,10362.883188
2613.591495,-1302.362347,-814.226536,9844.739029
2613.591824,-1608.800546,-0.000000,8882.471304
2613.592153,-459.657299,370.102971,9252.574275
2613.592482,-612.876398,-0.000000,9030.512492
2613.592811,153.219100,-518.144159,9400.615463
2613.593139,0.000000,-444.123565,9622.677246
2613.593468,459.657299,592.164754,8512.368333
2613.593797,1685.410096,1110.308913,8364.327145
2613.594126,1302.362347,518.144159,8808.450710
2613.594455,842.705048,-74.020594,9474.636058
2613.594784,1302.362347,-814.226536,8882.471304
2613.595113,1149.143247,-0.000000,8216.285956
2613.595442,1225.752797,-0.000000,8956.491898
2613.595771,842.705048,-296.082377,8808.450710
2613.596100,536.266849,-814.226536,9252.574275
2613.596429,306.438199,-1332.370696,9474.636058
2613.596758,153.219100,-666.185348,9918.759623
2613.597087,383.047749,-0.000000,9696.697840
2613.597416,689.485948,962.267725,8734.430116
2613.597745,1378.971896,518.144159,9326.594869
2613.598074,1915.238745,-666.185348,9696.697840
2613.598403,1838.629195,-296.082377,8586.388927
2613.598732,1991.848295,370.102971,9178.553681
2613.599061,2451.505594,1850.514855,8956.491898
2613.599390,1915.238745,1406.391290,8290.306550
2613.599719,1225.752797,518.144159,9104.533087
2613.600048,1072.533697,-0.000000,9178.553681
2613.600376,459.657299,-148.041188,10066.800811
2613.600705,229.828649,-74.020594,9474.636058
2613.601034,536.266849,444.123565,9918.759623
2613.601363,689.485948,-148.041188,9622.677246
2613.601692,919.314598,-592.164754,9474.636058
2613.602021,1072.533697,-1110.308913,9474.636058
2613.602350,1455.581446,-0.000000,8956.491898
2613.602679,1455.581446,666.185348,8364.327145
2613.603008,2068.457845,370.102971,8364.327145
2613.603337,1532.190996,666.185348,8216.285956
2613.603666,766.095498,-148.041188,9770.718434
2613.603995,0.000000,370.102971,7698.141797
2613.604324,-306.438199,-814.226536,8956.491898
2613.604653,-153.219100,444.123565,8586.388927
2613.604982,-536.266849,-0.000000,8734.430116
2613.605311,-612.876398,-2368.659014,10140.821405
2613.605640,-1532.190996,-2516.700203,10362.883188
2613.605969,-2604.724693,-1702.473667,10436.903782
2613.606298,-1838.629195,-370.102971,9474.636058
2613.606627,-1072.533697,-222.061783,8956.491898
2613.606956,-1378.971896,-148.041188,9178.553681
2613.607285,-612.876398,-1036.288319,9030.512492
2613.607614,-1072.533697,-666.185348,9178.553681
2613.607942,-995.924147,-592.164754,9400.615463
2613.608271,-153.219100,444.123565,8734.430116
2613.608600,0.000000,-222.061783,8142.265362
2613.608929,306.438199,-592.164754,8734.430116
2613.609258,76.609550,-1110.308913,8808.450710
2613.609587,306.438199,-518.144159,8142.265362
2613.609916,536.266849,592.164754,7772.162391
2613.610245,612.876398,444.123565,8364.327145
2613.610574,0.000000,-74.020594,8660.409521
2613.610903,-459.657299,-666.185348,9326.594869
2613.611232,-612.876398,-888.247130,9474.636058
2613.611561,-842.705048,-444.123565,9178.553681
2613.611890,-766.095498,-0.000000,8364.327145
2613.612219,229.828649,-0.000000,8512.368333
2613.612548,766.095498,-962.267725,9770.718434
2613.612877,536.266849,-1776.494261,10066.800811
2613.613206,459.657299,-814.226536,9548.656652
2613.613535,919.314598,148.041188,8882.471304
2613.613864,1762.019645,888.247130,8216.285956
2613.614193,1762.019645,666.185348,8956.491898
2613.614522,1608.800546,-0.000000,8512.368333
2613.614851,1532.190996,444.123565,9104.533087
2613.615179,1991.848295,962.267725,8734.430116
2613.615508,1762.019645,1258.350101,8956.491898
2613.615837,1608.800546,518.144159,8882.471304
2613.616166,536.266849,-740.205942,9400.615463
2613.616495,1455.581446,-1850.514855,10584.944971
2613.616824,995.924147,-1184.329507,9622.677246
2613.617153,1072.533697,-592.164754,10066.800811
2613.617482,1532.190996,-444.123565,9474.636058
2613.617811,1608.800546,-0.000000,9030.512492
2613.618140,1378.971896,-74.020594,9474.636058
2613.618469,2298.286494,592.164754,9770.718434
2613.618798,1455.581446,222.061783,9326.594869
2613.619127,1762.019645,2072.576638,8586.388927
2613.619456,1608.800546,1332.370696,8734.430116
2613.619785,1608.800546,-222.061783,9104.533087
2613.620114,1072.533697,-1036.288319,9178.553681
2613.620443,459.657299,-296.082377,9770.718434
2613.620772,383.047749,-74.020594,8808.450710
2613.621101,0.000000,740.205942,8512.368333
2613.621430,-536.266849,-0.000000,9474.636058
2613.621759,-383.047749,-962.267725,8660.409521
2613.622088,-766.095498,-0.000000,9178.553681
2613.622416,-383.047749,-0.000000,9104.533087
2613.622745,-536.266849,518.144159,8808.450710
2613.623074,0.000000,296.082377,8808.450710
2613.623403,0.000000,-666.185348,9474.636058
2613.623732,306.438199,-1332.370696,9178.553681
2613.624061,383.047749,-888.247130,9030.512492
2613.624390,919.314598,592.164754,8142.265362
2613.624719,459.657299,1184.329507,7994.224174
2613.625048,229.828649,666.185348,8216.285956
2613.625377,0.000000,-222.061783,8734.430116
2613.625706,-306.438199,-740.205942,8660.409521
2613.626035,-1072.533697,-296.082377,8734.430116
2613.626364,-995.924147,-444.123565,8808.450710
2613.626693,-995.924147,-592.164754,8734.430116
2613.627022,-1225.752797,-1036.288319,9252.574275
2613.627351,-995.924147,-1924.535449,9400.615463
2613.627680,-1838.629195,-1924.535449,9622.677246
2613.628009,-1685.410096,-74.020594,9178.553681
2613.628338,-1225.752797,222.061783,8586.388927
2613.628667,-612.876398,-0.000000,9252.574275
2613.628996,-306.438199,-518.144159,8956.491898
2613.629325,-842.705048,-592.164754,9474.636058
2613.629654,-459.657299,-0.000000,9400.615463
2613.629982,76.609550,740.205942,8808.450710
2613.630311,306.438199,-0.000000,8660.409521
2613.630640,612.876398,-370.102971,9178.553681
2613.630969,1072.533697,-1110.308913,9400.615463
2613.631298,995.924147,-740.205942,8808.450710
2613.631627,995.924147,222.061783,8808.450710
2613.631956,919.314598,740.205942,8734.430116
2613.632285,1532.190996,148.041188,8438.347739
2613.632614,1149.143247,-222.061783,9548.656652
2613.632943,459.657299,-740.205942,9400.615463
2613.633272,1455.581446,-888.247130,9474.636058
2613.633601,842.705048,666.185348,9178.553681
2613.633930,766.095498,518.144159,9178.553681
2613.634259,1378.971896,-74.020594,9326.594869
2613.634588,1225.752797,-962.267725,9548.656652
2613.634917,1072.533697,-444.123565,9992.780217
2613.635246,1455.581446,444.123565,9104.533087
2613.635575,919.314598,814.226536,8142.265362
2613.635904,1455.581446,-0.000000,9178.553681
2613.636233,1532.190996,222.061783,9622.677246
2613.636562,995.924147,-740.205942,8808.450710
2613.636891,842.705048,-0.000000,8956.491898
2613.637220,1302.362347,370.102971,9104.533087
2613.637549,1838.629195,-74.020594,8586.388927
2613.637878,1455.581446,-148.041188,9178.553681
2613.638207,1685.410096,-1702.473667,10140.821405
2613.638537,1149.143247,-592.164754,9030.512492
2613.638866,1072.533697,-0.000000,9030.512492
2613.639195,1302.362347,518.144159,8882.471304
2613.639524,1225.752797,740.205942,8216.285956
2613.639853,1072.533697,-74.020594,8808.450710
2613.640182,689.485948,-814.226536,8660.409521
2613.640511,-306.438199,-0.000000,9400.615463
2613.640841,0.000000,370.102971,8586.388927
2613.641170,-383.047749,-0.000000,8882.471304
2613.641499,-459.657299,-814.226536,9030.512492
2613.641828,-383.047749,-1628.453072,9622.677246
2613.642157,-766.095498,-1184.329507,9918.759623
2613.642486,-1149.143247,-962.267725,9918.759623
2613.642816,-612.876398,888.247130,8438.347739
2613.643145,-536.266849,370.102971,8512.368333
2613.643474,-459.657299,-0.000000,9252.574275
2613.643803,-1072.533697,-444.123565,9178.553681
2613.644132,-995.924147,-296.082377,8882.471304
2613.644461,-842.705048,-222.061783,8734.430116
2613.644790,-153.219100,592.164754,8216.285956
2613.645120,0.000000,-666.185348,8290.306550
2613.645449,-153.219100,-814.226536,9252.574275
2613.645778,-536.266849,-1258.350101,9252.574275
2613.646107,-612.876398,-148.041188,8808.450710
2613.646436,-153.219100,666.185348,8438.347739
2613.646765,459.657299,444.123565,8586.388927
2613.647094,0.000000,-296.082377,9252.574275
2613.647424,76.609550,-444.123565,9474.636058
2613.647753,-383.047749,-296.082377,9548.656652
2613.648082,-229.828649,666.185348,9474.636058
2613.648411,459.657299,814.226536,8956.491898
2613.648740,919.314598,-296.082377,9252.574275
2613.649069,612.876398,-814.226536,9326.594869
2613.649398,536.266849,-1406.391290,9696.697840
2613.649728,612.876398,-0.000000,8586.388927
2613.650057,995.924147,592.164754,8586.388927
2613.650386,536.266849,518.144159,9400.615463
2613.650715,229.828649,-666.185348,9400.615463
2613.651044,-229.828649,-1258.350101,9400.615463
2613.651373,229.828649,-1036.288319,9696.697840
2613.651702,-153.219100,-148.041188,9326.594869
2613.652032,612.876398,-296.082377,9326.594869
2613.652361,919.314598,-74.020594,10066.800811
2613.652690,1302.362347,-888.247130,9696.697840
2613.653019,1762.019645,-592.164754,9548.656652
2613.653348,1915.238745,444.123565,8956.491898
2613.653677,2298.286494,1110.308913,8290.306550
2613.654006,2757.943793,1406.391290,7698.141797
2613.654336,2834.553343,444.123565,8734.430116
2613.654665,2681.334243,-0.000000,9030.512492
2613.654994,1685.410096,-0.000000,8660.409521
2613.655323,1149.143247,444.123565,8290.306550
2613.655652,995.924147,-0.000000,8512.368333
2613.655981,153.219100,-148.041188,8956.491898
2613.656310,76.609550,-2368.659014,9548.656652
2613.656640,76.609550,-2294.638420,9992.780217
2613.656969,-536.266849,-1776.494261,10288.862594
2613.657298,153.219100,-0.000000,8512.368333
2613.657627,536.266849,444.123565,8438.347739
2613.657956,383.047749,-0.000000,8734.430116
2613.658285,612.876398,-370.102971,8808.450710
2613.658614,842.705048,444.123565,8956.491898
2613.658944,1455.581446,740.205942,8216.285956
2613.659273,459.657299,962.267725,8216.285956
2613.659602,306.438199,-0.000000,9030.512492
2613.659931,-459.657299,-1406.391290,9622.677246
2613.660260,-229.828649,-1406.391290,9844.739029
2613.660589,-229.828649,-444.123565,9252.574275
2613.660918,-689.485948,-148.041188,9104.533087
2613.661248,0.000000,-888.247130,9252.574275
2613.661577,-689.485948,-888.247130,9104.533087
2613.661906,-995.924147,-1184.329507,9696.697840
2613.662235,-995.924147,-740.205942,8882.471304
2613.662564,-995.924147,370.102971,9178.553681
2613.662893,-612.876398,740.205942,9030.512492
2613.663223,306.438199,-148.041188,8290.306550
2613.663552,-689.485948,-2294.638420,9622.677246
2613.663881,-995.924147,-1258.350101,9770.718434
2613.664210,-995.924147,-518.144159,9252.574275
2613.664539,-766.095498,740.205942,8512.368333
2613.664868,-612.876398,740.205942,8660.409521
2613.665197,-383.047749,-0.000000,9030.512492
2613.665527,-383.047749,-518.144159,9326.594869
2613.665856,-689.485948,-666.185348,8882.471304
2613.666185,-306.438199,-74.020594,8808.450710
2613.666514,0.000000,370.102971,8586.388927
2613.666843,76.609550,-148.041188,8660.409521
2613.667172,229.828649,-962.267725,9474.636058
2613.667501,229.828649,-888.247130,9474.636058
2613.667831,919.314598,-0.000000,8882.471304
2613.668160,2145.067394,1110.308913,8586.388927
2613.668489,1378.971896,814.226536,8216.285956
2613.668818,1762.019645,370.102971,8882.471304
2613.669147,1455.581446,-370.102971,9326.594869
2613.669476,1149.143247,-148.041188,9178.553681
2613.669805,1072.533697,444.123565,9178.553681
2613.670135,1225.752797,888.247130,8734.430116
2613.670464,995.924147,-0.000000,9622.677246
2613.670793,1685.410096,-1332.370696,9918.759623
2613.671122,1302.362347,-1480.411884,9696.697840
2613.671451,1225.752797,-666.185348,9474.636058
2613.671780,1302.362347,444.123565,8882.471304
2613.672109,1225.752797,888.247130,8512.368333
2613.672439,1302.362347,-0.000000,8956.491898
2613.672768,1378.971896,-74.020594,8660.409521
2613.673097,1072.533697,-370.102971,9400.615463
2613.673426,536.266849,888.247130,9104.533087
2613.673755,1225.752797,444.123565,9104.533087
2613.674084,689.485948,-0.000000,9178.553681
2613.674413,919.314598,-1332.370696,9622.677246
2613.674743,0.000000,-1258.350101,9918.759623
2613.675072,995.924147,-962.267725,9622.677246
2613.675401,1378.971896,296.082377,9178.553681
2613.675730,1072.533697,444.123565,8734.430116
2613.676059,1532.190996,592.164754,9326.594869
2613.676388,1072.533697,-444.123565,8660.409521
2613.676717,0.000000,-370.102971,8808.450710
2613.677047,536.266849,222.061783,9252.574275
2613.677376,383.047749,740.205942,7846.182985
2613.677705,0.000000,518.144159,8216.285956
2613.678034,0.000000,-740.205942,9252.574275
2613.678363,-919.314598,-1998.556043,9326.594869
2613.678692,-1149.143247,-370.102971,9178.553681
2613.679021,-919.314598,-148.041188,8438.347739
2613.679351,-612.876398,-0.000000,8068.244768
2613.679680,-536.266849,-74.020594,9030.512492
2613.680009,-995.924147,-666.185348,8956.491898
2613.680338,-1302.362347,-1036.288319,9474.636058
2613.680667,-1378.971896,-74.020594,8882.471304
2613.680996,-842.705048,-0.000000,8512.368333
2613.681325,-612.876398,-74.020594,8734.430116
2613.681655,-536.266849,-1184.329507,9252.574275
2613.681984,-689.485948,-1924.535449,9992.780217
2613.682313,-612.876398,-1406.391290,9104.533087
2613.682642,-383.047749,-0.000000,8734.430116
2613.682971,0.000000,814.226536,8216.285956
2613.683300,0.000000,222.061783,8882.471304
2613.683630,0.000000,-1332.370696,9474.636058
2613.683959,-459.657299,-666.185348,9104.533087
2613.684288,0.000000,-518.144159,9400.615463
2613.684617,76.609550,444.123565,8438.347739
2613.684946,153.219100,518.144159,8956.491898
2613.685275,153.219100,-740.205942,9770.718434
2613.685604,383.047749,-1110.308913,9992.780217
2613.685934,383.047749,-888.247130,9918.759623
2613.686263,76.609550,148.041188,9030.512492
2613.686592,383.047749,888.247130,8808.450710
2613.686921,536.266849,296.082377,9326.594869
2613.687250,842.705048,-74.020594,9474.636058
2613.687579,1072.533697,-0.000000,9474.636058
2613.687908,1149.143247,814.226536,8956.491898
2613.688238,1378.971896,814.226536,8512.368333
2613.688567,1915.238745,296.082377,9030.512492
2613.688896,2068.457845,-370.102971,9252.574275
2613.689225,1838.629195,-962.267725,9400.615463
2613.689554,1685.410096,-814.226536,9326.594869
2613.689883,1455.581446,518.144159,8956.491898
2613.690212,1685.410096,518.144159,8216.285956
2613.690542,1455.581446,222.061783,8586.388927
2613.690871,1762.019645,-592.164754,9474.636058
2613.691200,1378.971896,-74.020594,10066.800811
2613.691529,995.924147,-222.061783,9252.574275
2613.691858,1225.752797,814.226536,8882.471304
2613.692187,1532.190996,1110.308913,8660.409521
2613.692516,1762.019645,-0.000000,9474.636058
2613.692846,1762.019645,-592.164754,9178.553681
2613.693175,995.924147,-444.123565,9474.636058
2613.693504,1225.752797,370.102971,8882.471304
2613.693833,1378.971896,1406.391290,8882.471304
2613.694162,689.485948,148.041188,9252.574275
2613.694491,306.438199,-296.082377,9104.533087
2613.694820,-306.438199,-444.123565,9178.553681
2613.695150,-306.438199,-592.164754,9326.594869
2613.695479,0.000000,-0.000000,8216.285956
2613.695808,-612.876398,-296.082377,9326.594869
2613.696137,-766.095498,-962.267725,9844.739029
2613.696466,-459.657299,-1776.494261,9918.759623
2613.696795,-612.876398,-740.205942,9252.574275
2613.697124,-689.485948,444.123565,9178.553681
2613.697454,0.000000,666.185348,9030.512492
2613.697783,-153.219100,370.102971,8734.430116
2613.698112,0.000000,-0.000000,9548.656652
2613.698441,-536.266849,-666.185348,8882.471304
2613.698770,-1149.143247,-0.000000,9178.553681
2613.699099,-766.095498,814.226536,8956.491898
2613.699428,-536.266849,444.123565,8660.409521
2613.699758,-689.485948,-962.267725,8734.430116
2613.700087,-766.095498,-1998.556043,9400.615463
2613.700416,-919.314598,-814.226536,9474.636058
2613.700745,-1149.143247,148.041188,8734.430116
2613.701074,-995.924147,444.123565,8586.388927
2613.701403,-995.924147,222.061783,8808.450710
2613.701732,-1072.533697,-518.144159,9178.553681
2613.702062,-995.924147,-888.247130,9696.697840
2613.702391,-1378.971896,-222.061783,9400.615463
2613.702720,-536.266849,-0.000000,8586.388927
2613.703049,-306.438199,222.061783,9178.553681
2613.703378,-536.266849,-518.144159,9474.636058
2613.703707,-383.047749,-1332.370696,9474.636058
2613.704037,0.000000,-740.205942,9622.677246
2613.704366,383.047749,148.041188,8512.368333
2613.704695,1149.143247,814.226536,7846.182985
2613.705024,1149.143247,-0.000000,7624.121203
2613.705353,1225.752797,370.102971,10140.821405
2613.705682,1685.410096,-296.082377,9326.594869
2613.706011,1072.533697,-592.164754,8956.491898
2613.706341,1225.752797,1036.288319,8660.409521
2613.706670,1685.410096,666.185348,8882.471304
2613.706999,1532.190996,-296.082377,9030.512492
2613.707328,1225.752797,-296.082377,9770.718434
2613.707657,1532.190996,-1036.288319,9992.780217
2613.707986,995.924147,-222.061783,9326.594869
2613.708315,1685.410096,740.205942,8956.491898
2613.708645,1149.143247,-74.020594,9104.533087
2613.708974,1302.362347,-222.061783,9474.636058
2613.709303,1072.533697,-740.205942,9400.615463
2613.709632,1072.533697,-0.000000,9548.656652
2613.709961,1149.143247,296.082377,8882.471304
2613.710290,1915.238745,370.102971,8808.450710
2613.710619,1915.238745,-296.082377,9030.512492
2613.710949,1762.019645,-1036.288319,9326.594869
2613.711278,1838.629195,-814.226536,9104.533087
2613.711607,1838.629195,518.144159,8438.347739
2613.711936,1838.629195,814.226536,8512.368333
2613.712265,1455.581446,1406.391290,7994.224174
2613.712594,1608.800546,-74.020594,8068.244768
2613.712923,1378.971896,-370.102971,7994.224174
2613.713253,-459.657299,888.247130,9474.636058
2613.713582,-153.219100,-666.185348,9104.533087
2613.713911,0.000000,-0.000000,8512.368333
2613.714240,-689.485948,-518.144159,8660.409521
2613.714569,-306.438199,-1406.391290,9918.759623
2613.714898,-383.047749,-2294.638420,10140.821405
2613.715227,-459.657299,-296.082377,9548.656652
2613.715557,229.828649,592.164754,8290.306550
2613.715886,-536.266849,666.185348,8364.327145
2613.716215,-689.485948,-148.041188,8956.491898
2613.716544,-459.657299,-296.082377,9178.553681
2613.716873,-919.314598,-666.185348,8734.430116
2613.717202,-536.266849,-0.000000,8364.327145
2613.717531,-536.266849,-222.061783,8808.450710
2613.717861,-842.705048,-518.144159,9400.615463
2613.718190,-1225.752797,-1776.494261,9548.656652
2613.718519,-1608.800546,-1628.453072,9918.759623
2613.718848,-1455.581446,-370.102971,9696.697840
2613.719177,-919.314598,370.102971,8956.491898
2613.719506,-612.876398,-0.000000,8734.430116
2613.719835,-153.219100,-222.061783,9178.553681
2613.720165,0.000000,-666.185348,9770.718434
2613.720494,-229.828649,-74.020594,8956.491898
2613.720823,0.000000,370.102971,8364.327145
2613.721152,306.438199,814.226536,8068.244768
2613.721481,459.657299,-0.000000,8808.450710
2613.721810,842.705048,-1258.350101,9104.533087
2613.722139,76.609550,-592.164754,9400.615463
2613.722469,153.219100,-0.000000,9474.636058
2613.722798,76.609550,814.226536,8364.327145
2613.723127,0.000000,666.185348,8364.327145
2613.723456,0.000000,-222.061783,9474.636058
2613.723785,0.000000,-518.144159,9252.574275
2613.724114,0.000000,-74.020594,8512.368333
2613.724444,153.219100,222.061783,9844.739029
2613.724773,995.924147,-74.020594,9474.636058
2613.725102,1225.752797,-148.041188,9030.512492
2613.725431,1149.143247,-1258.350101,9844.739029
2613.725760,1149.143247,-1036.288319,8734.430116
2613.726089,1838.629195,-222.061783,9326.594869
2613.726418,1991.848295,518.144159,8364.327145
2613.726748,2221.676944,1184.329507,8882.471304
2613.727077,2221.676944,-222.061783,9474.636058
2613.727406,1915.238745,-148.041188,9104.533087
2613.727735,1685.410096,-0.000000,9622.677246
2613.728064,842.705048,148.041188,9252.574275
2613.728393,1149.143247,518.144159,9178.553681
2613.728722,1455.581446,-740.205942,9696.697840
2613.729052,689.485948,-1628.453072,9622.677246
2613.729381,689.485948,-1332.370696,10288.862594
2613.729710,229.828649,-592.164754,9252.574275
2613.730039,995.924147,814.226536,8882.471304
2613.730368,995.924147,740.205942,8142.265362
2613.730697,766.095498,-0.000000,8364.327145
2613.731026,842.705048,-518.144159,9622.677246
2613.731356,689.485948,-222.061783,9030.512492
2613.731685,459.657299,592.164754,8364.327145
2613.732014,919.314598,666.185348,8068.244768
2613.732343,459.657299,-148.041188,8660.409521
2613.732672,306.438199,-740.205942,9474.636058
2613.733001,459.657299,-814.226536,9030.512492
2613.733330,76.609550,-592.164754,8882.471304
2613.733660,76.609550,222.061783,8660.409521
2613.733989,229.828649,592.164754,8290.306550
2613.734318,-306.438199,-296.082377,8882.471304
2613.734647,-536.266849,-814.226536,9178.553681
2613.734976,-689.485948,-444.123565,8808.450710
2613.735305,-612.876398,-296.082377,8586.388927
2613.735634,-612.876398,666.185348,8364.327145
2613.735964,-995.924147,-888.247130,8586.388927
2613.736293,-689.485948,-1850.514855,9252.574275
2613.736622,-1378.971896,-1480.411884,9104.533087
2613.736951,-1149.143247,-888.247130,9474.636058
2613.737280,-1149.143247,-0.000000,8586.388927
2613.737609,-689.485948,592.164754,8882.471304
2613.737938,-612.876398,-666.185348,9844.739029
2613.738268,-612.876398,-1406.391290,9474.636058
2613.738597,-842.705048,-370.102971,9622.677246
2613.738926,0.000000,-444.123565,9178.553681
2613.739255,229.828649,148.041188,8586.388927
2613.739584,153.219100,-370.102971,8882.471304
2613.739913,536.266849,-740.205942,9178.553681
2613.740243,536.266849,-1258.350101,9252.574275
2613.740572,383.047749,-592.164754,9030.512492
2613.740901,1455.581446,296.082377,9030.512492
2613.741230,1378.971896,592.164754,8808.450710
2613.741559,536.266849,148.041188,8660.409521
2613.741888,612.876398,-518.144159,9104.533087
2613.742218,766.095498,-222.061783,9696.697840
2613.742547,612.876398,-0.000000,9252.574275
2613.742876,536.266849,1036.288319,9104.533087
2613.743205,995.924147,-148.041188,9400.615463
2613.743534,612.876398,-962.267725,9178.553681
2613.743863,842.705048,-1332.370696,10066.800811
2613.744193,536.266849,-0.000000,9400.615463
2613.744522,1149.143247,592.164754,8512.368333
2613.744851,1225.752797,962.267725,8364.327145
2613.745180,1302.362347,1110.308913,9326.594869
2613.745509,1302.362347,-740.205942,9474.636058
2613.745839,1302.362347,-0.000000,9104.533087
2613.746168,1455.581446,370.102971,8882.471304
2613.746497,1149.143247,740.205942,8364.327145
2613.746826,1072.533697,-222.061783,9400.615463
2613.747155,1225.752797,-814.226536,9474.636058
2613.747484,1072.533697,-1332.370696,9252.574275
2613.747814,536.266849,-740.205942,9622.677246
2613.748143,1455.581446,-0.000000,9030.512492
2613.748472,1149.143247,518.144159,8586.388927
2613.748801,1225.752797,518.144159,8512.368333
2613.749130,995.924147,-592.164754,9252.574275
2613.749459,0.000000,-222.061783,9474.636058
2613.749789,229.828649,222.061783,8956.491898
2613.750118,76.609550,962.267725,8216.285956
2613.750447,153.219100,-222.061783,9104.533087
2613.750776,153.219100,-1998.556043,9474.636058
2613.751105,-383.047749,-1702.473667,9474.636058
2613.751434,-689.485948,-1332.370696,9770.718434
2613.751764,-612.876398,-74.020594,8660.409521
2613.752093,-689.485948,740.205942,8364.327145
2613.752422,-459.657299,222.061783,9252.574275
2613.752751,-229.828649,-814.226536,8882.471304
2613.753080,-1455.581446,-222.061783,8808.450710
2613.753409,-459.657299,-0.000000,9178.553681
2613.753739,-766.095498,962.267725,8364.327145
2613.754068,-612.876398,-148.041188,8956.491898
2613.754397,-766.095498,-962.267725,9696.697840
2613.754726,-612.876398,-1406.391290,10140.821405
2613.755055,0.000000,-962.267725,9622.677246
2613.755384,-766.095498,-0.000000,9326.594869
2613.755714,-306.438199,962.267725,8956.491898
2613.756043,-383.047749,-148.041188,8364.327145
2613.756372,0.000000,-888.247130,9326.594869
2613.756701,0.000000,-888.247130,9030.512492
2613.757030,306.438199,-0.000000,8956.491898
2613.757359,-536.266849,962.267725,8290.306550
2613.757689,612.876398,444.123565,8364.327145
2613.758018,842.705048,-444.123565,9178.553681
2613.758347,229.828649,-962.267725,9178.553681
2613.758676,0.000000,-222.061783,9474.636058
2613.759005,229.828649,370.102971,9030.512492
2613.759334,0.000000,370.102971,9178.553681
2613.759664,229.828649,-0.000000,9326.594869
2613.759993,153.219100,-888.247130,9918.759623
2613.760322,153.219100,-1258.350101,9548.656652
2613.760651,766.095498,518.144159,9400.615463
2613.760980,842.705048,444.123565,8586.388927
2613.761309,1072.533697,444.123565,8882.471304
2613.761639,1838.629195,-740.205942,10362.883188
2613.761968,1225.752797,-888.247130,8882.471304
2613.762297,2374.896044,-148.041188,8512.368333
2613.762626,1302.362347,-148.041188,8956.491898
2613.762955,1991.848295,1406.391290,7920.203579
2613.763284,1762.019645,296.082377,8660.409521
2613.763614,1378.971896,-370.102971,9178.553681
2613.763943,612.876398,-666.185348,9474.636058
2613.764272,536.266849,-148.041188,9770.718434
2613.764601,-536.266849,444.123565,9178.553681
2613.764930,459.657299,740.205942,9252.574275
2613.765259,306.438199,-1184.329507,9992.780217
2613.765589,689.485948,-1628.453072,9622.677246
2613.765918,536.266849,-1480.411884,9622.677246
2613.766247,0.000000,-592.164754,9252.574275
2613.766576,1149.143247,444.123565,8512.368333
2613.766905,1149.143247,444.123565,8586.388927
2613.767234,842.705048,222.061783,8216.285956
2613.767564,766.095498,-370.102971,8734.430116
2613.767893,536.266849,296.082377,8438.347739
2613.768222,919.314598,1480.411884,7328.038826
2613.768551,536.266849,-148.041188,8438.347739
2613.768880,76.609550,-1036.288319,8956.491898
2613.769210,0.000000,-1480.411884,9696.697840
2613.769539,-459.657299,-1258.350101,9474.636058
2613.769868,-612.876398,-296.082377,8882.471304
2613.770197,-153.219100,592.164754,8734.430116
2613.770526,-306.438199,222.061783,9474.636058
2613.770855,-612.876398,-444.123565,9844.739029
2613.771185,-536.266849,-1110.308913,9918.759623
2613.771514,-1378.971896,-296.082377,9844.739029
2613.771843,-1762.019645,740.205942,8660.409521
2613.772172,-536.266849,-0.000000,9104.533087
2613.772501,-612.876398,-1332.370696,9178.553681
2613.772830,-1225.752797,-1480.411884,9622.677246
2613.773160,-459.657299,-1924.535449,9844.739029
2613.773489,-459.657299,-296.082377,8882.471304
2613.773818,0.000000,962.267725,8216.285956
2613.774147,306.438199,1036.288319,9104.533087
2613.774476,153.219100,-148.041188,9474.636058
2613.774805,229.828649,-222.061783,9326.594869
2613.775135,0.000000,518.144159,8882.471304
2613.775464,153.219100,814.226536,8512.368333
2613.775793,306.438199,222.061783,8290.306550
2613.776122,76.609550,-148.041188,9622.677246
2613.776451,-306.438199,-1554.432478,10066.800811
2613.776780,153.219100,-814.226536,9178.553681
2613.777110,153.219100,148.041188,9030.512492
2613.777439,459.657299,518.144159,8586.388927
2613.777768,459.657299,-0.000000,8512.368333
2613.778097,842.705048,-0.000000,9992.780217
2613.778426,-76.609550,-740.205942,9474.636058
2613.778755,536.266849,-370.102971,8956.491898
2613.779085,1378.971896,1036.288319,8438.347739
2613.779414,1532.190996,1406.391290,8512.368333
2613.779743,1378.971896,-0.000000,8660.409521
2613.780072,1685.410096,-962.267725,9104.533087
2613.780401,1608.800546,-740.205942,8882.471304
2613.780730,689.485948,-148.041188,8734.430116
2613.781060,612.876398,370.102971,8290.306550
2613.781389,383.047749,296.082377,9326.594869
2613.781718,153.219100,-518.144159,9622.677246
2613.782047,306.438199,-888.247130,9770.718434
2613.782376,0.000000,-666.185348,9400.615463
2613.782705,153.219100,-0.000000,9474.636058
2613.783035,689.485948,-0.000000,8512.368333
2613.783364,689.485948,-666.185348,9252.574275
2613.783693,1685.410096,-740.205942,9770.718434
2613.784022,1532.190996,-666.185348,8956.491898
2613.784351,1608.800546,592.164754,8882.471304
2613.784680,1532.190996,888.247130,8068.244768
2613.785010,1762.019645,666.185348,8068.244768
2613.785339,1072.533697,296.082377,9104.533087
2613.785668,0.000000,-296.082377,10140.821405
2613.785997,0.000000,-370.102971,9474.636058
2613.786326,-229.828649,518.144159,9104.533087
2613.786655,0.000000,296.082377,8660.409521
2613.786985,-383.047749,-962.267725,9474.636058
2613.787314,-766.095498,-1110.308913,10288.862594
2613.787643,-1685.410096,-1184.329507,9474.636058
2613.787972,-1149.143247,-296.082377,9474.636058
2613.788301,-995.924147,592.164754,8512.368333
2613.788630,-689.485948,296.082377,8734.430116
2613.788960,-995.924147,-370.102971,9252.574275
2613.789289,-612.876398,-444.123565,9548.656652
2613.789618,-1072.533697,-592.164754,9252.574275
2613.789947,-459.657299,222.061783,8956.491898
2613.790276,0.000000,222.061783,8734.430116
2613.790605,0.000000,-518.144159,8808.450710
2613.790935,76.609550,-888.247130,9326.594869
2613.791264,153.219100,-592.164754,8808.450710
2613.791593,0.000000,-0.000000,8660.409521
2613.791922,612.876398,814.226536,8290.306550
2613.792251,459.657299,1110.308913,8290.306550
2613.792581,306.438199,-518.144159,9178.553681
2613.792910,0.000000,-1406.391290,9474.636058
2613.793239,0.000000,-888.247130,9696.697840
2613.793568,-612.876398,-0.000000,9326.594869
2613.793897,-536.266849,370.102971,8216.285956
2613.794226,-229.828649,-666.185348,9548.656652
2613.794556,0.000000,-1332.370696,9918.759623
2613.794885,0.000000,-1554.432478,9918.759623
2613.795214,-383.047749,-518.144159,9918.759623
2613.795543,612.876398,1184.329507,8512.368333
2613.795872,919.314598,1184.329507,8734.430116
2613.796201,919.314598,222.061783,9474.636058
2613.796531,995.924147,-74.020594,9474.636058
2613.796860,919.314598,-0.000000,9252.574275
2613.797189,1302.362347,518.144159,9030.512492
2613.797518,1915.238745,666.185348,7994.224174
2613.797847,1455.581446,222.061783,9030.512492
2613.798176,1455.581446,-888.247130,9622.677246
2613.798506,1991.848295,-592.164754,9400.615463
2613.798835,1762.019645,222.061783,9104.533087
2613.799164,1991.848295,1036.288319,8808.450710
2613.799493,2374.896044,740.205942,7920.203579
2613.799822,2145.067394,296.082377,9030.512492
2613.800151,1838.629195,-1258.350101,9622.677246
2613.800481,919.314598,-296.082377,9030.512492
2613.800810,995.924147,518.144159,9030.512492
2613.801139,1072.533697,666.185348,8660.409521
2613.801468,919.314598,-74.020594,9104.533087
2613.801797,536.266849,-1110.308913,9918.759623
2613.802126,919.314598,-1554.432478,9696.697840
2613.802456,383.047749,-0.000000,9400.615463
2613.802785,612.876398,518.144159,8438.347739
2613.803114,459.657299,740.205942,8808.450710
2613.803443,306.438199,-0.000000,9252.574275
2613.803772,229.828649,-0.000000,9104.533087
2613.804101,0.000000,-444.123565,9252.574275
2613.804431,0.000000,-814.226536,8808.450710
2613.804760,153.219100,296.082377,8290.306550
2613.805089,306.438199,-370.102971,9030.512492
2613.805418,0.000000,-962.267725,9326.594869
2613.805747,306.438199,-814.226536,9326.594869
2613.806076,0.000000,-592.164754,9178.553681
2613.806406,459.657299,444.123565,8808.450710
2613.806735,306.438199,814.226536,8808.450710
2613.807064,-612.876398,-0.000000,9400.615463
2613.807393,-229.828649,-518.144159,9622.677246
2613.807722,-842.705048,-370.102971,8956.491898
2613.808051,-1149.143247,-0.000000,9104.533087
2613.808381,-995.924147,666.185348,8216.285956
2613.808710,-1378.971896,-222.061783,8734.430116
2613.809039,-2145.067394,-1702.473667,9918.759623
2613.809368,-1149.143247,-1850.514855,9474.636058
2613.809697,-1915.238745,-1258.350101,9474.636058
2613.810026,-2145.067394,-0.000000,8512.368333
2613.810356,-995.924147,-0.000000,8808.450710
2613.810685,-1378.971896,-370.102971,8882.471304
2613.811014,-1072.533697,-888.247130,9622.677246
2613.811343,-459.657299,-1184.329507,9696.697840
2613.811672,-153.219100,-740.205942,9104.533087
2613.812001,306.438199,888.247130,8290.306550
2613.812331,306.438199,444.123565,9030.512492
2613.812660,1149.143247,-74.020594,8216.285956
2613.812989,1302.362347,-592.164754,7920.203579
2613.813318,842.705048,1184.329507,8734.430116
2613.813647,842.705048,666.185348,8808.450710
2613.813976,1149.143247,-0.000000,8438.347739
2613.814306,536.266849,-296.082377,7920.203579
2613.814635,689.485948,-1110.308913,10066.800811
2613.814964,-383.047749,-2146.597232,10362.883188
2613.815293,0.000000,-444.123565,9696.697840
2613.815622,766.095498,740.205942,9104.533087
2613.815952,689.485948,-518.144159,9178.553681
2613.816281,1455.581446,-888.247130,9326.594869
2613.816610,1838.629195,-1258.350101,9326.594869
2613.816939,1915.238745,296.082377,8660.409521
2613.817268,2681.334243,1554.432478,7994.224174
2613.817597,2374.896044,1480.411884,8290.306550
2613.817927,2068.457845,814.226536,9252.574275
2613.818256,1762.019645,-222.061783,9474.636058
2613.818585,1072.533697,-518.144159,9400.615463
2613.818914,459.657299,-74.020594,10288.862594
2613.819243,1302.362347,222.061783,9326.594869
2613.819572,919.314598,-370.102971,9178.553681
2613.819902,689.485948,-1258.350101,9770.718434
2613.820231,1378.971896,-1406.391290,10214.842000
2613.820560,536.266849,-296.082377,9178.553681
2613.820889,1838.629195,444.123565,8586.388927
2613.821218,2298.286494,962.267725,7772.162391
2613.821547,1915.238745,666.185348,8364.327145
2613.821877,2068.457845,666.185348,8586.388927
2613.822206,1302.362347,222.061783,8660.409521
2613.822535,0.000000,814.226536,8882.471304
2613.822864,1072.533697,1554.432478,8142.265362
2613.823193,153.219100,592.164754,9326.594869
2613.823522,-689.485948,-1776.494261,9474.636058
2613.823852,-1149.143247,-1850.514855,10288.862594
2613.824181,-2145.067394,-1628.453072,9622.677246
2613.824510,-2298.286494,-444.123565,9104.533087
2613.824839,-1149.143247,-222.061783,8956.491898
2613.825168,-1149.143247,-370.102971,8364.327145
2613.825497,-1225.752797,-1184.329507,9400.615463
2613.825827,-1455.581446,-1110.308913,9400.615463
2613.826156,-536.266849,-0.000000,9104.533087
2613.826485,-612.876398,592.164754,7920.203579
2613.826814,229.828649,740.205942,8216.285956
2613.827143,-536.266849,-1036.288319,9030.512492
2613.827472,0.000000,-518.144159,9474.636058
2613.827802,76.609550,-666.185348,8512.368333
2613.828131,-229.828649,444.123565,8512.368333
2613.828460,-306.438199,444.123565,8438.347739
2613.828789,-995.924147,-148.041188,9326.594869
2613.829118,-1378.971896,-1406.391290,9622.677246
2613.829447,-1225.752797,-1776.494261,9622.677246
2613.829777,-1302.362347,-814.226536,9548.656652
2613.830106,-919.314598,296.082377,8586.388927
2613.830435,0.000000,-296.082377,9178.553681
2613.830764,0.000000,-962.267725,9474.636058
2613.831093,383.047749,-1406.391290,9696.697840
2613.831422,842.705048,-74.020594,8808.450710
2613.831752,919.314598,1110.308913,8142.265362
2613.832081,1225.752797,1702.473667,7772.162391
2613.832410,919.314598,444.123565,8586.388927
2613.832739,689.485948,-592.164754,9104.533087
2613.833068,229.828649,-740.205942,9474.636058
2613.833397,-383.047749,-222.061783,9474.636058
2613.833727,0.000000,148.041188,9326.594869
2613.834056,0.000000,-0.000000,9104.533087
2613.834385,459.657299,-888.247130,9696.697840
2613.834714,1072.533697,-1110.308913,9474.636058
2613.835043,1762.019645,-444.123565,8660.409521
2613.835372,2451.505594,666.185348,8734.430116
2613.835702,2911.162892,1036.288319,7772.162391
2613.836031,2681.334243,1036.288319,8142.265362
2613.836360,2834.553343,148.041188,9030.512492
2613.836689,2374.896044,-0.000000,9030.512492
2613.837018,1838.629195,592.164754,9252.574275
2613.837347,1991.848295,518.144159,8882.471304
2613.837676,1915.238745,296.082377,8808.450710
2613.838006,842.705048,-666.185348,9918.759623
2613.838335,995.924147,-1850.514855,10362.883188
2613.838664,306.438199,-1850.514855,10140.821405
2613.838993,76.609550,-0.000000,9326.594869
2613.839322,459.657299,-0.000000,9178.553681
2613.839651,153.219100,370.102971,9400.615463
2613.839980,306.438199,-148.041188,9844.739029
2613.840309,153.219100,-444.123565,9696.697840
2613.840638,76.609550,-222.061783,9030.512492
2613.840967,536.266849,296.082377,8734.430116
2613.841296,612.876398,740.205942,8512.368333
2613.841626,689.485948,-962.267725,9400.615463
2613.841955,842.705048,-1110.308913,9326.594869
2613.842284,536.266849,-814.226536,8882.471304
2613.842613,76.609550,-0.000000,9104.533087
2613.842942,153.219100,814.226536,7550.100608
2613.843271,229.828649,592.164754,8438.347739
2613.843600,-229.828649,-666.185348,9252.574275
2613.843929,-766.095498,-814.226536,8882.471304
2613.844258,-1302.362347,-814.226536,9696.697840
2613.844587,-1455.581446,-0.000000,8512.368333
2613.844916,-919.314598,-0.000000,8290.306550
2613.845245,-842.705048,-1184.329507,9104.533087
2613.845575,-995.924147,-1776.494261,9178.553681
2613.845904,-1378.971896,-1554.432478,9178.553681
2613.846233,-536.266849,-74.020594,8808.450710
2613.846562,-1072.533697,-0.000000,8364.327145
2613.846891,-1149.143247,-148.041188,8956.491898
2613.847220,-1149.143247,-888.247130,9030.512492
2613.847549,-1072.533697,-1258.350101,9474.636058
2613.847878,-995.924147,-592.164754,9474.636058
2613.848207,-306.438199,296.082377,8808.450710
2613.848536,76.609550,-0.000000,8438.347739
2613.848865,0.000000,-296.082377,9326.594869
2613.849195,536.266849,-666.185348,9622.677246
2613.849524,383.047749,-444.123565,9178.553681
2613.849853,919.314598,888.247130,8660.409521
2613.850182,1225.752797,1184.329507,7994.224174
2613.850511,995.924147,592.164754,8660.409521
2613.850840,1455.581446,-296.082377,9548.656652
2613.851169,0.000000,-740.205942,9918.759623
2613.851498,612.876398,-518.144159,10066.800811
2613.851827,919.314598,814.226536,8882.471304
2613.852156,1149.143247,888.247130,8808.450710
2613.852485,995.924147,-518.144159,9992.780217
2613.852814,1225.752797,-814.226536,10214.842000
2613.853144,1072.533697,-740.205942,9770.718434
2613.853473,1225.752797,222.061783,9178.553681
2613.853802,1532.190996,1332.370696,8808.450710
2613.854131,229.828649,1332.370696,8882.471304
2613.854460,842.705048,222.061783,9622.677246
2613.854789,995.924147,-148.041188,9474.636058
2613.855118,689.485948,-518.144159,9474.636058
2613.855447,1378.971896,-0.000000,9104.533087
2613.855776,1302.362347,-74.020594,8586.388927
2613.856105,1149.143247,-962.267725,9252.574275
2613.856434,1685.410096,-1110.308913,9400.615463
2613.856764,1225.752797,-740.205942,9326.594869
2613.857093,766.095498,296.082377,9400.615463
2613.857422,1915.238745,1628.453072,8512.368333
2613.857751,1915.238745,962.267725,8734.430116
2613.858080,1302.362347,296.082377,9918.759623
2613.858409,1532.190996,-296.082377,9844.739029
2613.858738,306.438199,-0.000000,9548.656652
2613.859067,842.705048,1184.329507,8808.450710
2613.859396,1072.533697,1036.288319,8290.306550
2613.859725,459.657299,-148.041188,8660.409521
2613.860054,0.000000,-1480.411884,9696.697840
2613.860383,229.828649,-1258.350101,9326.594869
2613.860713,-766.095498,-444.123565,8734.430116
2613.861042,-383.047749,-0.000000,8068.244768
2613.861371,-689.485948,-148.041188,8586.388927
2613.861700,-1302.362347,-592.164754,9252.574275
2613.862029,-1685.410096,-1702.473667,9474.636058
2613.862358,-842.705048,-1110.308913,9400.615463
2613.862687,-995.924147,-518.144159,9474.636058
2613.863016,-995.924147,-148.041188,9474.636058
2613.863345,-536.266849,-962.267725,9252.574275
2613.863674,-229.828649,-1110.308913,9844.739029
2613.864003,0.000000,-814.226536,9030.512492
2613.864333,842.705048,-0.000000,8512.368333
2613.864662,689.485948,888.247130,7772.162391
2613.864991,229.828649,814.226536,7920.203579
2613.865320,383.047749,-444.123565,8882.471304
2613.865649,229.828649,-1184.329507,8512.368333
2613.865978,-995.924147,-1036.288319,9178.553681
2613.866307,-842.705048,-370.102971,8882.471304
2613.866636,-919.314598,370.102971,8290.306550
2613.866965,-1149.143247,-1036.288319,9474.636058
2613.867294,-306.438199,-1850.514855,9992.780217
2613.867623,-1149.143247,-1702.473667,10140.821405
2613.867952,-689.485948,-74.020594,9178.553681
2613.868282,0.000000,1036.288319,8290.306550
2613.868611,229.828649,444.123565,8512.368333
2613.868940,0.000000,370.102971,9696.697840
2613.869269,612.876398,-666.185348,9252.574275
2613.869598,612.876398,-222.061783,8586.388927
2613.869927,1685.410096,518.144159,8808.450710
2613.870256,1302.362347,666.185348,8290.306550
2613.870585,1455.581446,-148.041188,8956.491898
2613.870914,1302.362347,-888.247130,9918.759623
2613.871243,1455.581446,-518.144159,9104.533087
2613.871572,1302.362347,-444.123565,9326.594869
2613.871902,1838.629195,814.226536,8956.491898
2613.872231,1302.362347,888.247130,8734.430116
2613.872560,766.095498,-592.164754,9918.759623
2613.872889,766.095498,-1110.308913,10214.842000
2613.873218,689.485948,-740.205942,10362.883188
2613.873547,612.876398,444.123565,9548.656652
2613.873876,995.924147,888.247130,8808.450710
2613.874205,1225.752797,-74.020594,8734.430116
2613.874534,1608.800546,-814.226536,9474.636058
2613.874863,1991.848295,-1110.308913,10214.842000
2613.875192,1302.362347,-0.000000,8882.471304
2613.875521,1149.143247,1036.288319,8364.327145
2613.875851,1149.143247,1110.308913,7994.224174
2613.876180,995.924147,370.102971,9104.533087
2613.876509,612.876398,-296.082377,9252.574275
2613.876838,0.000000,-222.061783,9252.574275
2613.877167,229.828649,444.123565,9178.553681
2613.877496,153.219100,-0.000000,8808.450710
2613.877825,-383.047749,-296.082377,8956.491898
2613.878154,0.000000,-666.185348,9252.574275
2613.878483,0.000000,-888.247130,8808.450710
2613.878812,0.000000,-222.061783,9104.533087
2613.879141,0.000000,444.123565,8216.285956
2613.879471,0.000000,888.247130,8142.265362
2613.879800,-383.047749,-666.185348,9474.636058
2613.880129,-229.828649,-1036.288319,9178.553681
2613.880458,-689.485948,-592.164754,8956.491898
2613.880787,-383.047749,-0.000000,8734.430116
2613.881116,-383.047749,666.185348,7994.224174
2613.881445,0.000000,-370.102971,8586.388927
2613.881774,-153.219100,-1702.473667,9400.615463
2613.882103,0.000000,-1554.432478,9104.533087
2613.882432,-536.266849,-666.185348,9104.533087
2613.882761,-612.876398,370.102971,8586.388927
2613.883090,-689.485948,444.123565,8734.430116
2613.883420,-1225.752797,-296.082377,9252.574275
2613.883749,-1149.143247,-1036.288319,9844.739029
2613.884078,-919.314598,-1554.432478,9770.718434
2613.884407,-766.095498,-888.247130,9178.553681
2613.884736,-383.047749,-0.000000,9474.636058
2613.885065,-689.485948,-1110.308913,9696.697840
2613.885394,-536.266849,-962.267725,9844.739029
2613.885723,306.438199,-740.205942,9400.615463
2613.886052,995.924147,-148.041188,8956.491898
2613.886381,1685.410096,1036.288319,8068.244768
2613.886710,1991.848295,1332.370696,8216.285956
2613.887040,1532.190996,370.102971,8882.471304
2613.887369,1915.238745,-296.082377,9104.533087
2613.887698,1378.971896,222.061783,8734.430116
2613.888027,1302.362347,592.164754,9400.615463
2613.888356,1072.533697,1258.350101,8438.347739
2613.888685,536.266849,-370.102971,9474.636058
2613.889014,1149.143247,-1258.350101,9918.759623
2613.889343,1378.971896,-1480.411884,9622.677246
2613.889672,229.828649,-1110.308913,9548.656652
2613.890001,306.438199,370.102971,9178.553681
2613.890330,995.924147,1110.308913,8512.368333
2613.890659,1302.362347,444.123565,9030.512492
2613.890989,1608.800546,-74.020594,9104.533087
2613.891318,1455.581446,370.102971,9326.594869
2613.891647,1991.848295,518.144159,9178.553681
2613.891976,1915.238745,1110.308913,7698.141797
2613.892305,1532.190996,444.123565,8808.450710
2613.892634,1149.143247,-592.164754,9178.553681
2613.892963,919.314598,-1258.350101,9474.636058
2613.893292,842.705048,-222.061783,9252.574275
2613.893621,536.266849,518.144159,9178.553681
2613.893950,842.705048,-0.000000,9326.594869
2613.894279,689.485948,-74.020594,9252.574275
2613.894609,612.876398,-296.082377,9770.718434
2613.894938,229.828649,-74.020594,9474.636058
2613.895267,306.438199,296.082377,9474.636058
2613.895596,459.657299,888.247130,8216.285956
2613.895925,919.314598,-0.000000,9326.594869
2613.896254,306.438199,-1702.473667,9400.615463
2613.896583,-153.219100,-1406.391290,8808.450710
2613.896912,0.000000,-1258.350101,9326.594869
2613.897241,-995.924147,-0.000000,8290.306550
2613.897570,-689.485948,1184.329507,8512.368333
2613.897899,-459.657299,-296.082377,9252.574275
2613.898228,-1225.752797,-1850.514855,9474.636058
2613.898558,-1608.800546,-1332.370696,9622.677246
2613.898887,-1225.752797,-0.000000,9178.553681
2613.899216,-995.924147,740.205942,8660.409521
2613.899545,-766.095498,-0.000000,9104.533087
2613.899874,-1149.143247,-888.247130,9400.615463
2613.900203,0.000000,-1850.514855,9622.677246
2613.900532,-459.657299,-1184.329507,8364.327145
2613.900861,-612.876398,222.061783,8882.471304
2613.901190,-995.924147,-296.082377,8734.430116
2613.901519,-1149.143247,-518.144159,9252.574275
2613.901848,-1072.533697,-1110.308913,9770.718434
2613.902178,-1072.533697,-1184.329507,9400.615463
2613.902507,-689.485948,-74.020594,9474.636058
2613.902836,-153.219100,740.205942,8660.409521
2613.903165,536.266849,-74.020594,8512.368333
2613.903494,1455.581446,-222.061783,8438.347739
2613.903823,1455.581446,-1184.329507,8586.388927
2613.904152,383.047749,-0.000000,9474.636058
2613.904481,306.438199,962.267725,8956.491898
2613.904810,612.876398,814.226536,7920.203579
2613.905139,0.000000,592.164754,7994.224174
2613.905468,995.924147,-592.164754,9622.677246
2613.905797,0.000000,-1406.391290,10066.800811
2613.906127,76.609550,-740.205942,9992.780217
2613.906456,689.485948,-74.020594,9030.512492
2613.906785,612.876398,-444.123565,9326.594869
2613.907114,995.924147,-1258.350101,9844.739029
2613.907443,1149.143247,-1332.370696,9844.739029
2613.907772,1532.190996,-740.205942,9030.512492
2613.908101,2374.896044,888.247130,8882.471304
2613.908430,2145.067394,1036.288319,8290.306550
2613.908759,2221.676944,592.164754,8734.430116
2613.909088,2145.067394,148.041188,9326.594869
2613.909417,1915.238745,-0.000000,9178.553681
2613.909747,1302.362347,-0.000000,9252.574275
2613.910076,1762.019645,666.185348,8142.265362
2613.910405,1838.629195,888.247130,8734.430116
2613.910734,1608.800546,-370.102971,8882.471304
2613.911063,1302.362347,-740.205942,9400.615463
2613.911392,919.314598,-370.102971,9178.553681
2613.911721,689.485948,370.102971,8734.430116
2613.912050,536.266849,1258.350101,7328.038826
2613.912379,459.657299,592.164754,8956.491898
2613.912708,0.000000,-222.061783,9400.615463
2613.913037,0.000000,-592.164754,9474.636058
2613.913366,-306.438199,-444.123565,9400.615463
2613.913696,0.000000,592.164754,8734.430116
2613.914025,0.000000,-0.000000,9030.512492
2613.914354,76.609550,-814.226536,9918.759623
2613.914683,76.609550,-1036.288319,9622.677246
2613.915012,-383.047749,-370.102971,8808.450710
2613.915341,0.000000,222.061783,9178.553681
2613.915670,229.828649,962.267725,8068.244768
2613.915999,153.219100,1184.329507,8364.327145
2613.916328,0.000000,-814.226536,9844.739029
2613.916657,-689.485948,-1184.329507,9030.512492
2613.916986,-842.705048,-518.144159,9918.759623
2613.917316,-1915.238745,592.164754,9104.533087
2613.917645,-1149.143247,-0.000000,8734.430116
2613.917974,-1838.629195,-1702.473667,10288.862594
2613.918303,-1532.190996,-1628.453072,9770.718434
2613.918632,-1532.190996,-1332.370696,10140.821405
2613.918961,-1838.629195,-740.205942,9474.636058
2613.919290,-1991.848295,592.164754,7994.224174
2613.919619,-612.876398,-0.000000,9326.594869
2613.919948,-383.047749,-296.082377,9104.533087
2613.920277,-229.828649,-592.164754,9030.512492
2613.920606,0.000000,-814.226536,8956.491898
2613.920935,0.000000,444.123565,8364.327145
2613.921265,689.485948,518.144159,8216.285956
2613.921594,919.314598,-1332.370696,8660.409521
2613.921923,612.876398,-1184.329507,9918.759623
2613.922252,536.266849,-814.226536,8808.450710
2613.922581,919.314598,222.061783,8512.368333
2613.922910,1149.143247,1036.288319,7772.162391
2613.923239,995.924147,444.123565,8586.388927
2613.923568,459.657299,-518.144159,9252.574275
2613.923897,1072.533697,-592.164754,9696.697840
2613.924226,229.828649,-666.185348,9474.636058
2613.924555,612.876398,592.164754,9252.574275
2613.924884,1072.533697,-0.000000,8734.430116
2613.925214,1149.143247,-740.205942,9030.512492
2613.925543,1532.190996,-444.123565,9696.697840
2613.925872,1762.019645,-1036.288319,9104.533087
2613.926201,2221.676944,-0.000000,8290.306550
2613.926530,1915.238745,1184.329507,7772.162391
2613.926859,1685.410096,1110.308913,8364.327145
2613.927188,1838.629195,-148.041188,9326.594869
2613.927517,1378.971896,-296.082377,9770.718434
2613.927846,1072.533697,-74.020594,9622.677246
2613.928175,1378.971896,-0.000000,9326.594869
2613.928504,459.657299,-74.020594,9474.636058
2613.928834,612.876398,-518.144159,10288.862594
2613.929163,1378.971896,-1184.329507,9696.697840
2613.929492,1149.143247,-1110.308913,9548.656652
2613.929821,1149.143247,148.041188,9178.553681
2613.930150,2298.286494,444.123565,8808.450710
2613.930479,2068.457845,888.247130,8438.347739
2613.930808,1991.848295,-0.000000,8734.430116
2613.931137,1762.019645,-0.000000,8882.471304
2613.931466,919.314598,222.061783,8882.471304
2613.931795,1149.143247,740.205942,8808.450710
2613.932124,842.705048,814.226536,8290.306550
2613.932453,-383.047749,-444.123565,8882.471304
2613.932783,153.219100,-1850.514855,9696.697840
2613.933112,-536.266849,-1258.350101,9696.697840
2613.933441,-995.924147,-1110.308913,9474.636058
2613.933770,-1225.752797,814.226536,8512.368333
2613.934099,-1455.581446,592.164754,8512.368333
2613.934428,-1378.971896,-444.123565,9400.615463
2613.934757,-995.924147,-962.267725,9252.574275
2613.935086,-1225.752797,-962.267725,8882.471304
2613.935415,-612.876398,444.123565,8660.409521
2613.935744,-536.266849,518.144159,8216.285956
2613.936073,-383.047749,-296.082377,8808.450710
2613.936403,-153.219100,-814.226536,8956.491898
2613.936732,-459.657299,-814.226536,8956.491898
2613.937061,-383.047749,-444.123565,8512.368333
2613.937390,-383.047749,518.144159,7772.162391
2613.937719,-459.657299,-222.061783,8956.491898
2613.938048,-1225.752797,-888.247130,9474.636058
2613.938377,-1455.581446,-1406.391290,9474.636058
2613.938706,-1532.190996,-1406.391290,10362.883188
2613.939035,-766.095498,-0.000000,9030.512492
2613.939364,-766.095498,-0.000000,8660.409521
2613.939693,-995.924147,-962.267725,9326.594869
2613.940022,-919.314598,-1184.329507,9326.594869
2613.940351,0.000000,-1332.370696,9844.739029
2613.940681,0.000000,-444.123565,8882.471304
2613.941010,536.266849,1036.288319,7772.162391
2613.941339,689.485948,-0.000000,8290.306550
2613.941668,383.047749,-296.082377,9104.533087
2613.941997,766.095498,-888.247130,9548.656652
2613.942326,459.657299,-1184.329507,9400.615463
2613.942655,1149.143247,-0.000000,8808.450710
2613.942984,1455.581446,518.144159,8512.368333
2613.943313,1225.752797,-370.102971,9474.636058
2613.943642,1149.143247,-518.144159,9178.553681
2613.943971,1532.190996,-1036.288319,9474.636058
2613.944300,1225.752797,-148.041188,9178.553681
2613.944629,2298.286494,1184.329507,8364.327145
2613.944958,1838.629195,888.247130,8068.244768
2613.945287,1225.752797,740.205942,8956.491898
2613.945616,1608.800546,-296.082377,9918.759623
2613.945946,842.705048,-222.061783,9474.636058
2613.946275,1225.752797,296.082377,8808.450710
2613.946604,2374.896044,592.164754,8216.285956
2613.946933,1378.971896,-444.123565,8068.244768
2613.947262,1455.581446,-814.226536,9252.574275
2613.947591,1991.848295,-1110.308913,9030.512492
2613.947920,1149.143247,-0.000000,9326.594869
2613.948249,1608.800546,1184.329507,8512.368333
2613.948578,1149.143247,1332.370696,9104.533087
2613.948907,766.095498,518.144159,9622.677246
2613.949236,536.266849,-222.061783,10584.944971
2613.949565,306.438199,-296.082377,10362.883188
2613.949894,0.000000,296.082377,9400.615463
2613.950223,536.266849,1036.288319,9326.594869
2613.950552,153.219100,-296.082377,9104.533087
2613.950881,153.219100,-444.123565,9474.636058
2613.951210,0.000000,-1850.514855,9548.656652
2613.951540,0.000000,-740.205942,9178.553681
2613.951869,229.828649,-148.041188,7994.224174
2613.952198,153.219100,-0.000000,8438.347739
2613.952527,-306.438199,-74.020594,8586.388927
2613.952856,-459.657299,-1184.329507,9474.636058
2613.953185,-919.314598,-222.061783,9104.533087
2613.953514,-689.485948,-74.020594,8734.430116
2613.953843,-306.438199,962.267725,8808.450710
2613.954172,-995.924147,-666.185348,9400.615463
2613.954501,-612.876398,-1110.308913,9326.594869
2613.954830,-1608.800546,-1480.411884,9474.636058
2613.955159,-1302.362347,-814.226536,9178.553681
2613.955488,-766.095498,518.144159,7846.182985
2613.955817,-383.047749,296.082377,8068.244768
2613.956146,-1072.533697,-740.205942,8512.368333
2613.956475,-1225.752797,-1776.494261,9548.656652
2613.956805,-1149.143247,-1406.391290,9030.512492
2613.957134,-689.485948,-296.082377,8512.368333
2613.957463,-306.438199,148.041188,8512.368333
2613.957792,0.000000,-370.102971,8512.368333
2613.958121,229.828649,-888.247130,9622.677246
2613.958450,306.438199,-1184.329507,8808.450710
2613.958779,229.828649,296.082377,8512.368333
2613.959108,1378.971896,814.226536,8586.388927
2613.959437,995.924147,740.205942,8142.265362
2613.959766,0.000000,592.164754,8882.471304
2613.960095,919.314598,-1554.432478,9918.759623
2613.960424,536.266849,-814.226536,9178.553681
2613.960753,-306.438199,-222.061783,9548.656652
2613.961082,459.657299,296.082377,8956.491898
2613.961411,0.000000,-814.226536,9178.553681
2613.961740,1225.752797,-592.164754,10214.842000
2613.962069,1378.971896,-1036.288319,9770.718434
2613.962399,919.314598,-222.061783,9622.677246
2613.962728,1608.800546,444.123565,8956.491898
2613.963057,1762.019645,1776.494261,8808.450710
2613.963386,1762.019645,444.123565,9178.553681
2613.963715,1685.410096,-370.102971,9696.697840
2613.964044,1072.533697,-0.000000,9474.636058
2613.964373,1455.581446,222.061783,9326.594869
2613.964702,1302.362347,1184.329507,8586.388927
2613.965031,995.924147,-148.041188,9548.656652
2613.965360,842.705048,-1110.308913,9622.677246
2613.965689,1302.362347,-1184.329507,9918.759623
2613.966018,1532.190996,-296.082377,9178.553681
2613.966347,1762.019645,962.267725,8290.306550
2613.966676,2068.457845,1332.370696,7920.203579
2613.967005,2068.457845,1036.288319,8438.347739
2613.967334,1608.800546,296.082377,8882.471304
2613.967664,1838.629195,-0.000000,9104.533087
2613.967993,1302.362347,148.041188,9104.533087
2613.968322,919.314598,962.267725,8290.306550
2613.968651,229.828649,-74.020594,8956.491898
2613.968980,-229.828649,-1036.288319,9696.697840
2613.969309,-842.705048,-1406.391290,9474.636058
2613.969638,-842.705048,-1110.308913,9622.677246
2613.969967,-459.657299,-74.020594,8734.430116
2613.970296,-689.485948,1184.329507,8586.388927
2613.970625,-1225.752797,-666.185348,9178.553681
2613.970954,-1225.752797,-1184.329507,9844.739029
2613.971283,-1302.362347,-962.267725,9474.636058
2613.971612,-1149.143247,-740.205942,9252.574275
2613.971941,-459.657299,296.082377,8364.327145
2613.972270,0.000000,-740.205942,8512.368333
2613.972599,-229.828649,-1184.329507,9548.656652
2613.972928,0.000000,-1480.411884,9178.553681
2613.973258,0.000000,-1480.411884,8808.450710
2613.973587,-306.438199,-0.000000,8290.306550
2613.973916,76.609550,666.185348,8290.306550
2613.974245,0.000000,-148.041188,8290.306550
2613.974574,-383.047749,-1184.329507,9474.636058
2613.974903,-842.705048,-1702.473667,9474.636058
2613.975232,-1149.143247,-740.205942,9400.615463
2613.975561,-612.876398,666.185348,8290.306550
2613.975890,-536.266849,-592.164754,8364.327145
2613.976219,-459.657299,-1480.411884,9548.656652
2613.976548,-306.438199,-1998.556043,9622.677246
2613.976877,-383.047749,-592.164754,9474.636058
2613.977206,306.438199,444.123565,8512.368333
2613.977535,612.876398,1258.350101,8216.285956
2613.977864,0.000000,518.144159,8882.471304
2613.978193,306.438199,-296.082377,9696.697840
2613.978523,459.657299,-222.061783,8956.491898
2613.978852,306.438199,-0.000000,9326.594869
2613.979181,1915.238745,888.247130,8734.430116
2613.979510,1532.190996,-296.082377,8956.491898
2613.979839,1455.581446,-592.164754,9770.718434
2613.980168,1838.629195,-740.205942,9030.512492
2613.980497,1149.143247,-444.123565,9474.636058
2613.980826,1532.190996,592.164754,9030.512492
2613.981155,2451.505594,1184.329507,8586.388927
2613.981484,1915.238745,1184.329507,9252.574275
2613.981813,2374.896044,-518.144159,9548.656652
2613.982142,1608.800546,-0.000000,9474.636058
2613.982471,1072.533697,-0.000000,9696.697840
2613.982800,1455.581446,1258.350101,9178.553681
2613.983129,1608.800546,444.123565,9030.512492
2613.983458,842.705048,-666.185348,9622.677246
2613.983787,536.266849,-1628.453072,10214.842000
2613.984117,766.095498,-1110.308913,9844.739029
2613.984446,612.876398,-0.000000,9030.512492
2613.984775,766.095498,1332.370696,8216.285956
2613.985104,153.219100,-0.000000,9770.718434
2613.985433,0.000000,-0.000000,9918.759623
2613.985762,229.828649,-74.020594,9474.636058
2613.986091,0.000000,-592.164754,9400.615463
2613.986420,306.438199,814.226536,8438.347739
2613.986749,536.266849,222.061783,8956.491898
2613.987078,766.095498,-666.185348,8882.471304
2613.987407,919.314598,-592.164754,8734.430116
2613.987736,689.485948,-1332.370696,7846.182985
2613.988065,689.485948,370.102971,9104.533087
2613.988394,306.438199,888.247130,8068.244768
2613.988723,-383.047749,-0.000000,8364.327145
2613.989052,-383.047749,-888.247130,9326.594869
2613.989382,-995.924147,-666.185348,9252.574275
2613.989711,-689.485948,-296.082377,9326.594869
2613.990040,-612.876398,592.164754,8512.368333
2613.990369,-919.314598,-0.000000,8660.409521
2613.990698,-459.657299,-888.247130,9474.636058
2613.991027,-383.047749,-1702.473667,8956.491898
2613.991356,-229.828649,-1480.411884,8290.306550
2613.991685,-459.657299,222.061783,8142.265362
2613.992014,-842.705048,1110.308913,7846.182985
2613.992343,-306.438199,-444.123565,8734.430116
2613.992672,-766.095498,-296.082377,9400.615463
2613.993001,-1149.143247,-1258.350101,9474.636058
2613.993330,-1225.752797,-814.226536,9770.718434
2613.993659,-842.705048,-0.000000,8586.388927
2613.993988,-229.828649,-0.000000,9326.594869
2613.994317,-383.047749,-296.082377,9474.636058
2613.994647,0.000000,-666.185348,10288.862594
2613.994976,459.657299,-1776.494261,9770.718434
2613.995305,76.609550,148.041188,9474.636058
2613.995634,1302.362347,1184.329507,8586.388927
2613.995963,536.266849,-296.082377,7698.141797
2613.996292,612.876398,-0.000000,9178.553681
2613.996621,919.314598,-740.205942,9696.697840
2613.996950,459.657299,-518.144159,8956.491898
2613.997279,536.266849,888.247130,9030.512492
2613.997608,0.000000,-0.000000,9030.512492
2613.997937,1302.362347,-888.247130,9474.636058
2613.998266,1608.800546,-1702.473667,9770.718434
2613.998595,919.314598,-1036.288319,9252.574275
2613.998924,1072.533697,296.082377,9326.594869
2613.999253,1455.581446,1258.350101,8808.450710
2613.999582,1378.971896,1258.350101,8734.430116
2613.999911,1225.752797,-0.000000,9622.677246
2614.000241,1455.581446,-74.020594,9474.636058
2614.000570,1149.143247,-0.000000,9030.512492
2614.000899,1302.362347,1036.288319,8586.388927
2614.001228,1302.362347,518.144159,8364.327145
2614.001557,1225.752797,-222.061783,8882.471304
2614.001886,2068.457845,-1258.350101,9326.594869
2614.002215,1608.800546,-1258.350101,8882.471304
2614.002544,689.485948,370.102971,8216.285956
2614.002873,1149.143247,518.144159,8586.388927
2614.003202,1302.362347,-0.000000,8438.347739
2614.003531,1149.143247,592.164754,9474.636058
2614.003860,995.924147,-0.000000,9474.636058
2614.004189,612.876398,-222.061783,9474.636058
2614.004518,-383.047749,1406.391290,9474.636058
2614.004847,459.657299,518.144159,9178.553681
2614.005176,689.485948,-518.144159,9474.636058
2614.005506,0.000000,-1332.370696,9400.615463
2614.005835,-153.219100,-814.226536,9474.636058
2614.006164,-612.876398,-296.082377,7920.203579
2614.006493,-995.924147,370.102971,8438.347739
2614.006822,-842.705048,-444.123565,8290.306550
2614.007151,-689.485948,-370.102971,9474.636058
2614.007480,-1532.190996,-1480.411884,10510.924376
2614.007809,-1838.629195,-1110.308913,9326.594869
2614.008138,-1225.752797,370.102971,9844.739029
2614.008467,-1149.143247,296.082377,9104.533087
2614.008796,-383.047749,-148.041188,9844.739029
2614.009125,-689.485948,-1258.350101,10510.924376
2614.009454,0.000000,-296.082377,9252.574275
2614.009783,306.438199,518.144159,8808.450710
2614.010112,612.876398,1332.370696,7846.182985
2614.010441,459.657299,888.247130,8142.265362
2614.010770,536.266849,-0.000000,8808.450710
2614.011100,153.219100,-962.267725,9104.533087
2614.011429,153.219100,-1258.350101,8956.491898
2614.011758,0.000000,-518.144159,8734.430116
2614.012087,-229.828649,-0.000000,8512.368333
2614.012416,-766.095498,-1406.391290,9030.512492
2614.012745,-536.266849,-1850.514855,9844.739029
2614.013074,-229.828649,-1776.494261,9992.780217
2614.013403,0.000000,-518.144159,8956.491898
2614.013732,76.609550,740.205942,8142.265362
2614.014061,1072.533697,1110.308913,9104.533087
2614.014390,842.705048,-444.123565,9104.533087
2614.014719,689.485948,-0.000000,9548.656652
2614.015048,383.047749,-222.061783,9474.636058
2614.015377,766.095498,296.082377,8956.491898
2614.015706,1378.971896,888.247130,8660.409521
2614.016035,459.657299,-148.041188,9104.533087
2614.016365,842.705048,-1184.329507,9326.594869
2614.016694,1532.190996,-1036.288319,8734.430116
2614.017023,1149.143247,-518.144159,9326.594869
2614.017352,1455.581446,666.185348,8216.285956
2614.017681,1532.190996,740.205942,8142.265362
2614.018010,1608.800546,-74.020594,9104.533087
2614.018339,1302.362347,-518.144159,9696.697840
2614.018668,995.924147,-148.041188,9622.677246
2614.018997,612.876398,370.102971,9326.594869
2614.019326,1608.800546,1184.329507,8512.368333
2614.019655,1378.971896,222.061783,8956.491898
2614.019984,1302.362347,-740.205942,9770.718434
2614.020313,1072.533697,-1258.350101,10066.800811
2614.020642,612.876398,-814.226536,9622.677246
2614.020971,766.095498,518.144159,8142.265362
2614.021300,612.876398,888.247130,8438.347739
2614.021629,229.828649,-0.000000,8808.450710
2614.021959,0.000000,-0.000000,10140.821405
2614.022288,0.000000,-814.226536,9178.553681
2614.022617,0.000000,-0.000000,8734.430116
2614.022946,459.657299,1776.494261,8438.347739
2614.023275,383.047749,-0.000000,9474.636058
2614.023604,229.828649,-518.144159,9770.718434
2614.023933,0.000000,-740.205942,8734.430116
2614.024262,306.438199,-444.123565,8882.471304
2614.024591,459.657299,1036.288319,8068.244768
2614.024920,383.047749,740.205942,8364.327145
2614.025249,-842.705048,-222.061783,9104.533087
2614.025578,-459.657299,-962.267725,9474.636058
2614.025907,-919.314598,-1110.308913,9622.677246
2614.026236,-995.924147,-222.061783,8956.491898
2614.026565,-1072.533697,-0.000000,9178.553681
2614.026894,-1378.971896,-740.205942,9548.656652
2614.027224,-1532.190996,-1628.453072,9696.697840
2614.027553,-1225.752797,-1776.494261,10140.821405
2614.027882,-1455.581446,-518.144159,9918.759623
2614.028211,-1225.752797,518.144159,7920.203579
2614.028540,-842.705048,592.164754,8734.430116
2614.028869,-1149.143247,-74.020594,9400.615463
2614.029198,-1302.362347,-1184.329507,9844.739029
2614.029527,-1149.143247,-1406.391290,9474.636058
2614.029856,-383.047749,-148.041188,8586.388927
2614.030185,-612.876398,-148.041188,8512.368333
2614.030514,306.438199,-518.144159,9104.533087
2614.030843,229.828649,-814.226536,9474.636058
2614.031172,612.876398,-1184.329507,9400.615463
2614.031501,536.266849,-296.082377,8882.471304
2614.031830,995.924147,370.102971,8586.388927
2614.032159,1455.581446,592.164754,8512.368333
2614.032488,1455.581446,-0.000000,9030.512492
2614.032818,1225.752797,-148.041188,9178.553681
2614.033147,1225.752797,-0.000000,9400.615463
2614.033476,1378.971896,888.247130,8956.491898
2614.033805,1991.848295,1628.453072,7920.203579
2614.034134,2068.457845,296.082377,8512.368333
2614.034463,1838.629195,-1110.308913,9030.512492
2614.034792,1455.581446,-1036.288319,9918.759623
2614.035121,1302.362347,-1036.288319,8808.450710
2614.035450,1455.581446,370.102971,8290.306550
2614.035779,1149.143247,518.144159,8586.388927
2614.036108,1225.752797,-148.041188,9474.636058
2614.036437,995.924147,-888.247130,10066.800811
2614.036766,1149.143247,-1036.288319,9548.656652
2614.037095,1072.533697,222.061783,9326.594869
2614.037424,1378.971896,1332.370696,8734.430116
2614.037753,1378.971896,296.082377,8956.491898
2614.038083,995.924147,-0.000000,9178.553681
2614.038412,1072.533697,-148.041188,8956.491898
2614.038741,0.000000,-222.061783,8956.491898
2614.039070,-689.485948,518.144159,8364.327145
2614.039399,-995.924147,814.226536,8586.388927
2614.039728,-1838.629195,518.144159,8882.471304
2614.040057,-2911.162892,-814.226536,10288.862594
2614.040386,-3217.601092,-1184.329507,10288.862594
2614.040715,-3447.429741,-666.185348,9918.759623
2614.041044,-3447.429741,-0.000000,9326.594869
2614.041373,-2757.943793,-444.123565,9104.533087
2614.041702,-2987.772442,-296.082377,9400.615463
2614.042032,-2911.162892,-1184.329507,9622.677246
2614.042361,-3447.429741,-666.185348,9104.533087
2614.042690,-3447.429741,-0.000000,8438.347739
2614.043019,-3294.210641,666.185348,8586.388927
2614.043348,-3677.258390,740.205942,8216.285956
2614.043677,-4060.306139,296.082377,8660.409521
2614.044006,-3600.648841,-370.102971,8882.471304
2614.044336,-3753.867940,-888.247130,8808.450710
2614.044665,-3830.477490,-592.164754,8290.306550
2614.044994,-4519.963438,-888.247130,8808.450710
2614.045323,-4596.572988,-1110.308913,9326.594869
2614.045652,-4673.182538,-1258.350101,9104.533087
2614.045981,-3677.258390,-1184.329507,9474.636058
2614.046310,-2987.772442,-1258.350101,8808.450710
2614.046640,-3217.601092,-666.185348,8734.430116
2614.046969,-2451.505594,-0.000000,8660.409521
2614.047298,-2834.553343,518.144159,8142.265362
2614.047627,-3064.381992,740.205942,8512.368333
2614.047956,-3064.381992,962.267725,8512.368333
2614.048285,-2451.505594,888.247130,8956.491898
2614.048614,-2528.115143,370.102971,9178.553681
2614.048944,-2528.115143,-74.020594,8808.450710
2614.049273,-3140.991542,-296.082377,9400.615463
2614.049602,-3370.820191,-222.061783,9030.512492
2614.049931,-2911.162892,-222.061783,8882.471304
2614.050260,-2681.334243,-592.164754,8586.388927
2614.050589,-2068.457845,-592.164754,9104.533087
2614.050918,-2221.676944,-1036.288319,9622.677246
2614.051248,-2757.943793,-1258.350101,9474.636058
2614.051577,-2757.943793,-962.267725,9992.780217
2614.051906,-3370.820191,-1332.370696,10214.842000
2614.052235,-3447.429741,-370.102971,10584.944971
2614.052564,-2987.772442,-148.041188,10066.800811
2614.052893,-2681.334243,1110.308913,9770.718434
2614.053223,-1915.238745,1184.329507,9252.574275
2614.053552,-1685.410096,814.226536,9622.677246
2614.053881,-1302.362347,-222.061783,9178.553681
2614.054210,-842.705048,-296.082377,9400.615463
2614.054539,-1149.143247,-814.226536,9474.636058
2614.054868,-1302.362347,-666.185348,8808.450710
2614.055197,-689.485948,-888.247130,9548.656652
2614.055527,0.000000,-518.144159,9104.533087
2614.055856,1149.143247,1110.308913,7105.977043
2614.056185,1762.019645,2072.576638,7476.080014
2614.056514,689.485948,1924.535449,7031.956449
2614.056843,766.095498,1702.473667,8290.306550
2614.057172,-1072.533697,888.247130,8512.368333
2614.057501,-2298.286494,-370.102971,9178.553681
2614.057831,-3524.039291,-2368.659014,11177.109724
2614.058160,-4673.182538,-1776.494261,9992.780217
2614.058489,-4519.963438,-1850.514855,9844.739029
2614.058818,-4290.134789,-1258.350101,9770.718434
2614.059147,-4213.525239,-1480.411884,9992.780217
2614.059476,-3524.039291,-962.267725,10214.842000
2614.059805,-1838.629195,-296.082377,9474.636058
2614.060135,-1608.800546,296.082377,7772.162391
2614.060464,-1072.533697,444.123565,7328.038826
2614.060793,-1838.629195,1406.391290,7328.038826
2614.061122,-1762.019645,-370.102971,9696.697840
2614.061451,-689.485948,-222.061783,8364.327145
2614.061780,-383.047749,444.123565,7031.956449
2614.062110,-383.047749,-0.000000,7994.224174
2614.062439,-1915.238745,-0.000000,8068.244768
2614.062768,-2451.505594,-222.061783,10066.800811
2614.063097,-3294.210641,-740.205942,9844.739029
2614.063426,-2604.724693,-148.041188,9622.677246
2614.063755,-3447.429741,-0.000000,8290.306550
2614.064084,-4366.744339,-74.020594,9400.615463
2614.064414,-5592.497135,-74.020594,9770.718434
2614.064743,-4673.182538,-148.041188,9326.594869
2614.065072,-4826.401637,-1480.411884,9474.636058
2614.065401,-4903.011187,-1850.514855,9548.656652
2614.065730,-4979.620737,-1110.308913,9474.636058
2614.066059,-5592.497135,-1184.329507,8808.450710
2614.066388,-4903.011187,-2294.638420,9474.636058
2614.066718,-3830.477490,-740.205942,9696.697840
2614.067047,-3140.991542,-1110.308913,9622.677246
2614.067376,-3140.991542,-666.185348,9400.615463
2614.067705,-2834.553343,148.041188,9474.636058
2614.068034,-2834.553343,814.226536,9178.553681
2614.068363,-2451.505594,814.226536,9104.533087
2614.068692,-2298.286494,1702.473667,8734.430116
2614.069022,-2068.457845,1406.391290,9252.574275
2614.069351,-1149.143247,1628.453072,7550.100608
2614.069680,-1532.190996,1850.514855,7920.203579
2614.070009,-1302.362347,1332.370696,7920.203579
2614.070338,-1532.190996,962.267725,7624.121203
2614.070667,-1991.848295,740.205942,8142.265362
2614.070996,-2451.505594,370.102971,7994.224174
2614.071326,-2451.505594,-0.000000,9474.636058
2614.071655,-2528.115143,222.061783,9104.533087
2614.071984,-2528.115143,1258.350101,9178.553681
2614.072313,-2987.772442,1184.329507,9548.656652
2614.072642,-2604.724693,444.123565,10214.842000
2614.072971,-2374.896044,1628.453072,9474.636058
2614.073301,-3064.381992,666.185348,10658.965565
2614.073630,-3217.601092,444.123565,11103.089130
2614.073959,-2451.505594,592.164754,11103.089130
2614.074288,-1072.533697,962.267725,10362.883188
2614.074617,-1149.143247,1258.350101,9326.594869
2614.074946,-766.095498,1036.288319,9474.636058
2614.075275,-995.924147,-222.061783,11029.068536
2614.075605,1762.019645,2368.659014,8808.450710
2614.075934,3140.991542,2960.823768,5847.626942
2614.076263,4443.353888,3330.926739,6587.832884
2614.076592,2987.772442,4219.173869,6217.729913
2614.076921,3677.258390,4219.173869,8290.306550
2614.077250,2145.067394,4737.318029,6809.894666
2614.077579,2911.162892,4293.194464,8216.285956
2614.077909,1072.533697,2516.700203,9030.512492
2614.078238,-306.438199,2590.720797,9622.677246
2614.078567,-1378.971896,814.226536,10955.047942
2614.078896,-1762.019645,1036.288319,10584.944971
2614.079225,-383.047749,888.247130,11029.068536
2614.079554,-536.266849,1554.432478,10140.821405
2614.079883,153.219100,3552.988522,8734.430116
2614.080213,536.266849,2886.803174,7920.203579
2614.080542,1072.533697,3034.844362,7994.224174
2614.080871,1838.629195,4589.276840,6513.812290
2614.081200,2068.457845,3775.050304,7402.059420
2614.081529,919.314598,4367.215058,7624.121203
2614.081858,-459.657299,3478.967927,7994.224174
2614.082187,-1608.800546,2368.659014,9474.636058
2614.082517,-2987.772442,1776.494261,9622.677246
2614.082846,-2451.505594,592.164754,11843.295072
2614.083175,-2987.772442,2072.576638,10140.821405
2614.083504,-2681.334243,2812.782580,10066.800811
2614.083833,-2757.943793,2664.741391,9992.780217
2614.084162,-3140.991542,2516.700203,10436.903782
2614.084492,-2911.162892,2368.659014,10881.027347
2614.084821,-1685.410096,2590.720797,10140.821405
2614.085150,-689.485948,2664.741391,9474.636058
2614.085479,-1225.752797,2664.741391,8660.409521
2614.085808,-1072.533697,2738.761985,10288.862594
2614.086137,-1608.800546,2294.638420,10362.883188
2614.086466,2145.067394,3182.885551,10066.800811
2614.086796,2681.334243,5107.421000,5477.523971
2614.087125,3677.258390,4737.318029,8512.368333
2614.087454,2604.724693,6069.688724,7476.080014
2614.087783,3294.210641,7476.080014,7105.977043
2614.088112,1838.629195,5847.626942,8142.265362
2614.088441,1762.019645,6143.709319,7254.018232
2614.088770,842.705048,5255.462188,9326.594869
2614.089100,229.828649,4589.276840,8586.388927
2614.089429,-1762.019645,2294.638420,10066.800811
2614.089758,-1838.629195,-740.205942,11991.336260
2614.090087,-842.705048,1258.350101,10140.821405
2614.090416,-1072.533697,-74.020594,11251.130318
2614.090745,-1225.752797,2886.803174,9030.512492
2614.091074,536.266849,3404.947333,10584.944971
2614.091404,2068.457845,2738.761985,9030.512492
2614.091733,2681.334243,5107.421000,7698.141797
2614.092062,3677.258390,4737.318029,7105.977043
2614.092391,3753.867940,4811.338623,7328.038826
2614.092720,2145.067394,4959.379811,7328.038826
2614.093049,1608.800546,3256.906145,7624.121203
2614.093379,-995.924147,1184.329507,9992.780217
2614.093708,-1302.362347,-0.000000,11917.315666
2614.094037,-2604.724693,-0.000000,10807.006753
2614.094366,-2145.067394,-148.041188,11695.253884
2614.094695,-2528.115143,1036.288319,9030.512492
2614.095024,-919.314598,1702.473667,10436.903782
2614.095353,-1225.752797,1998.556043,9474.636058
2614.095683,-536.266849,1184.329507,9474.636058
2614.096012,2068.457845,1184.329507,10881.027347
2614.096341,2681.334243,2886.803174,5625.565159
2614.096670,4903.011187,2442.679609,8956.491898
2614.096999,2911.162892,4219.173869,5995.668130
2614.097328,3983.696590,4367.215058,6365.771101
2614.097657,3370.820191,3923.091493,7698.141797
2614.097987,2757.943793,4737.318029,6143.709319
2614.098316,1532.190996,3849.070898,8216.285956
2614.098645,-1455.581446,1554.432478,7772.162391
2614.098974,-3064.381992,-2294.638420,12657.521608
2614.099303,-3524.039291,-1184.329507,11843.295072
2614.099632,-2374.896044,-1628.453072,9992.780217
2614.099961,-3447.429741,-296.082377,11029.068536
2614.100291,-2451.505594,1554.432478,11251.130318
2614.100620,0.000000,2664.741391,9030.512492
2614.100949,-153.219100,3256.906145,8290.306550
2614.101278,689.485948,3923.091493,7846.182985
2614.101607,4290.134789,1998.556043,11547.212695
2614.101936,1762.019645,4959.379811,3108.864956
2614.102265,4673.182538,3256.906145,7476.080014
2614.102595,2451.505594,4663.297435,5551.544565
2614.102924,5745.716235,3256.906145,6661.853478
2614.103253,2451.505594,3701.029710,5699.585753
2614.103582,2987.772442,4737.318029,6883.915261
2614.103911,1149.143247,3997.112087,7550.100608
2614.104240,-1991.848295,2886.803174,8660.409521
2614.104570,-5132.839837,-2812.782580,13323.706956
2614.104899,-5592.497135,1702.473667,12287.418637
2614.105228,-2911.162892,-222.061783,10066.800811
2614.105557,-3370.820191,-3627.009116,12509.480420
2614.105886,-2987.772442,-0.000000,13841.851115
2614.106215,-1072.533697,1332.370696,10140.821405
2614.106544,-2528.115143,1628.453072,7328.038826
2614.106874,-1225.752797,3034.844362,9844.739029
2614.107203,1532.190996,666.185348,12953.603985
2614.107532,2298.286494,3775.050304,6809.894666
2614.107861,4519.963438,4219.173869,7698.141797
2614.108190,3983.696590,2072.576638,3701.029710
2614.108519,4290.134789,4071.132681,7105.977043
2614.108848,1838.629195,3849.070898,8660.409521
2614.109178,995.924147,3552.988522,9400.615463
2614.109507,-1225.752797,1628.453072,11769.274478
2614.109836,-2221.676944,-1998.556043,12065.356855
2614.110165,-2374.896044,1258.350101,10584.944971
2614.110494,-2604.724693,-1184.329507,11769.274478
2614.110823,-2604.724693,1184.329507,9252.574275
2614.111152,-1302.362347,-222.061783,10732.986159
2614.111482,-1378.971896,740.205942,9104.533087
2614.111811,1149.143247,666.185348,11399.171507
2614.112140,536.266849,814.226536,6069.688724
2614.112469,3140.991542,2294.638420,8438.347739
2614.112798,2757.943793,5773.606348,5329.482782
2614.113127,3217.601092,4145.153275,5625.565159
2614.113456,1072.533697,3182.885551,8882.471304
2614.113786,1455.581446,3182.885551,8956.491898
2614.114115,383.047749,296.082377,9844.739029
2614.114444,-1608.800546,-962.267725,9548.656652
2614.114773,-2221.676944,-2960.823768,11695.253884
2614.115102,-2528.115143,-3404.947333,12953.603985
2614.115431,-1302.362347,-1628.453072,10584.944971
2614.115761,-383.047749,-1850.514855,10658.965565
2614.116090,1378.971896,-444.123565,9104.533087
2614.116419,2451.505594,2738.761985,6883.915261
2614.116748,3830.477490,1702.473667,7031.956449
2614.117077,3524.039291,2368.659014,6661.853478
2614.117406,3294.210641,2368.659014,6809.894666
2614.117735,3064.381992,1998.556043,8142.265362
2614.118065,1915.238745,2072.576638,7698.141797
2614.118394,2911.162892,-666.185348,8586.388927
2614.118723,919.314598,-2072.576638,10066.800811
2614.119052,-153.219100,-3923.091493,11177.109724
2614.119381,-1072.533697,-2294.638420,11843.295072
2614.119710,-1762.019645,-3775.050304,12805.562797
2614.120039,-2604.724693,-518.144159,10584.944971
2614.120369,-1685.410096,-814.226536,10362.883188
2614.120698,-1608.800546,370.102971,9326.594869
2614.121027,1532.190996,740.205942,9104.533087
2614.121356,2374.896044,814.226536,7698.141797
2614.121685,2911.162892,1406.391290,6735.874072
2614.122014,2374.896044,518.144159,6957.935855
2614.122343,1991.848295,-592.164754,7031.956449
2614.122673,1378.971896,-1850.514855,8512.368333
2614.123002,306.438199,-2738.761985,8956.491898
2614.123331,-995.924147,-2738.761985,10066.800811
2614.123660,-1608.800546,-2294.638420,10362.883188
2614.123989,-1608.800546,-1628.453072,10362.883188
2614.124318,-1685.410096,-222.061783,10362.883188
2614.124648,-2068.457845,-1406.391290,10140.821405
2614.124977,-1915.238745,-814.226536,10214.842000
2614.125306,-536.266849,-296.082377,10288.862594
2614.125635,306.438199,-148.041188,8808.450710
2614.125964,1991.848295,-0.000000,8142.265362
2614.126293,2298.286494,-444.123565,7476.080014
2614.126622,2757.943793,-740.205942,6809.894666
2614.126952,2298.286494,-0.000000,6587.832884
2614.127281,1685.410096,296.082377,6513.812290
2614.127610,1455.581446,296.082377,7624.121203
2614.127939,0.000000,-222.061783,8512.368333
2614.128268,-459.657299,-2812.782580,10140.821405
2614.128597,-1838.629195,-2368.659014,10584.944971
2614.128926,-1991.848295,-2294.638420,11325.150913
2614.129256,-2298.286494,-1480.411884,10658.965565
2614.129585,-1685.410096,222.061783,10584.944971
2614.129914,-689.485948,-0.000000,10214.842000
2614.130243,-536.266849,-148.041188,9918.759623
2614.130572,2068.457845,296.082377,9326.594869
2614.130901,1838.629195,1406.391290,7698.141797
2614.131230,2298.286494,2960.823768,7179.997637
2614.131560,2145.067394,2072.576638,6957.935855
2614.131889,1762.019645,518.144159,7402.059420
2614.132218,1072.533697,-0.000000,8142.265362
2614.132547,766.095498,-1110.308913,8734.430116
2614.132876,0.000000,-1184.329507,9178.553681
2614.133205,0.000000,-1480.411884,9400.615463
2614.133534,-306.438199,-1776.494261,10881.027347
2614.133864,-536.266849,-1406.391290,10807.006753
2614.134193,-919.314598,-740.205942,10584.944971
2614.134522,-842.705048,814.226536,10066.800811
2614.134851,229.828649,2072.576638,9326.594869
2614.135180,842.705048,2738.761985,8734.430116
2614.135509,1685.410096,1776.494261,9400.615463
2614.135839,1685.410096,370.102971,9030.512492
2614.136168,1149.143247,666.185348,8364.327145
2614.136497,842.705048,370.102971,8142.265362
2614.136826,919.314598,-0.000000,7994.224174
2614.137155,1762.019645,-814.226536,8660.409521
2614.137484,842.705048,-1110.308913,8956.491898
2614.137813,1225.752797,-1184.329507,9178.553681
2614.138143,536.266849,-370.102971,8808.450710
2614.138472,153.219100,370.102971,8808.450710
2614.138801,229.828649,1702.473667,9178.553681
2614.139130,459.657299,962.267725,10066.800811
2614.139459,153.219100,518.144159,10584.944971
2614.139788,0.000000,296.082377,10584.944971
2614.140117,536.266849,1628.453072,9252.574275
2614.140447,459.657299,888.247130,9548.656652
2614.140776,1149.143247,296.082377,9400.615463
2614.141105,919.314598,-296.082377,9104.533087
2614.141434,766.095498,-296.082377,8512.368333
2614.141763,766.095498,-0.000000,8068.244768
2614.142092,459.657299,148.041188,7772.162391
2614.142421,842.705048,-148.041188,8142.265362
2614.142751,459.657299,-370.102971,8586.388927
2614.143080,153.219100,-888.247130,9400.615463
2614.143409,-153.219100,-888.247130,9178.553681
2614.143738,-306.438199,-74.020594,9178.553681
2614.144067,229.828649,222.061783,9030.512492
2614.144396,229.828649,-444.123565,9548.656652
2614.144725,383.047749,-1184.329507,10288.862594
2614.145054,-689.485948,-1110.308913,9918.759623
2614.145384,-306.438199,-666.185348,8808.450710
2614.145713,-383.047749,148.041188,8290.306550
2614.146042,0.000000,-0.000000,9178.553681
2614.146371,-153.219100,-592.164754,8734.430116
2614.146700,0.000000,-1628.453072,9474.636058
2614.147029,-1378.971896,-962.267725,8956.491898
2614.147358,-229.828649,-1406.391290,8290.306550
2614.147688,229.828649,-1036.288319,8512.368333
2614.148017,766.095498,-1998.556043,8586.388927
2614.148346,612.876398,-2294.638420,9622.677246
2614.148675,229.828649,-1554.432478,9178.553681
2614.149004,153.219100,-1332.370696,8512.368333
2614.149333,306.438199,518.144159,8586.388927
2614.149662,76.609550,888.247130,8808.450710
2614.149992,0.000000,666.185348,9696.697840
2614.150321,-842.705048,-962.267725,9474.636058
2614.150650,-919.314598,-888.247130,9326.594869
2614.150979,-919.314598,-740.205942,9030.512492
2614.151308,-612.876398,-888.247130,9030.512492
2614.151637,-229.828649,-2072.576638,9696.697840
2614.151966,383.047749,-2146.597232,9548.656652
2614.152295,383.047749,-1702.473667,8438.347739
2614.152625,383.047749,-592.164754,8216.285956
2614.152954,1532.190996,740.205942,7624.121203
2614.153283,1762.019645,1628.453072,7698.141797
2614.153612,1455.581446,1184.329507,8882.471304
2614.153941,1608.800546,222.061783,8660.409521
2614.154270,842.705048,592.164754,9400.615463
2614.154599,919.314598,814.226536,9474.636058
2614.154929,1072.533697,-0.000000,8586.388927
2614.155258,612.876398,-1036.288319,9474.636058
2614.155587,766.095498,-1406.391290,9918.759623
2614.155916,229.828649,-1332.370696,9696.697840
2614.156245,-689.485948,-518.144159,9474.636058
2614.156574,0.000000,-222.061783,7994.224174
2614.156903,536.266849,1184.329507,8364.327145
2614.157233,689.485948,296.082377,8808.450710
2614.157562,919.314598,-222.061783,9104.533087
2614.157891,766.095498,-222.061783,9474.636058
2614.158220,842.705048,-74.020594,9104.533087
2614.158549,1072.533697,666.185348,8438.347739
2614.158878,1455.581446,-148.041188,9104.533087
2614.159207,1685.410096,-370.102971,9844.739029
2614.159536,1378.971896,-666.185348,9696.697840
2614.159866,766.095498,518.144159,8882.471304
2614.160195,306.438199,1702.473667,8882.471304
2614.160524,689.485948,1998.556043,9474.636058
2614.160853,229.828649,370.102971,9548.656652
2614.161182,-383.047749,-740.205942,10066.800811
2614.161511,-612.876398,-518.144159,9474.636058
2614.161840,-1302.362347,-148.041188,9400.615463
2614.162170,-995.924147,-370.102971,9030.512492
2614.162499,0.000000,-1110.308913,9696.697840
2614.162828,-306.438199,-1480.411884,9844.739029
2614.163157,689.485948,-1480.411884,9326.594869
2614.163486,0.000000,-0.000000,8808.450710
2614.163815,-229.828649,1332.370696,8290.306550
2614.164144,306.438199,2294.638420,8438.347739
2614.164474,76.609550,1776.494261,8882.471304
2614.164803,76.609550,-0.000000,9696.697840
2614.165132,383.047749,-222.061783,9474.636058
2614.165461,-383.047749,-0.000000,8882.471304
2614.165790,-153.219100,-0.000000,9178.553681
2614.166119,229.828649,-444.123565,8734.430116
2614.166448,306.438199,-1406.391290,8956.491898
2614.166777,-153.219100,-1406.391290,8956.491898
2614.167107,76.609550,-1110.308913,8216.285956
2614.167436,-536.266849,-148.041188,7846.182985
2614.167765,0.000000,444.123565,7179.997637
2614.168094,306.438199,148.041188,8660.409521
2614.168423,-383.047749,-518.144159,9326.594869
2614.168752,-383.047749,-888.247130,9178.553681
2614.169081,-383.047749,-1036.288319,8956.491898
2614.169411,0.000000,-888.247130,8956.491898
2614.169740,383.047749,-1480.411884,9178.553681
2614.170069,612.876398,-962.267725,9844.739029
2614.170398,766.095498,-592.164754,8882.471304
2614.170727,536.266849,-0.000000,9030.512492
2614.171056,536.266849,740.205942,8734.430116
2614.171385,995.924147,1554.432478,8068.244768
2614.171715,1072.533697,370.102971,9030.512492
2614.172044,689.485948,-1554.432478,9770.718434
2614.172373,459.657299,-962.267725,9400.615463
2614.172702,459.657299,-1332.370696,9326.594869
2614.173031,306.438199,-296.082377,9252.574275
2614.173360,689.485948,-740.205942,9252.574275
2614.173689,1149.143247,-888.247130,9474.636058
2614.174018,766.095498,-740.205942,9252.574275
2614.174348,612.876398,-296.082377,9030.512492
2614.174677,1072.533697,814.226536,9696.697840
2614.175006,1072.533697,1702.473667,8882.471304
2614.175335,1149.143247,814.226536,9474.636058
2614.175664,919.314598,-74.020594,9844.739029
2614.175993,536.266849,-740.205942,9696.697840
2614.176322,306.438199,-814.226536,9548.656652
2614.176652,229.828649,-0.000000,8734.430116
2614.176981,766.095498,-814.226536,8882.471304
2614.177310,229.828649,-1258.350101,9992.780217
2614.177639,229.828649,-1332.370696,9548.656652
2614.177968,-383.047749,-1110.308913,8734.430116
2614.178297,-306.438199,296.082377,8142.265362
2614.178626,153.219100,740.205942,8956.491898
2614.178956,153.219100,148.041188,9474.636058
2614.179285,383.047749,-518.144159,9622.677246
2614.179614,459.657299,-518.144159,8882.471304
2614.179943,383.047749,-0.000000,9104.533087
2614.180272,689.485948,888.247130,8808.450710
2614.180601,1225.752797,518.144159,8290.306550
2614.180930,1149.143247,-592.164754,8808.450710
2614.181259,1225.752797,-592.164754,9474.636058
2614.181589,842.705048,-888.247130,8734.430116
2614.181918,0.000000,296.082377,8216.285956
2614.182247,0.000000,1036.288319,7994.224174
2614.182576,-229.828649,-0.000000,9252.574275
2614.182905,-919.314598,-814.226536,9474.636058
2614.183234,-383.047749,-1406.391290,9326.594869
2614.183563,-1302.362347,-666.185348,9548.656652
2614.183893,-1532.190996,-666.185348,9326.594869
2614.184222,-1072.533697,-962.267725,8882.471304
2614.184551,0.000000,-814.226536,9696.697840
2614.184880,0.000000,-1480.411884,9400.615463
2614.185209,-229.828649,-74.020594,9030.512492
2614.185538,383.047749,1332.370696,9400.615463
2614.185867,689.485948,1776.494261,8512.368333
2614.186197,612.876398,1850.514855,8882.471304
2614.186526,459.657299,962.267725,9622.677246
2614.186855,383.047749,370.102971,9622.677246
2614.187184,0.000000,740.205942,9326.594869
2614.187513,229.828649,518.144159,8808.450710
2614.187842,766.095498,-0.000000,9104.533087
2614.188171,306.438199,-518.144159,9992.780217
2614.188500,612.876398,-740.205942,9474.636058
2614.188830,0.000000,-666.185348,9696.697840
2614.189159,0.000000,666.185348,9030.512492
2614.189488,383.047749,1332.370696,8290.306550
2614.189817,536.266849,1628.453072,9178.553681
2614.190146,842.705048,518.144159,10066.800811
2614.190475,536.266849,-0.000000,9992.780217
2614.190804,0.000000,-74.020594,9474.636058
2614.191134,689.485948,-0.000000,8808.450710
2614.191463,1302.362347,-74.020594,9104.533087
2614.191792,995.924147,-592.164754,9622.677246
2614.192121,995.924147,-888.247130,9622.677246
2614.192450,919.314598,-814.226536,9104.533087
2614.192779,459.657299,-0.000000,9030.512492
2614.193108,689.485948,1258.350101,8586.388927
2614.193438,459.657299,740.205942,8512.368333
2614.193767,306.438199,-296.082377,9474.636058
2614.194096,459.657299,-518.144159,9474.636058
2614.194425,229.828649,-518.144159,9252.574275
2614.194754,383.047749,-1406.391290,8956.491898
2614.195083,1378.971896,-592.164754,8660.409521
2614.195412,1455.581446,-1258.350101,8734.430116
2614.195741,1378.971896,-1702.473667,9548.656652
2614.196071,1455.581446,-666.185348,8586.388927
2614.196400,919.314598,-0.000000,7920.203579
2614.196729,612.876398,1924.535449,7550.100608
2614.197058,1302.362347,1184.329507,8808.450710
2614.197387,689.485948,-814.226536,9326.594869
2614.197716,-229.828649,-1554.432478,9474.636058
2614.198045,-536.266849,-1110.308913,9474.636058
2614.198375,-1072.533697,-814.226536,9178.553681
2614.198704,-612.876398,-1184.329507,9474.636058
2614.199033,-153.219100,-1776.494261,9622.677246
2614.199362,76.609550,-1702.473667,9844.739029
2614.199691,-306.438199,-1628.453072,8882.471304
2614.200020,-306.438199,444.123565,9030.512492
2614.200349,0.000000,1258.350101,8216.285956
2614.200679,459.657299,888.247130,8660.409521
2614.201008,306.438199,222.061783,9104.533087
2614.201337,229.828649,-888.247130,9104.533087
2614.201666,0.000000,-518.144159,9030.512492
2614.201995,536.266849,-444.123565,8586.388927
2614.202324,536.266849,-666.185348,8882.471304
2614.202653,0.000000,-1036.288319,9548.656652
2614.202982,383.047749,-1110.308913,9474.636058
2614.203312,0.000000,-740.205942,9178.553681
2614.203641,0.000000,-0.000000,8734.430116
2614.203970,0.000000,962.267725,8142.265362
2614.204299,153.219100,740.205942,9104.533087
2614.204628,229.828649,-370.102971,9992.780217
2614.204957,383.047749,-666.185348,9992.780217
2614.205286,0.000000,-148.041188,9252.574275
2614.205616,-459.657299,-74.020594,9030.512492
2614.205945,229.828649,-296.082377,9178.553681
2614.206274,766.095498,222.061783,9178.553681
2614.206603,842.705048,-1258.350101,9622.677246
2614.206932,383.047749,-518.144159,9622.677246
2614.207261,306.438199,-0.000000,9178.553681
2614.207590,612.876398,1332.370696,8438.347739
2614.207920,0.000000,1406.391290,8956.491898
2614.208249,76.609550,-0.000000,9770.718434
2614.208578,306.438199,-1184.329507,9474.636058
2614.208907,459.657299,-444.123565,9400.615463
2614.209236,689.485948,-444.123565,9400.615463
2614.209565,995.924147,148.041188,8734.430116
2614.209894,995.924147,444.123565,9030.512492
2614.210224,1685.410096,-74.020594,8956.491898
2614.210553,1532.190996,-0.000000,8734.430116
2614.210882,1608.800546,592.164754,7994.224174
2614.211211,1225.752797,1924.535449,7772.162391
2614.211540,1302.362347,1850.514855,8438.347739
2614.211869,612.876398,-296.082377,9104.533087
2614.212198,459.657299,-370.102971,9474.636058
2614.212527,0.000000,-518.144159,9400.615463
2614.212857,-459.657299,-0.000000,9030.512492
2614.213186,459.657299,148.041188,9252.574275
2614.213515,536.266849,-888.247130,9252.574275
2614.213844,229.828649,-1184.329507,9844.739029
2614.214173,-229.828649,-1480.411884,9252.574275
2614.214502,0.000000,296.082377,8660.409521
2614.214831,76.609550,1554.432478,8290.306550
2614.215161,229.828649,1258.350101,8216.285956
2614.215490,306.438199,518.144159,9178.553681
2614.215819,-306.438199,-592.164754,9696.697840
2614.216148,306.438199,-370.102971,9104.533087
2614.216477,0.000000,222.061783,9030.512492
2614.216806,153.219100,-0.000000,8438.347739
2614.217135,689.485948,-444.123565,9474.636058
2614.217465,459.657299,-814.226536,9548.656652
2614.217794,536.266849,-1776.494261,9400.615463
2614.218123,229.828649,-370.102971,8586.388927
2614.218452,153.219100,296.082377,7994.224174
2614.218781,1149.143247,666.185348,8438.347739
2614.219110,306.438199,-0.000000,9252.574275
2614.219439,-229.828649,-296.082377,9844.739029
2614.219768,-383.047749,-592.164754,9252.574275
2614.220098,-1072.533697,-0.000000,9104.533087
2614.220427,0.000000,-888.247130,9252.574275
2614.220756,383.047749,-888.247130,9326.594869
2614.221085,0.000000,-2146.597232,9474.636058
2614.221414,0.000000,-2072.576638,9400.615463
2614.221743,-459.657299,-1036.288319,9030.512492
2614.222072,0.000000,-222.061783,8364.327145
2614.222402,0.000000,1036.288319,7846.182985
2614.222731,229.828649,444.123565,9104.533087
2614.223060,306.438199,-296.082377,8512.368333
2614.223389,306.438199,-0.000000,9326.594869
2614.223718,153.219100,-444.123565,9030.512492
2614.224047,383.047749,-0.000000,8512.368333
2614.224376,919.314598,-444.123565,8882.471304
2614.224706,919.314598,-1184.329507,9474.636058
2614.225035,1072.533697,-888.247130,8882.471304
2614.225364,689.485948,-370.102971,8438.347739
2614.225693,1302.362347,740.205942,7994.224174
2614.226022,995.924147,1184.329507,8068.244768
2614.226351,1072.533697,-0.000000,8808.450710
2614.226680,536.266849,-666.185348,9178.553681
2614.227009,153.219100,-888.247130,9030.512492
2614.227339,153.219100,-444.123565,9104.533087
2614.227668,153.219100,-1406.391290,8956.491898
2614.227997,612.876398,-1776.494261,9400.615463
2614.228326,612.876398,-1850.514855,9992.780217
2614.228655,306.438199,-1628.453072,8956.491898
2614.228984,229.828649,-592.164754,8882.471304
2614.229313,306.438199,962.267725,8734.430116
2614.229643,153.219100,1628.453072,8068.244768
2614.229972,0.000000,296.082377,9474.636058
2614.230301,1072.533697,-740.205942,9474.636058
2614.230630,919.314598,-962.267725,9178.553681
2614.230959,689.485948,-666.185348,8882.471304
2614.231288,689.485948,-518.144159,8808.450710
2614.231617,919.314598,-518.144159,9104.533087
2614.231947,1149.143247,-814.226536,9400.615463
2614.232276,842.705048,-1332.370696,8586.388927
2614.232605,766.095498,148.041188,8660.409521
2614.232934,689.485948,1184.329507,7402.059420
2614.233263,612.876398,1110.308913,8364.327145
2614.233592,612.876398,888.247130,9252.574275
2614.233921,383.047749,-370.102971,9474.636058
2614.234250,306.438199,-888.247130,9400.615463
2614.234580,76.609550,592.164754,9104.533087
2614.234909,-153.219100,-222.061783,9326.594869
2614.235238,-153.219100,-518.144159,9178.553681
2614.235567,0.000000,-1184.329507,10066.800811
2614.235896,-153.219100,-1776.494261,9474.636058
2614.236225,-536.266849,-296.082377,8882.471304
2614.236554,-383.047749,666.185348,8882.471304
2614.236884,306.438199,1258.350101,8512.368333
2614.237213,-153.219100,962.267725,9178.553681
2614.237542,0.000000,-370.102971,9252.574275
2614.237871,76.609550,-148.041188,9474.636058
2614.238200,0.000000,-222.061783,9548.656652
2614.238529,536.266849,-0.000000,8734.430116
2614.238858,995.924147,-0.000000,9030.512492
2614.239188,153.219100,-74.020594,9104.533087
2614.239517,1072.533697,-592.164754,9400.615463
2614.239846,536.266849,370.102971,8660.409521
2614.240175,459.657299,1110.308913,8142.265362
2614.240504,612.876398,1332.370696,8290.306550
2614.240833,536.266849,370.102971,8586.388927
2614.241162,0.000000,-518.144159,9178.553681
2614.241491,-306.438199,-888.247130,9474.636058
2614.241821,-995.924147,-148.041188,9104.533087
2614.242150,-459.657299,-148.041188,8586.388927
2614.242479,76.609550,-0.000000,9030.512492
2614.242808,459.657299,-888.247130,9474.636058
2614.243137,306.438199,-1184.329507,9400.615463
2614.243466,229.828649,-1036.288319,9030.512492
2614.243795,229.828649,-0.000000,8808.450710
2614.244124,842.705048,1110.308913,8290.306550
2614.244453,306.438199,1554.432478,9178.553681
2614.244782,229.828649,-0.000000,9252.574275
2614.245111,383.047749,-592.164754,9178.553681
2614.245440,536.266849,148.041188,8808.450710
2614.245769,766.095498,-0.000000,8734.430116
2614.246098,1149.143247,-222.061783,8660.409521
2614.246427,1302.362347,-666.185348,9474.636058
2614.246756,1149.143247,-1406.391290,9474.636058
2614.247085,995.924147,-592.164754,8586.388927
2614.247414,919.314598,296.082377,8290.306550
2614.247743,1149.143247,814.226536,8364.327145
2614.248073,1072.533697,814.226536,9474.636058
2614.248402,2068.457845,-888.247130,9992.780217
2614.248731,689.485948,-518.144159,9400.615463
2614.249060,306.438199,-0.000000,9474.636058
2614.249389,383.047749,518.144159,8882.471304
2614.249718,612.876398,518.144159,9252.574275
2614.250047,919.314598,-962.267725,10140.821405
2614.250376,842.705048,-1554.432478,10214.842000
2614.250705,306.438199,-666.185348,9178.553681
2614.251034,-153.219100,-370.102971,8734.430116
2614.251363,0.000000,666.185348,9030.512492
2614.251692,0.000000,1110.308913,9474.636058
2614.252021,-153.219100,-518.144159,9696.697840
2614.252350,-153.219100,-444.123565,9548.656652
2614.252679,0.000000,-1036.288319,9474.636058
2614.253008,0.000000,296.082377,9030.512492
2614.253337,536.266849,-296.082377,9400.615463
2614.253666,919.314598,-1110.308913,8956.491898
2614.253995,919.314598,-1258.350101,9326.594869
2614.254324,842.705048,-888.247130,8882.471304
2614.254653,842.705048,-0.000000,7994.224174
2614.254983,919.314598,1110.308913,7994.224174
2614.255312,1225.752797,814.226536,8586.388927
2614.255641,1149.143247,-0.000000,8660.409521
2614.255970,-306.438199,-0.000000,9178.553681
2614.256299,-459.657299,-444.123565,8734.430116
2614.256628,-689.485948,-74.020594,8586.388927
2614.256957,-306.438199,-1554.432478,9326.594869
2614.257286,-536.266849,-2516.700203,9178.553681
2614.257615,-306.438199,-2886.803174,10214.842000
2614.257944,-536.266849,-2368.659014,8512.368333
2614.258273,-766.095498,-222.061783,8216.285956
2614.258602,-459.657299,1036.288319,8290.306550
2614.258931,0.000000,1554.432478,8512.368333
2614.259260,0.000000,814.226536,8956.491898
2614.259589,612.876398,-444.123565,9178.553681
2614.259918,383.047749,-666.185348,8586.388927
2614.260247,1302.362347,-74.020594,8734.430116
2614.260576,919.314598,-518.144159,9178.553681
2614.260905,919.314598,-592.164754,9030.512492
2614.261234,842.705048,-1258.350101,9622.677246
2614.261563,995.924147,-592.164754,8956.491898
2614.261893,306.438199,370.102971,7920.203579
2614.262222,1455.581446,1258.350101,8142.265362
2614.262551,689.485948,962.267725,8956.491898
2614.262880,842.705048,592.164754,9918.759623
2614.263209,153.219100,-222.061783,9548.656652
2614.263538,153.219100,518.144159,9474.636058
2614.263867,536.266849,444.123565,9770.718434
2614.264196,1072.533697,-0.000000,9474.636058
2614.264525,229.828649,-740.205942,10362.883188
2614.264854,842.705048,-370.102971,9918.759623
2614.265183,1149.143247,222.061783,8882.471304
2614.265512,306.438199,1554.432478,9104.533087
2614.265841,0.000000,2294.638420,8660.409521
2614.266170,689.485948,1628.453072,8956.491898
2614.266499,536.266849,-0.000000,9844.739029
2614.266828,0.000000,-0.000000,9622.677246
2614.267157,-153.219100,-1258.350101,10066.800811
2614.267486,-766.095498,-222.061783,9474.636058
2614.267815,0.000000,-518.144159,9400.615463
2614.268144,383.047749,-444.123565,9622.677246
2614.268473,766.095498,-1258.350101,9696.697840
2614.268803,1072.533697,-518.144159,9474.636058
2614.269132,383.047749,592.164754,8882.471304
2614.269461,766.095498,814.226536,7920.203579
2614.269790,842.705048,1184.329507,8586.388927
2614.270119,919.314598,444.123565,9252.574275
2614.270448,459.657299,-888.247130,9696.697840
2614.270777,0.000000,-444.123565,9104.533087
2614.271106,1072.533697,-370.102971,8660.409521
2614.271435,842.705048,-814.226536,8364.327145
2614.271764,995.924147,-888.247130,9178.553681
2614.272093,76.609550,-1554.432478,9474.636058
2614.272422,-153.219100,-1110.308913,8734.430116
2614.272751,-612.876398,296.082377,7994.224174
2614.273080,-306.438199,962.267725,8438.347739
2614.273409,0.000000,592.164754,8364.327145
2614.273738,-459.657299,-444.123565,9326.594869
2614.274067,0.000000,-1628.453072,9696.697840
2614.274396,-766.095498,-814.226536,9326.594869
2614.274725,-612.876398,-518.144159,9104.533087
2614.275054,-153.219100,-148.041188,8660.409521
2614.275383,153.219100,-518.144159,9326.594869
2614.275713,766.095498,-740.205942,9252.574275
2614.276042,0.000000,-592.164754,9030.512492
2614.276371,612.876398,444.123565,8808.450710
2614.276700,1149.143247,-0.000000,7105.977043
2614.277029,766.095498,1850.514855,8290.306550
2614.277358,612.876398,296.082377,9474.636058
2614.277687,459.657299,-666.185348,9252.574275
2614.278016,229.828649,-0.000000,9326.594869
2614.278345,0.000000,296.082377,9030.512492
2614.278674,612.876398,-0.000000,8882.471304
2614.279003,153.219100,-444.123565,9548.656652
2614.279332,229.828649,-888.247130,9992.780217
2614.279661,229.828649,-962.267725,9474.636058
2614.279990,-306.438199,518.144159,8586.388927
2614.280319,0.000000,888.247130,8882.471304
2614.280648,0.000000,814.226536,9474.636058
2614.280977,0.000000,-148.041188,9696.697840
2614.281306,459.657299,-1184.329507,10362.883188
2614.281635,153.219100,-666.185348,9474.636058
2614.281964,383.047749,-0.000000,9548.656652
2614.282293,766.095498,-0.000000,9400.615463
2614.282623,1225.752797,-0.000000,9474.636058
2614.282952,1532.190996,-370.102971,9918.759623
2614.283281,1455.581446,-888.247130,9474.636058
2614.283610,919.314598,370.102971,8586.388927
2614.283939,1149.143247,1110.308913,8216.285956
2614.284268,919.314598,1332.370696,8882.471304
2614.284597,766.095498,-0.000000,9622.677246
2614.284926,612.876398,-1036.288319,9622.677246
2614.285255,229.828649,-0.000000,9548.656652
2614.285584,0.000000,-148.041188,8808.450710
2614.285913,919.314598,-814.226536,8438.347739
2614.286242,919.314598,-666.185348,9548.656652
2614.286571,842.705048,-1776.494261,9326.594869
2614.286900,383.047749,-888.247130,8438.347739
2614.287229,76.609550,-370.102971,8586.388927
2614.287558,153.219100,296.082377,8142.265362
2614.287887,76.609550,1850.514855,8068.244768
2614.288216,-306.438199,148.041188,9252.574275
2614.288545,76.609550,-370.102971,8882.471304
2614.288874,-306.438199,-444.123565,9104.533087
2614.289204,-229.828649,-888.247130,8734.430116
2614.289533,0.000000,-222.061783,8364.327145
2614.289862,229.828649,-1110.308913,9326.594869
2614.290191,229.828649,-1628.453072,9326.594869
2614.290520,306.438199,-1184.329507,9104.533087
2614.290849,76.609550,-296.082377,8586.388927
2614.291178,76.609550,1184.329507,7254.018232
2614.291507,612.876398,1332.370696,8290.306550
2614.291836,153.219100,222.061783,9178.553681
2614.292165,459.657299,-814.226536,9474.636058
2614.292494,0.000000,-814.226536,8956.491898
2614.292823,76.609550,-148.041188,9326.594869
2614.293152,153.219100,-74.020594,8882.471304
2614.293481,0.000000,-592.164754,9844.739029
2614.293810,0.000000,-1406.391290,9770.718434
2614.294139,76.609550,-1184.329507,9400.615463
2614.294468,0.000000,-222.061783,8956.491898
2614.294797,306.438199,518.144159,8734.430116
2614.295126,0.000000,1776.494261,9252.574275
2614.295455,0.000000,1036.288319,9104.533087
2614.295784,-229.828649,-592.164754,10066.800811
2614.296114,0.000000,-518.144159,9918.759623
2614.296443,153.219100,-518.144159,9400.615463
2614.296772,0.000000,-0.000000,9474.636058
2614.297101,689.485948,-370.102971,9474.636058
2614.297430,842.705048,-888.247130,10362.883188
2614.297759,1072.533697,-518.144159,9474.636058
2614.298088,919.314598,-74.020594,8734.430116
2614.298417,919.314598,1406.391290,8290.306550
2614.298746,1302.362347,1850.514855,8364.327145
2614.299075,1225.752797,1184.329507,9252.574275
2614.299404,995.924147,-370.102971,9992.780217
