#time,accel_x,accel_y,accel_z
1526.986658,459.657299,-222.061783,8956.491898
1526.986987,306.438199,296.082377,8956.491898
1526.987316,459.657299,-0.000000,9104.533087
1526.987645,0.000000,-0.000000,9178.553681
1526.987974,229.828649,-0.000000,8956.491898
1526.988302,76.609550,-0.000000,9030.512492
1526.988631,229.828649,-74.020594,8808.450710
1526.988960,306.438199,-370.102971,8956.491898
1526.989289,306.438199,-370.102971,9104.533087
1526.989618,306.438199,-296.082377,8956.491898
1526.989946,306.438199,-222.061783,8882.471304
1526.990275,229.828649,-222.061783,9104.533087
1526.990604,383.047749,-444.123565,9030.512492
1526.990933,383.047749,-148.041188,8808.450710
1526.991262,306.438199,-74.020594,9178.553681
1526.991591,459.657299,-0.000000,8882.471304
1526.991919,153.219100,-74.020594,9178.553681
1526.992248,229.828649,-0.000000,8956.491898
1526.992577,0.000000,-370.102971,9474.636058
1526.992906,306.438199,-370.102971,9474.636058
1526.993235,306.438199,-296.082377,9178.553681
1526.993563,306.438199,-222.061783,9252.574275
1526.993892,306.438199,-222.061783,8882.471304
1526.994221,459.657299,-74.020594,9178.553681
1526.994550,689.485948,-0.000000,8956.491898
1526.994879,76.609550,-222.061783,9326.594869
1526.995208,229.828649,-370.102971,9474.636058
1526.995536,459.657299,-370.102971,9178.553681
1526.995865,229.828649,-148.041188,9104.533087
1526.996194,383.047749,-296.082377,9400.615463
1526.996523,459.657299,-222.061783,9252.574275
1526.996852,0.000000,-444.123565,9326.594869
1526.997180,536.266849,-518.144159,8216.285956
1526.997509,1072.533697,-222.061783,8660.409521
1526.997838,612.876398,-0.000000,8734.430116
1526.998167,459.657299,-0.000000,8956.491898
1526.998496,306.438199,-0.000000,8808.450710
1526.998824,383.047749,-74.020594,8882.471304
1526.999153,383.047749,-296.082377,8956.491898
1526.999482,459.657299,-370.102971,8734.430116
1526.999811,383.047749,-148.041188,8808.450710
1527.000140,229.828649,-296.082377,8956.491898
1527.000469,306.438199,-0.000000,8882.471304
1527.000797,0.000000,-0.000000,8956.491898
1527.001126,229.828649,-74.020594,9104.533087
1527.001455,383.047749,-444.123565,8882.471304
1527.001784,536.266849,-222.061783,8660.409521
1527.002113,842.705048,-370.102971,9252.574275
1527.002441,459.657299,-74.020594,8956.491898
1527.002770,306.438199,-74.020594,9104.533087
1527.003099,459.657299,-148.041188,9104.533087
1527.003428,459.657299,-370.102971,9030.512492
1527.003757,0.000000,-370.102971,9252.574275
1527.004085,229.828649,-222.061783,9326.594869
1527.004414,689.485948,-222.061783,8882.471304
1527.004743,459.657299,-518.144159,9252.574275
1527.005072,306.438199,-148.041188,9178.553681
1527.005401,306.438199,-222.061783,9104.533087
1527.005730,229.828649,-148.041188,9326.594869
1527.006058,536.266849,-222.061783,9474.636058
1527.006387,612.876398,-0.000000,9400.615463
1527.006716,766.095498,-370.102971,9326.594869
1527.007045,229.828649,-370.102971,8734.430116
1527.007374,536.266849,-0.000000,9030.512492
1527.007702,306.438199,-74.020594,9104.533087
1527.008031,383.047749,-74.020594,9030.512492
1527.008360,383.047749,-370.102971,9178.553681
1527.008689,459.657299,-74.020594,9252.574275
1527.009018,459.657299,-296.082377,8660.409521
1527.009346,229.828649,-222.061783,9030.512492
1527.009675,229.828649,-0.000000,9178.553681
1527.010004,229.828649,-0.000000,8956.491898
1527.010333,76.609550,-74.020594,8734.430116
1527.010662,229.828649,-222.061783,9178.553681
1527.010991,612.876398,-222.061783,9178.553681
1527.011319,536.266849,-222.061783,8512.368333
1527.011648,229.828649,-0.000000,8882.471304
1527.011977,306.438199,-0.000000,8882.471304
1527.012306,459.657299,-0.000000,8808.450710
1527.012635,306.438199,-0.000000,9030.512492
1527.012963,0.000000,-148.041188,9030.512492
1527.013292,919.314598,148.041188,9104.533087
1527.013621,689.485948,-592.164754,8956.491898
1527.013950,306.438199,-148.041188,9400.615463
1527.014279,459.657299,-148.041188,8956.491898
1527.014607,383.047749,-0.000000,8956.491898
1527.014936,306.438199,-148.041188,9178.553681
1527.015265,229.828649,-74.020594,9326.594869
1527.015594,459.657299,-296.082377,9104.533087
1527.015923,842.705048,-296.082377,9104.533087
1527.016252,0.000000,-296.082377,9400.615463
1527.016580,383.047749,-74.020594,9178.553681
1527.016909,229.828649,-74.020594,9400.615463
1527.017238,459.657299,-148.041188,9326.594869
1527.017567,229.828649,-222.061783,9326.594869
1527.017896,383.047749,-444.123565,9178.553681
1527.018224,383.047749,-740.205942,9400.615463
1527.018553,383.047749,-222.061783,9178.553681
1527.018882,536.266849,-0.000000,9178.553681
1527.019211,383.047749,-74.020594,8882.471304
1527.019540,306.438199,-74.020594,9030.512492
1527.019868,0.000000,-148.041188,9252.574275
1527.020197,383.047749,-0.000000,9178.553681
1527.020526,383.047749,-0.000000,8586.388927
1527.020855,612.876398,-0.000000,9104.533087
1527.021184,306.438199,-74.020594,8882.471304
1527.021513,229.828649,-148.041188,9030.512492
1527.021841,229.828649,-222.061783,8956.491898
1527.022170,689.485948,-296.082377,8882.471304
1527.022499,689.485948,-74.020594,8882.471304
1527.022828,306.438199,444.123565,8956.491898
1527.023157,459.657299,-0.000000,8882.471304
1527.023485,153.219100,-0.000000,8956.491898
1527.023814,306.438199,-0.000000,8882.471304
1527.024143,306.438199,-74.020594,8882.471304
1527.024472,0.000000,-296.082377,9030.512492
1527.024801,153.219100,-518.144159,8956.491898
1527.025129,76.609550,-444.123565,9030.512492
1527.025458,306.438199,222.061783,9252.574275
1527.025787,383.047749,-148.041188,9030.512492
1527.026116,459.657299,-74.020594,9104.533087
1527.026445,306.438199,-0.000000,9178.553681
1527.026774,306.438199,-296.082377,9400.615463
1527.027102,383.047749,-518.144159,9104.533087
1527.027431,76.609550,-222.061783,9400.615463
1527.027760,76.609550,-296.082377,9326.594869
1527.028089,229.828649,-222.061783,9178.553681
1527.028418,383.047749,-296.082377,9326.594869
1527.028746,76.609550,-0.000000,9178.553681
1527.029075,306.438199,-222.061783,9104.533087
1527.029404,153.219100,-222.061783,9400.615463
1527.029733,536.266849,-0.000000,9030.512492
1527.030062,-383.047749,370.102971,9252.574275
1527.030391,229.828649,-0.000000,9104.533087
1527.030719,306.438199,-222.061783,9178.553681
1527.031048,229.828649,-0.000000,9178.553681
1527.031377,229.828649,-148.041188,8956.491898
1527.031706,76.609550,-148.041188,9104.533087
1527.032035,229.828649,-444.123565,9326.594869
1527.032363,306.438199,-74.020594,9178.553681
1527.032692,383.047749,-222.061783,8808.450710
1527.033021,459.657299,-222.061783,8882.471304
1527.033350,306.438199,-0.000000,9030.512492
1527.033679,229.828649,-74.020594,8586.388927
1527.034007,306.438199,-74.020594,8808.450710
1527.034336,229.828649,-592.164754,8808.450710
1527.034665,229.828649,-222.061783,9104.533087
1527.034994,919.314598,-666.185348,9030.512492
1527.035323,76.609550,-296.082377,8956.491898
1527.035652,306.438199,-296.082377,9104.533087
1527.035980,383.047749,-222.061783,8956.491898
1527.036309,229.828649,-74.020594,9178.553681
1527.036638,842.705048,-370.102971,9326.594869
1527.036967,76.609550,296.082377,9030.512492
1527.037296,153.219100,-74.020594,9326.594869
1527.037624,383.047749,-592.164754,9326.594869
1527.037953,229.828649,-74.020594,9104.533087
1527.038282,153.219100,-74.020594,9178.553681
1527.038611,153.219100,-74.020594,9178.553681
1527.038940,459.657299,-148.041188,9400.615463
1527.039269,306.438199,-518.144159,9326.594869
1527.039598,459.657299,-370.102971,9252.574275
1527.039926,383.047749,-518.144159,8734.430116
1527.040255,306.438199,-222.061783,9030.512492
1527.040584,76.609550,-0.000000,9178.553681
1527.040913,229.828649,-0.000000,9030.512492
1527.041242,536.266849,-74.020594,8956.491898
1527.041571,229.828649,-296.082377,8808.450710
1527.041900,383.047749,-148.041188,9030.512492
1527.042228,919.314598,-370.102971,9178.553681
1527.042557,383.047749,-0.000000,9030.512492
1527.042886,459.657299,-0.000000,9030.512492
1527.043215,153.219100,-0.000000,8882.471304
1527.043544,153.219100,-148.041188,8882.471304
1527.043873,459.657299,-148.041188,8956.491898
1527.044202,383.047749,-148.041188,9030.512492
1527.044530,229.828649,-0.000000,9104.533087
1527.044859,76.609550,-74.020594,8956.491898
1527.045188,229.828649,-0.000000,8882.471304
1527.045517,229.828649,-0.000000,9030.512492
1527.045846,0.000000,-0.000000,8882.471304
1527.046175,229.828649,-74.020594,9178.553681
1527.046504,0.000000,-222.061783,9030.512492
1527.046832,612.876398,-148.041188,9104.533087
1527.047161,459.657299,-222.061783,9030.512492
1527.047490,306.438199,-0.000000,9178.553681
1527.047819,459.657299,-74.020594,9104.533087
1527.048148,536.266849,-74.020594,9326.594869
1527.048477,383.047749,-296.082377,9104.533087
1527.048806,306.438199,-148.041188,9474.636058
1527.049134,229.828649,-222.061783,9326.594869
1527.049463,229.828649,-518.144159,9474.636058
1527.049792,153.219100,-296.082377,9104.533087
1527.050121,459.657299,-222.061783,9400.615463
1527.050450,536.266849,-148.041188,9178.553681
1527.050779,306.438199,-148.041188,9474.636058
1527.051108,-229.828649,-518.144159,9400.615463
1527.051436,766.095498,-518.144159,8882.471304
1527.051765,689.485948,-74.020594,9178.553681
1527.052094,383.047749,-148.041188,9104.533087
1527.052423,459.657299,-370.102971,8956.491898
1527.052752,306.438199,-74.020594,8956.491898
1527.053081,842.705048,-148.041188,8882.471304
1527.053410,306.438199,-370.102971,9030.512492
1527.053739,612.876398,-444.123565,8956.491898
1527.054067,536.266849,-0.000000,9030.512492
1527.054396,306.438199,-74.020594,9030.512492
1527.054725,153.219100,-74.020594,9030.512492
1527.055054,383.047749,-0.000000,8882.471304
1527.055383,842.705048,-148.041188,8660.409521
1527.055712,306.438199,-222.061783,8808.450710
1527.056041,612.876398,-296.082377,8734.430116
1527.056369,0.000000,-222.061783,9104.533087
1527.056698,153.219100,-222.061783,8956.491898
1527.057027,306.438199,-74.020594,8956.491898
1527.057356,306.438199,-222.061783,8882.471304
1527.057685,229.828649,-444.123565,8956.491898
1527.058014,0.000000,-148.041188,9030.512492
1527.058343,153.219100,-0.000000,9104.533087
1527.058671,0.000000,-0.000000,9178.553681
1527.059000,306.438199,-148.041188,9030.512492
1527.059329,76.609550,-0.000000,9030.512492
1527.059658,306.438199,-0.000000,8956.491898
1527.059987,612.876398,-222.061783,9178.553681
1527.060316,459.657299,-666.185348,9178.553681
1527.060645,306.438199,-74.020594,8882.471304
1527.060973,153.219100,-222.061783,9400.615463
1527.061302,459.657299,-222.061783,9104.533087
1527.061631,383.047749,-74.020594,9104.533087
1527.061960,383.047749,-222.061783,9326.594869
1527.062289,459.657299,-518.144159,9104.533087
1527.062618,536.266849,-0.000000,9104.533087
1527.062947,612.876398,-222.061783,9326.594869
1527.063275,689.485948,-296.082377,9178.553681
1527.063604,459.657299,-0.000000,9178.553681
1527.063933,459.657299,-0.000000,8882.471304
1527.064262,76.609550,-0.000000,9030.512492
1527.064591,459.657299,-148.041188,8808.450710
1527.064920,459.657299,-370.102971,9030.512492
1527.065249,689.485948,-222.061783,8882.471304
1527.065577,0.000000,-222.061783,9252.574275
1527.065906,383.047749,-0.000000,8882.471304
1527.066235,306.438199,-0.000000,8956.491898
1527.066564,383.047749,-74.020594,8882.471304
1527.066893,306.438199,-148.041188,8734.430116
1527.067222,536.266849,-296.082377,9030.512492
1527.067551,612.876398,-74.020594,8882.471304
1527.067880,383.047749,-0.000000,8956.491898
1527.068208,306.438199,-0.000000,8882.471304
1527.068537,76.609550,-74.020594,8956.491898
1527.068866,229.828649,-148.041188,8882.471304
1527.069195,0.000000,-296.082377,9252.574275
1527.069524,306.438199,-0.000000,9400.615463
1527.069853,459.657299,-222.061783,9178.553681
1527.070182,383.047749,-0.000000,9326.594869
1527.070510,76.609550,-370.102971,9252.574275
1527.070839,383.047749,-148.041188,9104.533087
1527.071168,383.047749,-148.041188,9104.533087
1527.071497,612.876398,-296.082377,9252.574275
1527.071826,229.828649,-444.123565,9400.615463
1527.072155,459.657299,-0.000000,9178.553681
1527.072484,536.266849,-148.041188,9400.615463
1527.072812,306.438199,-74.020594,9252.574275
1527.073141,0.000000,-74.020594,9178.553681
1527.073470,383.047749,-222.061783,9104.533087
1527.073799,229.828649,-296.082377,9104.533087
1527.074128,536.266849,-74.020594,9400.615463
1527.074457,536.266849,-444.123565,9104.533087
1527.074786,536.266849,-148.041188,8882.471304
1527.075114,612.876398,-222.061783,9178.553681
1527.075443,612.876398,-444.123565,8882.471304
1527.075772,0.000000,-370.102971,9104.533087
1527.076101,536.266849,-0.000000,9104.533087
1527.076430,153.219100,-0.000000,8808.450710
1527.076759,229.828649,-296.082377,8808.450710
1527.077088,306.438199,-0.000000,8956.491898
1527.077416,536.266849,-148.041188,8808.450710
1527.077745,153.219100,-0.000000,8956.491898
1527.078074,76.609550,-0.000000,8956.491898
1527.078403,383.047749,-0.000000,8660.409521
1527.078732,153.219100,-0.000000,9104.533087
1527.079061,383.047749,-0.000000,8956.491898
1527.079390,383.047749,-74.020594,9030.512492
1527.079718,459.657299,-148.041188,9030.512492
1527.080047,76.609550,-296.082377,9252.574275
1527.080376,306.438199,-148.041188,9030.512492
1527.080705,306.438199,-74.020594,9104.533087
1527.081034,229.828649,-296.082377,8956.491898
1527.081363,459.657299,-296.082377,9178.553681
1527.081692,-459.657299,-74.020594,9104.533087
1527.082021,1149.143247,-518.144159,9400.615463
1527.082349,229.828649,370.102971,9474.636058
1527.082678,153.219100,-0.000000,9326.594869
1527.083007,459.657299,-0.000000,8882.471304
1527.083336,459.657299,-222.061783,9104.533087
1527.083665,459.657299,-148.041188,9326.594869
1527.083994,689.485948,-0.000000,9178.553681
1527.084323,306.438199,-814.226536,9252.574275
1527.084651,383.047749,-814.226536,9178.553681
1527.084980,536.266849,-444.123565,9252.574275
1527.085309,153.219100,-222.061783,9104.533087
1527.085638,229.828649,-370.102971,8956.491898
1527.085967,459.657299,-0.000000,8956.491898
1527.086296,689.485948,-0.000000,8734.430116
1527.086625,536.266849,-518.144159,8808.450710
1527.086953,0.000000,-222.061783,8956.491898
1527.087282,383.047749,-74.020594,9104.533087
1527.087611,383.047749,-148.041188,8734.430116
1527.087940,306.438199,-0.000000,8808.450710
1527.088269,229.828649,-0.000000,9030.512492
1527.088598,0.000000,-0.000000,9252.574275
1527.088927,306.438199,-0.000000,8882.471304
1527.089255,76.609550,-0.000000,9104.533087
1527.089584,383.047749,-74.020594,9030.512492
1527.089913,306.438199,-0.000000,8882.471304
1527.090242,383.047749,-0.000000,9104.533087
1527.090571,383.047749,-0.000000,8882.471304
1527.090900,689.485948,-444.123565,9178.553681
1527.091229,842.705048,-370.102971,8734.430116
1527.091557,383.047749,-0.000000,9474.636058
1527.091886,459.657299,-222.061783,9104.533087
1527.092215,229.828649,-222.061783,9178.553681
1527.092544,306.438199,-74.020594,9252.574275
1527.092873,306.438199,-222.061783,9178.553681
1527.093202,306.438199,-518.144159,9104.533087
1527.093531,76.609550,-592.164754,9326.594869
1527.093859,689.485948,-518.144159,8808.450710
1527.094188,306.438199,-148.041188,9104.533087
1527.094517,383.047749,-296.082377,9252.574275
1527.094846,229.828649,-296.082377,9326.594869
1527.095175,383.047749,-296.082377,9178.553681
1527.095504,229.828649,-74.020594,9400.615463
1527.095833,919.314598,-444.123565,9178.553681
1527.096161,766.095498,-74.020594,9104.533087
1527.096490,383.047749,-148.041188,8956.491898
1527.096819,383.047749,-148.041188,9104.533087
1527.097148,229.828649,-296.082377,9178.553681
1527.097477,383.047749,-148.041188,8808.450710
1527.097806,383.047749,-0.000000,9252.574275
1527.098135,153.219100,-296.082377,9178.553681
1527.098464,0.000000,-222.061783,8956.491898
1527.098792,766.095498,-148.041188,8734.430116
1527.099121,383.047749,-0.000000,8882.471304
1527.099450,76.609550,-74.020594,9104.533087
1527.099779,153.219100,-0.000000,8734.430116
1527.100108,0.000000,-296.082377,9104.533087
1527.100437,459.657299,-518.144159,8438.347739
1527.100766,0.000000,-296.082377,9030.512492
1527.101094,76.609550,-296.082377,9104.533087
1527.101423,76.609550,-74.020594,8734.430116
1527.101752,153.219100,-0.000000,9030.512492
1527.102081,306.438199,-0.000000,9104.533087
1527.102410,689.485948,-0.000000,8956.491898
1527.102739,536.266849,-148.041188,9104.533087
1527.103068,383.047749,-0.000000,9252.574275
1527.103396,306.438199,-370.102971,9030.512492
1527.103725,229.828649,-148.041188,9104.533087
1527.104054,229.828649,-74.020594,9104.533087
1527.104383,153.219100,-148.041188,9252.574275
1527.104712,383.047749,-444.123565,8734.430116
1527.105041,-229.828649,-148.041188,9474.636058
1527.105370,76.609550,-518.144159,9178.553681
1527.105698,229.828649,-444.123565,9178.553681
1527.106027,459.657299,-74.020594,9252.574275
1527.106356,153.219100,-296.082377,9178.553681
1527.106685,229.828649,-222.061783,9326.594869
1527.107014,459.657299,-222.061783,9178.553681
1527.107343,459.657299,-370.102971,8956.491898
1527.107672,459.657299,-370.102971,9178.553681
1527.108000,459.657299,-518.144159,9104.533087
1527.108329,153.219100,-74.020594,9178.553681
1527.108658,306.438199,-222.061783,9104.533087
1527.108987,459.657299,-222.061783,8956.491898
1527.109316,306.438199,-444.123565,8882.471304
1527.109645,612.876398,-148.041188,8956.491898
1527.109974,383.047749,-296.082377,8808.450710
1527.110302,229.828649,-0.000000,9326.594869
1527.110631,153.219100,-0.000000,8956.491898
1527.110960,383.047749,-74.020594,8734.430116
1527.111289,536.266849,-0.000000,8882.471304
1527.111618,153.219100,148.041188,9474.636058
1527.111947,459.657299,-518.144159,9030.512492
1527.112276,459.657299,-222.061783,8956.491898
1527.112605,383.047749,-0.000000,9178.553681
1527.112933,229.828649,-0.000000,8882.471304
1527.113262,383.047749,-148.041188,9030.512492
1527.113591,459.657299,-74.020594,9104.533087
1527.113920,612.876398,-148.041188,9104.533087
1527.114249,766.095498,-222.061783,9104.533087
1527.114578,459.657299,-296.082377,9326.594869
1527.114907,689.485948,-370.102971,9326.594869
1527.115235,229.828649,-222.061783,9104.533087
1527.115564,459.657299,-222.061783,9178.553681
1527.115893,459.657299,-222.061783,9326.594869
1527.116222,0.000000,-444.123565,9104.533087
1527.116551,459.657299,-148.041188,9252.574275
1527.116880,459.657299,-296.082377,9474.636058
1527.117209,766.095498,-444.123565,9326.594869
1527.117537,536.266849,-296.082377,9104.533087
1527.117866,153.219100,-370.102971,9178.553681
1527.118195,383.047749,-370.102971,9030.512492
1527.118524,306.438199,-296.082377,9030.512492
1527.118853,536.266849,-0.000000,9030.512492
1527.119182,536.266849,-222.061783,9104.533087
1527.119511,383.047749,-148.041188,8956.491898
1527.119839,536.266849,-74.020594,9474.636058
1527.120168,536.266849,-222.061783,8882.471304
1527.120497,383.047749,-0.000000,8882.471304
1527.120826,229.828649,-0.000000,9104.533087
1527.121155,229.828649,-148.041188,8734.430116
1527.121484,229.828649,-0.000000,8882.471304
1527.121813,383.047749,-148.041188,8586.388927
1527.122141,689.485948,-222.061783,9030.512492
1527.122470,689.485948,-518.144159,9104.533087
1527.122799,383.047749,-148.041188,8956.491898
1527.123128,306.438199,-74.020594,8808.450710
1527.123457,306.438199,-148.041188,8882.471304
1527.123786,76.609550,-0.000000,8956.491898
1527.124115,-229.828649,-74.020594,9104.533087
1527.124443,612.876398,-0.000000,9104.533087
1527.124772,459.657299,-444.123565,8956.491898
1527.125101,0.000000,-296.082377,9104.533087
1527.125430,229.828649,-370.102971,9178.553681
1527.125759,383.047749,-296.082377,8956.491898
1527.126088,229.828649,-222.061783,9104.533087
1527.126417,383.047749,-296.082377,9104.533087
1527.126746,306.438199,-1036.288319,8808.450710
1527.127074,0.000000,-518.144159,9252.574275
1527.127403,459.657299,-148.041188,9030.512492
1527.127732,306.438199,-444.123565,8956.491898
1527.128061,306.438199,-148.041188,9474.636058
1527.128390,612.876398,-74.020594,9252.574275
1527.128719,383.047749,-148.041188,9178.553681
1527.129048,76.609550,-222.061783,9400.615463
1527.129376,766.095498,-296.082377,9326.594869
1527.129705,306.438199,-444.123565,9252.574275
1527.130034,306.438199,-0.000000,9104.533087
1527.130363,229.828649,-74.020594,9104.533087
1527.130692,306.438199,-74.020594,9104.533087
1527.131021,76.609550,-74.020594,9030.512492
1527.131350,229.828649,148.041188,8808.450710
1527.131678,459.657299,-0.000000,9252.574275
1527.132007,383.047749,-296.082377,8586.388927
1527.132336,536.266849,-148.041188,8808.450710
1527.132665,153.219100,-148.041188,8808.450710
1527.132994,306.438199,-222.061783,9104.533087
1527.133323,229.828649,-0.000000,9104.533087
1527.133652,536.266849,-148.041188,9178.553681
1527.133980,153.219100,518.144159,9252.574275
1527.134309,0.000000,-74.020594,8956.491898
1527.134638,229.828649,-74.020594,8734.430116
1527.134967,229.828649,-0.000000,8808.450710
1527.135296,306.438199,-74.020594,9030.512492
1527.135625,995.924147,-148.041188,9030.512492
1527.135954,536.266849,-222.061783,9326.594869
1527.136282,459.657299,148.041188,9178.553681
1527.136611,0.000000,-222.061783,9178.553681
1527.136940,306.438199,-74.020594,9252.574275
1527.137269,383.047749,-74.020594,9104.533087
1527.137598,229.828649,-222.061783,9178.553681
1527.137927,536.266849,-222.061783,9252.574275
1527.138256,306.438199,-222.061783,9252.574275
1527.138584,0.000000,-370.102971,9252.574275
1527.138913,459.657299,-444.123565,9252.574275
1527.139242,153.219100,-148.041188,9326.594869
1527.139571,306.438199,-222.061783,9178.553681
1527.139900,306.438199,-296.082377,9252.574275
1527.140229,383.047749,-444.123565,9104.533087
1527.140558,612.876398,-370.102971,9104.533087
1527.140887,306.438199,-0.000000,9178.553681
1527.141215,229.828649,-296.082377,9104.533087
1527.141544,229.828649,-148.041188,9104.533087
1527.141873,383.047749,-74.020594,8956.491898
1527.142202,383.047749,-0.000000,9178.553681
1527.142531,536.266849,-296.082377,9030.512492
1527.142860,-153.219100,-74.020594,9400.615463
1527.143189,612.876398,-370.102971,8882.471304
1527.143518,0.000000,-370.102971,8438.347739
1527.143847,229.828649,-0.000000,8956.491898
1527.144175,229.828649,-0.000000,8956.491898
1527.144504,306.438199,-0.000000,8882.471304
1527.144833,229.828649,-74.020594,9030.512492
1527.145162,383.047749,-222.061783,8956.491898
1527.145491,229.828649,-222.061783,9252.574275
1527.145820,0.000000,-222.061783,9030.512492
1527.146149,153.219100,-74.020594,8956.491898
1527.146478,306.438199,-148.041188,9104.533087
1527.146807,229.828649,-148.041188,8882.471304
1527.147135,612.876398,-148.041188,8882.471304
1527.147464,536.266849,-370.102971,9252.574275
1527.147793,0.000000,-0.000000,9178.553681
1527.148122,459.657299,-592.164754,9030.512492
1527.148451,229.828649,-74.020594,9178.553681
1527.148780,229.828649,-74.020594,8956.491898
1527.149109,229.828649,-0.000000,8956.491898
1527.149438,766.095498,-740.205942,9178.553681
1527.149767,383.047749,-518.144159,9030.512492
1527.150095,536.266849,-148.041188,9030.512492
1527.150424,229.828649,-74.020594,9474.636058
1527.150753,383.047749,-370.102971,9326.594869
1527.151082,383.047749,-370.102971,9104.533087
1527.151411,383.047749,-296.082377,9252.574275
1527.151740,536.266849,-518.144159,9178.553681
1527.152069,383.047749,-148.041188,9474.636058
1527.152398,612.876398,-296.082377,9252.574275
1527.152726,383.047749,-296.082377,9104.533087
1527.153055,153.219100,-0.000000,8956.491898
1527.153384,229.828649,-74.020594,8956.491898
1527.153713,306.438199,-0.000000,9104.533087
1527.154042,-229.828649,-296.082377,8808.450710
1527.154371,76.609550,-444.123565,8956.491898
1527.154700,383.047749,-0.000000,8882.471304
1527.155029,229.828649,-0.000000,9326.594869
1527.155358,536.266849,-0.000000,9030.512492
1527.155686,383.047749,-0.000000,8808.450710
1527.156015,153.219100,-74.020594,8956.491898
1527.156344,229.828649,222.061783,9400.615463
1527.156673,153.219100,-296.082377,9104.533087
1527.157002,153.219100,-222.061783,9030.512492
1527.157331,383.047749,-148.041188,9030.512492
1527.157660,306.438199,-74.020594,9030.512492
1527.157989,153.219100,-0.000000,9104.533087
1527.158318,153.219100,-74.020594,8882.471304
1527.158646,76.609550,-0.000000,9400.615463
1527.158975,459.657299,-0.000000,9474.636058
1527.159304,229.828649,-296.082377,9178.553681
1527.159633,383.047749,-518.144159,9178.553681
1527.159962,306.438199,-222.061783,9030.512492
1527.160291,459.657299,-148.041188,9178.553681
1527.160620,459.657299,-370.102971,9030.512492
1527.160949,1072.533697,-444.123565,9400.615463
1527.161278,306.438199,-0.000000,9326.594869
1527.161606,383.047749,-666.185348,9178.553681
1527.161935,689.485948,-222.061783,9474.636058
1527.162264,383.047749,-74.020594,9326.594869
1527.162593,229.828649,-0.000000,9326.594869
1527.162922,306.438199,-0.000000,9326.594869
1527.163251,0.000000,-74.020594,8956.491898
1527.163580,612.876398,-74.020594,9104.533087
1527.163909,383.047749,-296.082377,9178.553681
1527.164237,459.657299,-370.102971,9030.512492
1527.164566,229.828649,-74.020594,8882.471304
1527.164895,536.266849,-0.000000,9178.553681
1527.165224,229.828649,-0.000000,8956.491898
1527.165553,536.266849,-74.020594,9178.553681
1527.165882,229.828649,-0.000000,9178.553681
1527.166211,536.266849,-370.102971,9030.512492
1527.166540,459.657299,-148.041188,8956.491898
1527.166869,306.438199,-222.061783,8734.430116
1527.167197,306.438199,-0.000000,8956.491898
1527.167526,459.657299,-0.000000,8882.471304
1527.167855,76.609550,-74.020594,8882.471304
1527.168184,76.609550,-0.000000,8956.491898
1527.168513,306.438199,296.082377,9622.677246
1527.168842,229.828649,-74.020594,9030.512492
1527.169171,0.000000,-222.061783,9252.574275
1527.169500,229.828649,-222.061783,9104.533087
1527.169829,383.047749,-370.102971,9104.533087
1527.170157,459.657299,-444.123565,8956.491898
1527.170486,383.047749,-592.164754,9030.512492
1527.170815,536.266849,-518.144159,9252.574275
1527.171144,306.438199,-444.123565,9178.553681
1527.171473,383.047749,-0.000000,9326.594869
1527.171802,229.828649,-74.020594,9104.533087
1527.172131,153.219100,-148.041188,9252.574275
1527.172460,383.047749,-74.020594,9252.574275
1527.172789,766.095498,-518.144159,9326.594869
1527.173117,306.438199,-444.123565,8956.491898
1527.173446,383.047749,-0.000000,9400.615463
1527.173775,383.047749,-296.082377,8956.491898
1527.174104,229.828649,-74.020594,9178.553681
1527.174433,612.876398,-296.082377,8956.491898
1527.174762,766.095498,-0.000000,9030.512492
1527.175091,536.266849,-148.041188,9030.512492
1527.175420,153.219100,-296.082377,8956.491898
1527.175748,229.828649,-74.020594,9326.594869
1527.176077,459.657299,-0.000000,9030.512492
1527.176406,229.828649,-0.000000,9104.533087
1527.176735,229.828649,-148.041188,8956.491898
1527.177064,306.438199,-74.020594,8956.491898
1527.177393,0.000000,-74.020594,9104.533087
1527.177722,919.314598,-0.000000,9252.574275
1527.178051,459.657299,-222.061783,9104.533087
1527.178380,383.047749,-0.000000,8882.471304
1527.178708,306.438199,-74.020594,8808.450710
1527.179037,383.047749,-0.000000,8956.491898
1527.179366,536.266849,-0.000000,8808.450710
1527.179695,76.609550,-0.000000,8956.491898
1527.180024,612.876398,-222.061783,9104.533087
1527.180353,689.485948,-444.123565,9104.533087
1527.180682,153.219100,-222.061783,9178.553681
1527.181011,153.219100,-148.041188,9104.533087
1527.181340,229.828649,-222.061783,9252.574275
1527.181668,306.438199,-0.000000,9326.594869
1527.181997,536.266849,-148.041188,9474.636058
1527.182326,153.219100,-296.082377,9252.574275
1527.182655,0.000000,-370.102971,9326.594869
1527.182984,383.047749,-296.082377,9104.533087
1527.183313,459.657299,-0.000000,9104.533087
1527.183642,536.266849,-222.061783,9178.553681
1527.183971,306.438199,-222.061783,9252.574275
1527.184300,153.219100,-518.144159,9104.533087
1527.184628,766.095498,-370.102971,9326.594869
1527.184957,153.219100,222.061783,9474.636058
1527.185286,229.828649,-296.082377,8956.491898
1527.185615,76.609550,-148.041188,9252.574275
1527.185944,153.219100,-0.000000,9178.553681
1527.186273,229.828649,-0.000000,9178.553681
1527.186602,229.828649,-0.000000,9030.512492
1527.186931,766.095498,-0.000000,9104.533087
1527.187259,842.705048,-0.000000,8882.471304
1527.187588,383.047749,-0.000000,8882.471304
1527.187917,383.047749,-0.000000,9030.512492
1527.188246,383.047749,-0.000000,9104.533087
1527.188575,306.438199,-148.041188,8882.471304
1527.188904,-153.219100,-0.000000,9104.533087
1527.189233,612.876398,-296.082377,9104.533087
1527.189562,689.485948,-296.082377,9030.512492
1527.189891,459.657299,-74.020594,8734.430116
1527.190219,536.266849,-0.000000,8882.471304
1527.190548,306.438199,-0.000000,8882.471304
1527.190877,229.828649,-0.000000,9178.553681
1527.191206,536.266849,-148.041188,9030.512492
1527.191535,306.438199,-740.205942,8586.388927
1527.191864,229.828649,-0.000000,9178.553681
1527.192193,383.047749,-444.123565,9252.574275
1527.192522,306.438199,-296.082377,9104.533087
1527.192851,383.047749,-222.061783,8956.491898
1527.193179,76.609550,-222.061783,9104.533087
1527.193508,0.000000,-0.000000,9474.636058
1527.193837,1072.533697,-444.123565,9104.533087
1527.194166,766.095498,-296.082377,9178.553681
1527.194495,0.000000,-74.020594,9400.615463
1527.194824,76.609550,-222.061783,9252.574275
1527.195153,536.266849,-222.061783,9326.594869
1527.195482,229.828649,-296.082377,9252.574275
1527.195811,459.657299,-74.020594,9326.594869
1527.196139,612.876398,-444.123565,9178.553681
1527.196468,306.438199,-592.164754,9474.636058
1527.196797,229.828649,-222.061783,9178.553681
1527.197126,76.609550,-296.082377,8956.491898
1527.197455,306.438199,-148.041188,9178.553681
1527.197784,306.438199,-74.020594,8882.471304
1527.198113,536.266849,-222.061783,8808.450710
1527.198442,536.266849,-74.020594,8734.430116
1527.198770,0.000000,-296.082377,9104.533087
1527.199099,229.828649,-148.041188,9030.512492
1527.199428,459.657299,-74.020594,8882.471304
1527.199757,459.657299,-0.000000,9030.512492
1527.200086,229.828649,-148.041188,8956.491898
1527.200415,459.657299,222.061783,8808.450710
1527.200744,229.828649,-0.000000,9104.533087
1527.201073,306.438199,148.041188,9104.533087
1527.201402,306.438199,-74.020594,8660.409521
1527.201730,229.828649,-0.000000,8956.491898
1527.202059,229.828649,-0.000000,8956.491898
1527.202388,383.047749,-74.020594,8882.471304
1527.202717,612.876398,-370.102971,9104.533087
1527.203046,842.705048,-444.123565,9178.553681
1527.203375,459.657299,-0.000000,9178.553681
1527.203704,306.438199,-370.102971,9104.533087
1527.204033,229.828649,-370.102971,9252.574275
1527.204362,306.438199,-296.082377,9178.553681
1527.204690,612.876398,-222.061783,9104.533087
1527.205019,229.828649,-444.123565,9178.553681
1527.205348,536.266849,-444.123565,9104.533087
1527.205677,1072.533697,-222.061783,9400.615463
1527.206006,76.609550,-222.061783,8808.450710
1527.206335,459.657299,-148.041188,9252.574275
1527.206664,229.828649,-222.061783,9104.533087
1527.206993,76.609550,-222.061783,9326.594869
1527.207322,383.047749,-444.123565,9178.553681
1527.207650,153.219100,-518.144159,9178.553681
1527.207979,306.438199,-148.041188,8956.491898
1527.208308,383.047749,-74.020594,9326.594869
1527.208637,383.047749,-222.061783,9178.553681
1527.208966,689.485948,-74.020594,8808.450710
1527.209295,383.047749,-0.000000,8882.471304
1527.209624,459.657299,222.061783,8956.491898
1527.209953,459.657299,-0.000000,8882.471304
1527.210281,842.705048,-0.000000,9252.574275
1527.210610,612.876398,-148.041188,8882.471304
1527.210939,612.876398,-370.102971,8882.471304
1527.211268,153.219100,-74.020594,9178.553681
1527.211597,76.609550,-0.000000,9104.533087
1527.211926,229.828649,-74.020594,8808.450710
1527.212255,383.047749,-0.000000,8882.471304
1527.212584,383.047749,-0.000000,8956.491898
1527.212913,536.266849,370.102971,9030.512492
1527.213241,153.219100,-222.061783,9030.512492
1527.213570,536.266849,-0.000000,9178.553681
1527.213899,383.047749,-74.020594,8882.471304
1527.214228,0.000000,-296.082377,9030.512492
1527.214557,153.219100,-222.061783,9252.574275
1527.214886,383.047749,-148.041188,9104.533087
1527.215215,612.876398,-518.144159,9326.594869
1527.215544,459.657299,-222.061783,8956.491898
1527.215873,383.047749,-148.041188,9178.553681
1527.216201,383.047749,-296.082377,9030.512492
1527.216530,536.266849,-296.082377,9252.574275
1527.216859,229.828649,-148.041188,9326.594869
1527.217188,536.266849,-74.020594,9326.594869
1527.217517,689.485948,-222.061783,9104.533087
1527.217846,383.047749,-370.102971,9104.533087
1527.218175,536.266849,-444.123565,9326.594869
1527.218504,536.266849,-222.061783,9178.553681
1527.218833,306.438199,-0.000000,9326.594869
1527.219161,383.047749,-148.041188,9104.533087
1527.219490,153.219100,-0.000000,9030.512492
1527.219819,229.828649,-74.020594,9252.574275
1527.220148,459.657299,-296.082377,9326.594869
1527.220477,306.438199,-74.020594,9326.594869
1527.220806,306.438199,-148.041188,9178.553681
1527.221135,229.828649,-0.000000,9178.553681
1527.221464,76.609550,-222.061783,8808.450710
1527.221792,306.438199,-222.061783,9104.533087
1527.222121,0.000000,-0.000000,8956.491898
1527.222450,842.705048,-148.041188,9252.574275
1527.222779,842.705048,-370.102971,9030.512492
1527.223108,459.657299,-74.020594,8808.450710
1527.223437,383.047749,-0.000000,8882.471304
1527.223766,459.657299,-148.041188,8882.471304
1527.224095,0.000000,-0.000000,8956.491898
1527.224424,229.828649,-74.020594,9030.512492
1527.224752,536.266849,-296.082377,8734.430116
1527.225081,383.047749,-296.082377,8956.491898
1527.225410,383.047749,-222.061783,9104.533087
1527.225739,383.047749,-222.061783,9030.512492
1527.226068,229.828649,-222.061783,9178.553681
1527.226397,76.609550,-148.041188,9252.574275
1527.226726,-153.219100,-74.020594,9474.636058
1527.227055,536.266849,-222.061783,9030.512492
1527.227384,536.266849,-74.020594,9104.533087
1527.227712,536.266849,-74.020594,9326.594869
1527.228041,229.828649,-148.041188,9030.512492
1527.228370,306.438199,-222.061783,9326.594869
1527.228699,383.047749,-222.061783,9178.553681
1527.229028,536.266849,-296.082377,9252.574275
1527.229357,153.219100,-666.185348,8512.368333
1527.229686,383.047749,-296.082377,9326.594869
1527.230015,536.266849,-148.041188,9252.574275
1527.230344,153.219100,-0.000000,9030.512492
1527.230672,383.047749,-148.041188,9104.533087
1527.231001,229.828649,-0.000000,9104.533087
1527.231330,919.314598,-370.102971,8734.430116
1527.231659,306.438199,-148.041188,9252.574275
1527.231988,459.657299,-74.020594,8882.471304
1527.232317,229.828649,-0.000000,8660.409521
1527.232646,229.828649,-0.000000,8882.471304
1527.232975,383.047749,-74.020594,9104.533087
1527.233303,459.657299,-74.020594,8808.450710
1527.233632,766.095498,-222.061783,9104.533087
1527.233961,0.000000,-148.041188,9400.615463
1527.234290,76.609550,-592.164754,9104.533087
1527.234619,383.047749,-296.082377,9178.553681
1527.234948,153.219100,-222.061783,9104.533087
1527.235277,383.047749,-74.020594,8882.471304
1527.235606,306.438199,-74.020594,9030.512492
1527.235935,306.438199,-0.000000,9178.553681
1527.236263,0.000000,-148.041188,9178.553681
1527.236592,766.095498,-296.082377,9104.533087
1527.236921,383.047749,148.041188,9030.512492
1527.237250,459.657299,-0.000000,9104.533087
1527.237579,459.657299,-222.061783,9326.594869
1527.237908,306.438199,-370.102971,9178.553681
1527.238237,306.438199,-444.123565,9474.636058
1527.238566,153.219100,-740.205942,9252.574275
1527.238895,536.266849,-370.102971,9178.553681
1527.239223,383.047749,-222.061783,9326.594869
1527.239552,306.438199,-222.061783,9178.553681
1527.239881,306.438199,-222.061783,9104.533087
1527.240210,459.657299,-74.020594,9104.533087
1527.240539,306.438199,296.082377,9178.553681
1527.240868,76.609550,-148.041188,9400.615463
1527.241197,306.438199,-148.041188,9252.574275
1527.241526,459.657299,-0.000000,9030.512492
1527.241855,0.000000,-0.000000,9104.533087
1527.242183,229.828649,-74.020594,9104.533087
1527.242512,229.828649,-222.061783,8956.491898
1527.242841,306.438199,-74.020594,9104.533087
1527.243170,536.266849,-222.061783,9252.574275
1527.243499,0.000000,-148.041188,9252.574275
1527.243828,306.438199,-148.041188,9104.533087
1527.244156,383.047749,-0.000000,8808.450710
1527.244485,459.657299,-0.000000,8734.430116
1527.244814,0.000000,74.020594,9030.512492
1527.245143,306.438199,-222.061783,8660.409521
1527.245472,76.609550,-74.020594,8956.491898
1527.245801,76.609550,-74.020594,9178.553681
1527.246129,306.438199,-222.061783,8586.388927
1527.246458,229.828649,-222.061783,8956.491898
1527.246787,229.828649,-148.041188,8956.491898
1527.247116,229.828649,-148.041188,8956.491898
1527.247445,459.657299,-296.082377,8882.471304
1527.247774,0.000000,-222.061783,9030.512492
1527.248102,229.828649,-148.041188,9326.594869
1527.248431,229.828649,-444.123565,8882.471304
1527.248760,229.828649,-148.041188,9104.533087
1527.249089,536.266849,-74.020594,9326.594869
1527.249418,229.828649,-370.102971,9104.533087
1527.249747,383.047749,-444.123565,9400.615463
1527.250076,306.438199,-296.082377,9178.553681
1527.250404,842.705048,-296.082377,9326.594869
1527.250733,459.657299,-444.123565,9474.636058
1527.251062,612.876398,-444.123565,9326.594869
1527.251391,229.828649,-518.144159,9030.512492
1527.251720,383.047749,-0.000000,9104.533087
1527.252049,229.828649,-148.041188,9104.533087
1527.252377,306.438199,-74.020594,9178.553681
1527.252706,306.438199,-222.061783,9104.533087
1527.253035,-306.438199,-444.123565,9326.594869
1527.253364,536.266849,-444.123565,8956.491898
1527.253693,0.000000,-74.020594,9252.574275
1527.254022,153.219100,-0.000000,8956.491898
1527.254350,306.438199,-0.000000,8808.450710
1527.254679,229.828649,-0.000000,8882.471304
1527.255008,536.266849,-0.000000,8882.471304
1527.255337,536.266849,-0.000000,8660.409521
1527.255666,383.047749,-148.041188,9030.512492
1527.255995,306.438199,-0.000000,9178.553681
1527.256323,0.000000,-0.000000,9030.512492
1527.256652,383.047749,-148.041188,8808.450710
1527.256981,229.828649,-148.041188,9030.512492
1527.257310,229.828649,-0.000000,9178.553681
1527.257639,612.876398,-0.000000,9178.553681
1527.257968,153.219100,-148.041188,9178.553681
1527.258297,383.047749,-148.041188,9030.512492
1527.258625,459.657299,-222.061783,9030.512492
1527.258954,383.047749,-148.041188,9030.512492
1527.259283,306.438199,-0.000000,9030.512492
1527.259612,689.485948,-370.102971,8956.491898
1527.259941,306.438199,-740.205942,9326.594869
1527.260270,766.095498,-518.144159,8660.409521
1527.260598,383.047749,-222.061783,9252.574275
1527.260927,306.438199,-296.082377,9326.594869
1527.261256,306.438199,-296.082377,9252.574275
1527.261585,0.000000,-222.061783,9178.553681
1527.261914,153.219100,-666.185348,9252.574275
1527.262243,229.828649,-444.123565,9252.574275
1527.262571,383.047749,-370.102971,8882.471304
1527.262900,1149.143247,-444.123565,9030.512492
1527.263229,459.657299,-74.020594,9030.512492
1527.263558,383.047749,-148.041188,9030.512492
1527.263887,536.266849,-0.000000,8882.471304
1527.264216,229.828649,-0.000000,9104.533087
1527.264544,536.266849,-666.185348,9030.512492
1527.264873,995.924147,-222.061783,9104.533087
1527.265202,76.609550,-148.041188,9326.594869
1527.265531,306.438199,-74.020594,8882.471304
1527.265860,383.047749,-0.000000,9030.512492
1527.266189,306.438199,-0.000000,8808.450710
1527.266518,459.657299,-222.061783,8808.450710
1527.266846,383.047749,-0.000000,9104.533087
1527.267175,153.219100,-0.000000,9104.533087
1527.267504,229.828649,-222.061783,9178.553681
1527.267833,229.828649,-0.000000,9030.512492
1527.268162,76.609550,-0.000000,9030.512492
1527.268491,306.438199,-0.000000,8956.491898
1527.268819,459.657299,-0.000000,8956.491898
1527.269148,383.047749,-296.082377,9104.533087
1527.269477,0.000000,-222.061783,9178.553681
1527.269806,306.438199,-444.123565,8808.450710
1527.270135,536.266849,-148.041188,9104.533087
1527.270464,229.828649,-222.061783,9104.533087
1527.270792,306.438199,-296.082377,9104.533087
1527.271121,306.438199,-0.000000,9178.553681
1527.271450,612.876398,-0.000000,9178.553681
1527.271779,383.047749,-0.000000,9400.615463
1527.272108,-229.828649,-222.061783,9548.656652
1527.272437,306.438199,-0.000000,9400.615463
1527.272765,306.438199,-74.020594,9104.533087
1527.273094,306.438199,-74.020594,8956.491898
1527.273423,229.828649,-148.041188,8808.450710
1527.273752,766.095498,-370.102971,9400.615463
1527.274081,459.657299,-296.082377,9474.636058
1527.274410,383.047749,-296.082377,9104.533087
1527.274739,229.828649,-0.000000,9178.553681
1527.275067,229.828649,-74.020594,8808.450710
1527.275396,306.438199,-0.000000,9030.512492
1527.275725,536.266849,-0.000000,8882.471304
1527.276054,842.705048,-74.020594,8956.491898
1527.276383,383.047749,-444.123565,9104.533087
1527.276712,306.438199,-222.061783,9104.533087
1527.277040,229.828649,-0.000000,8882.471304
1527.277369,229.828649,-296.082377,8882.471304
1527.277698,229.828649,-74.020594,8956.491898
1527.278027,153.219100,-74.020594,8956.491898
1527.278356,383.047749,-296.082377,8882.471304
1527.278685,536.266849,-370.102971,9104.533087
1527.279013,459.657299,-0.000000,9326.594869
1527.279342,383.047749,-0.000000,8956.491898
1527.279671,153.219100,-0.000000,9104.533087
1527.280000,459.657299,-74.020594,9104.533087
1527.280329,229.828649,-222.061783,9030.512492
1527.280658,306.438199,-0.000000,9030.512492
1527.280986,76.609550,-444.123565,9326.594869
1527.281315,766.095498,-148.041188,9252.574275
1527.281644,229.828649,-296.082377,9178.553681
1527.281973,612.876398,-222.061783,9252.574275
1527.282302,306.438199,-444.123565,9104.533087
1527.282631,306.438199,-0.000000,9178.553681
1527.282960,306.438199,-518.144159,9326.594869
1527.283288,229.828649,-592.164754,8586.388927
1527.283617,689.485948,-296.082377,9030.512492
1527.283946,459.657299,-148.041188,9252.574275
1527.284275,229.828649,-74.020594,9178.553681
1527.284604,383.047749,-222.061783,9178.553681
1527.284933,383.047749,-296.082377,9178.553681
1527.285261,459.657299,-74.020594,9252.574275
1527.285590,689.485948,-148.041188,8734.430116
1527.285919,383.047749,-222.061783,9178.553681
1527.286248,153.219100,-296.082377,9030.512492
1527.286577,536.266849,-0.000000,9030.512492
1527.286906,229.828649,-0.000000,8882.471304
1527.287234,383.047749,-222.061783,8808.450710
1527.287563,689.485948,-0.000000,9326.594869
1527.287892,306.438199,-370.102971,9030.512492
1527.288221,766.095498,-74.020594,9104.533087
1527.288550,306.438199,-0.000000,8956.491898
1527.288879,459.657299,-0.000000,8734.430116
1527.289207,229.828649,-74.020594,8808.450710
1527.289536,383.047749,-0.000000,8956.491898
1527.289865,306.438199,-0.000000,9178.553681
1527.290194,0.000000,-0.000000,9104.533087
1527.290523,-459.657299,-148.041188,9178.553681
1527.290852,76.609550,-0.000000,8956.491898
1527.291180,229.828649,-222.061783,8882.471304
1527.291509,306.438199,-0.000000,9178.553681
1527.291838,153.219100,-222.061783,9104.533087
1527.292167,229.828649,-370.102971,9178.553681
1527.292496,383.047749,-0.000000,9030.512492
1527.292825,229.828649,-370.102971,9252.574275
1527.293154,306.438199,-518.144159,9252.574275
1527.293482,612.876398,-444.123565,8808.450710
1527.293811,536.266849,-0.000000,9178.553681
1527.294140,153.219100,-0.000000,9178.553681
1527.294469,229.828649,-222.061783,9178.553681
1527.294798,306.438199,-222.061783,9104.533087
1527.295127,306.438199,-222.061783,9178.553681
1527.295455,153.219100,-444.123565,9178.553681
1527.295784,536.266849,-222.061783,9326.594869
1527.296113,689.485948,-666.185348,9252.574275
1527.296442,306.438199,-148.041188,9030.512492
1527.296771,536.266849,-74.020594,9030.512492
1527.297100,306.438199,-222.061783,9030.512492
1527.297428,-229.828649,-296.082377,9030.512492
1527.297757,383.047749,-296.082377,9104.533087
1527.298086,306.438199,-0.000000,9104.533087
1527.298415,612.876398,-0.000000,9252.574275
1527.298744,383.047749,-0.000000,8956.491898
1527.299073,153.219100,-74.020594,9030.512492
1527.299401,306.438199,-0.000000,8956.491898
1527.299730,689.485948,-74.020594,8956.491898
1527.300059,689.485948,-296.082377,9030.512492
1527.300388,229.828649,-296.082377,8956.491898
1527.300717,0.000000,-74.020594,9400.615463
1527.301046,459.657299,-0.000000,9030.512492
1527.301375,0.000000,-0.000000,8882.471304
1527.301703,306.438199,-74.020594,9030.512492
1527.302032,306.438199,370.102971,9178.553681
1527.302361,229.828649,-444.123565,9326.594869
1527.302690,383.047749,-444.123565,9178.553681
1527.303019,229.828649,-148.041188,9474.636058
1527.303348,76.609550,-222.061783,9030.512492
1527.303676,306.438199,-74.020594,8956.491898
1527.304005,459.657299,-222.061783,9178.553681
1527.304334,536.266849,-74.020594,9252.574275
1527.304663,459.657299,-0.000000,8882.471304
1527.304992,306.438199,-222.061783,9252.574275
1527.305321,536.266849,-222.061783,9474.636058
1527.305649,306.438199,-222.061783,9252.574275
1527.305978,306.438199,-148.041188,9252.574275
1527.306307,383.047749,-74.020594,9326.594869
1527.306636,689.485948,-74.020594,9474.636058
1527.306965,536.266849,-0.000000,9178.553681
1527.307294,306.438199,-370.102971,9030.512492
1527.307622,459.657299,-370.102971,9104.533087
1527.307951,306.438199,-74.020594,8956.491898
1527.308280,229.828649,-0.000000,9178.553681
1527.308609,536.266849,-222.061783,9104.533087
1527.308938,229.828649,-0.000000,9030.512492
1527.309267,536.266849,-444.123565,9178.553681
1527.309596,766.095498,-148.041188,8734.430116
1527.309924,459.657299,-222.061783,8734.430116
1527.310253,153.219100,-74.020594,8734.430116
1527.310582,229.828649,-222.061783,9030.512492
1527.310911,306.438199,-0.000000,9030.512492
1527.311240,306.438199,-444.123565,9030.512492
1527.311569,229.828649,-74.020594,8956.491898
1527.311897,306.438199,-222.061783,8734.430116
1527.312226,383.047749,296.082377,9178.553681
1527.312555,306.438199,-148.041188,8882.471304
1527.312884,306.438199,-74.020594,8956.491898
1527.313213,153.219100,-74.020594,8882.471304
1527.313542,612.876398,-518.144159,9104.533087
1527.313870,612.876398,-592.164754,9178.553681
1527.314199,995.924147,-740.205942,9030.512492
1527.314528,0.000000,-370.102971,9178.553681
1527.314857,153.219100,-370.102971,9104.533087
1527.315186,153.219100,-222.061783,8956.491898
1527.315515,229.828649,-74.020594,9252.574275
1527.315843,842.705048,-444.123565,9474.636058
1527.316172,383.047749,-0.000000,9474.636058
1527.316501,229.828649,-444.123565,9474.636058
1527.316830,229.828649,-888.247130,9252.574275
1527.317159,383.047749,-74.020594,9104.533087
1527.317488,306.438199,-370.102971,8956.491898
1527.317817,229.828649,-74.020594,9104.533087
1527.318145,229.828649,-148.041188,9400.615463
1527.318474,612.876398,-148.041188,9252.574275
1527.318803,153.219100,-148.041188,9326.594869
1527.319132,383.047749,-296.082377,9030.512492
1527.319461,383.047749,-296.082377,8956.491898
1527.319790,459.657299,-0.000000,9030.512492
1527.320118,383.047749,-0.000000,8956.491898
1527.320447,612.876398,-74.020594,8882.471304
1527.320776,76.609550,-148.041188,9178.553681
1527.321105,459.657299,-0.000000,9178.553681
1527.321434,-229.828649,-74.020594,8734.430116
1527.321763,229.828649,-74.020594,8882.471304
1527.322091,229.828649,-74.020594,8808.450710
1527.322420,229.828649,-0.000000,8956.491898
1527.322749,766.095498,-74.020594,8586.388927
1527.323078,383.047749,-148.041188,9104.533087
1527.323407,536.266849,-148.041188,9326.594869
1527.323736,536.266849,-296.082377,8808.450710
1527.324064,229.828649,-74.020594,8734.430116
1527.324393,153.219100,-148.041188,9030.512492
1527.324722,76.609550,-0.000000,9178.553681
1527.325051,229.828649,-0.000000,9178.553681
1527.325380,995.924147,-296.082377,9252.574275
1527.325709,612.876398,-814.226536,9252.574275
1527.326038,76.609550,-222.061783,9252.574275
1527.326366,459.657299,-222.061783,9252.574275
1527.326695,306.438199,-444.123565,9178.553681
1527.327024,306.438199,-296.082377,9104.533087
1527.327353,153.219100,-222.061783,9252.574275
1527.327682,612.876398,-444.123565,9252.574275
1527.328011,536.266849,-444.123565,9252.574275
1527.328339,229.828649,-0.000000,9474.636058
1527.328668,306.438199,-74.020594,9178.553681
1527.328997,306.438199,-74.020594,9252.574275
1527.329326,229.828649,-148.041188,9252.574275
1527.329655,229.828649,-148.041188,9104.533087
1527.329984,229.828649,148.041188,9178.553681
1527.330312,0.000000,-222.061783,9252.574275
1527.330641,919.314598,-444.123565,9252.574275
1527.330970,459.657299,-148.041188,9030.512492
1527.331299,229.828649,-148.041188,8808.450710
1527.331628,229.828649,-0.000000,9104.533087
1527.331957,306.438199,-0.000000,8882.471304
1527.332285,0.000000,-222.061783,9178.553681
1527.332614,229.828649,-148.041188,8438.347739
1527.332943,689.485948,-74.020594,8956.491898
1527.333272,153.219100,222.061783,9178.553681
1527.333601,306.438199,-0.000000,9178.553681
1527.333930,306.438199,-74.020594,8882.471304
1527.334259,76.609550,-0.000000,8808.450710
1527.334587,383.047749,-222.061783,9030.512492
1527.334916,306.438199,-0.000000,7994.224174
1527.335245,153.219100,-222.061783,9030.512492
1527.335574,459.657299,-148.041188,9178.553681
1527.335903,306.438199,-296.082377,9030.512492
1527.336232,383.047749,-370.102971,9030.512492
1527.336560,229.828649,-222.061783,9030.512492
1527.336889,153.219100,-444.123565,9030.512492
1527.337218,229.828649,-370.102971,9326.594869
1527.337547,383.047749,-444.123565,9326.594869
1527.337876,383.047749,-148.041188,9252.574275
1527.338205,383.047749,-222.061783,9178.553681
1527.338533,459.657299,-222.061783,9178.553681
1527.338862,459.657299,-74.020594,9326.594869
1527.339191,383.047749,-74.020594,9326.594869
1527.339520,-306.438199,-222.061783,9622.677246
1527.339849,76.609550,-444.123565,9474.636058
1527.340178,229.828649,-148.041188,9400.615463
1527.340506,153.219100,-148.041188,9178.553681
1527.340836,383.047749,-222.061783,9104.533087
1527.341165,229.828649,-148.041188,9104.533087
1527.341494,536.266849,-296.082377,9252.574275
1527.341823,459.657299,-444.123565,9178.553681
1527.342152,459.657299,-0.000000,9030.512492
1527.342480,0.000000,-0.000000,9252.574275
1527.342809,459.657299,-222.061783,8956.491898
1527.343138,229.828649,-148.041188,8734.430116
1527.343467,229.828649,-0.000000,8882.471304
1527.343796,153.219100,-74.020594,8956.491898
1527.344124,306.438199,-148.041188,8808.450710
1527.344453,-689.485948,-74.020594,9252.574275
1527.344782,459.657299,-0.000000,9178.553681
1527.345111,0.000000,-222.061783,8882.471304
1527.345440,536.266849,-0.000000,8882.471304
1527.345768,153.219100,-0.000000,9030.512492
1527.346097,536.266849,-222.061783,9104.533087
1527.346426,536.266849,-222.061783,8882.471304
1527.346755,383.047749,-148.041188,8512.368333
1527.347084,689.485948,-0.000000,8956.491898
1527.347412,229.828649,-222.061783,8882.471304
1527.347741,76.609550,-74.020594,8956.491898
1527.348070,306.438199,-74.020594,9326.594869
1527.348399,842.705048,-518.144159,9030.512492
1527.348728,383.047749,-222.061783,9400.615463
1527.349056,459.657299,-518.144159,9178.553681
1527.349385,459.657299,-0.000000,9400.615463
1527.349714,536.266849,-0.000000,9178.553681
1527.350043,536.266849,-148.041188,9178.553681
1527.350372,383.047749,-148.041188,9104.533087
1527.350700,306.438199,-370.102971,8882.471304
1527.351029,459.657299,-666.185348,8956.491898
1527.351358,612.876398,-592.164754,8956.491898
1527.351687,383.047749,-296.082377,9474.636058
1527.352016,383.047749,-148.041188,9252.574275
1527.352344,306.438199,-148.041188,9474.636058
1527.352673,229.828649,-222.061783,9030.512492
1527.353002,153.219100,-0.000000,9178.553681
1527.353331,306.438199,-518.144159,9178.553681
1527.353660,229.828649,-296.082377,9030.512492
1527.353988,842.705048,-0.000000,8882.471304
1527.354317,306.438199,-0.000000,8956.491898
1527.354646,306.438199,-0.000000,8956.491898
1527.354975,306.438199,-74.020594,8808.450710
1527.355304,229.828649,-296.082377,8956.491898
1527.355632,0.000000,-222.061783,8882.471304
1527.355961,383.047749,-148.041188,8882.471304
1527.356290,536.266849,-370.102971,8660.409521
1527.356619,229.828649,-0.000000,8882.471304
1527.356948,153.219100,-222.061783,8956.491898
1527.357276,229.828649,-0.000000,9104.533087
1527.357605,229.828649,-222.061783,8956.491898
1527.357934,306.438199,-148.041188,9104.533087
1527.358263,76.609550,148.041188,9252.574275
1527.358592,612.876398,-370.102971,9252.574275
1527.358920,383.047749,-148.041188,8956.491898
1527.359249,306.438199,-222.061783,9252.574275
1527.359578,383.047749,-222.061783,9178.553681
1527.359907,0.000000,-74.020594,9104.533087
1527.360236,612.876398,-666.185348,9104.533087
1527.360564,306.438199,-518.144159,9104.533087
1527.360893,383.047749,-0.000000,9104.533087
1527.361222,459.657299,-222.061783,8956.491898
1527.361551,153.219100,-370.102971,9178.553681
1527.361880,459.657299,-0.000000,9252.574275
1527.362208,459.657299,-148.041188,9030.512492
1527.362537,766.095498,-592.164754,9252.574275
1527.362866,459.657299,-444.123565,9326.594869
1527.363195,-459.657299,-222.061783,8956.491898
1527.363524,0.000000,-222.061783,9030.512492
1527.363852,306.438199,-74.020594,9178.553681
1527.364181,306.438199,-74.020594,8956.491898
1527.364510,0.000000,-0.000000,8808.450710
1527.364839,0.000000,-0.000000,9474.636058
1527.365168,612.876398,-74.020594,8882.471304
1527.365496,229.828649,-74.020594,9030.512492
1527.365825,383.047749,-0.000000,8956.491898
1527.366154,153.219100,-222.061783,9030.512492
1527.366483,306.438199,-0.000000,8956.491898
1527.366812,306.438199,-0.000000,8882.471304
1527.367140,459.657299,-222.061783,9030.512492
1527.367469,306.438199,-296.082377,8364.327145
1527.367798,612.876398,-148.041188,8882.471304
1527.368127,383.047749,-0.000000,9030.512492
1527.368456,153.219100,-74.020594,8882.471304
1527.368784,306.438199,-0.000000,8882.471304
1527.369113,76.609550,-148.041188,8808.450710
1527.369442,766.095498,-370.102971,9252.574275
1527.369771,229.828649,-222.061783,8364.327145
1527.370100,536.266849,-222.061783,9474.636058
1527.370428,306.438199,-370.102971,9178.553681
1527.370757,306.438199,-148.041188,9030.512492
1527.371086,306.438199,-222.061783,9178.553681
1527.371415,842.705048,-222.061783,9104.533087
1527.371744,153.219100,-148.041188,9178.553681
1527.372072,0.000000,-222.061783,9400.615463
1527.372401,612.876398,-148.041188,9178.553681
1527.372730,229.828649,-0.000000,9474.636058
1527.373059,612.876398,-0.000000,9326.594869
1527.373388,153.219100,-148.041188,9030.512492
1527.373716,459.657299,-74.020594,9252.574275
1527.374045,306.438199,-0.000000,9252.574275
1527.374374,383.047749,-0.000000,9104.533087
1527.374703,-229.828649,-148.041188,8734.430116
1527.375032,153.219100,-148.041188,9030.512492
1527.375360,229.828649,-0.000000,9104.533087
1527.375689,306.438199,-0.000000,8956.491898
1527.376018,153.219100,-222.061783,8956.491898
1527.376347,229.828649,-0.000000,9178.553681
1527.376676,306.438199,-148.041188,8882.471304
1527.377004,153.219100,-148.041188,9030.512492
1527.377333,459.657299,-148.041188,8956.491898
1527.377662,536.266849,222.061783,8882.471304
1527.377991,536.266849,-74.020594,8808.450710
1527.378320,459.657299,-0.000000,8882.471304
1527.378648,153.219100,-0.000000,9030.512492
1527.378977,76.609550,-74.020594,8956.491898
1527.379306,383.047749,-222.061783,8882.471304
1527.379635,459.657299,-74.020594,9104.533087
1527.379964,689.485948,-148.041188,9178.553681
1527.380292,153.219100,-222.061783,8808.450710
1527.380621,383.047749,-148.041188,8882.471304
1527.380950,229.828649,-74.020594,9104.533087
1527.381279,229.828649,-148.041188,9030.512492
1527.381608,459.657299,-74.020594,8956.491898
1527.381936,536.266849,-1110.308913,8956.491898
1527.382265,229.828649,-370.102971,9030.512492
1527.382594,306.438199,-0.000000,9400.615463
1527.382923,229.828649,-296.082377,9104.533087
1527.383252,306.438199,-148.041188,9178.553681
1527.383580,306.438199,-222.061783,9252.574275
1527.383909,459.657299,-296.082377,9104.533087
1527.384238,842.705048,-740.205942,9104.533087
1527.384567,306.438199,-444.123565,9326.594869
1527.384896,306.438199,-74.020594,9178.553681
1527.385224,459.657299,-0.000000,9030.512492
1527.385553,459.657299,-0.000000,9252.574275
1527.385882,229.828649,-148.041188,9030.512492
1527.386211,306.438199,-148.041188,9104.533087
1527.386540,842.705048,-0.000000,8808.450710
1527.386868,536.266849,222.061783,9400.615463
1527.387197,0.000000,-148.041188,9104.533087
1527.387526,306.438199,-0.000000,8956.491898
1527.387855,383.047749,-0.000000,8956.491898
1527.388184,153.219100,-0.000000,8882.471304
1527.388512,383.047749,-74.020594,8586.388927
1527.388841,459.657299,-296.082377,8808.450710
1527.389170,612.876398,-0.000000,9178.553681
1527.389499,76.609550,-148.041188,9104.533087
1527.389828,229.828649,-0.000000,9030.512492
1527.390156,229.828649,-74.020594,8882.471304
1527.390485,229.828649,-148.041188,9030.512492
1527.390814,689.485948,-222.061783,9104.533087
1527.391143,612.876398,-370.102971,9104.533087
1527.391472,306.438199,-74.020594,8956.491898
1527.391800,229.828649,-222.061783,8882.471304
1527.392129,229.828649,-74.020594,9030.512492
1527.392458,306.438199,-148.041188,8808.450710
1527.392787,536.266849,-0.000000,9178.553681
1527.393116,306.438199,-370.102971,9252.574275
1527.393444,842.705048,-444.123565,9326.594869
1527.393773,76.609550,-296.082377,9178.553681
1527.394102,383.047749,-296.082377,8956.491898
1527.394431,536.266849,-296.082377,9326.594869
1527.394760,229.828649,-222.061783,9178.553681
1527.395088,536.266849,-148.041188,9252.574275
1527.395417,-76.609550,-222.061783,9326.594869
1527.395746,536.266849,-296.082377,8882.471304
1527.396075,229.828649,-222.061783,9178.553681
1527.396404,153.219100,-0.000000,9252.574275
1527.396732,459.657299,-0.000000,8734.430116
1527.397061,229.828649,-222.061783,8808.450710
1527.397390,229.828649,-148.041188,9030.512492
1527.397719,383.047749,-518.144159,9178.553681
1527.398048,383.047749,-222.061783,8882.471304
1527.398376,76.609550,148.041188,9104.533087
1527.398705,459.657299,-0.000000,9252.574275
1527.399034,229.828649,-0.000000,9104.533087
1527.399363,229.828649,-0.000000,9030.512492
1527.399692,229.828649,-0.000000,8956.491898
1527.400020,536.266849,-296.082377,8882.471304
1527.400349,0.000000,148.041188,9400.615463
1527.400678,536.266849,-0.000000,9030.512492
1527.401007,459.657299,296.082377,9104.533087
1527.401336,306.438199,-222.061783,8808.450710
1527.401664,306.438199,-148.041188,8882.471304
1527.401993,229.828649,-148.041188,9030.512492
1527.402322,536.266849,-148.041188,8956.491898
1527.402651,153.219100,-74.020594,9474.636058
1527.402980,76.609550,-296.082377,9326.594869
1527.403308,229.828649,-518.144159,9030.512492
1527.403637,306.438199,-222.061783,9178.553681
1527.403966,229.828649,-74.020594,9178.553681
1527.404295,229.828649,-74.020594,9252.574275
1527.404624,153.219100,-518.144159,9030.512492
1527.404952,306.438199,-296.082377,9178.553681
1527.405281,689.485948,-0.000000,9474.636058
1527.405610,459.657299,-0.000000,9178.553681
1527.405939,459.657299,-296.082377,9178.553681
1527.406268,306.438199,-370.102971,9030.512492
1527.406596,306.438199,-296.082377,9252.574275
1527.406925,459.657299,-370.102971,9178.553681
1527.407254,459.657299,-370.102971,8956.491898
1527.407583,766.095498,-74.020594,9326.594869
1527.407912,229.828649,-148.041188,9474.636058
1527.408240,229.828649,-222.061783,9104.533087
1527.408569,459.657299,-0.000000,9178.553681
1527.408898,536.266849,-0.000000,9030.512492
1527.409227,536.266849,-0.000000,9326.594869
1527.409556,1149.143247,-74.020594,9252.574275
1527.409884,459.657299,-222.061783,9030.512492
1527.410213,229.828649,-0.000000,9104.533087
1527.410542,459.657299,-0.000000,9030.512492
1527.410871,383.047749,-0.000000,8882.471304
1527.411200,229.828649,-296.082377,8882.471304
1527.411528,612.876398,-148.041188,9030.512492
1527.411857,766.095498,-444.123565,8956.491898
1527.412186,153.219100,-666.185348,8956.491898
1527.412515,0.000000,-296.082377,8808.450710
1527.412844,76.609550,-0.000000,9178.553681
1527.413172,153.219100,-0.000000,8956.491898
1527.413501,306.438199,-0.000000,8956.491898
1527.413830,306.438199,-74.020594,9030.512492
1527.414159,689.485948,-296.082377,9178.553681
1527.414488,383.047749,-518.144159,9326.594869
1527.414816,383.047749,-222.061783,9104.533087
1527.415145,306.438199,-148.041188,9178.553681
1527.415474,229.828649,-296.082377,9104.533087
1527.415803,153.219100,-74.020594,9030.512492
1527.416132,383.047749,-148.041188,9178.553681
1527.416460,229.828649,-148.041188,9030.512492
1527.416789,-229.828649,-74.020594,9474.636058
1527.417118,229.828649,-222.061783,9548.656652
1527.417447,306.438199,-296.082377,9178.553681
1527.417776,459.657299,-296.082377,9104.533087
1527.418104,229.828649,-148.041188,9104.533087
1527.418433,459.657299,-222.061783,9104.533087
1527.418762,459.657299,148.041188,9474.636058
1527.419091,229.828649,-0.000000,9400.615463
1527.419420,153.219100,-148.041188,9252.574275
1527.419748,306.438199,-0.000000,9030.512492
1527.420077,383.047749,-0.000000,9030.512492
1527.420406,689.485948,-222.061783,9104.533087
1527.420735,306.438199,-74.020594,8956.491898
1527.421064,383.047749,-222.061783,8364.327145
1527.421392,459.657299,-148.041188,9030.512492
1527.421721,842.705048,-0.000000,9178.553681
1527.422050,153.219100,-0.000000,9104.533087
1527.422379,229.828649,-0.000000,8956.491898
1527.422708,76.609550,-0.000000,9030.512492
1527.423036,229.828649,-0.000000,8956.491898
1527.423365,995.924147,-74.020594,9104.533087
1527.423694,612.876398,-222.061783,8882.471304
1527.424023,459.657299,-296.082377,9252.574275
1527.424352,536.266849,-666.185348,9178.553681
1527.424680,229.828649,-222.061783,9030.512492
1527.425009,383.047749,-74.020594,8882.471304
1527.425338,306.438199,-370.102971,9030.512492
1527.425667,229.828649,-222.061783,9252.574275
1527.425996,0.000000,-148.041188,9474.636058
1527.426324,612.876398,-74.020594,9474.636058
1527.426653,383.047749,-296.082377,9326.594869
1527.426982,76.609550,-296.082377,9104.533087
1527.427311,383.047749,-222.061783,9252.574275
1527.427640,229.828649,-296.082377,9252.574275
1527.427968,306.438199,-296.082377,9400.615463
1527.428297,689.485948,-222.061783,9326.594869
1527.428626,536.266849,-444.123565,8808.450710
1527.428955,459.657299,-222.061783,9400.615463
1527.429284,459.657299,-0.000000,9178.553681
1527.429612,536.266849,-0.000000,9030.512492
1527.429941,383.047749,-148.041188,9030.512492
1527.430270,229.828649,-74.020594,9030.512492
1527.430599,383.047749,-518.144159,9178.553681
1527.430928,383.047749,-148.041188,9104.533087
1527.431256,153.219100,-222.061783,8956.491898
1527.431585,153.219100,-0.000000,9252.574275
1527.431914,383.047749,-74.020594,8808.450710
1527.432243,229.828649,-74.020594,8882.471304
1527.432572,76.609550,-0.000000,8956.491898
1527.432900,306.438199,-0.000000,8808.450710
1527.433229,306.438199,-222.061783,8956.491898
1527.433558,-153.219100,-148.041188,9030.512492
1527.433887,229.828649,-222.061783,8586.388927
1527.434216,153.219100,-74.020594,8734.430116
1527.434544,383.047749,-0.000000,8956.491898
1527.434873,383.047749,-74.020594,8956.491898
1527.435202,919.314598,-370.102971,9252.574275
1527.435531,306.438199,-222.061783,9104.533087
1527.435860,0.000000,296.082377,8808.450710
1527.436188,459.657299,-0.000000,9252.574275
1527.436517,229.828649,-0.000000,9178.553681
1527.436846,306.438199,-0.000000,9178.553681
1527.437175,229.828649,-74.020594,9104.533087
1527.437504,459.657299,-370.102971,9030.512492
1527.437832,459.657299,-518.144159,9326.594869
1527.438161,1149.143247,-296.082377,9474.636058
1527.438490,536.266849,-222.061783,8956.491898
1527.438819,306.438199,-222.061783,9252.574275
1527.439148,229.828649,-296.082377,9178.553681
1527.439476,459.657299,-296.082377,8956.491898
1527.439805,229.828649,-0.000000,9252.574275
1527.440134,306.438199,-148.041188,9474.636058
1527.440463,306.438199,-74.020594,9400.615463
1527.440792,0.000000,-296.082377,9326.594869
1527.441120,306.438199,-74.020594,9178.553681
1527.441449,306.438199,-74.020594,9252.574275
1527.441778,306.438199,-74.020594,9030.512492
1527.442107,612.876398,-0.000000,9030.512492
1527.442436,612.876398,-74.020594,9326.594869
1527.442764,0.000000,-74.020594,8882.471304
1527.443093,383.047749,-148.041188,9030.512492
1527.443422,306.438199,-0.000000,8660.409521
1527.443751,153.219100,-0.000000,8956.491898
1527.444080,306.438199,-148.041188,8734.430116
1527.444408,306.438199,-74.020594,8956.491898
1527.444737,536.266849,-296.082377,8956.491898
1527.445066,689.485948,-444.123565,9252.574275
1527.445395,306.438199,-148.041188,9178.553681
1527.445724,229.828649,-0.000000,9104.533087
1527.446052,383.047749,-148.041188,8808.450710
1527.446381,306.438199,-0.000000,8956.491898
1527.446710,612.876398,-666.185348,9030.512492
1527.447039,459.657299,-296.082377,9252.574275
1527.447368,306.438199,-222.061783,8734.430116
1527.447696,229.828649,-222.061783,9030.512492
1527.448025,383.047749,-296.082377,8882.471304
1527.448354,383.047749,-148.041188,8956.491898
1527.448683,536.266849,-0.000000,9252.574275
1527.449011,459.657299,-74.020594,9252.574275
1527.449340,229.828649,-222.061783,9252.574275
1527.449669,612.876398,-666.185348,9030.512492
1527.449998,383.047749,-296.082377,9400.615463
1527.450327,306.438199,-222.061783,9474.636058
1527.450655,383.047749,-444.123565,9400.615463
1527.450984,383.047749,-0.000000,9252.574275
1527.451313,306.438199,-0.000000,9178.553681
1527.451642,229.828649,-74.020594,9252.574275
1527.451971,689.485948,-222.061783,8438.347739
1527.452299,536.266849,-222.061783,9252.574275
1527.452628,229.828649,-148.041188,9104.533087
1527.452957,153.219100,-0.000000,9178.553681
1527.453286,76.609550,-0.000000,8956.491898
1527.453615,842.705048,-0.000000,8882.471304
1527.453943,612.876398,-0.000000,9030.512492
1527.454272,459.657299,-148.041188,9178.553681
1527.454601,536.266849,-296.082377,8734.430116
1527.454930,306.438199,-0.000000,9030.512492
1527.455259,306.438199,-0.000000,8956.491898
1527.455587,229.828649,-74.020594,8808.450710
1527.455916,383.047749,-148.041188,8660.409521
1527.456245,459.657299,-370.102971,9178.553681
1527.456574,536.266849,-444.123565,9030.512492
1527.456903,229.828649,-148.041188,9178.553681
1527.457231,383.047749,-222.061783,9030.512492
1527.457560,229.828649,-0.000000,9104.533087
1527.457889,229.828649,-0.000000,8808.450710
1527.458218,383.047749,-74.020594,9104.533087
1527.458547,153.219100,-74.020594,8808.450710
1527.458875,0.000000,-296.082377,9178.553681
1527.459204,0.000000,-74.020594,9400.615463
1527.459533,383.047749,-296.082377,9178.553681
1527.459862,229.828649,-74.020594,9030.512492
1527.460190,76.609550,-0.000000,9178.553681
1527.460519,229.828649,-666.185348,9252.574275
1527.460848,76.609550,-222.061783,9400.615463
1527.461177,689.485948,-222.061783,9178.553681
1527.461506,536.266849,-148.041188,9104.533087
1527.461834,383.047749,-0.000000,9104.533087
1527.462163,306.438199,-222.061783,9474.636058
1527.462492,459.657299,-0.000000,9178.553681
1527.462821,153.219100,-296.082377,9178.553681
1527.463150,459.657299,-222.061783,9252.574275
1527.463478,612.876398,-148.041188,8734.430116
1527.463807,536.266849,-148.041188,9178.553681
1527.464136,306.438199,-74.020594,9104.533087
1527.464465,536.266849,-148.041188,9030.512492
1527.464794,459.657299,-222.061783,8808.450710
1527.465122,383.047749,-0.000000,9178.553681
1527.465451,306.438199,-296.082377,9178.553681
1527.465780,536.266849,-222.061783,8956.491898
1527.466109,612.876398,-0.000000,9178.553681
1527.466438,153.219100,222.061783,9252.574275
1527.466766,383.047749,-296.082377,8882.471304
1527.467095,689.485948,-0.000000,8734.430116
1527.467424,383.047749,-0.000000,8882.471304
1527.467753,229.828649,-0.000000,8882.471304
1527.468082,0.000000,-0.000000,9104.533087
1527.468410,612.876398,-296.082377,9104.533087
1527.468739,459.657299,-222.061783,8956.491898
1527.469068,153.219100,-370.102971,9104.533087
1527.469397,229.828649,-222.061783,9178.553681
1527.469726,76.609550,-74.020594,9104.533087
1527.470054,612.876398,-74.020594,9252.574275
1527.470383,229.828649,-296.082377,9178.553681
1527.470712,459.657299,222.061783,9770.718434
1527.471041,76.609550,-0.000000,9400.615463
1527.471369,612.876398,-148.041188,8956.491898
1527.471698,306.438199,-222.061783,9104.533087
1527.472027,612.876398,-74.020594,9178.553681
1527.472356,306.438199,-370.102971,9030.512492
1527.472685,612.876398,-222.061783,9030.512492
1527.473013,383.047749,-0.000000,9474.636058
1527.473342,689.485948,-370.102971,9252.574275
1527.473671,459.657299,-222.061783,9178.553681
1527.474000,153.219100,-222.061783,9178.553681
1527.474329,306.438199,-148.041188,9178.553681
1527.474657,383.047749,-74.020594,8882.471304
1527.474986,612.876398,-148.041188,9326.594869
1527.475315,459.657299,-222.061783,9030.512492
1527.475644,383.047749,-148.041188,8734.430116
1527.475973,229.828649,-222.061783,8956.491898
1527.476301,383.047749,-0.000000,8882.471304
1527.476630,229.828649,-74.020594,8882.471304
1527.476959,383.047749,-74.020594,9030.512492
1527.477288,0.000000,-444.123565,8956.491898
1527.477617,229.828649,-222.061783,9104.533087
1527.477945,-306.438199,-222.061783,9252.574275
1527.478274,383.047749,-0.000000,8882.471304
1527.478603,383.047749,-0.000000,9030.512492
1527.478932,536.266849,-0.000000,8808.450710
1527.479261,76.609550,-0.000000,8956.491898
1527.479589,0.000000,-444.123565,9030.512492
1527.479918,383.047749,-296.082377,9326.594869
1527.480247,383.047749,444.123565,9326.594869
1527.480576,0.000000,-148.041188,9178.553681
1527.480904,459.657299,-148.041188,9030.512492
1527.481233,306.438199,-370.102971,9252.574275
1527.481562,229.828649,-222.061783,9178.553681
1527.481891,536.266849,-0.000000,8808.450710
1527.482220,383.047749,-444.123565,9178.553681
1527.482548,383.047749,-370.102971,9178.553681
1527.482877,229.828649,-222.061783,9104.533087
1527.483206,536.266849,-370.102971,9178.553681
1527.483535,383.047749,-148.041188,9104.533087
1527.483864,0.000000,-148.041188,9252.574275
1527.484192,689.485948,-74.020594,9474.636058
1527.484521,383.047749,-222.061783,9252.574275
1527.484850,459.657299,-148.041188,9178.553681
1527.485179,306.438199,-0.000000,9178.553681
1527.485508,229.828649,-148.041188,9030.512492
1527.485836,306.438199,-0.000000,9178.553681
1527.486165,383.047749,-74.020594,9104.533087
1527.486494,536.266849,-222.061783,9178.553681
1527.486823,383.047749,-0.000000,9252.574275
1527.487152,459.657299,-518.144159,8216.285956
1527.487480,459.657299,-296.082377,8512.368333
1527.487809,229.828649,-0.000000,9030.512492
1527.488138,229.828649,-0.000000,8808.450710
1527.488467,383.047749,-0.000000,8808.450710
1527.488796,153.219100,-74.020594,9178.553681
1527.489124,536.266849,-74.020594,9030.512492
1527.489453,459.657299,-296.082377,8882.471304
1527.489782,229.828649,-0.000000,9030.512492
1527.490111,153.219100,148.041188,9030.512492
1527.490440,306.438199,-148.041188,8808.450710
1527.490768,153.219100,-74.020594,8882.471304
1527.491097,229.828649,-0.000000,9030.512492
1527.491426,995.924147,-444.123565,9104.533087
1527.491755,689.485948,-296.082377,9178.553681
1527.492083,306.438199,-74.020594,9252.574275
1527.492412,459.657299,-74.020594,9252.574275
1527.492741,383.047749,-370.102971,9178.553681
1527.493070,306.438199,-148.041188,9252.574275
1527.493399,536.266849,-444.123565,9474.636058
1527.493727,76.609550,-222.061783,9326.594869
1527.494056,306.438199,-592.164754,9400.615463
1527.494385,76.609550,-148.041188,9326.594869
1527.494714,459.657299,-222.061783,9178.553681
1527.495043,153.219100,-222.061783,9178.553681
1527.495371,229.828649,-148.041188,9104.533087
1527.495700,306.438199,-74.020594,8956.491898
1527.496029,-383.047749,-592.164754,9326.594869
1527.496358,766.095498,-592.164754,9030.512492
1527.496687,383.047749,-0.000000,9178.553681
1527.497015,459.657299,-0.000000,9178.553681
1527.497344,383.047749,-0.000000,9178.553681
1527.497673,536.266849,-0.000000,8956.491898
1527.498002,0.000000,-296.082377,8956.491898
1527.498331,612.876398,-222.061783,8734.430116
1527.498659,306.438199,-0.000000,9104.533087
1527.498988,0.000000,-0.000000,8882.471304
1527.499317,76.609550,-0.000000,8882.471304
1527.499646,306.438199,-74.020594,8882.471304
1527.499975,306.438199,-0.000000,9178.553681
1527.500303,306.438199,-0.000000,8734.430116
1527.500632,0.000000,-148.041188,8808.450710
1527.500961,383.047749,-222.061783,9326.594869
1527.501290,536.266849,-148.041188,9030.512492
1527.501619,459.657299,-74.020594,8882.471304
1527.501947,153.219100,-0.000000,8956.491898
1527.502276,229.828649,-0.000000,9252.574275
1527.502605,76.609550,-370.102971,8956.491898
1527.502934,383.047749,-222.061783,9474.636058
1527.503262,0.000000,-370.102971,9400.615463
1527.503591,229.828649,-222.061783,9178.553681
1527.503920,229.828649,-222.061783,9178.553681
1527.504249,229.828649,-148.041188,9104.533087
1527.504578,229.828649,-222.061783,9178.553681
1527.504906,153.219100,-222.061783,9030.512492
1527.505235,229.828649,-148.041188,9400.615463
1527.505564,459.657299,-296.082377,9400.615463
1527.505893,459.657299,-222.061783,8956.491898
1527.506222,306.438199,-222.061783,9178.553681
1527.506550,229.828649,-296.082377,9178.553681
1527.506879,76.609550,-296.082377,8956.491898
1527.507208,306.438199,-666.185348,9178.553681
1527.507537,229.828649,-296.082377,9178.553681
1527.507866,689.485948,-74.020594,9326.594869
1527.508194,459.657299,-296.082377,8808.450710
1527.508523,383.047749,-148.041188,9030.512492
1527.508852,306.438199,-74.020594,9178.553681
1527.509181,536.266849,-74.020594,8956.491898
1527.509510,229.828649,-0.000000,9104.533087
1527.509838,229.828649,-74.020594,9178.553681
1527.510167,229.828649,-74.020594,8734.430116
1527.510496,0.000000,-0.000000,9104.533087
1527.510825,-76.609550,-148.041188,9178.553681
1527.511154,229.828649,-222.061783,9104.533087
1527.511482,229.828649,-0.000000,8956.491898
1527.511811,76.609550,-74.020594,9104.533087
1527.512140,306.438199,-222.061783,8734.430116
1527.512469,153.219100,-222.061783,8882.471304
1527.512798,536.266849,-444.123565,9030.512492
1527.513126,383.047749,-296.082377,8734.430116
1527.513455,0.000000,-0.000000,9326.594869
1527.513784,306.438199,-74.020594,9030.512492
1527.514113,306.438199,-296.082377,8882.471304
1527.514441,76.609550,-148.041188,8956.491898
1527.514770,306.438199,-444.123565,9326.594869
1527.515099,383.047749,-74.020594,9400.615463
1527.515428,383.047749,-148.041188,9400.615463
1527.515757,153.219100,-296.082377,9252.574275
1527.516085,459.657299,-222.061783,9178.553681
1527.516414,383.047749,-296.082377,9252.574275
1527.516743,383.047749,-74.020594,9030.512492
1527.517072,459.657299,-370.102971,9326.594869
1527.517401,459.657299,-222.061783,9400.615463
1527.517729,0.000000,-0.000000,9548.656652
1527.518058,76.609550,-222.061783,8808.450710
1527.518387,229.828649,-148.041188,9178.553681
1527.518716,153.219100,-0.000000,9252.574275
1527.519045,306.438199,-0.000000,9030.512492
1527.519373,0.000000,-222.061783,9030.512492
1527.519702,383.047749,-518.144159,9252.574275
1527.520031,229.828649,-222.061783,8660.409521
1527.520360,766.095498,-370.102971,9030.512492
1527.520689,383.047749,-0.000000,8734.430116
1527.521017,306.438199,-74.020594,9030.512492
1527.521346,229.828649,-0.000000,8882.471304
1527.521675,536.266849,-222.061783,8956.491898
1527.522004,383.047749,-222.061783,8808.450710
1527.522333,306.438199,-0.000000,8734.430116
1527.522661,536.266849,-148.041188,9178.553681
1527.522990,306.438199,-148.041188,9030.512492
1527.523319,153.219100,-222.061783,8734.430116
1527.523648,229.828649,-296.082377,9104.533087
1527.523977,306.438199,-296.082377,8882.471304
1527.524305,153.219100,-370.102971,9030.512492
1527.524634,766.095498,-296.082377,8956.491898
1527.524963,459.657299,-296.082377,8586.388927
1527.525292,229.828649,-148.041188,8956.491898
1527.525620,536.266849,-370.102971,9030.512492
1527.525949,459.657299,-148.041188,9178.553681
1527.526278,229.828649,-296.082377,9178.553681
1527.526607,229.828649,-296.082377,9474.636058
1527.526936,383.047749,-814.226536,9252.574275
1527.527264,-229.828649,-296.082377,9400.615463
1527.527593,229.828649,-222.061783,9400.615463
1527.527922,306.438199,-222.061783,9178.553681
1527.528251,383.047749,-74.020594,9252.574275
1527.528580,229.828649,-222.061783,9326.594869
1527.528908,229.828649,-0.000000,9252.574275
1527.529237,0.000000,-222.061783,9252.574275
1527.529566,229.828649,-444.123565,9252.574275
1527.529895,459.657299,-370.102971,9104.533087
1527.530224,459.657299,-74.020594,8882.471304
1527.530552,153.219100,-74.020594,9104.533087
1527.530881,612.876398,-370.102971,9252.574275
1527.531210,229.828649,-444.123565,9178.553681
1527.531539,229.828649,-0.000000,8660.409521
1527.531868,383.047749,-0.000000,9104.533087
1527.532196,459.657299,-0.000000,8734.430116
1527.532525,0.000000,-148.041188,9104.533087
1527.532854,229.828649,-0.000000,8882.471304
1527.533183,383.047749,-74.020594,8882.471304
1527.533512,459.657299,-222.061783,9252.574275
1527.533840,689.485948,-222.061783,8882.471304
1527.534169,689.485948,-444.123565,9030.512492
1527.534498,536.266849,-0.000000,8956.491898
1527.534827,459.657299,-74.020594,8882.471304
1527.535155,383.047749,-74.020594,8882.471304
1527.535484,0.000000,-0.000000,8882.471304
1527.535813,229.828649,-74.020594,9178.553681
1527.536142,536.266849,-222.061783,9104.533087
1527.536471,0.000000,-222.061783,9326.594869
1527.536799,229.828649,-222.061783,9178.553681
1527.537128,306.438199,-148.041188,9252.574275
1527.537457,229.828649,-148.041188,9326.594869
1527.537786,76.609550,296.082377,9622.677246
1527.538115,0.000000,-370.102971,9474.636058
1527.538443,306.438199,-518.144159,9400.615463
1527.538772,612.876398,-74.020594,9252.574275
1527.539101,536.266849,-148.041188,8956.491898
1527.539430,459.657299,-296.082377,9104.533087
1527.539759,459.657299,-74.020594,9326.594869
1527.540087,612.876398,-0.000000,9474.636058
1527.540416,153.219100,-370.102971,9400.615463
1527.540745,306.438199,-370.102971,9474.636058
1527.541074,306.438199,-222.061783,9252.574275
1527.541403,306.438199,-148.041188,8956.491898
1527.541731,229.828649,-296.082377,9104.533087
1527.542060,536.266849,-148.041188,8956.491898
1527.542389,383.047749,-0.000000,9030.512492
1527.542718,153.219100,-0.000000,9030.512492
1527.543047,229.828649,-0.000000,8882.471304
1527.543376,459.657299,-148.041188,9252.574275
1527.543704,306.438199,-0.000000,8882.471304
1527.544033,153.219100,-74.020594,8808.450710
1527.544362,76.609550,-148.041188,8956.491898
1527.544691,459.657299,-148.041188,8734.430116
1527.545020,612.876398,-444.123565,8512.368333
1527.545349,689.485948,-74.020594,8956.491898
1527.545678,306.438199,-0.000000,9030.512492
1527.546006,459.657299,-0.000000,8956.491898
1527.546335,229.828649,-0.000000,8956.491898
1527.546664,306.438199,-0.000000,8734.430116
1527.546993,306.438199,-0.000000,9030.512492
1527.547322,229.828649,-0.000000,9178.553681
1527.547651,383.047749,-296.082377,9104.533087
1527.547979,612.876398,-222.061783,9178.553681
1527.548308,306.438199,-444.123565,8956.491898
1527.548637,229.828649,-222.061783,9178.553681
1527.548966,76.609550,-148.041188,9178.553681
1527.549295,459.657299,-148.041188,9178.553681
1527.549624,153.219100,-296.082377,9252.574275
1527.549952,306.438199,-888.247130,9104.533087
1527.550281,612.876398,-592.164754,9252.574275
1527.550610,459.657299,-296.082377,9030.512492
1527.550939,306.438199,-222.061783,9400.615463
1527.551268,306.438199,-0.000000,9030.512492
1527.551597,459.657299,-148.041188,9178.553681
1527.551925,383.047749,-148.041188,9104.533087
1527.552254,229.828649,-370.102971,9030.512492
1527.552583,0.000000,-0.000000,9178.553681
1527.552912,536.266849,-518.144159,9326.594869
1527.553241,229.828649,-222.061783,8956.491898
1527.553570,229.828649,-148.041188,8808.450710
1527.553898,459.657299,-74.020594,8882.471304
1527.554227,612.876398,-370.102971,8882.471304
1527.554556,-383.047749,-0.000000,9400.615463
1527.554885,612.876398,-296.082377,8882.471304
1527.555214,383.047749,-148.041188,9030.512492
1527.555543,153.219100,-222.061783,8882.471304
1527.555871,459.657299,-74.020594,8882.471304
1527.556200,459.657299,-0.000000,8882.471304
1527.556529,459.657299,-518.144159,9104.533087
1527.556858,-383.047749,-222.061783,9474.636058
1527.557187,536.266849,-444.123565,9104.533087
1527.557516,383.047749,-0.000000,9104.533087
1527.557844,229.828649,-74.020594,8956.491898
1527.558173,459.657299,-0.000000,9030.512492
1527.558502,229.828649,-370.102971,9104.533087
1527.558831,459.657299,-296.082377,9104.533087
1527.559160,306.438199,-222.061783,9178.553681
1527.559489,306.438199,-0.000000,9326.594869
1527.559817,229.828649,-296.082377,8956.491898
1527.560146,383.047749,-370.102971,9178.553681
1527.560475,383.047749,222.061783,9326.594869
1527.560804,229.828649,-148.041188,9326.594869
1527.561133,229.828649,-74.020594,9178.553681
1527.561462,459.657299,-370.102971,9326.594869
1527.561791,383.047749,-0.000000,9178.553681
1527.562119,612.876398,-370.102971,9326.594869
1527.562448,459.657299,-222.061783,9474.636058
1527.562777,612.876398,-444.123565,9178.553681
1527.563106,383.047749,-222.061783,9030.512492
1527.563435,383.047749,-74.020594,8882.471304
1527.563764,383.047749,-0.000000,9030.512492
1527.564092,612.876398,-0.000000,9252.574275
1527.564421,536.266849,-0.000000,9400.615463
1527.564750,306.438199,-296.082377,9178.553681
1527.565079,153.219100,-0.000000,9178.553681
1527.565408,76.609550,-148.041188,8882.471304
1527.565737,383.047749,-0.000000,8882.471304
1527.566065,229.828649,-0.000000,8882.471304
1527.566394,536.266849,-148.041188,9178.553681
1527.566723,536.266849,-0.000000,9030.512492
1527.567052,459.657299,-148.041188,9030.512492
1527.567381,459.657299,370.102971,8956.491898
1527.567710,229.828649,-0.000000,8882.471304
1527.568038,306.438199,-0.000000,8956.491898
1527.568367,383.047749,-74.020594,8882.471304
1527.568696,459.657299,-222.061783,8956.491898
1527.569025,306.438199,-0.000000,9252.574275
1527.569354,306.438199,-370.102971,9400.615463
1527.569683,76.609550,-592.164754,9030.512492
1527.570011,153.219100,-296.082377,9178.553681
1527.570340,383.047749,-222.061783,9030.512492
1527.570669,229.828649,-296.082377,9178.553681
1527.570998,383.047749,-0.000000,9474.636058
1527.571327,459.657299,-222.061783,9474.636058
1527.571656,536.266849,-74.020594,9400.615463
1527.571984,612.876398,-74.020594,9474.636058
1527.572313,306.438199,-74.020594,9326.594869
1527.572642,306.438199,-370.102971,9178.553681
1527.572971,306.438199,-296.082377,9326.594869
1527.573300,76.609550,-148.041188,9178.553681
1527.573629,612.876398,-370.102971,8808.450710
1527.573957,689.485948,-370.102971,9178.553681
1527.574286,76.609550,-444.123565,9252.574275
1527.574615,229.828649,-0.000000,9178.553681
1527.574944,459.657299,-222.061783,8882.471304
1527.575273,306.438199,-0.000000,9030.512492
1527.575602,383.047749,-74.020594,9030.512492
1527.575931,919.314598,-0.000000,9252.574275
1527.576259,536.266849,-296.082377,9104.533087
1527.576588,229.828649,-222.061783,9030.512492
1527.576917,383.047749,-0.000000,8734.430116
1527.577246,0.000000,-74.020594,8882.471304
1527.577575,306.438199,-0.000000,8956.491898
1527.577904,766.095498,-148.041188,9252.574275
1527.578232,689.485948,-222.061783,9178.553681
1527.578561,536.266849,-74.020594,9104.533087
1527.578890,306.438199,-222.061783,9030.512492
1527.579219,306.438199,-0.000000,9030.512492
1527.579548,306.438199,-0.000000,9178.553681
1527.579877,383.047749,-74.020594,8956.491898
1527.580205,383.047749,-296.082377,8956.491898
1527.580534,76.609550,-148.041188,9326.594869
1527.580863,153.219100,-296.082377,9400.615463
1527.581192,536.266849,-296.082377,9104.533087
1527.581521,229.828649,-148.041188,9104.533087
1527.581850,383.047749,-222.061783,9104.533087
1527.582178,459.657299,-148.041188,9104.533087
1527.582507,536.266849,-148.041188,9400.615463
1527.582836,766.095498,-370.102971,9178.553681
1527.583165,459.657299,-222.061783,9252.574275
1527.583494,-306.438199,-148.041188,9474.636058
1527.583823,459.657299,-222.061783,9252.574275
1527.584151,383.047749,-222.061783,9178.553681
1527.584480,153.219100,-296.082377,9030.512492
1527.584809,76.609550,-222.061783,9104.533087
1527.585138,383.047749,-0.000000,9474.636058
1527.585467,0.000000,-370.102971,9252.574275
1527.585796,459.657299,-74.020594,9326.594869
1527.586124,229.828649,-0.000000,8882.471304
1527.586453,153.219100,-370.102971,8882.471304
1527.586782,306.438199,-222.061783,9030.512492
1527.587111,306.438199,-0.000000,8808.450710
1527.587440,459.657299,-296.082377,8734.430116
1527.587769,383.047749,-0.000000,8956.491898
1527.588097,0.000000,-0.000000,9252.574275
1527.588426,153.219100,-0.000000,8808.450710
1527.588755,383.047749,-222.061783,8808.450710
1527.589084,229.828649,-0.000000,8808.450710
1527.589413,229.828649,-74.020594,8808.450710
1527.589742,612.876398,-222.061783,8512.368333
1527.590070,383.047749,-74.020594,8882.471304
1527.590399,383.047749,-444.123565,9030.512492
1527.590728,459.657299,-74.020594,9030.512492
1527.591057,306.438199,-74.020594,8882.471304
1527.591386,306.438199,-74.020594,9030.512492
1527.591715,536.266849,-518.144159,9104.533087
1527.592044,229.828649,-518.144159,9326.594869
1527.592372,536.266849,-296.082377,9326.594869
1527.592701,229.828649,-370.102971,9178.553681
1527.593030,536.266849,-148.041188,9104.533087
1527.593359,536.266849,-222.061783,9326.594869
1527.593688,153.219100,-222.061783,9252.574275
1527.594017,459.657299,-370.102971,9326.594869
1527.594345,766.095498,-518.144159,9178.553681
1527.594674,229.828649,-370.102971,9178.553681
1527.595003,689.485948,-370.102971,9326.594869
1527.595332,0.000000,-222.061783,8882.471304
1527.595661,612.876398,-296.082377,9178.553681
1527.595990,306.438199,-296.082377,9252.574275
1527.596318,306.438199,-222.061783,8956.491898
1527.596647,459.657299,-0.000000,9178.553681
1527.596976,306.438199,-0.000000,9104.533087
1527.597305,383.047749,-0.000000,9400.615463
1527.597634,-766.095498,-74.020594,9178.553681
1527.597963,306.438199,-222.061783,9178.553681
1527.598291,459.657299,-222.061783,8882.471304
1527.598620,459.657299,-0.000000,9178.553681
1527.598949,383.047749,-74.020594,8956.491898
1527.599278,383.047749,-0.000000,8808.450710
1527.599607,0.000000,-222.061783,8956.491898
1527.599936,459.657299,-0.000000,8734.430116
1527.600264,383.047749,-444.123565,8808.450710
1527.600593,459.657299,-222.061783,8956.491898
1527.600922,229.828649,-0.000000,8882.471304
1527.601251,229.828649,-0.000000,9104.533087
1527.601580,306.438199,-0.000000,8956.491898
1527.601909,383.047749,222.061783,9474.636058
1527.602237,689.485948,-0.000000,9178.553681
1527.602566,459.657299,-296.082377,8586.388927
1527.602895,76.609550,-74.020594,9400.615463
1527.603224,459.657299,-0.000000,8956.491898
1527.603553,229.828649,-222.061783,9104.533087
1527.603882,229.828649,-74.020594,9178.553681
1527.604210,306.438199,-148.041188,9400.615463
1527.604539,536.266849,-222.061783,9326.594869
1527.604868,229.828649,-370.102971,9104.533087
1527.605197,459.657299,-518.144159,9104.533087
1527.605526,306.438199,-0.000000,9178.553681
1527.605855,459.657299,-222.061783,9030.512492
1527.606184,383.047749,-222.061783,9326.594869
1527.606512,383.047749,-0.000000,9474.636058
1527.606841,536.266849,-222.061783,9696.697840
1527.607170,306.438199,-444.123565,9400.615463
1527.607499,459.657299,-222.061783,9326.594869
1527.607828,229.828649,-148.041188,9178.553681
1527.608157,306.438199,-0.000000,9104.533087
1527.608485,153.219100,-0.000000,9178.553681
1527.608814,76.609550,-444.123565,8882.471304
1527.609143,459.657299,-0.000000,8882.471304
1527.609472,459.657299,-444.123565,9178.553681
1527.609801,0.000000,-0.000000,9178.553681
1527.610130,153.219100,-148.041188,8956.491898
1527.610458,306.438199,-0.000000,8882.471304
1527.610787,229.828649,-0.000000,8808.450710
1527.611116,536.266849,-0.000000,8956.491898
1527.611445,306.438199,148.041188,9030.512492
1527.611774,842.705048,-74.020594,9178.553681
1527.612103,306.438199,148.041188,9178.553681
1527.612431,306.438199,-74.020594,8956.491898
1527.612760,383.047749,-0.000000,9104.533087
1527.613089,76.609550,-0.000000,8956.491898
1527.613418,919.314598,-148.041188,9030.512492
1527.613747,459.657299,-222.061783,9178.553681
1527.614076,76.609550,-0.000000,8734.430116
1527.614404,0.000000,-0.000000,9104.533087
1527.614733,459.657299,-222.061783,9104.533087
1527.615062,153.219100,-74.020594,9030.512492
1527.615391,76.609550,-296.082377,9178.553681
1527.615720,919.314598,-592.164754,9400.615463
1527.616049,383.047749,-444.123565,9252.574275
1527.616377,153.219100,-0.000000,9252.574275
1527.616706,459.657299,-148.041188,9252.574275
1527.617035,383.047749,-296.082377,9326.594869
1527.617364,306.438199,-222.061783,9104.533087
1527.617693,306.438199,-148.041188,9178.553681
1527.618022,383.047749,-0.000000,9326.594869
1527.618350,383.047749,518.144159,9252.574275
1527.618679,919.314598,-222.061783,9178.553681
1527.619008,459.657299,-370.102971,8882.471304
1527.619337,306.438199,-222.061783,8882.471304
1527.619666,306.438199,-148.041188,9104.533087
1527.619995,306.438199,-148.041188,9030.512492
1527.620323,229.828649,-0.000000,9178.553681
1527.620652,0.000000,-222.061783,9326.594869
1527.620981,383.047749,-222.061783,8956.491898
1527.621310,0.000000,-222.061783,9030.512492
1527.621639,383.047749,-0.000000,8956.491898
1527.621968,229.828649,-0.000000,9030.512492
1527.622297,153.219100,-0.000000,8882.471304
1527.622625,383.047749,-0.000000,8734.430116
1527.622954,383.047749,-222.061783,8956.491898
1527.623283,306.438199,-296.082377,9030.512492
1527.623612,153.219100,-148.041188,8882.471304
1527.623941,229.828649,-222.061783,8956.491898
1527.624270,306.438199,-148.041188,9030.512492
1527.624598,153.219100,-222.061783,8882.471304
1527.624927,76.609550,-148.041188,9326.594869
1527.625256,306.438199,-222.061783,9400.615463
1527.625585,689.485948,-296.082377,8808.450710
1527.625914,306.438199,-0.000000,9104.533087
1527.626243,459.657299,-296.082377,9030.512492
1527.626571,383.047749,-296.082377,9178.553681
1527.626900,459.657299,-74.020594,9178.553681
1527.627229,689.485948,-444.123565,9400.615463
1527.627558,536.266849,-370.102971,9474.636058
1527.627887,536.266849,296.082377,9326.594869
1527.628216,306.438199,-222.061783,9252.574275
1527.628544,306.438199,-74.020594,9178.553681
1527.628873,306.438199,-74.020594,9474.636058
1527.629202,612.876398,-222.061783,9178.553681
1527.629531,0.000000,-296.082377,8882.471304
1527.629860,459.657299,-444.123565,9030.512492
1527.630189,306.438199,-370.102971,9104.533087
1527.630517,536.266849,296.082377,8956.491898
1527.630846,306.438199,-222.061783,9030.512492
1527.631175,229.828649,-222.061783,8882.471304
1527.631504,536.266849,-74.020594,9104.533087
1527.631833,766.095498,-0.000000,9030.512492
1527.632162,766.095498,-222.061783,9104.533087
1527.632490,459.657299,-296.082377,9104.533087
1527.632819,0.000000,-370.102971,8882.471304
1527.633148,459.657299,-0.000000,8808.450710
1527.633477,229.828649,-0.000000,8734.430116
1527.633806,306.438199,-0.000000,9030.512492
1527.634135,0.000000,-148.041188,8808.450710
1527.634463,76.609550,-74.020594,9178.553681
1527.634792,229.828649,-74.020594,8808.450710
1527.635121,383.047749,-222.061783,9104.533087
1527.635450,0.000000,-222.061783,8882.471304
1527.635779,153.219100,-74.020594,9178.553681
1527.636108,383.047749,-222.061783,9030.512492
1527.636437,306.438199,-0.000000,9104.533087
1527.636765,766.095498,-74.020594,9474.636058
1527.637094,689.485948,-370.102971,9400.615463
1527.637423,612.876398,-222.061783,9030.512492
1527.637752,536.266849,-0.000000,9178.553681
1527.638081,306.438199,-148.041188,9178.553681
1527.638410,459.657299,-222.061783,9252.574275
1527.638738,459.657299,-74.020594,9252.574275
1527.639067,383.047749,-296.082377,9400.615463
1527.639396,306.438199,-296.082377,9326.594869
1527.639725,153.219100,-222.061783,9178.553681
1527.640054,153.219100,-0.000000,9178.553681
1527.640383,383.047749,-296.082377,9104.533087
1527.640711,229.828649,-74.020594,8956.491898
1527.641040,229.828649,-222.061783,8956.491898
1527.641369,612.876398,-74.020594,9104.533087
1527.641698,842.705048,-296.082377,9326.594869
1527.642027,0.000000,-370.102971,8956.491898
1527.642356,229.828649,-0.000000,9030.512492
1527.642684,383.047749,-0.000000,8882.471304
1527.643013,459.657299,-0.000000,8956.491898
1527.643342,153.219100,518.144159,9030.512492
1527.643671,153.219100,-222.061783,9178.553681
1527.644000,153.219100,-222.061783,9252.574275
1527.644329,229.828649,-444.123565,9178.553681
1527.644658,229.828649,-74.020594,8956.491898
1527.644986,306.438199,-0.000000,9104.533087
1527.645315,689.485948,-74.020594,9104.533087
1527.645644,536.266849,-74.020594,8882.471304
1527.645973,842.705048,-74.020594,8290.306550
1527.646302,153.219100,-74.020594,8808.450710
1527.646631,229.828649,-666.185348,9030.512492
1527.646960,306.438199,-74.020594,9104.533087
1527.647288,76.609550,-74.020594,9030.512492
1527.647617,306.438199,-222.061783,9104.533087
1527.647946,459.657299,-296.082377,9030.512492
1527.648275,766.095498,-0.000000,9400.615463
1527.648604,459.657299,-148.041188,9104.533087
1527.648933,536.266849,-518.144159,9252.574275
1527.649262,383.047749,-222.061783,9252.574275
1527.649590,306.438199,-74.020594,9104.533087
1527.649919,229.828649,-222.061783,8956.491898
1527.650248,229.828649,-222.061783,9178.553681
1527.650577,459.657299,-370.102971,9326.594869
1527.650906,612.876398,-148.041188,9104.533087
1527.651235,919.314598,-0.000000,9178.553681
1527.651564,229.828649,-148.041188,9178.553681
1527.651892,612.876398,-74.020594,9104.533087
1527.652221,383.047749,-0.000000,8956.491898
1527.652550,383.047749,-222.061783,9178.553681
1527.652879,383.047749,-296.082377,9104.533087
1527.653208,536.266849,-148.041188,9178.553681
1527.653537,612.876398,-148.041188,9178.553681
1527.653866,383.047749,-0.000000,9104.533087
1527.654194,383.047749,-0.000000,9104.533087
1527.654523,76.609550,-222.061783,8734.430116
1527.654852,383.047749,-222.061783,9104.533087
1527.655181,229.828649,-148.041188,8956.491898
1527.655510,229.828649,-222.061783,8882.471304
1527.655839,229.828649,-0.000000,9326.594869
1527.656168,229.828649,-0.000000,8808.450710
1527.656496,306.438199,-74.020594,8882.471304
1527.656825,306.438199,-0.000000,8882.471304
1527.657154,612.876398,-0.000000,9030.512492
1527.657483,842.705048,-0.000000,9104.533087
1527.657812,229.828649,-888.247130,9104.533087
1527.658141,459.657299,-296.082377,8882.471304
1527.658470,0.000000,-74.020594,9104.533087
1527.658798,76.609550,-222.061783,8882.471304
1527.659127,153.219100,-74.020594,9178.553681
1527.659456,76.609550,-296.082377,9252.574275
1527.659785,306.438199,-0.000000,9030.512492
1527.660114,153.219100,-592.164754,9178.553681
1527.660443,766.095498,-666.185348,9252.574275
1527.660772,229.828649,-0.000000,9252.574275
1527.661100,229.828649,-222.061783,9104.533087
1527.661429,383.047749,-222.061783,9178.553681
1527.661758,536.266849,-74.020594,9104.533087
1527.662087,383.047749,-370.102971,9104.533087
1527.662416,383.047749,-370.102971,8882.471304
1527.662745,153.219100,-148.041188,9400.615463
1527.663074,76.609550,-74.020594,9178.553681
1527.663403,229.828649,-222.061783,9178.553681
1527.663731,383.047749,-222.061783,9104.533087
1527.664060,153.219100,-222.061783,9104.533087
1527.664389,459.657299,-0.000000,9030.512492
1527.664718,383.047749,-296.082377,8882.471304
1527.665047,612.876398,-0.000000,9030.512492
1527.665376,536.266849,-0.000000,8956.491898
1527.665705,459.657299,-222.061783,8882.471304
1527.666033,306.438199,-0.000000,8882.471304
1527.666362,536.266849,-74.020594,8808.450710
1527.666691,766.095498,-296.082377,9104.533087
1527.667020,536.266849,-518.144159,8882.471304
1527.667349,383.047749,-296.082377,8956.491898
1527.667678,153.219100,-148.041188,9104.533087
1527.668007,229.828649,-222.061783,8882.471304
1527.668335,383.047749,-74.020594,8882.471304
1527.668664,383.047749,-0.000000,9030.512492
1527.668993,383.047749,-0.000000,8808.450710
1527.669322,-536.266849,-0.000000,9178.553681
1527.669651,383.047749,-74.020594,9400.615463
1527.669980,383.047749,-222.061783,9104.533087
1527.670309,383.047749,-296.082377,9104.533087
1527.670637,306.438199,-74.020594,9030.512492
1527.670966,459.657299,-74.020594,9104.533087
1527.671295,229.828649,-148.041188,9474.636058
1527.671624,383.047749,-74.020594,9104.533087
1527.671953,612.876398,-518.144159,8808.450710
1527.672282,229.828649,-0.000000,9474.636058
1527.672611,229.828649,-222.061783,9178.553681
1527.672939,229.828649,-296.082377,9400.615463
1527.673268,229.828649,-0.000000,9178.553681
1527.673597,383.047749,-222.061783,9400.615463
1527.673926,612.876398,-74.020594,9326.594869
1527.674255,306.438199,-370.102971,9326.594869
1527.674584,306.438199,-0.000000,9178.553681
1527.674913,306.438199,-222.061783,9030.512492
1527.675241,306.438199,-0.000000,9178.553681
1527.675570,306.438199,-74.020594,9104.533087
1527.675899,459.657299,-222.061783,9104.533087
1527.676228,612.876398,-148.041188,8882.471304
1527.676557,153.219100,592.164754,9400.615463
1527.676886,76.609550,-0.000000,9030.512492
1527.677215,536.266849,-74.020594,9030.512492
1527.677543,459.657299,-0.000000,8808.450710
1527.677872,306.438199,-0.000000,9104.533087
1527.678201,229.828649,-74.020594,8956.491898
1527.678530,842.705048,-148.041188,8734.430116
1527.678859,229.828649,296.082377,8956.491898
1527.679188,383.047749,-0.000000,9104.533087
1527.679517,229.828649,-74.020594,9030.512492
1527.679845,306.438199,-0.000000,8882.471304
1527.680174,306.438199,-222.061783,9104.533087
1527.680503,0.000000,-148.041188,9178.553681
1527.680832,612.876398,-148.041188,9104.533087
1527.681161,-306.438199,-74.020594,9474.636058
1527.681490,0.000000,-222.061783,9400.615463
1527.681819,306.438199,-222.061783,9252.574275
1527.682147,153.219100,-0.000000,9178.553681
1527.682476,229.828649,-148.041188,9326.594869
1527.682805,536.266849,-148.041188,9326.594869
1527.683134,459.657299,-444.123565,9104.533087
1527.683463,229.828649,-592.164754,9178.553681
1527.683792,459.657299,-518.144159,8882.471304
1527.684121,459.657299,-370.102971,9030.512492
1527.684450,306.438199,-0.000000,9104.533087
1527.684778,459.657299,-296.082377,9030.512492
1527.685107,689.485948,-370.102971,9474.636058
1527.685436,229.828649,-74.020594,9400.615463
1527.685765,229.828649,-74.020594,9104.533087
1527.686094,766.095498,-296.082377,8734.430116
1527.686423,0.000000,-518.144159,9178.553681
1527.686752,383.047749,-148.041188,9252.574275
1527.687080,153.219100,-0.000000,8882.471304
1527.687409,0.000000,-74.020594,9104.533087
1527.687738,229.828649,-0.000000,8882.471304
1527.688067,536.266849,-0.000000,8882.471304
1527.688396,383.047749,-0.000000,8734.430116
1527.688725,459.657299,-74.020594,9104.533087
1527.689054,76.609550,-0.000000,9104.533087
1527.689382,229.828649,-0.000000,8808.450710
1527.689711,306.438199,-0.000000,8808.450710
1527.690040,306.438199,-74.020594,9030.512492
1527.690369,383.047749,-370.102971,8956.491898
1527.690698,153.219100,-74.020594,9178.553681
1527.691027,459.657299,-148.041188,9030.512492
1527.691356,306.438199,-222.061783,9104.533087
1527.691684,306.438199,-74.020594,9030.512492
1527.692013,383.047749,-148.041188,9104.533087
1527.692342,306.438199,-148.041188,9030.512492
1527.692671,459.657299,-444.123565,9104.533087
1527.693000,229.828649,-444.123565,9030.512492
1527.693329,306.438199,-592.164754,8660.409521
1527.693658,995.924147,-370.102971,9326.594869
1527.693986,153.219100,-222.061783,9474.636058
1527.694315,229.828649,-296.082377,9252.574275
1527.694644,383.047749,-296.082377,9104.533087
1527.694973,536.266849,-148.041188,9252.574275
1527.695302,383.047749,-592.164754,9326.594869
1527.695631,689.485948,-222.061783,9400.615463
1527.695960,229.828649,-296.082377,8956.491898
1527.696288,536.266849,-0.000000,9178.553681
1527.696617,306.438199,-74.020594,9030.512492
1527.696946,383.047749,-148.041188,9030.512492
1527.697275,383.047749,-296.082377,9104.533087
1527.697604,536.266849,-148.041188,9030.512492
1527.697933,-153.219100,-222.061783,9178.553681
1527.698262,689.485948,-0.000000,9252.574275
1527.698590,306.438199,-0.000000,9030.512492
1527.698919,306.438199,-0.000000,8882.471304
1527.699248,459.657299,-222.061783,8882.471304
1527.699577,76.609550,-74.020594,9030.512492
1527.699906,459.657299,-370.102971,8660.409521
1527.700235,383.047749,148.041188,9252.574275
1527.700564,842.705048,-148.041188,8882.471304
1527.700892,536.266849,-74.020594,8586.388927
1527.701221,229.828649,148.041188,8808.450710
1527.701550,306.438199,-74.020594,9030.512492
1527.701879,383.047749,-0.000000,9030.512492
1527.702208,306.438199,-296.082377,8734.430116
1527.702537,383.047749,-148.041188,9030.512492
1527.702866,76.609550,-592.164754,9178.553681
1527.703194,536.266849,-148.041188,8956.491898
1527.703523,153.219100,-296.082377,9104.533087
1527.703852,229.828649,-222.061783,9104.533087
1527.704181,459.657299,-0.000000,9326.594869
1527.704510,995.924147,-74.020594,9178.553681
1527.704839,306.438199,-444.123565,8808.450710
1527.705168,536.266849,-296.082377,9030.512492
1527.705496,383.047749,-222.061783,9104.533087
1527.705825,459.657299,-74.020594,9400.615463
1527.706154,153.219100,-148.041188,9178.553681
1527.706483,153.219100,-370.102971,9252.574275
1527.706812,306.438199,-296.082377,8956.491898
1527.707141,-153.219100,-222.061783,9474.636058
1527.707470,766.095498,-518.144159,8882.471304
1527.707799,306.438199,-222.061783,9400.615463
1527.708127,153.219100,-0.000000,9104.533087
1527.708456,229.828649,-0.000000,9030.512492
1527.708785,383.047749,-0.000000,8882.471304
1527.709114,229.828649,-0.000000,9252.574275
1527.709443,842.705048,-0.000000,9104.533087
1527.709772,612.876398,-222.061783,8512.368333
1527.710101,76.609550,-222.061783,8808.450710
1527.710429,306.438199,-0.000000,8956.491898
1527.710758,306.438199,-222.061783,8808.450710
1527.711087,76.609550,-0.000000,9104.533087
1527.711416,842.705048,-0.000000,9326.594869
1527.711745,459.657299,-74.020594,9104.533087
1527.712074,612.876398,-74.020594,8956.491898
1527.712403,383.047749,-0.000000,9030.512492
1527.712731,459.657299,-74.020594,8956.491898
1527.713060,229.828649,-0.000000,9104.533087
1527.713389,153.219100,-0.000000,9104.533087
1527.713718,76.609550,-296.082377,9178.553681
1527.714047,536.266849,148.041188,9252.574275
1527.714376,76.609550,-222.061783,9178.553681
1527.714705,229.828649,-370.102971,9252.574275
1527.715033,229.828649,-370.102971,9178.553681
1527.715362,153.219100,-222.061783,9104.533087
1527.715691,459.657299,-0.000000,9104.533087
1527.716020,229.828649,-148.041188,9178.553681
1527.716349,383.047749,-222.061783,9252.574275
1527.716678,0.000000,-222.061783,9030.512492
1527.717007,153.219100,-222.061783,8956.491898
1527.717335,229.828649,-222.061783,9252.574275
1527.717664,153.219100,-74.020594,9178.553681
1527.717993,229.828649,-370.102971,9252.574275
1527.718322,76.609550,-222.061783,9326.594869
1527.718651,459.657299,-444.123565,9030.512492
1527.718980,689.485948,-0.000000,9104.533087
1527.719309,536.266849,-148.041188,8956.491898
1527.719637,459.657299,-0.000000,9030.512492
1527.719966,229.828649,-0.000000,9030.512492
1527.720295,153.219100,-0.000000,8734.430116
1527.720624,383.047749,-74.020594,8882.471304
1527.720953,459.657299,-296.082377,8808.450710
1527.721282,229.828649,-0.000000,9030.512492
1527.721611,306.438199,-222.061783,9104.533087
1527.721939,459.657299,-222.061783,9030.512492
1527.722268,383.047749,-0.000000,8882.471304
1527.722597,229.828649,-148.041188,9030.512492
1527.722926,76.609550,-74.020594,8882.471304
1527.723255,306.438199,-74.020594,8956.491898
1527.723584,612.876398,-148.041188,9030.512492
1527.723913,383.047749,-370.102971,8956.491898
1527.724241,536.266849,-148.041188,8512.368333
1527.724570,459.657299,-222.061783,8956.491898
1527.724899,76.609550,-0.000000,8882.471304
1527.725228,76.609550,-444.123565,9104.533087
1527.725557,383.047749,-222.061783,9178.553681
1527.725886,383.047749,-444.123565,9104.533087
1527.726215,383.047749,-222.061783,9178.553681
1527.726543,-153.219100,-666.185348,9252.574275
1527.726872,383.047749,-444.123565,9178.553681
1527.727201,383.047749,-0.000000,9178.553681
1527.727530,536.266849,-148.041188,9178.553681
1527.727859,306.438199,-148.041188,9104.533087
1527.728188,383.047749,-296.082377,8956.491898
1527.728517,306.438199,-444.123565,9178.553681
1527.728845,459.657299,-0.000000,9326.594869
1527.729174,612.876398,-444.123565,9400.615463
1527.729503,306.438199,-370.102971,9104.533087
1527.729832,229.828649,-222.061783,9104.533087
1527.730161,306.438199,-222.061783,9104.533087
1527.730490,153.219100,-148.041188,9178.553681
1527.730819,76.609550,-0.000000,9104.533087
1527.731148,229.828649,-0.000000,9104.533087
1527.731476,-153.219100,-74.020594,9104.533087
1527.731805,383.047749,-0.000000,8956.491898
1527.732134,229.828649,-0.000000,8734.430116
1527.732463,306.438199,-222.061783,8882.471304
1527.732792,0.000000,-0.000000,9104.533087
1527.733121,-153.219100,-592.164754,9104.533087
1527.733450,0.000000,-296.082377,8956.491898
1527.733778,229.828649,-296.082377,8882.471304
1527.734107,536.266849,-0.000000,9104.533087
1527.734436,306.438199,-148.041188,8882.471304
1527.734765,383.047749,-148.041188,8882.471304
1527.735094,229.828649,-0.000000,8956.491898
1527.735423,229.828649,-0.000000,8808.450710
1527.735752,229.828649,-370.102971,9104.533087
1527.736080,536.266849,-444.123565,9178.553681
1527.736409,76.609550,-0.000000,9104.533087
1527.736738,306.438199,-74.020594,9104.533087
1527.737067,153.219100,-444.123565,9178.553681
1527.737396,383.047749,-222.061783,9030.512492
1527.737725,383.047749,-370.102971,9326.594869
1527.738054,612.876398,-296.082377,8808.450710
1527.738382,229.828649,-74.020594,9326.594869
1527.738711,153.219100,-148.041188,9252.574275
1527.739040,306.438199,-296.082377,9104.533087
1527.739369,459.657299,-74.020594,9326.594869
1527.739698,459.657299,-148.041188,9178.553681
1527.740027,459.657299,-74.020594,9178.553681
1527.740356,306.438199,-296.082377,9252.574275
1527.740684,383.047749,-370.102971,9104.533087
1527.741013,383.047749,-148.041188,9326.594869
1527.741342,536.266849,-148.041188,9104.533087
1527.741671,536.266849,-0.000000,9252.574275
1527.742000,229.828649,-0.000000,9178.553681
1527.742329,766.095498,-74.020594,9104.533087
1527.742658,383.047749,-222.061783,9178.553681
1527.742986,153.219100,-222.061783,9030.512492
1527.743315,229.828649,-222.061783,9030.512492
1527.743644,153.219100,-0.000000,9030.512492
1527.743973,229.828649,-0.000000,8882.471304
1527.744302,306.438199,-74.020594,8956.491898
1527.744631,229.828649,-74.020594,9030.512492
1527.744960,-229.828649,-0.000000,9178.553681
1527.745289,383.047749,-0.000000,9178.553681
1527.745617,0.000000,-0.000000,8882.471304
1527.745946,306.438199,-0.000000,8882.471304
1527.746275,306.438199,-222.061783,8808.450710
1527.746604,383.047749,-0.000000,8956.491898
1527.746933,306.438199,-74.020594,9104.533087
1527.747262,536.266849,-444.123565,8882.471304
1527.747591,229.828649,-296.082377,9252.574275
1527.747919,689.485948,-296.082377,9252.574275
1527.748248,306.438199,-148.041188,9252.574275
1527.748577,536.266849,-222.061783,9252.574275
1527.748906,383.047749,-222.061783,9178.553681
1527.749235,459.657299,-370.102971,8882.471304
1527.749564,-612.876398,-370.102971,9104.533087
1527.749893,689.485948,-296.082377,9252.574275
1527.750221,306.438199,-370.102971,9104.533087
1527.750550,459.657299,-370.102971,9326.594869
1527.750879,459.657299,-222.061783,9178.553681
1527.751208,229.828649,-222.061783,9104.533087
1527.751537,306.438199,-444.123565,9030.512492
1527.751866,383.047749,148.041188,9474.636058
1527.752195,919.314598,-296.082377,9104.533087
1527.752524,383.047749,-0.000000,9326.594869
1527.752852,153.219100,-296.082377,9104.533087
1527.753181,76.609550,-148.041188,9104.533087
1527.753510,229.828649,-222.061783,9104.533087
1527.753839,383.047749,-0.000000,8882.471304
1527.754168,383.047749,-0.000000,8882.471304
1527.754497,842.705048,-148.041188,8956.491898
1527.754826,153.219100,-74.020594,8956.491898
1527.755154,612.876398,-0.000000,8956.491898
1527.755483,153.219100,-74.020594,8734.430116
1527.755812,383.047749,-0.000000,9104.533087
1527.756141,229.828649,74.020594,8956.491898
1527.756470,0.000000,-0.000000,9104.533087
1527.756799,612.876398,-148.041188,8734.430116
1527.757128,306.438199,-222.061783,9178.553681
1527.757456,229.828649,-148.041188,8956.491898
1527.757785,383.047749,-148.041188,8956.491898
1527.758114,383.047749,-148.041188,9030.512492
1527.758443,536.266849,-148.041188,9252.574275
1527.758772,612.876398,-296.082377,9252.574275
1527.759101,612.876398,-222.061783,8660.409521
1527.759430,383.047749,-370.102971,9178.553681
1527.759759,536.266849,-74.020594,9178.553681
1527.760087,306.438199,-148.041188,9104.533087
1527.760416,536.266849,-222.061783,9326.594869
1527.760745,612.876398,-592.164754,9400.615463
1527.761074,689.485948,-666.185348,9400.615463
1527.761403,459.657299,-0.000000,9104.533087
1527.761732,153.219100,-148.041188,8956.491898
1527.762061,536.266849,-222.061783,9178.553681
1527.762389,536.266849,-74.020594,9030.512492
1527.762718,229.828649,-74.020594,8956.491898
1527.763047,536.266849,-444.123565,9252.574275
1527.763376,153.219100,-222.061783,9030.512492
1527.763705,306.438199,-370.102971,8956.491898
1527.764034,689.485948,-222.061783,9104.533087
1527.764363,536.266849,-74.020594,8956.491898
1527.764691,383.047749,-0.000000,8956.491898
1527.765020,383.047749,-0.000000,8734.430116
1527.765349,306.438199,-74.020594,8882.471304
1527.765678,383.047749,-0.000000,8882.471304
1527.766007,0.000000,-148.041188,9104.533087
1527.766336,459.657299,-370.102971,8808.450710
1527.766665,383.047749,-592.164754,8882.471304
1527.766994,229.828649,-0.000000,9400.615463
1527.767322,229.828649,-222.061783,8808.450710
1527.767651,229.828649,-148.041188,8882.471304
1527.767980,306.438199,-148.041188,8882.471304
1527.768309,76.609550,-666.185348,8956.491898
1527.768638,306.438199,-370.102971,9104.533087
1527.768967,689.485948,-296.082377,9104.533087
1527.769296,459.657299,-518.144159,9030.512492
1527.769624,459.657299,-222.061783,9104.533087
1527.769953,306.438199,-0.000000,9104.533087
1527.770282,459.657299,-148.041188,9178.553681
1527.770611,229.828649,-148.041188,9104.533087
1527.770940,612.876398,296.082377,9252.574275
1527.771269,229.828649,-296.082377,9326.594869
1527.771598,306.438199,-518.144159,9252.574275
1527.771926,383.047749,-222.061783,9252.574275
1527.772255,383.047749,-222.061783,9326.594869
1527.772584,459.657299,-222.061783,9178.553681
1527.772913,536.266849,-518.144159,9178.553681
1527.773242,0.000000,-592.164754,9178.553681
1527.773571,383.047749,-370.102971,8734.430116
1527.773900,766.095498,-222.061783,8808.450710
1527.774229,536.266849,-370.102971,8956.491898
1527.774557,383.047749,-148.041188,9104.533087
1527.774886,459.657299,-0.000000,9104.533087
1527.775215,536.266849,-0.000000,9104.533087
1527.775544,383.047749,-0.000000,8734.430116
1527.775873,229.828649,222.061783,9474.636058
1527.776202,689.485948,-444.123565,8734.430116
1527.776531,229.828649,-0.000000,8512.368333
1527.776859,153.219100,-0.000000,9030.512492
1527.777188,383.047749,-0.000000,8882.471304
1527.777517,383.047749,-0.000000,8882.471304
1527.777846,689.485948,296.082377,8956.491898
1527.778175,612.876398,-148.041188,9030.512492
1527.778504,459.657299,-74.020594,8734.430116
1527.778833,383.047749,-74.020594,8956.491898
1527.779161,306.438199,-74.020594,8882.471304
1527.779490,229.828649,-222.061783,8808.450710
1527.779819,229.828649,-222.061783,9104.533087
1527.780148,0.000000,-148.041188,8956.491898
1527.780477,306.438199,-222.061783,9178.553681
1527.780806,919.314598,-74.020594,9178.553681
1527.781135,306.438199,-74.020594,9104.533087
1527.781464,306.438199,-74.020594,8956.491898
1527.781792,383.047749,-222.061783,9104.533087
1527.782121,229.828649,-222.061783,9104.533087
1527.782450,383.047749,-296.082377,9326.594869
1527.782779,536.266849,-296.082377,8808.450710
1527.783108,689.485948,-296.082377,9400.615463
1527.783437,229.828649,-296.082377,9252.574275
1527.783766,383.047749,-222.061783,9252.574275
1527.784094,459.657299,-296.082377,9104.533087
1527.784423,383.047749,-148.041188,9326.594869
1527.784752,306.438199,-74.020594,9104.533087
1527.785081,536.266849,-222.061783,9252.574275
1527.785410,459.657299,-222.061783,9104.533087
1527.785739,459.657299,-0.000000,9178.553681
1527.786068,536.266849,-296.082377,9104.533087
1527.786396,229.828649,-222.061783,8882.471304
1527.786725,229.828649,-148.041188,8808.450710
1527.787054,306.438199,-222.061783,9030.512492
1527.787383,229.828649,592.164754,9104.533087
1527.787712,76.609550,-222.061783,9400.615463
1527.788041,306.438199,-222.061783,8734.430116
1527.788370,306.438199,-74.020594,8660.409521
1527.788699,153.219100,-0.000000,8808.450710
1527.789027,306.438199,-74.020594,8956.491898
1527.789356,0.000000,-296.082377,8808.450710
1527.789685,536.266849,-148.041188,9030.512492
1527.790014,536.266849,-74.020594,8808.450710
1527.790343,229.828649,-148.041188,8734.430116
1527.790672,383.047749,-222.061783,9030.512492
1527.791001,536.266849,-0.000000,9030.512492
1527.791329,306.438199,-222.061783,8882.471304
1527.791658,306.438199,-222.061783,9030.512492
1527.791987,689.485948,-370.102971,9252.574275
1527.792316,459.657299,-296.082377,8808.450710
1527.792645,0.000000,-444.123565,8956.491898
1527.792974,612.876398,-296.082377,9326.594869
1527.793303,229.828649,-444.123565,9400.615463
1527.793631,383.047749,-296.082377,9178.553681
1527.793960,766.095498,-296.082377,9326.594869
1527.794289,1149.143247,-370.102971,9326.594869
1527.794618,536.266849,-592.164754,9252.574275
1527.794947,383.047749,-222.061783,9474.636058
1527.795276,229.828649,-222.061783,9252.574275
1527.795605,383.047749,-148.041188,9178.553681
1527.795934,383.047749,-148.041188,9178.553681
1527.796262,459.657299,-222.061783,9178.553681
1527.796591,229.828649,370.102971,9400.615463
1527.796920,306.438199,370.102971,9178.553681
1527.797249,153.219100,-0.000000,9326.594869
1527.797578,536.266849,-74.020594,9030.512492
1527.797907,383.047749,-74.020594,8956.491898
1527.798236,229.828649,-0.000000,8956.491898
1527.798564,229.828649,-148.041188,8882.471304
1527.798893,459.657299,-518.144159,9030.512492
1527.799222,229.828649,-0.000000,8882.471304
1527.799551,459.657299,-0.000000,8808.450710
1527.799880,229.828649,-74.020594,8956.491898
1527.800209,229.828649,-148.041188,8882.471304
1527.800538,229.828649,-74.020594,8882.471304
1527.800866,76.609550,-296.082377,8956.491898
1527.801195,536.266849,-518.144159,8882.471304
1527.801524,459.657299,-74.020594,9030.512492
1527.801853,229.828649,-222.061783,8882.471304
1527.802182,153.219100,-0.000000,8882.471304
1527.802511,76.609550,-0.000000,9104.533087
1527.802840,229.828649,-0.000000,9178.553681
1527.803169,76.609550,-444.123565,9178.553681
1527.803497,306.438199,-444.123565,9252.574275
1527.803826,612.876398,-518.144159,9400.615463
1527.804155,153.219100,-444.123565,9030.512492
1527.804484,76.609550,-222.061783,9104.533087
1527.804813,383.047749,-0.000000,9400.615463
1527.805142,383.047749,-148.041188,9104.533087
1527.805471,229.828649,-296.082377,9252.574275
1527.805799,536.266849,-148.041188,9326.594869
1527.806128,-229.828649,-222.061783,9178.553681
1527.806457,0.000000,-222.061783,9474.636058
1527.806786,229.828649,-296.082377,9326.594869
1527.807115,383.047749,-148.041188,9104.533087
1527.807444,229.828649,-222.061783,9400.615463
1527.807773,229.828649,-370.102971,9400.615463
1527.808101,459.657299,-592.164754,9030.512492
1527.808430,229.828649,-296.082377,9252.574275
1527.808759,612.876398,-296.082377,9104.533087
1527.809088,229.828649,-0.000000,8882.471304
1527.809417,153.219100,-0.000000,9030.512492
1527.809746,229.828649,-0.000000,8882.471304
1527.810075,536.266849,-148.041188,8586.388927
1527.810404,536.266849,-370.102971,8586.388927
1527.810732,0.000000,-148.041188,9104.533087
1527.811061,76.609550,-296.082377,8956.491898
1527.811390,229.828649,-148.041188,9104.533087
1527.811719,306.438199,-222.061783,8956.491898
1527.812048,459.657299,-0.000000,8956.491898
1527.812377,536.266849,-0.000000,8956.491898
1527.812706,689.485948,148.041188,9400.615463
1527.813034,459.657299,-0.000000,9178.553681
1527.813363,536.266849,370.102971,8882.471304
1527.813692,306.438199,-74.020594,9030.512492
1527.814021,306.438199,-222.061783,9030.512492
1527.814350,153.219100,-74.020594,9178.553681
1527.814679,536.266849,-444.123565,8882.471304
1527.815008,153.219100,-370.102971,9400.615463
1527.815336,536.266849,-222.061783,9252.574275
1527.815665,306.438199,-518.144159,9400.615463
1527.815994,229.828649,-296.082377,9400.615463
1527.816323,383.047749,-148.041188,9400.615463
1527.816652,383.047749,-222.061783,9104.533087
1527.816981,459.657299,-148.041188,9400.615463
1527.817310,842.705048,-222.061783,9400.615463
1527.817639,383.047749,-296.082377,9178.553681
1527.817967,612.876398,-74.020594,9252.574275
1527.818296,383.047749,-148.041188,9252.574275
1527.818625,229.828649,-148.041188,9030.512492
1527.818954,153.219100,-148.041188,9104.533087
1527.819283,536.266849,-666.185348,9252.574275
1527.819612,536.266849,-74.020594,9178.553681
1527.819941,76.609550,-444.123565,9326.594869
1527.820269,76.609550,-74.020594,9104.533087
1527.820598,306.438199,-0.000000,9104.533087
1527.820927,536.266849,-0.000000,9030.512492
1527.821256,383.047749,-0.000000,8734.430116
1527.821585,383.047749,-148.041188,9104.533087
1527.821914,153.219100,-74.020594,8808.450710
1527.822243,306.438199,-0.000000,8734.430116
1527.822571,-689.485948,-0.000000,9326.594869
1527.822900,383.047749,-0.000000,9178.553681
1527.823229,383.047749,-0.000000,9030.512492
1527.823558,306.438199,-0.000000,8808.450710
1527.823887,612.876398,-222.061783,8882.471304
1527.824216,383.047749,-0.000000,9104.533087
1527.824545,76.609550,-296.082377,9030.512492
1527.824874,536.266849,-74.020594,9252.574275
1527.825202,76.609550,-148.041188,9178.553681
1527.825531,229.828649,-148.041188,9178.553681
1527.825860,229.828649,-0.000000,9104.533087
1527.826189,383.047749,-0.000000,8882.471304
1527.826518,612.876398,-222.061783,9400.615463
1527.826847,0.000000,-444.123565,9400.615463
1527.827176,153.219100,-0.000000,9326.594869
1527.827504,306.438199,-74.020594,9326.594869
1527.827833,459.657299,-370.102971,9178.553681
1527.828162,306.438199,-148.041188,9178.553681
1527.828491,383.047749,-296.082377,9326.594869
1527.828820,842.705048,-666.185348,9548.656652
1527.829149,536.266849,-518.144159,8882.471304
1527.829478,306.438199,-222.061783,9178.553681
1527.829806,383.047749,-222.061783,9178.553681
1527.830135,306.438199,-0.000000,8956.491898
1527.830464,306.438199,-0.000000,9104.533087
1527.830793,459.657299,-74.020594,9104.533087
1527.831122,459.657299,-222.061783,9104.533087
1527.831451,383.047749,-0.000000,8882.471304
1527.831780,612.876398,-370.102971,8956.491898
1527.832109,229.828649,-0.000000,8808.450710
1527.832437,306.438199,-74.020594,8734.430116
1527.832766,229.828649,-0.000000,8882.471304
1527.833095,383.047749,-74.020594,8882.471304
1527.833424,612.876398,-222.061783,8882.471304
1527.833753,306.438199,-0.000000,9104.533087
1527.834082,383.047749,-370.102971,8956.491898
1527.834411,229.828649,-148.041188,8808.450710
1527.834739,229.828649,-222.061783,8808.450710
1527.835068,459.657299,-0.000000,9104.533087
1527.835397,383.047749,-296.082377,8956.491898
1527.835726,306.438199,-74.020594,8956.491898
1527.836055,0.000000,-296.082377,8956.491898
1527.836384,383.047749,-74.020594,9326.594869
1527.836713,459.657299,-370.102971,9178.553681
1527.837041,306.438199,-222.061783,9326.594869
1527.837370,536.266849,-148.041188,9178.553681
1527.837699,536.266849,-296.082377,8734.430116
1527.838028,383.047749,-296.082377,9326.594869
1527.838357,459.657299,-740.205942,9104.533087
1527.838686,306.438199,-370.102971,9030.512492
1527.839015,306.438199,-148.041188,9252.574275
1527.839344,383.047749,-222.061783,9252.574275
1527.839672,76.609550,-222.061783,9252.574275
1527.840001,612.876398,-222.061783,8956.491898
