#time,accel_x,accel_y,accel_z
2705.313309,612.876398,-370.102971,9326.594869
2705.313638,229.828649,-296.082377,9178.553681
2705.313967,229.828649,-0.000000,9326.594869
2705.314296,229.828649,-74.020594,9178.553681
2705.314625,153.219100,-74.020594,9104.533087
2705.314954,229.828649,-0.000000,9178.553681
2705.315283,306.438199,-74.020594,9178.553681
2705.315612,383.047749,-0.000000,8734.430116
2705.315941,536.266849,370.102971,8882.471304
2705.316270,153.219100,-296.082377,8808.450710
2705.316599,612.876398,-222.061783,8882.471304
2705.316928,306.438199,-74.020594,9178.553681
2705.317257,76.609550,-370.102971,8882.471304
2705.317586,76.609550,-222.061783,8882.471304
2705.317915,0.000000,-296.082377,9030.512492
2705.318244,0.000000,-222.061783,8956.491898
2705.318573,306.438199,-370.102971,8882.471304
2705.318902,383.047749,-222.061783,9178.553681
2705.319231,536.266849,-444.123565,9030.512492
2705.319560,536.266849,148.041188,9178.553681
2705.319889,383.047749,-0.000000,9030.512492
2705.320218,612.876398,-222.061783,8956.491898
2705.320547,383.047749,-148.041188,9104.533087
2705.320876,0.000000,-148.041188,9178.553681
2705.321205,306.438199,-666.185348,9474.636058
2705.321534,229.828649,-222.061783,9474.636058
2705.321863,0.000000,-444.123565,9474.636058
2705.322192,76.609550,-296.082377,9252.574275
2705.322521,153.219100,-444.123565,9178.553681
2705.322850,229.828649,-222.061783,9326.594869
2705.323179,842.705048,-370.102971,8808.450710
2705.323508,612.876398,-222.061783,9400.615463
2705.323837,76.609550,-0.000000,9474.636058
2705.324166,306.438199,-74.020594,8956.491898
2705.324495,383.047749,-0.000000,9030.512492
2705.324824,76.609550,-222.061783,9104.533087
2705.325153,76.609550,-0.000000,9178.553681
2705.325482,306.438199,-222.061783,9030.512492
2705.325811,229.828649,-370.102971,8660.409521
2705.326140,383.047749,-222.061783,9178.553681
2705.326469,76.609550,-222.061783,9104.533087
2705.326798,536.266849,-0.000000,8956.491898
2705.327127,306.438199,-74.020594,8734.430116
2705.327456,306.438199,-0.000000,8956.491898
2705.327785,612.876398,-296.082377,8734.430116
2705.328114,459.657299,-74.020594,8956.491898
2705.328443,842.705048,-148.041188,8734.430116
2705.328772,306.438199,-74.020594,8882.471304
2705.329101,383.047749,-0.000000,9104.533087
2705.329430,229.828649,-74.020594,8956.491898
2705.329759,229.828649,-0.000000,8808.450710
2705.330088,0.000000,-0.000000,9178.553681
2705.330417,229.828649,-370.102971,8882.471304
2705.330746,383.047749,-148.041188,9030.512492
2705.331075,0.000000,-0.000000,9030.512492
2705.331404,383.047749,-296.082377,9030.512492
2705.331733,306.438199,-0.000000,9030.512492
2705.332062,383.047749,-74.020594,9178.553681
2705.332391,689.485948,-444.123565,9178.553681
2705.332720,306.438199,-222.061783,9178.553681
2705.333049,0.000000,-222.061783,9474.636058
2705.333378,229.828649,-444.123565,9178.553681
2705.333707,153.219100,-370.102971,9178.553681
2705.334036,306.438199,-222.061783,9326.594869
2705.334365,153.219100,-148.041188,9104.533087
2705.334695,459.657299,-518.144159,9326.594869
2705.335024,612.876398,-222.061783,9400.615463
2705.335353,919.314598,-444.123565,8660.409521
2705.335682,689.485948,-0.000000,9104.533087
2705.336011,383.047749,-0.000000,9178.553681
2705.336340,459.657299,-0.000000,9178.553681
2705.336669,306.438199,-148.041188,9178.553681
2705.336998,459.657299,-296.082377,9178.553681
2705.337327,153.219100,-222.061783,9178.553681
2705.337656,229.828649,-296.082377,9178.553681
2705.337985,0.000000,-0.000000,9252.574275
2705.338314,306.438199,-222.061783,8956.491898
2705.338643,383.047749,-0.000000,9030.512492
2705.338972,229.828649,-0.000000,8882.471304
2705.339301,536.266849,-370.102971,8882.471304
2705.339630,689.485948,-148.041188,8956.491898
2705.339959,-153.219100,-148.041188,9030.512492
2705.340288,153.219100,-0.000000,8956.491898
2705.340617,306.438199,-74.020594,9178.553681
2705.340946,229.828649,-444.123565,8882.471304
2705.341275,153.219100,-296.082377,9104.533087
2705.341604,459.657299,-0.000000,9252.574275
2705.341933,229.828649,-0.000000,9252.574275
2705.342262,689.485948,-444.123565,9030.512492
2705.342591,306.438199,-74.020594,8734.430116
2705.342920,536.266849,-148.041188,9104.533087
2705.343249,459.657299,-74.020594,9104.533087
2705.343578,383.047749,-296.082377,9474.636058
2705.343907,1532.190996,-1110.308913,9918.759623
2705.344236,1685.410096,-962.267725,9474.636058
2705.344565,995.924147,-740.205942,9918.759623
2705.344894,2068.457845,-518.144159,9400.615463
2705.345223,2374.896044,-0.000000,8882.471304
2705.345552,3217.601092,222.061783,8956.491898
2705.345881,4060.306139,-148.041188,8956.491898
2705.346210,3907.087040,-0.000000,8734.430116
2705.346539,2987.772442,518.144159,8956.491898
2705.346868,3064.381992,-0.000000,8438.347739
2705.347197,3064.381992,-296.082377,9326.594869
2705.347526,2911.162892,-148.041188,9326.594869
2705.347855,1991.848295,-370.102971,9474.636058
2705.348184,1991.848295,-1628.453072,9844.739029
2705.348513,2528.115143,-1184.329507,9252.574275
2705.348842,2757.943793,-0.000000,9326.594869
2705.349171,2681.334243,-1332.370696,9622.677246
2705.349500,3140.991542,-814.226536,8882.471304
2705.349829,3907.087040,518.144159,9548.656652
2705.350158,5669.106685,296.082377,7105.977043
2705.350487,4596.572988,1110.308913,8068.244768
2705.350816,5056.230287,1184.329507,9252.574275
2705.351145,4749.792088,1110.308913,7031.956449
2705.351474,4136.915689,592.164754,8956.491898
2705.351803,3753.867940,-0.000000,8438.347739
2705.352132,2451.505594,666.185348,8364.327145
2705.352461,1225.752797,-0.000000,9770.718434
2705.352790,1072.533697,-1036.288319,9474.636058
2705.353119,1608.800546,-814.226536,9844.739029
2705.353448,459.657299,-1628.453072,9474.636058
2705.353777,1991.848295,-592.164754,9844.739029
2705.354106,1072.533697,-814.226536,10584.944971
2705.354435,3064.381992,222.061783,8216.285956
2705.354764,2911.162892,-740.205942,9400.615463
2705.355093,4136.915689,1406.391290,8956.491898
2705.355422,4366.744339,370.102971,8364.327145
2705.355751,4519.963438,1110.308913,8290.306550
2705.356080,4366.744339,740.205942,9252.574275
2705.356409,4060.306139,-74.020594,8808.450710
2705.356738,3677.258390,-1258.350101,9326.594869
2705.357067,2528.115143,-1110.308913,9622.677246
2705.357396,2911.162892,-1184.329507,10436.903782
2705.357725,2221.676944,-1776.494261,9474.636058
2705.358054,2221.676944,-1628.453072,10140.821405
2705.358383,2604.724693,-814.226536,9918.759623
2705.358712,3677.258390,-74.020594,9474.636058
2705.359041,3677.258390,518.144159,8586.388927
2705.359370,4136.915689,1776.494261,8956.491898
2705.359699,4213.525239,2146.597232,8290.306550
2705.360028,4213.525239,2442.679609,7254.018232
2705.360357,4136.915689,2220.617826,7698.141797
2705.360686,4213.525239,1702.473667,7994.224174
2705.361015,3370.820191,962.267725,7920.203579
2705.361344,3064.381992,-444.123565,9178.553681
2705.361673,2221.676944,-1702.473667,9918.759623
2705.362002,2298.286494,-2368.659014,9992.780217
2705.362331,1838.629195,-2886.803174,10584.944971
2705.362660,2374.896044,-2738.761985,10658.965565
2705.362989,3677.258390,-1776.494261,10584.944971
2705.363318,4213.525239,-74.020594,9844.739029
2705.363647,4673.182538,740.205942,9474.636058
2705.363976,5745.716235,1776.494261,8586.388927
2705.364305,5209.449386,2664.741391,7550.100608
2705.364634,4903.011187,2812.782580,7624.121203
2705.364963,4519.963438,3849.070898,6439.791695
2705.365292,4060.306139,2442.679609,7179.997637
2705.365621,2911.162892,962.267725,7550.100608
2705.365950,1455.581446,-1850.514855,9770.718434
2705.366279,-612.876398,-3404.947333,10436.903782
2705.366608,-1378.971896,-4515.256246,11843.295072
2705.366937,-995.924147,-5477.523971,11843.295072
2705.367266,-919.314598,-2516.700203,10436.903782
2705.367595,612.876398,-2220.617826,11177.109724
2705.367924,612.876398,-518.144159,10140.821405
2705.368254,3830.477490,888.247130,10955.047942
2705.368583,6052.154434,1702.473667,8512.368333
2705.368912,7890.783629,1776.494261,8512.368333
2705.369241,6128.763984,1554.432478,7920.203579
2705.369570,5898.935335,2072.576638,6735.874072
2705.369899,6205.373534,2664.741391,6809.894666
2705.370228,5669.106685,2220.617826,6217.729913
2705.370557,4903.011187,2886.803174,5773.606348
2705.370886,4826.401637,2072.576638,6143.709319
2705.371215,4290.134789,1628.453072,5699.585753
2705.371544,2987.772442,-1850.514855,8660.409521
2705.371873,0.000000,-7846.182985,12509.480420
2705.372202,-1762.019645,-4589.276840,10881.027347
2705.372531,-1532.190996,-5551.544565,14359.995275
2705.372860,-1455.581446,-7254.018232,12509.480420
2705.373189,-842.705048,518.144159,10955.047942
2705.373518,2757.943793,-370.102971,11325.150913
2705.373847,3677.258390,2146.597232,9770.718434
2705.374176,6281.983084,1110.308913,9326.594869
2705.374505,7737.564530,1554.432478,9400.615463
2705.374834,8044.002729,3775.050304,6439.791695
2705.375163,7967.393179,4515.256246,5255.462188
2705.375492,7967.393179,1702.473667,4811.338623
2705.375821,8197.221829,2886.803174,4959.379811
2705.376150,7507.735880,1332.370696,6365.771101
2705.376479,4903.011187,1110.308913,6291.750507
2705.376808,3907.087040,1554.432478,5995.668130
2705.377137,2987.772442,-2220.617826,11177.109724
2705.377466,-1838.629195,-5995.668130,14211.954086
2705.377795,-2987.772442,-5329.482782,11621.233289
2705.378124,-2451.505594,-1480.411884,14656.077652
2705.378453,-995.924147,-7105.977043,13545.768739
2705.378782,-1608.800546,2812.782580,10214.842000
2705.379111,2145.067394,-1924.535449,11991.336260
2705.379440,-1378.971896,2738.761985,8808.450710
2705.379769,4366.744339,-814.226536,15396.283594
2705.380098,7354.516781,1110.308913,5625.565159
2705.380427,9576.193725,1776.494261,9104.533087
2705.380756,6052.154434,1554.432478,6291.750507
2705.381085,7890.783629,2368.659014,3701.029710
2705.381414,6588.421283,666.185348,9326.594869
2705.381743,5822.325785,1184.329507,5181.441594
2705.382072,5362.668486,3256.906145,6809.894666
2705.382401,3064.381992,2220.617826,7624.121203
2705.382730,3064.381992,1628.453072,7846.182985
2705.383059,2911.162892,1036.288319,9400.615463
2705.383388,1532.190996,-3478.967927,11547.212695
2705.383717,153.219100,-1702.473667,10658.965565
2705.384046,229.828649,-3034.844362,12879.583391
2705.384375,-1149.143247,-3997.112087,11695.253884
2705.384704,-689.485948,-148.041188,10066.800811
2705.385033,1302.362347,-148.041188,10955.047942
2705.385362,1302.362347,518.144159,8734.430116
2705.385691,2451.505594,1184.329507,8216.285956
2705.386020,3677.258390,1332.370696,9104.533087
2705.386349,3600.648841,2368.659014,7179.997637
2705.386678,3907.087040,888.247130,7772.162391
2705.387007,4366.744339,-1036.288319,7476.080014
2705.387336,3753.867940,-2368.659014,8586.388927
2705.387665,3140.991542,-2072.576638,10214.842000
2705.387994,2987.772442,-1110.308913,9696.697840
2705.388323,2374.896044,-666.185348,10288.862594
2705.388652,3524.039291,592.164754,10658.965565
2705.388981,3140.991542,1406.391290,8734.430116
2705.389310,2834.553343,518.144159,9918.759623
2705.389639,3753.867940,1036.288319,8808.450710
2705.389968,4596.572988,1110.308913,8512.368333
2705.390297,4596.572988,1036.288319,8956.491898
2705.390626,4519.963438,222.061783,8734.430116
2705.390955,3370.820191,-962.267725,8734.430116
2705.391284,2604.724693,-1554.432478,9030.512492
2705.391614,2757.943793,-592.164754,8364.327145
2705.391943,1455.581446,-666.185348,9770.718434
2705.392272,689.485948,-1184.329507,9696.697840
2705.392601,1149.143247,-1332.370696,10066.800811
2705.392930,2374.896044,-1036.288319,9918.759623
2705.393259,2068.457845,-1110.308913,9326.594869
2705.393588,2374.896044,-740.205942,10214.842000
2705.393917,2681.334243,-518.144159,10807.006753
2705.394246,4673.182538,1480.411884,9474.636058
2705.394575,6052.154434,2220.617826,8142.265362
2705.394904,6205.373534,1258.350101,8512.368333
2705.395233,4366.744339,1184.329507,8586.388927
2705.395562,4903.011187,2072.576638,7328.038826
2705.395891,5439.278036,740.205942,7402.059420
2705.396220,5592.497135,-222.061783,8142.265362
2705.396549,5056.230287,444.123565,8364.327145
2705.396878,4366.744339,-0.000000,7179.997637
2705.397207,2298.286494,-1850.514855,8882.471304
2705.397536,2528.115143,-2812.782580,11177.109724
2705.397865,2451.505594,-1628.453072,10881.027347
2705.398194,1455.581446,-1850.514855,9992.780217
2705.398524,1532.190996,-370.102971,8956.491898
2705.398853,2757.943793,-0.000000,10807.006753
2705.399182,3600.648841,-444.123565,10510.924376
2705.399511,4826.401637,1480.411884,8290.306550
2705.399840,4979.620737,370.102971,7994.224174
2705.400169,4366.744339,2368.659014,7179.997637
2705.400498,5056.230287,1702.473667,8364.327145
2705.400827,4290.134789,444.123565,7105.977043
2705.401156,2987.772442,-0.000000,7105.977043
2705.401485,1149.143247,-814.226536,9326.594869
2705.401814,229.828649,-1924.535449,9400.615463
2705.402143,0.000000,-1332.370696,9548.656652
2705.402472,-995.924147,-2442.679609,10362.883188
2705.402801,-1532.190996,-1036.288319,9770.718434
2705.403130,-1685.410096,-1628.453072,10658.965565
2705.403459,-1072.533697,-888.247130,9252.574275
2705.403788,-612.876398,148.041188,9326.594869
2705.404117,536.266849,-0.000000,9770.718434
2705.404446,1302.362347,518.144159,8882.471304
2705.404775,1225.752797,-0.000000,9252.574275
2705.405104,1685.410096,592.164754,8364.327145
2705.405434,2987.772442,296.082377,7920.203579
2705.405763,3370.820191,1258.350101,6809.894666
2705.406092,3447.429741,1258.350101,7402.059420
2705.406421,2374.896044,518.144159,8808.450710
2705.406750,1455.581446,-1184.329507,8290.306550
2705.407079,153.219100,-296.082377,8956.491898
2705.407408,-1149.143247,-518.144159,9104.533087
2705.407737,-1225.752797,-740.205942,9548.656652
2705.408066,-1838.629195,-1036.288319,9844.739029
2705.408395,-1302.362347,-518.144159,9474.636058
2705.408724,-612.876398,-370.102971,10066.800811
2705.409053,-1378.971896,-518.144159,10140.821405
2705.409382,-1072.533697,-296.082377,8956.491898
2705.409711,-1302.362347,-740.205942,10140.821405
2705.410040,-1225.752797,-148.041188,10214.842000
2705.410369,0.000000,-444.123565,7920.203579
2705.410698,76.609550,370.102971,8586.388927
2705.411027,306.438199,-74.020594,9992.780217
2705.411356,1149.143247,-0.000000,9178.553681
2705.411685,995.924147,-148.041188,7846.182985
2705.412014,536.266849,-0.000000,9030.512492
2705.412344,766.095498,888.247130,9104.533087
2705.412673,383.047749,-0.000000,8142.265362
2705.413002,0.000000,-888.247130,9030.512492
2705.413331,383.047749,-888.247130,10140.821405
2705.413660,229.828649,-1776.494261,9770.718434
2705.413989,-306.438199,-1628.453072,9104.533087
2705.414318,-229.828649,-814.226536,10214.842000
2705.414647,-306.438199,-0.000000,9474.636058
2705.414976,842.705048,-0.000000,8808.450710
2705.415305,1838.629195,-592.164754,9474.636058
2705.415634,2604.724693,666.185348,8956.491898
2705.415963,3370.820191,666.185348,8512.368333
2705.416292,2451.505594,296.082377,8364.327145
2705.416621,2604.724693,296.082377,9104.533087
2705.416950,2145.067394,1184.329507,7772.162391
2705.417279,1762.019645,1184.329507,7105.977043
2705.417608,1532.190996,-0.000000,8808.450710
2705.417937,612.876398,592.164754,8882.471304
2705.418266,995.924147,-1110.308913,9696.697840
2705.418595,-689.485948,-962.267725,9178.553681
2705.418925,-1072.533697,-1258.350101,9696.697840
2705.419254,-1072.533697,-1406.391290,10807.006753
2705.419583,0.000000,-1332.370696,8586.388927
2705.419912,306.438199,-222.061783,9104.533087
2705.420241,766.095498,-962.267725,10288.862594
2705.420570,1608.800546,666.185348,8882.471304
2705.420899,1838.629195,-370.102971,8216.285956
2705.421228,1225.752797,1110.308913,8956.491898
2705.421557,1378.971896,1258.350101,8586.388927
2705.421886,1225.752797,888.247130,7920.203579
2705.422215,153.219100,370.102971,8364.327145
2705.422544,0.000000,-222.061783,10510.924376
2705.422873,-842.705048,-1406.391290,9548.656652
2705.423202,-612.876398,-1628.453072,9178.553681
2705.423531,-1608.800546,-962.267725,10881.027347
2705.423860,-1532.190996,-296.082377,9548.656652
2705.424189,-1532.190996,-370.102971,8882.471304
2705.424518,-1072.533697,-74.020594,9178.553681
2705.424847,-689.485948,-148.041188,10732.986159
2705.425176,-689.485948,-666.185348,9030.512492
2705.425505,-766.095498,-740.205942,8364.327145
2705.425835,-689.485948,-0.000000,9622.677246
2705.426164,-842.705048,-222.061783,8882.471304
2705.426493,-153.219100,148.041188,8216.285956
2705.426822,612.876398,740.205942,8216.285956
2705.427151,842.705048,-0.000000,8216.285956
2705.427480,919.314598,296.082377,8660.409521
2705.427809,766.095498,-0.000000,8882.471304
2705.428138,-306.438199,1036.288319,9030.512492
2705.428467,689.485948,666.185348,8586.388927
2705.428796,689.485948,-0.000000,7994.224174
2705.429125,229.828649,-444.123565,9178.553681
2705.429454,1225.752797,-0.000000,10658.965565
2705.429783,919.314598,-518.144159,8512.368333
2705.430112,306.438199,-296.082377,8512.368333
2705.430441,0.000000,-148.041188,9474.636058
2705.430770,0.000000,518.144159,9400.615463
2705.431099,612.876398,296.082377,7920.203579
2705.431428,229.828649,-0.000000,8068.244768
2705.431757,0.000000,370.102971,9696.697840
2705.432086,383.047749,-962.267725,9252.574275
2705.432415,306.438199,-1776.494261,9178.553681
2705.432745,-153.219100,-1406.391290,9770.718434
2705.433074,153.219100,-444.123565,9474.636058
2705.433403,919.314598,-888.247130,8660.409521
2705.433732,536.266849,444.123565,9178.553681
2705.434061,1072.533697,444.123565,10214.842000
2705.434390,1072.533697,-148.041188,8438.347739
2705.434719,842.705048,-74.020594,8882.471304
2705.435048,-383.047749,888.247130,8956.491898
2705.435377,0.000000,370.102971,9474.636058
2705.435706,0.000000,-1184.329507,8586.388927
2705.436035,-536.266849,-0.000000,9474.636058
2705.436364,-306.438199,-1850.514855,10584.944971
2705.436693,-689.485948,-2220.617826,9326.594869
2705.437022,76.609550,-740.205942,8586.388927
2705.437351,153.219100,-444.123565,9918.759623
2705.437680,0.000000,-370.102971,8956.491898
2705.438009,1149.143247,-666.185348,8808.450710
2705.438338,1455.581446,222.061783,8956.491898
2705.438667,1991.848295,740.205942,9104.533087
2705.438996,2451.505594,518.144159,7994.224174
2705.439326,2145.067394,518.144159,9030.512492
2705.439655,1915.238745,962.267725,8660.409521
2705.439984,1455.581446,814.226536,9030.512492
2705.440313,1302.362347,-0.000000,7772.162391
2705.440642,1149.143247,-740.205942,9104.533087
2705.440971,689.485948,-814.226536,9992.780217
2705.441300,536.266849,-1924.535449,9104.533087
2705.441629,0.000000,-2220.617826,8956.491898
2705.441958,0.000000,-1110.308913,10066.800811
2705.442287,306.438199,296.082377,8586.388927
2705.442616,766.095498,-0.000000,8808.450710
2705.442945,1072.533697,-0.000000,8586.388927
2705.443274,842.705048,518.144159,9696.697840
2705.443603,919.314598,-814.226536,9178.553681
2705.443932,-383.047749,296.082377,7402.059420
2705.444261,-153.219100,-148.041188,10214.842000
2705.444590,-1072.533697,-296.082377,9178.553681
2705.444919,-689.485948,518.144159,8142.265362
2705.445248,-306.438199,-1258.350101,9326.594869
2705.445577,-766.095498,518.144159,9474.636058
2705.445906,76.609550,-962.267725,9474.636058
2705.446236,-459.657299,-444.123565,8438.347739
2705.446565,-306.438199,-1184.329507,9992.780217
2705.446894,76.609550,666.185348,8734.430116
2705.447223,459.657299,148.041188,7402.059420
2705.447552,229.828649,740.205942,9400.615463
2705.447881,919.314598,814.226536,9252.574275
2705.448210,995.924147,666.185348,8586.388927
2705.448539,76.609550,592.164754,7920.203579
2705.448868,0.000000,-0.000000,9696.697840
2705.449197,-1302.362347,-74.020594,9474.636058
2705.449526,-842.705048,-296.082377,8068.244768
2705.449855,-1072.533697,-888.247130,9770.718434
2705.450184,-1149.143247,-1258.350101,9844.739029
2705.450513,-459.657299,-1332.370696,9622.677246
2705.450842,-689.485948,-444.123565,9696.697840
2705.451171,-766.095498,-444.123565,9844.739029
2705.451500,689.485948,-592.164754,10140.821405
2705.451829,1608.800546,-296.082377,9474.636058
2705.452158,2221.676944,888.247130,7994.224174
2705.452487,3140.991542,888.247130,8882.471304
2705.452816,3677.258390,962.267725,6957.935855
2705.453146,3064.381992,1850.514855,7402.059420
2705.453475,2298.286494,1036.288319,8068.244768
2705.453804,1455.581446,962.267725,8142.265362
2705.454133,306.438199,-0.000000,9104.533087
2705.454462,-459.657299,-814.226536,9474.636058
2705.454791,-995.924147,-1702.473667,10362.883188
2705.455120,-1302.362347,-2886.803174,10584.944971
2705.455449,-1149.143247,-1850.514855,9844.739029
2705.455778,-1072.533697,-666.185348,11029.068536
2705.456107,-153.219100,666.185348,9326.594869
2705.456436,-153.219100,148.041188,9326.594869
2705.456765,-153.219100,-1184.329507,11251.130318
2705.457094,1532.190996,1036.288319,9326.594869
2705.457423,3064.381992,740.205942,7994.224174
2705.457752,2604.724693,666.185348,7624.121203
2705.458081,1685.410096,2368.659014,7846.182985
2705.458410,2145.067394,1184.329507,9104.533087
2705.458739,919.314598,148.041188,7031.956449
2705.459068,383.047749,-222.061783,9252.574275
2705.459397,-689.485948,-1480.411884,10362.883188
2705.459726,-1685.410096,-1628.453072,9178.553681
2705.460056,-2068.457845,-2886.803174,9844.739029
2705.460385,-1608.800546,-888.247130,9104.533087
2705.460714,-1225.752797,-962.267725,9992.780217
2705.461043,-1608.800546,-148.041188,8512.368333
2705.461372,-383.047749,-0.000000,9400.615463
2705.461701,-153.219100,-444.123565,10140.821405
2705.462030,995.924147,296.082377,8956.491898
2705.462359,689.485948,666.185348,7994.224174
2705.462688,1762.019645,-0.000000,6439.791695
2705.463017,1608.800546,2442.679609,6883.915261
2705.463346,842.705048,888.247130,8512.368333
2705.463675,2068.457845,-1332.370696,9178.553681
2705.464004,76.609550,-666.185348,8142.265362
2705.464333,0.000000,-1184.329507,7550.100608
2705.464662,919.314598,-2146.597232,9770.718434
2705.464991,-689.485948,-2368.659014,10066.800811
2705.465320,-306.438199,592.164754,9770.718434
2705.465649,-306.438199,-1554.432478,9474.636058
2705.465978,-306.438199,-0.000000,9548.656652
2705.466307,1685.410096,-0.000000,9918.759623
2705.466637,2528.115143,666.185348,8142.265362
2705.466966,1302.362347,-0.000000,7994.224174
2705.467295,1378.971896,1184.329507,9474.636058
2705.467624,1149.143247,1850.514855,8216.285956
2705.467953,383.047749,1110.308913,7920.203579
2705.468282,-306.438199,-222.061783,8808.450710
2705.468611,-306.438199,-1332.370696,10732.986159
2705.468940,-1302.362347,-3034.844362,9696.697840
2705.469269,-1378.971896,-2368.659014,9622.677246
2705.469598,-1149.143247,-1628.453072,10362.883188
2705.469927,-1532.190996,-1110.308913,9474.636058
2705.470256,-1225.752797,296.082377,8956.491898
2705.470585,-689.485948,-148.041188,10214.842000
2705.470914,0.000000,370.102971,10066.800811
2705.471243,1532.190996,-0.000000,9622.677246
2705.471572,1762.019645,1850.514855,6735.874072
2705.471901,1149.143247,1258.350101,9030.512492
2705.472230,383.047749,1702.473667,7846.182985
2705.472559,1455.581446,1628.453072,6957.935855
2705.472888,766.095498,666.185348,8734.430116
2705.473217,229.828649,-814.226536,9474.636058
2705.473547,153.219100,-1184.329507,8364.327145
2705.473876,-842.705048,-2294.638420,10066.800811
2705.474205,-1149.143247,-2294.638420,10584.944971
2705.474534,-766.095498,-518.144159,8882.471304
2705.474863,229.828649,-1406.391290,9400.615463
2705.475192,229.828649,-0.000000,10955.047942
2705.475521,1762.019645,518.144159,10510.924376
2705.475850,2451.505594,592.164754,8142.265362
2705.476179,3140.991542,962.267725,7994.224174
2705.476508,2451.505594,2220.617826,7476.080014
2705.476837,2068.457845,2368.659014,6883.915261
2705.477166,1915.238745,1110.308913,7624.121203
2705.477495,1532.190996,592.164754,8068.244768
2705.477824,153.219100,-1332.370696,9918.759623
2705.478153,-766.095498,-2220.617826,9178.553681
2705.478482,-1225.752797,-2812.782580,10288.862594
2705.478811,-1762.019645,-1628.453072,10881.027347
2705.479140,-612.876398,-1702.473667,9474.636058
2705.479469,0.000000,-592.164754,9474.636058
2705.479798,0.000000,222.061783,10658.965565
2705.480127,1532.190996,740.205942,9992.780217
2705.480457,2374.896044,888.247130,7698.141797
2705.480786,2681.334243,1628.453072,7328.038826
2705.481115,2145.067394,2368.659014,7624.121203
2705.481444,1838.629195,2220.617826,7698.141797
2705.481773,766.095498,740.205942,7846.182985
2705.482102,536.266849,370.102971,9326.594869
2705.482431,0.000000,-1110.308913,9770.718434
2705.482760,-1149.143247,-2368.659014,9030.512492
2705.483089,-1608.800546,-2220.617826,9622.677246
2705.483418,-1685.410096,-888.247130,10288.862594
2705.483747,-995.924147,-1332.370696,9696.697840
2705.484076,-1149.143247,-1036.288319,9474.636058
2705.484405,-459.657299,-0.000000,10362.883188
2705.484734,306.438199,-444.123565,10214.842000
2705.485063,459.657299,-222.061783,9474.636058
2705.485392,1072.533697,740.205942,8216.285956
2705.485721,1455.581446,1998.556043,8660.409521
2705.486050,2451.505594,1406.391290,7698.141797
2705.486379,3370.820191,1628.453072,6069.688724
2705.486708,2528.115143,592.164754,8882.471304
2705.487037,1608.800546,-518.144159,8290.306550
2705.487367,536.266849,-1480.411884,9104.533087
2705.487696,-612.876398,-1998.556043,9622.677246
2705.488036,-1302.362347,-2072.576638,10807.006753
2705.488365,-2374.896044,-1184.329507,10140.821405
2705.488693,-1149.143247,-1702.473667,9474.636058
2705.489022,0.000000,222.061783,10955.047942
2705.489351,0.000000,-74.020594,10288.862594
2705.489680,1302.362347,962.267725,9400.615463
2705.490009,1149.143247,1036.288319,9030.512492
2705.490338,842.705048,1776.494261,8512.368333
2705.490667,2221.676944,2368.659014,7031.956449
2705.490996,1225.752797,814.226536,6957.935855
2705.491325,-306.438199,-0.000000,8808.450710
2705.491654,766.095498,-1850.514855,10288.862594
2705.491983,-842.705048,-2442.679609,8808.450710
2705.492312,-1685.410096,-2146.597232,9474.636058
2705.492641,-995.924147,-2146.597232,10066.800811
2705.492969,-1838.629195,-1776.494261,8882.471304
2705.493298,-689.485948,-740.205942,10140.821405
2705.493627,-689.485948,-962.267725,9918.759623
2705.493956,76.609550,1258.350101,9696.697840
2705.494285,536.266849,-222.061783,9252.574275
2705.494614,842.705048,1184.329507,8068.244768
2705.494943,1455.581446,1036.288319,8216.285956
2705.495272,1915.238745,1406.391290,6069.688724
2705.495601,1762.019645,1554.432478,6809.894666
2705.495930,689.485948,740.205942,9474.636058
2705.496259,919.314598,-518.144159,8290.306550
2705.496588,76.609550,-1998.556043,8586.388927
2705.496917,-1302.362347,-1776.494261,9622.677246
2705.497245,-1455.581446,-1480.411884,9992.780217
2705.497574,-995.924147,-814.226536,9104.533087
2705.497903,-1378.971896,-1850.514855,9474.636058
2705.498232,1149.143247,-1850.514855,11917.315666
2705.498561,0.000000,-444.123565,9474.636058
2705.498890,689.485948,-518.144159,9548.656652
2705.499219,1685.410096,-0.000000,9178.553681
2705.499548,1838.629195,2146.597232,8734.430116
2705.499877,2757.943793,1554.432478,7031.956449
2705.500206,3294.210641,2738.761985,6883.915261
2705.500535,2681.334243,1258.350101,7920.203579
2705.500864,2451.505594,-74.020594,8660.409521
2705.501193,842.705048,-1332.370696,9030.512492
2705.501521,-1149.143247,-1998.556043,9474.636058
2705.501850,-2451.505594,-1480.411884,10584.944971
2705.502179,-1991.848295,-1850.514855,10584.944971
2705.502508,-1532.190996,-1036.288319,9622.677246
2705.502837,-229.828649,-814.226536,10807.006753
2705.503166,-229.828649,-370.102971,10658.965565
2705.503495,459.657299,-518.144159,9770.718434
2705.503824,306.438199,1184.329507,9400.615463
2705.504153,1149.143247,1332.370696,8660.409521
2705.504482,1455.581446,2368.659014,7846.182985
2705.504811,1532.190996,1850.514855,7031.956449
2705.505140,383.047749,592.164754,8512.368333
2705.505469,459.657299,-296.082377,9326.594869
2705.505797,229.828649,-814.226536,7846.182985
2705.506126,-612.876398,-1924.535449,9104.533087
2705.506455,-2221.676944,-2072.576638,9622.677246
2705.506784,-1225.752797,-1036.288319,9474.636058
2705.507113,-1072.533697,-1702.473667,9548.656652
2705.507442,-306.438199,-296.082377,10214.842000
2705.507771,0.000000,-518.144159,10066.800811
2705.508100,0.000000,370.102971,8660.409521
2705.508429,1072.533697,888.247130,8290.306550
2705.508758,1838.629195,1628.453072,8808.450710
2705.509087,2298.286494,2072.576638,7105.977043
2705.509416,2451.505594,1628.453072,7846.182985
2705.509745,1991.848295,888.247130,8290.306550
2705.510073,1838.629195,-0.000000,8660.409521
2705.510402,1302.362347,-1480.411884,7920.203579
2705.510731,-536.266849,-1702.473667,8956.491898
2705.511060,-1302.362347,-2072.576638,10955.047942
2705.511389,-766.095498,-1554.432478,9844.739029
2705.511718,-1455.581446,-2146.597232,9252.574275
2705.512047,-229.828649,-1480.411884,10584.944971
2705.512376,-153.219100,-148.041188,9918.759623
2705.512705,766.095498,296.082377,8808.450710
2705.513034,1149.143247,740.205942,9178.553681
2705.513363,1455.581446,2072.576638,8660.409521
2705.513692,2068.457845,2294.638420,7105.977043
2705.514021,2451.505594,1184.329507,7772.162391
2705.514349,1455.581446,666.185348,9326.594869
2705.514678,919.314598,-370.102971,9474.636058
2705.515007,459.657299,-1258.350101,8956.491898
2705.515336,-1072.533697,-1554.432478,8956.491898
2705.515665,-1685.410096,-1702.473667,10066.800811
2705.515994,-1608.800546,-2368.659014,8882.471304
2705.516323,-1302.362347,-1480.411884,9622.677246
2705.516652,-1532.190996,-1184.329507,9474.636058
2705.516981,0.000000,-370.102971,9622.677246
2705.517310,-612.876398,444.123565,9770.718434
2705.517639,-306.438199,-0.000000,11251.130318
2705.517968,995.924147,1776.494261,8808.450710
2705.518297,1455.581446,2442.679609,7254.018232
2705.518625,1608.800546,1110.308913,8438.347739
2705.518954,1762.019645,1332.370696,9326.594869
2705.519283,1072.533697,370.102971,8882.471304
2705.519612,536.266849,148.041188,7920.203579
2705.519941,229.828649,-962.267725,9400.615463
2705.520270,-1072.533697,-1036.288319,10066.800811
2705.520599,-459.657299,-1776.494261,9252.574275
2705.520928,383.047749,-1332.370696,8956.491898
2705.521257,153.219100,-2220.617826,9770.718434
2705.521586,153.219100,-148.041188,9252.574275
2705.521915,995.924147,-592.164754,9844.739029
2705.522244,995.924147,-148.041188,8586.388927
2705.522573,842.705048,1258.350101,9474.636058
2705.522901,1915.238745,592.164754,7920.203579
2705.523230,1685.410096,1628.453072,7624.121203
2705.523559,1378.971896,1110.308913,10362.883188
2705.523888,1225.752797,-222.061783,9548.656652
2705.524217,842.705048,-1406.391290,9104.533087
2705.524546,-306.438199,-814.226536,9030.512492
2705.524875,0.000000,-814.226536,9252.574275
2705.525204,-229.828649,-888.247130,9474.636058
2705.525533,0.000000,-1850.514855,8808.450710
2705.525862,-306.438199,-148.041188,9474.636058
2705.526191,76.609550,-1258.350101,9844.739029
2705.526520,229.828649,-518.144159,8068.244768
2705.526849,0.000000,222.061783,8734.430116
2705.527177,-229.828649,1554.432478,8734.430116
2705.527506,536.266849,592.164754,7698.141797
2705.527835,229.828649,1184.329507,8290.306550
2705.528164,536.266849,666.185348,8734.430116
2705.528493,1225.752797,-222.061783,9104.533087
2705.528822,-766.095498,-740.205942,9252.574275
2705.529151,-995.924147,518.144159,7994.224174
2705.529480,153.219100,-1036.288319,9548.656652
2705.529809,-1225.752797,-74.020594,7550.100608
2705.530138,-689.485948,-74.020594,9992.780217
2705.530467,612.876398,-2442.679609,11177.109724
2705.530796,-153.219100,-0.000000,7254.018232
2705.531125,1302.362347,-296.082377,7920.203579
2705.531453,1225.752797,-74.020594,9548.656652
2705.531782,536.266849,518.144159,8734.430116
2705.532111,1915.238745,1480.411884,8512.368333
2705.532440,2068.457845,-666.185348,8364.327145
2705.532769,842.705048,-0.000000,9030.512492
2705.533098,1991.848295,-592.164754,9400.615463
2705.533427,1072.533697,-444.123565,8290.306550
2705.533756,306.438199,-740.205942,9474.636058
2705.534085,459.657299,-148.041188,10510.924376
2705.534414,0.000000,-0.000000,8882.471304
2705.534743,689.485948,-1184.329507,9326.594869
2705.535072,0.000000,-74.020594,9474.636058
2705.535401,1991.848295,-814.226536,10807.006753
2705.535729,1072.533697,-592.164754,7328.038826
2705.536058,229.828649,814.226536,9252.574275
2705.536387,689.485948,-666.185348,10214.842000
2705.536716,459.657299,592.164754,7920.203579
2705.537045,153.219100,370.102971,8142.265362
2705.537374,306.438199,-0.000000,9622.677246
2705.537703,383.047749,-1776.494261,9326.594869
2705.538032,-919.314598,-0.000000,8882.471304
2705.538361,-919.314598,-740.205942,9104.533087
2705.538690,-1762.019645,148.041188,10436.903782
2705.539019,-612.876398,-370.102971,8290.306550
2705.539348,153.219100,296.082377,7920.203579
2705.539677,306.438199,296.082377,9918.759623
2705.540005,1302.362347,-0.000000,7846.182985
2705.540334,1378.971896,148.041188,8290.306550
2705.540663,153.219100,814.226536,9400.615463
2705.540992,383.047749,1036.288319,8438.347739
2705.541321,612.876398,-0.000000,7994.224174
2705.541650,-153.219100,-222.061783,8512.368333
2705.541979,0.000000,-740.205942,10436.903782
2705.542308,-689.485948,-1628.453072,9548.656652
2705.542637,-383.047749,-1776.494261,9178.553681
2705.542966,-1455.581446,-370.102971,9844.739029
2705.543295,-1532.190996,-888.247130,9918.759623
2705.543624,-842.705048,-592.164754,8882.471304
2705.543953,995.924147,-148.041188,9326.594869
2705.544281,689.485948,1036.288319,8512.368333
2705.544610,1378.971896,-814.226536,9400.615463
2705.544939,1149.143247,-148.041188,7624.121203
2705.545268,612.876398,1554.432478,8142.265362
2705.545597,766.095498,518.144159,9400.615463
2705.545926,76.609550,370.102971,7846.182985
2705.546255,0.000000,-444.123565,9474.636058
2705.546584,153.219100,-222.061783,10955.047942
2705.546913,536.266849,-1036.288319,9696.697840
2705.547242,-306.438199,-1850.514855,8734.430116
2705.547571,-306.438199,-370.102971,10214.842000
2705.547900,-229.828649,370.102971,10510.924376
2705.548229,229.828649,-0.000000,8364.327145
2705.548557,1149.143247,888.247130,8808.450710
2705.548886,1072.533697,1036.288319,9548.656652
2705.549215,2374.896044,1554.432478,8290.306550
2705.549544,1532.190996,370.102971,8290.306550
2705.549873,0.000000,814.226536,8808.450710
2705.550202,-306.438199,888.247130,9844.739029
2705.550531,-995.924147,-518.144159,8438.347739
2705.550860,-1149.143247,-1258.350101,9474.636058
2705.551189,-766.095498,-1628.453072,10955.047942
2705.551518,-383.047749,-1998.556043,9474.636058
2705.551847,-995.924147,-2812.782580,9696.697840
2705.552176,-1149.143247,-814.226536,9918.759623
2705.552505,0.000000,-666.185348,9474.636058
2705.552833,689.485948,-74.020594,8512.368333
2705.553162,1608.800546,-222.061783,8734.430116
2705.553491,1838.629195,148.041188,8216.285956
2705.553820,3447.429741,888.247130,8512.368333
2705.554149,2374.896044,1480.411884,7179.997637
2705.554478,1991.848295,1036.288319,8660.409521
2705.554807,1378.971896,370.102971,8586.388927
2705.555136,919.314598,-0.000000,8364.327145
2705.555465,459.657299,-592.164754,9918.759623
2705.555794,-459.657299,-888.247130,9992.780217
2705.556123,229.828649,-1850.514855,10362.883188
2705.556452,229.828649,-1998.556043,9918.759623
2705.556781,-306.438199,-0.000000,10066.800811
2705.557109,689.485948,-296.082377,10288.862594
2705.557438,1608.800546,1110.308913,7772.162391
2705.557767,2068.457845,740.205942,8438.347739
2705.558096,3907.087040,1110.308913,7920.203579
2705.558425,3294.210641,1258.350101,6513.812290
2705.558754,2528.115143,-592.164754,8364.327145
2705.559083,1685.410096,1036.288319,8586.388927
2705.559412,0.000000,370.102971,8660.409521
2705.559741,0.000000,-1332.370696,8438.347739
2705.560070,-995.924147,-1110.308913,9178.553681
2705.560399,-1685.410096,-2294.638420,10436.903782
2705.560728,-995.924147,-1998.556043,9918.759623
2705.561057,-1225.752797,-2442.679609,9696.697840
2705.561385,-1532.190996,-592.164754,9400.615463
2705.561714,-689.485948,592.164754,9474.636058
2705.562043,76.609550,148.041188,8512.368333
2705.562372,1608.800546,666.185348,7772.162391
2705.562701,2221.676944,1480.411884,8586.388927
2705.563030,2451.505594,1776.494261,7105.977043
2705.563359,1991.848295,370.102971,7402.059420
2705.563688,1072.533697,1332.370696,8290.306550
2705.564017,-536.266849,518.144159,9548.656652
2705.564346,-689.485948,-518.144159,8586.388927
2705.564675,-2221.676944,-740.205942,8882.471304
2705.565004,-1608.800546,-2368.659014,13323.706956
2705.565333,-1608.800546,-2146.597232,9474.636058
2705.565661,-2145.067394,-1850.514855,9474.636058
2705.565990,-2068.457845,-1554.432478,11103.089130
2705.566319,-1302.362347,-0.000000,10807.006753
2705.566648,-1149.143247,-0.000000,9400.615463
2705.566977,766.095498,444.123565,10288.862594
2705.567306,2298.286494,-296.082377,8068.244768
2705.567635,3677.258390,2442.679609,7698.141797
2705.567964,3447.429741,1776.494261,6809.894666
2705.568293,2145.067394,1776.494261,8216.285956
2705.568622,1991.848295,1924.535449,9104.533087
2705.568951,1455.581446,1036.288319,7624.121203
2705.569280,459.657299,-666.185348,9252.574275
2705.569609,-995.924147,-1554.432478,11103.089130
2705.569937,-2221.676944,-2812.782580,9992.780217
2705.570266,-1608.800546,-2368.659014,11029.068536
2705.570595,-1608.800546,-1184.329507,11399.171507
2705.570924,-1685.410096,-1110.308913,10362.883188
2705.571253,-842.705048,-148.041188,10140.821405
2705.571582,229.828649,740.205942,8438.347739
2705.571911,1225.752797,-0.000000,8882.471304
2705.572240,2298.286494,814.226536,8290.306550
2705.572569,1838.629195,1332.370696,6513.812290
2705.572898,1455.581446,1998.556043,8142.265362
2705.573227,919.314598,444.123565,8142.265362
2705.573556,383.047749,296.082377,6957.935855
2705.573885,0.000000,-1554.432478,9104.533087
2705.574213,-842.705048,-1628.453072,9992.780217
2705.574542,-612.876398,-2220.617826,10658.965565
2705.574871,-1302.362347,-2220.617826,9326.594869
2705.575200,-1915.238745,-1998.556043,10288.862594
2705.575529,-612.876398,-1036.288319,10066.800811
2705.575858,0.000000,-0.000000,8586.388927
2705.576187,1225.752797,-0.000000,9178.553681
2705.576516,2451.505594,1110.308913,7994.224174
2705.576845,3294.210641,1702.473667,7179.997637
2705.577174,2911.162892,1332.370696,6883.915261
2705.577503,2221.676944,1332.370696,7698.141797
2705.577832,1225.752797,1332.370696,8068.244768
2705.578161,459.657299,-148.041188,8068.244768
2705.578489,-842.705048,-1406.391290,9030.512492
2705.578818,-1072.533697,-2368.659014,10955.047942
2705.579147,-842.705048,-3627.009116,10510.924376
2705.579476,-919.314598,-3330.926739,10955.047942
2705.579805,-1455.581446,-1628.453072,10658.965565
2705.580134,0.000000,-444.123565,10362.883188
2705.580463,689.485948,592.164754,8808.450710
2705.580792,2221.676944,1850.514855,8660.409521
2705.581121,3907.087040,2368.659014,8290.306550
2705.581450,4749.792088,2738.761985,8956.491898
2705.581779,2987.772442,2368.659014,7031.956449
2705.582108,2298.286494,2368.659014,7031.956449
2705.582437,1225.752797,1702.473667,8068.244768
2705.582765,0.000000,-222.061783,7846.182985
2705.583094,-2068.457845,-1924.535449,9474.636058
2705.583423,-2604.724693,-2590.720797,11621.233289
2705.583752,-2681.334243,-3775.050304,10584.944971
2705.584081,-2681.334243,-2368.659014,9770.718434
2705.584410,-2911.162892,-1480.411884,11325.150913
2705.584739,-2145.067394,-0.000000,10140.821405
2705.585068,-1685.410096,296.082377,9400.615463
2705.585397,-612.876398,740.205942,10288.862594
2705.585726,1608.800546,296.082377,10140.821405
2705.586055,3217.601092,1258.350101,7920.203579
2705.586384,2528.115143,1924.535449,6809.894666
2705.586713,1915.238745,2738.761985,7031.956449
2705.587041,1991.848295,1332.370696,7698.141797
2705.587370,766.095498,1332.370696,7105.977043
2705.587699,229.828649,-814.226536,8956.491898
2705.588028,-1915.238745,-2368.659014,10436.903782
2705.588357,-2221.676944,-3701.029710,9844.739029
2705.588686,-2987.772442,-3923.091493,9622.677246
2705.589015,-3447.429741,-2516.700203,11103.089130
2705.589344,-1762.019645,-1480.411884,10510.924376
2705.589673,-689.485948,-518.144159,9030.512492
2705.590002,1455.581446,444.123565,9030.512492
2705.590331,3140.991542,1036.288319,7624.121203
2705.590660,4443.353888,1628.453072,7402.059420
2705.590989,3983.696590,2664.741391,6143.709319
2705.591317,3600.648841,2664.741391,7031.956449
2705.591646,2911.162892,1998.556043,7994.224174
2705.591975,1762.019645,1406.391290,6809.894666
2705.592304,383.047749,-444.123565,8956.491898
2705.592633,-842.705048,-2146.597232,10732.986159
2705.592962,-1762.019645,-4071.132681,10807.006753
2705.593291,-1838.629195,-3330.926739,10955.047942
2705.593620,-2298.286494,-2368.659014,11177.109724
2705.593949,-2145.067394,-962.267725,9326.594869
2705.594278,-995.924147,-444.123565,8882.471304
2705.594606,306.438199,370.102971,11325.150913
2705.594935,3064.381992,148.041188,9622.677246
2705.595264,4443.353888,2294.638420,7105.977043
2705.595593,4366.744339,2738.761985,6069.688724
2705.595922,2528.115143,3256.906145,7179.997637
2705.596251,2911.162892,3256.906145,8882.471304
2705.596580,2068.457845,2516.700203,6143.709319
2705.596909,1608.800546,222.061783,8438.347739
2705.597238,-842.705048,-2368.659014,10955.047942
2705.597566,-1455.581446,-2960.823768,10214.842000
2705.597895,-2604.724693,-5255.462188,12805.562797
2705.598224,-3294.210641,-2516.700203,10807.006753
2705.598553,-2221.676944,-1628.453072,10955.047942
2705.598882,-1608.800546,-962.267725,10288.862594
2705.599211,-842.705048,666.185348,9548.656652
2705.599540,229.828649,-370.102971,11843.295072
2705.599869,1991.848295,296.082377,8438.347739
2705.600198,4136.915689,2220.617826,7402.059420
2705.600526,2451.505594,1776.494261,7105.977043
2705.600855,1991.848295,2442.679609,6957.935855
2705.601184,2374.896044,1258.350101,7920.203579
2705.601513,1225.752797,888.247130,7179.997637
2705.601842,0.000000,-592.164754,9992.780217
2705.602171,0.000000,-3034.844362,9918.759623
2705.602500,-1302.362347,-2738.761985,9622.677246
2705.602829,-2451.505594,-3108.864956,11843.295072
2705.603158,-2068.457845,-2368.659014,9770.718434
2705.603486,-1455.581446,-1184.329507,9992.780217
2705.603815,-229.828649,-222.061783,10214.842000
2705.604144,2145.067394,1184.329507,9474.636058
2705.604473,2451.505594,1258.350101,7105.977043
2705.604802,2987.772442,2294.638420,6513.812290
2705.605131,2834.553343,2368.659014,7105.977043
2705.605460,2221.676944,2738.761985,6735.874072
2705.605789,536.266849,2146.597232,6513.812290
2705.606118,536.266849,-0.000000,8216.285956
2705.606446,-1532.190996,-1850.514855,9770.718434
2705.606775,-1915.238745,-3775.050304,10214.842000
2705.607104,-2528.115143,-3330.926739,9992.780217
2705.607433,-3294.210641,-2146.597232,10288.862594
2705.607762,-2834.553343,-3108.864956,10955.047942
2705.608091,-2298.286494,-148.041188,9622.677246
2705.608420,-1608.800546,-0.000000,10658.965565
2705.608749,-1302.362347,-0.000000,9770.718434
2705.609078,306.438199,-0.000000,10732.986159
2705.609406,1608.800546,814.226536,7031.956449
2705.609735,3600.648841,3256.906145,7772.162391
2705.610064,2604.724693,2072.576638,5995.668130
2705.610393,2451.505594,1702.473667,6143.709319
2705.610722,1991.848295,1184.329507,8882.471304
2705.611051,536.266849,-814.226536,8364.327145
2705.611380,842.705048,-2146.597232,8068.244768
2705.611709,-1455.581446,-2886.803174,10807.006753
2705.612038,-2451.505594,-3552.988522,11325.150913
2705.612366,-3140.991542,-1924.535449,11843.295072
2705.612695,-995.924147,-1258.350101,10066.800811
2705.613024,306.438199,-1110.308913,11473.192101
2705.613353,1838.629195,-0.000000,10807.006753
2705.613682,3447.429741,1924.535449,8660.409521
2705.614011,3830.477490,1776.494261,7550.100608
2705.614340,4060.306139,3849.070898,7772.162391
2705.614669,4136.915689,3997.112087,7328.038826
2705.614998,3447.429741,3108.864956,6513.812290
2705.615326,2145.067394,1850.514855,7920.203579
2705.615655,306.438199,-1110.308913,9918.759623
2705.615984,229.828649,-2738.761985,8882.471304
2705.616313,-1455.581446,-3701.029710,9104.533087
2705.616642,-2757.943793,-2960.823768,11251.130318
2705.616971,-1991.848295,-3849.070898,12361.439231
2705.617300,-2221.676944,-1332.370696,9400.615463
2705.617629,-766.095498,-0.000000,9622.677246
2705.617957,1302.362347,-0.000000,10955.047942
2705.618286,2374.896044,518.144159,8586.388927
2705.618615,3753.867940,3182.885551,7254.018232
2705.618944,3447.429741,2886.803174,7105.977043
2705.619273,2604.724693,2590.720797,6365.771101
2705.619602,2757.943793,3108.864956,6291.750507
2705.619931,1302.362347,1554.432478,7402.059420
2705.620260,306.438199,-1406.391290,8882.471304
2705.620589,-995.924147,-3182.885551,9622.677246
2705.620917,-3370.820191,-3923.091493,11103.089130
2705.621246,-3524.039291,-4367.215058,11177.109724
2705.621575,-3830.477490,-2812.782580,9844.739029
2705.621904,-2528.115143,-2442.679609,9918.759623
2705.622233,-1991.848295,-0.000000,9696.697840
2705.622562,-306.438199,-74.020594,10436.903782
2705.622891,-306.438199,-0.000000,9548.656652
2705.623220,766.095498,-518.144159,10510.924376
2705.623549,1532.190996,2072.576638,7624.121203
2705.623877,2834.553343,1850.514855,7105.977043
2705.624206,2298.286494,2516.700203,6735.874072
2705.624535,2451.505594,2146.597232,7772.162391
2705.624864,2374.896044,518.144159,8512.368333
2705.625193,1915.238745,518.144159,6957.935855
2705.625522,1302.362347,-2516.700203,8808.450710
2705.625851,-1762.019645,-1332.370696,9770.718434
2705.626180,-2528.115143,-2960.823768,11177.109724
2705.626509,-2221.676944,-2368.659014,10288.862594
2705.626837,-1225.752797,-2294.638420,10362.883188
2705.627166,-842.705048,-1776.494261,11325.150913
2705.627495,0.000000,-518.144159,9548.656652
2705.627824,689.485948,1776.494261,8660.409521
2705.628153,1225.752797,740.205942,9252.574275
2705.628482,1838.629195,2960.823768,7550.100608
2705.628811,1915.238745,2886.803174,7550.100608
2705.629140,1378.971896,2294.638420,8290.306550
2705.629469,1608.800546,888.247130,8586.388927
2705.629797,1302.362347,-222.061783,7994.224174
2705.630126,-536.266849,-1480.411884,8512.368333
2705.630455,-1991.848295,-2072.576638,10066.800811
2705.630784,-2374.896044,-2516.700203,10807.006753
2705.631113,-1608.800546,-1924.535449,9622.677246
2705.631442,-1991.848295,-962.267725,9622.677246
2705.631771,-919.314598,-1184.329507,10362.883188
2705.632100,-612.876398,-1184.329507,9696.697840
2705.632429,995.924147,-0.000000,9474.636058
2705.632757,1149.143247,518.144159,9030.512492
2705.633086,1991.848295,1776.494261,7624.121203
2705.633415,2451.505594,1850.514855,7105.977043
2705.633744,2298.286494,2516.700203,7105.977043
2705.634073,2374.896044,444.123565,9104.533087
2705.634402,1762.019645,-1184.329507,7772.162391
2705.634731,536.266849,-148.041188,8438.347739
2705.635060,-995.924147,-1480.411884,9400.615463
2705.635389,-995.924147,-2294.638420,9400.615463
2705.635717,-995.924147,-2368.659014,9844.739029
2705.636046,-919.314598,-1702.473667,10584.944971
2705.636375,153.219100,-1036.288319,10288.862594
2705.636704,1149.143247,-296.082377,8882.471304
2705.637033,2604.724693,1406.391290,8808.450710
2705.637362,2757.943793,2294.638420,8586.388927
2705.637691,3140.991542,2294.638420,7550.100608
2705.638020,2911.162892,1702.473667,7402.059420
2705.638349,3447.429741,962.267725,8364.327145
2705.638677,3140.991542,1258.350101,8290.306550
2705.639006,1838.629195,-518.144159,7550.100608
2705.639335,306.438199,-1702.473667,8512.368333
2705.639664,0.000000,-1332.370696,11103.089130
2705.639993,-459.657299,-1258.350101,8882.471304
2705.640322,-1378.971896,-1850.514855,9474.636058
2705.640651,-1378.971896,-2146.597232,10658.965565
2705.640980,-689.485948,-518.144159,10288.862594
2705.641308,0.000000,-296.082377,9104.533087
2705.641637,0.000000,740.205942,8734.430116
2705.641966,459.657299,1184.329507,9474.636058
2705.642295,229.828649,1998.556043,8438.347739
2705.642624,689.485948,1924.535449,7550.100608
2705.642953,1072.533697,-0.000000,9178.553681
2705.643282,153.219100,222.061783,9918.759623
2705.643611,0.000000,-888.247130,9400.615463
2705.643940,-1225.752797,-1628.453072,9474.636058
2705.644268,-2987.772442,-1332.370696,10584.944971
2705.644597,-2221.676944,-1850.514855,10140.821405
2705.644926,-1378.971896,-962.267725,9326.594869
2705.645255,-1149.143247,-1702.473667,9548.656652
2705.645584,-383.047749,-666.185348,9696.697840
2705.645913,306.438199,444.123565,8660.409521
2705.646242,0.000000,-296.082377,9178.553681
2705.646571,0.000000,296.082377,8586.388927
2705.646900,0.000000,1480.411884,8364.327145
2705.647228,766.095498,814.226536,7624.121203
2705.647557,689.485948,-0.000000,8586.388927
2705.647886,459.657299,-1036.288319,9104.533087
2705.648215,383.047749,-1924.535449,8956.491898
2705.648544,459.657299,-1036.288319,8808.450710
2705.648873,-1378.971896,-1776.494261,9400.615463
2705.649202,0.000000,-888.247130,9326.594869
2705.649531,689.485948,-1184.329507,8438.347739
2705.649860,689.485948,-592.164754,9548.656652
2705.650188,459.657299,-0.000000,8512.368333
2705.650517,536.266849,-0.000000,9104.533087
2705.650846,1149.143247,-740.205942,8882.471304
2705.651175,229.828649,2368.659014,8142.265362
2705.651504,1149.143247,-222.061783,9696.697840
2705.651833,-153.219100,592.164754,6735.874072
2705.652162,1608.800546,1998.556043,8882.471304
2705.652491,459.657299,-74.020594,9474.636058
2705.652820,919.314598,222.061783,8660.409521
2705.653148,-612.876398,-1702.473667,10436.903782
2705.653477,-1149.143247,-0.000000,9474.636058
2705.653806,-842.705048,-1702.473667,10066.800811
2705.654135,-536.266849,-1406.391290,9030.512492
2705.654464,0.000000,-444.123565,9030.512492
2705.654793,766.095498,-592.164754,11029.068536
2705.655122,1225.752797,-888.247130,8216.285956
2705.655451,995.924147,370.102971,8956.491898
2705.655780,1685.410096,666.185348,9918.759623
2705.656108,1455.581446,1702.473667,8364.327145
2705.656437,612.876398,222.061783,8882.471304
2705.656766,1532.190996,444.123565,9770.718434
2705.657095,1608.800546,592.164754,9326.594869
2705.657424,689.485948,-296.082377,9252.574275
2705.657753,0.000000,-518.144159,9548.656652
2705.658082,-306.438199,-370.102971,10288.862594
2705.658411,766.095498,-962.267725,9400.615463
2705.658740,842.705048,-814.226536,8512.368333
2705.659068,995.924147,-518.144159,9326.594869
2705.659397,2068.457845,-518.144159,9622.677246
2705.659726,2374.896044,370.102971,8216.285956
2705.660055,2068.457845,-0.000000,8660.409521
2705.660384,1455.581446,370.102971,8734.430116
2705.660713,1149.143247,1628.453072,7920.203579
2705.661042,1685.410096,-148.041188,8364.327145
2705.661371,536.266849,444.123565,9178.553681
2705.661700,766.095498,-814.226536,9696.697840
2705.662028,766.095498,-1036.288319,8586.388927
2705.662357,-153.219100,-518.144159,9030.512492
2705.662686,-1378.971896,-1332.370696,9696.697840
2705.663015,-689.485948,-888.247130,8660.409521
2705.663344,-689.485948,-666.185348,8290.306550
2705.663673,-612.876398,-666.185348,9178.553681
2705.664002,459.657299,-518.144159,8882.471304
2705.664331,306.438199,-222.061783,8290.306550
2705.664660,-306.438199,222.061783,7698.141797
2705.664988,-766.095498,592.164754,8734.430116
2705.665317,-612.876398,-0.000000,8956.491898
2705.665646,-536.266849,-74.020594,8364.327145
2705.665975,-689.485948,-888.247130,9918.759623
2705.666304,-842.705048,-1850.514855,9918.759623
2705.666633,-995.924147,-1480.411884,8956.491898
2705.666962,-1608.800546,-814.226536,9918.759623
2705.667291,-1915.238745,-1110.308913,9474.636058
2705.667619,-1608.800546,-592.164754,8660.409521
2705.667948,-459.657299,-814.226536,9474.636058
2705.668277,153.219100,-518.144159,9326.594869
2705.668606,612.876398,-222.061783,8512.368333
2705.668935,842.705048,-0.000000,7698.141797
2705.669264,536.266849,740.205942,8142.265362
2705.669593,153.219100,1332.370696,8216.285956
2705.669922,153.219100,444.123565,7994.224174
2705.670251,689.485948,-0.000000,9400.615463
2705.670579,0.000000,-0.000000,9696.697840
2705.670908,306.438199,-1110.308913,10584.944971
2705.671237,229.828649,-814.226536,9844.739029
2705.671566,-306.438199,-888.247130,9992.780217
2705.671895,153.219100,-0.000000,9918.759623
2705.672224,1455.581446,296.082377,8882.471304
2705.672553,2298.286494,962.267725,8586.388927
2705.672882,2834.553343,666.185348,8956.491898
2705.673211,3294.210641,888.247130,8438.347739
2705.673539,2834.553343,814.226536,7254.018232
2705.673868,1608.800546,666.185348,8142.265362
2705.674197,536.266849,962.267725,9770.718434
2705.674526,459.657299,222.061783,7846.182985
2705.674855,-766.095498,-222.061783,8956.491898
2705.675184,-842.705048,-1184.329507,11547.212695
2705.675513,-383.047749,-1184.329507,9992.780217
2705.675842,-689.485948,-2072.576638,9844.739029
2705.676171,-842.705048,-518.144159,9696.697840
2705.676499,-612.876398,-148.041188,9992.780217
2705.676828,-153.219100,-222.061783,9844.739029
2705.677157,1762.019645,-0.000000,8290.306550
2705.677486,2451.505594,740.205942,9178.553681
2705.677815,3753.867940,1258.350101,8142.265362
2705.678144,3294.210641,1924.535449,6883.915261
2705.678473,1685.410096,740.205942,8438.347739
2705.678802,842.705048,666.185348,8364.327145
2705.679131,612.876398,-0.000000,7698.141797
2705.679459,-766.095498,-1406.391290,8586.388927
2705.679788,-766.095498,-888.247130,10288.862594
2705.680117,-2145.067394,-2220.617826,12287.418637
2705.680446,-2068.457845,-2220.617826,10066.800811
2705.680775,-2374.896044,-2072.576638,10066.800811
2705.681104,-1608.800546,-0.000000,9844.739029
2705.681433,0.000000,-296.082377,9178.553681
2705.681762,306.438199,740.205942,9474.636058
2705.682091,1915.238745,518.144159,9400.615463
2705.682419,3677.258390,1332.370696,7179.997637
2705.682748,2987.772442,1184.329507,7328.038826
2705.683077,2757.943793,1036.288319,6735.874072
2705.683406,1762.019645,1554.432478,8216.285956
2705.683735,1685.410096,962.267725,8290.306550
2705.684064,995.924147,370.102971,7179.997637
2705.684393,-459.657299,-1998.556043,9770.718434
2705.684722,-1302.362347,-2294.638420,11251.130318
2705.685051,-1685.410096,-2294.638420,10732.986159
2705.685379,-2604.724693,-1628.453072,9844.739029
2705.685708,-2068.457845,-1554.432478,10955.047942
2705.686037,-1455.581446,-444.123565,9770.718434
2705.686366,-229.828649,740.205942,9178.553681
2705.686695,383.047749,296.082377,9400.615463
2705.687024,1149.143247,1110.308913,8660.409521
2705.687353,1762.019645,518.144159,7328.038826
2705.687682,1149.143247,1036.288319,7328.038826
2705.688011,0.000000,1110.308913,8734.430116
2705.688339,-842.705048,-0.000000,7994.224174
2705.688668,-995.924147,-296.082377,8882.471304
2705.688997,-1762.019645,-1184.329507,10140.821405
2705.689327,-1762.019645,-1850.514855,9178.553681
2705.689656,-3064.381992,-1776.494261,10288.862594
2705.689985,-3524.039291,-2072.576638,10732.986159
2705.690314,-4060.306139,-518.144159,9548.656652
2705.690643,-3447.429741,222.061783,9474.636058
2705.690972,-2987.772442,-222.061783,8734.430116
2705.691301,-3524.039291,518.144159,9548.656652
2705.691630,-2068.457845,-370.102971,9622.677246
2705.691959,-2374.896044,-296.082377,7254.018232
2705.692288,-2987.772442,-0.000000,8882.471304
2705.692617,-3064.381992,-0.000000,8808.450710
2705.692946,-2681.334243,370.102971,8290.306550
2705.693275,-2374.896044,-222.061783,8290.306550
2705.693604,-2374.896044,-518.144159,8364.327145
2705.693933,-2451.505594,-888.247130,8956.491898
2705.694262,-1762.019645,-666.185348,8660.409521
2705.694591,-1225.752797,-296.082377,8734.430116
2705.694920,-2221.676944,-222.061783,9178.553681
2705.695249,-1762.019645,296.082377,8660.409521
2705.695578,-995.924147,-0.000000,8512.368333
2705.695907,-766.095498,740.205942,8364.327145
2705.696236,-383.047749,-370.102971,8586.388927
2705.696565,-1072.533697,-444.123565,8882.471304
2705.696894,-995.924147,-222.061783,8586.388927
2705.697223,-1685.410096,-0.000000,8586.388927
2705.697552,-2757.943793,-370.102971,9030.512492
2705.697881,-2604.724693,-296.082377,9326.594869
2705.698210,-2451.505594,-444.123565,9400.615463
2705.698539,-1762.019645,-1036.288319,9104.533087
2705.698869,-2528.115143,-1998.556043,9548.656652
2705.699198,-2451.505594,-1406.391290,9918.759623
2705.699527,-2374.896044,-518.144159,9400.615463
2705.699856,-2528.115143,666.185348,9474.636058
2705.700185,-2451.505594,1258.350101,9104.533087
2705.700514,-2451.505594,1184.329507,9474.636058
2705.700843,-2528.115143,1480.411884,8808.450710
2705.701172,-1608.800546,592.164754,7994.224174
2705.701501,-3217.601092,-0.000000,8290.306550
2705.701830,-3753.867940,-518.144159,9474.636058
2705.702159,-4060.306139,296.082377,9104.533087
2705.702488,-3753.867940,-0.000000,7920.203579
2705.702817,-4290.134789,-444.123565,9252.574275
2705.703146,-4826.401637,-814.226536,9770.718434
2705.703475,-5132.839837,-1406.391290,9770.718434
2705.703804,-5209.449386,-888.247130,9770.718434
2705.704133,-4903.011187,-1924.535449,10140.821405
2705.704462,-4979.620737,-2590.720797,11399.171507
2705.704791,-4443.353888,-1480.411884,10881.027347
2705.705120,-2987.772442,-296.082377,9622.677246
2705.705449,-1532.190996,592.164754,9030.512492
2705.705778,-689.485948,2146.597232,8512.368333
2705.706107,-995.924147,1924.535449,8586.388927
2705.706436,-383.047749,666.185348,9696.697840
2705.706765,766.095498,1776.494261,5995.668130
2705.707094,2221.676944,1036.288319,7031.956449
2705.707423,459.657299,-0.000000,6291.750507
2705.707752,76.609550,-518.144159,7550.100608
2705.708081,-689.485948,-1110.308913,8734.430116
2705.708411,-2451.505594,-74.020594,8068.244768
2705.708740,-1762.019645,-1554.432478,10436.903782
2705.709069,-3217.601092,-518.144159,8808.450710
2705.709398,-3447.429741,-740.205942,9696.697840
2705.709727,-3524.039291,-740.205942,10066.800811
2705.710056,-3600.648841,-370.102971,9548.656652
2705.710385,-3830.477490,-1850.514855,10955.047942
2705.710714,-3524.039291,-1776.494261,9844.739029
2705.711043,-3217.601092,-888.247130,9252.574275
2705.711372,-2987.772442,-1702.473667,8438.347739
2705.711701,-2604.724693,-0.000000,8216.285956
2705.712030,-1685.410096,370.102971,9030.512492
2705.712359,-1608.800546,148.041188,8142.265362
2705.712688,-1838.629195,-814.226536,9104.533087
2705.713017,-1991.848295,-148.041188,9474.636058
2705.713346,-2374.896044,-0.000000,8512.368333
2705.713675,-2068.457845,-0.000000,8068.244768
2705.714004,-2374.896044,370.102971,8290.306550
2705.714333,-1762.019645,-592.164754,9770.718434
2705.714662,-2528.115143,-814.226536,9844.739029
2705.714991,-3140.991542,-0.000000,9474.636058
2705.715320,-2681.334243,666.185348,9178.553681
2705.715649,-2681.334243,1332.370696,7772.162391
2705.715978,-2528.115143,888.247130,8364.327145
2705.716307,-2451.505594,-0.000000,9474.636058
2705.716636,-3140.991542,-148.041188,9326.594869
2705.716965,-3294.210641,1036.288319,8882.471304
2705.717294,-3294.210641,370.102971,9178.553681
2705.717623,-3600.648841,-1258.350101,9474.636058
2705.717953,-3677.258390,-1110.308913,9696.697840
2705.718282,-3677.258390,-962.267725,9474.636058
2705.718611,-3830.477490,-1406.391290,10066.800811
2705.718940,-3217.601092,-740.205942,9474.636058
2705.719269,-3677.258390,-0.000000,9104.533087
2705.719598,-2911.162892,-0.000000,9178.553681
2705.719927,-3524.039291,-0.000000,8882.471304
2705.720256,-3370.820191,-0.000000,9326.594869
2705.720585,-3064.381992,-148.041188,9474.636058
2705.720914,-2451.505594,-296.082377,9474.636058
2705.721243,-2451.505594,-1036.288319,9178.553681
2705.721572,-2681.334243,-1258.350101,9770.718434
2705.721901,-1991.848295,-666.185348,9474.636058
2705.722230,-1915.238745,296.082377,8882.471304
2705.722559,-1302.362347,-0.000000,8438.347739
2705.722888,-766.095498,-0.000000,8216.285956
2705.723217,-1225.752797,-370.102971,8734.430116
2705.723546,-2451.505594,-1406.391290,8956.491898
2705.723875,-2451.505594,-666.185348,8364.327145
2705.724204,-2911.162892,-0.000000,8438.347739
2705.724533,-2757.943793,370.102971,8734.430116
2705.724862,-2451.505594,888.247130,8882.471304
2705.725191,-2834.553343,1332.370696,8586.388927
2705.725520,-2987.772442,1258.350101,8290.306550
2705.725849,-3600.648841,-0.000000,8364.327145
2705.726178,-3677.258390,-1332.370696,9992.780217
2705.726507,-4060.306139,-2220.617826,10214.842000
2705.726836,-3370.820191,-2146.597232,10436.903782
2705.727166,-2834.553343,-1924.535449,9696.697840
2705.727495,-1378.971896,-814.226536,9030.512492
2705.727824,-766.095498,666.185348,7994.224174
2705.728153,-612.876398,1406.391290,7772.162391
2705.728482,-766.095498,518.144159,9104.533087
2705.728811,-306.438199,740.205942,8808.450710
2705.729140,0.000000,1628.453072,7402.059420
2705.729469,-1072.533697,1258.350101,7920.203579
2705.729798,-1838.629195,-0.000000,8512.368333
2705.730127,-3064.381992,-592.164754,9844.739029
2705.730456,-2834.553343,-1258.350101,9474.636058
2705.730785,-2681.334243,-370.102971,8734.430116
2705.731114,-3140.991542,-518.144159,9400.615463
2705.731443,-3600.648841,-148.041188,9178.553681
2705.731772,-3677.258390,-888.247130,10362.883188
2705.732101,-3983.696590,-888.247130,9918.759623
2705.732430,-2451.505594,-1258.350101,9400.615463
2705.732759,-1608.800546,-444.123565,9400.615463
2705.733088,-1225.752797,222.061783,8512.368333
2705.733417,-1608.800546,-148.041188,8290.306550
2705.733746,-1455.581446,-1406.391290,9992.780217
2705.734075,-1225.752797,-0.000000,10066.800811
2705.734404,-919.314598,-148.041188,9474.636058
2705.734733,-1608.800546,222.061783,8808.450710
2705.735062,-1532.190996,592.164754,8290.306550
2705.735391,-1685.410096,370.102971,8882.471304
2705.735720,-2145.067394,518.144159,8364.327145
2705.736049,-2221.676944,518.144159,8660.409521
2705.736378,-2451.505594,296.082377,9030.512492
2705.736708,-2221.676944,518.144159,7772.162391
2705.737037,-3677.258390,-74.020594,7772.162391
2705.737366,-3907.087040,-814.226536,8290.306550
2705.737695,-3983.696590,-1628.453072,8882.471304
2705.738024,-4826.401637,-2294.638420,9992.780217
2705.738353,-4749.792088,-2590.720797,10510.924376
2705.738682,-4826.401637,-3182.885551,10510.924376
2705.739011,-5209.449386,-2590.720797,10807.006753
2705.739340,-4290.134789,-1184.329507,10066.800811
2705.739669,-3447.429741,-148.041188,9992.780217
2705.739998,-2528.115143,888.247130,9252.574275
2705.740327,-1455.581446,2220.617826,8882.471304
2705.740656,-1302.362347,2812.782580,7846.182985
2705.740985,-2221.676944,2072.576638,7328.038826
2705.741314,-1455.581446,1184.329507,7846.182985
2705.741643,-2068.457845,962.267725,7105.977043
2705.741972,-2298.286494,740.205942,8216.285956
2705.742301,-2068.457845,-74.020594,7402.059420
2705.742630,-1608.800546,666.185348,7624.121203
2705.742959,-2374.896044,-296.082377,8438.347739
2705.743288,-2221.676944,444.123565,7698.141797
2705.743617,-2834.553343,518.144159,9178.553681
2705.743946,-2911.162892,1480.411884,8956.491898
2705.744275,-3064.381992,1850.514855,9474.636058
2705.744604,-3524.039291,1480.411884,10288.862594
2705.744933,-2834.553343,2146.597232,10140.821405
2705.745262,-2145.067394,1480.411884,9548.656652
2705.745591,-2604.724693,592.164754,10288.862594
2705.745920,-2451.505594,518.144159,11103.089130
2705.746250,-2221.676944,222.061783,10658.965565
2705.746579,-1302.362347,370.102971,10362.883188
2705.746908,-766.095498,1258.350101,8660.409521
2705.747237,-842.705048,1184.329507,9178.553681
2705.747566,-1072.533697,740.205942,10510.924376
2705.747895,1991.848295,1036.288319,9252.574275
2705.748224,2834.553343,3478.967927,6513.812290
2705.748553,3753.867940,3404.947333,7105.977043
2705.748882,2987.772442,4737.318029,6587.832884
2705.749211,3753.867940,4367.215058,8586.388927
2705.749540,1991.848295,5255.462188,7550.100608
2705.749869,1762.019645,3627.009116,7994.224174
2705.750198,1149.143247,3108.864956,10510.924376
2705.750527,-383.047749,2886.803174,9918.759623
2705.750856,-919.314598,1628.453072,10362.883188
2705.751185,-1608.800546,666.185348,10807.006753
2705.751514,-459.657299,370.102971,10510.924376
2705.751843,0.000000,1184.329507,9992.780217
2705.752172,1072.533697,3108.864956,8734.430116
2705.752501,919.314598,3404.947333,7698.141797
2705.752830,2604.724693,3182.885551,7550.100608
2705.753159,1762.019645,5329.482782,6513.812290
2705.753488,1991.848295,5329.482782,7846.182985
2705.753817,842.705048,4663.297435,7920.203579
2705.754146,-766.095498,3330.926739,8660.409521
2705.754475,-2145.067394,2590.720797,9474.636058
2705.754804,-3447.429741,1702.473667,11029.068536
2705.755133,-3830.477490,-0.000000,12509.480420
2705.755463,-3677.258390,1332.370696,10584.944971
2705.755792,-3217.601092,2146.597232,9992.780217
2705.756121,-2757.943793,2368.659014,9474.636058
2705.756450,-2528.115143,2516.700203,10066.800811
2705.756779,-1532.190996,2738.761985,10584.944971
2705.757108,-1225.752797,3256.906145,8734.430116
2705.757437,-995.924147,2516.700203,8512.368333
2705.757766,-1378.971896,2368.659014,9770.718434
2705.758095,1455.581446,2072.576638,10881.027347
2705.758424,1915.238745,4737.318029,5329.482782
2705.758753,4519.963438,3997.112087,9474.636058
2705.759082,2451.505594,4737.318029,7105.977043
2705.759411,3753.867940,6809.894666,7105.977043
2705.759740,1991.848295,7105.977043,7402.059420
2705.760069,1762.019645,5995.668130,6957.935855
2705.760398,689.485948,5181.441594,8586.388927
2705.760727,-153.219100,6365.771101,7105.977043
2705.761056,-1149.143247,2294.638420,10362.883188
2705.761385,-2987.772442,-444.123565,11991.336260
2705.761714,-1608.800546,-74.020594,9770.718434
2705.762043,-2221.676944,962.267725,11251.130318
2705.762372,-1608.800546,-222.061783,11473.192101
2705.762701,-1302.362347,3627.009116,9474.636058
2705.763030,1608.800546,2294.638420,9178.553681
2705.763359,1991.848295,6365.771101,7254.018232
2705.763688,2987.772442,4589.276840,8216.285956
2705.764017,3907.087040,4219.173869,7698.141797
2705.764346,3447.429741,5551.544565,7105.977043
2705.764675,2987.772442,4663.297435,8364.327145
2705.765005,842.705048,3478.967927,6365.771101
2705.765334,1685.410096,3256.906145,9696.697840
2705.765663,-1225.752797,1628.453072,10658.965565
2705.765992,-2451.505594,-518.144159,12805.562797
2705.766321,-2834.553343,1406.391290,10807.006753
2705.766650,-1915.238745,-2590.720797,11843.295072
2705.766979,-3447.429741,1924.535449,8660.409521
2705.767308,-1762.019645,814.226536,11621.233289
2705.767637,-1149.143247,2072.576638,9400.615463
2705.767966,76.609550,666.185348,12139.377449
2705.768295,3907.087040,962.267725,8734.430116
2705.768624,5362.668486,3256.906145,7624.121203
2705.768953,3677.258390,3627.009116,7031.956449
2705.769282,3524.039291,3404.947333,5181.441594
2705.769611,3830.477490,5329.482782,8882.471304
2705.769940,2681.334243,4145.153275,7105.977043
2705.770269,2757.943793,5477.523971,5921.647536
2705.770598,1072.533697,4071.132681,8364.327145
2705.770927,-1225.752797,962.267725,8882.471304
2705.771256,-4136.915689,-4293.194464,14804.118840
2705.771585,-4519.963438,-2368.659014,11103.089130
2705.771914,-3140.991542,296.082377,11695.253884
2705.772243,-3600.648841,-2442.679609,11251.130318
2705.772572,-3217.601092,2516.700203,9326.594869
2705.772901,76.609550,2368.659014,8142.265362
2705.773230,-383.047749,4293.194464,6883.915261
2705.773559,2451.505594,2368.659014,12731.542202
2705.773888,2451.505594,1406.391290,8512.368333
2705.774217,5056.230287,3330.926739,7402.059420
2705.774547,4826.401637,7772.162391,1850.514855
2705.774876,4290.134789,3775.050304,4737.318029
2705.775205,3370.820191,4071.132681,8364.327145
2705.775534,2451.505594,5921.647536,6809.894666
2705.775863,2681.334243,3997.112087,7105.977043
2705.776192,-1455.581446,6735.874072,7031.956449
2705.776521,-2298.286494,1702.473667,11325.150913
2705.776850,-6052.154434,-4145.153275,16432.571912
2705.777179,-5745.716235,1628.453072,9622.677246
2705.777508,-3524.039291,1036.288319,12435.459826
2705.777837,-3830.477490,-6143.709319,14359.995275
2705.778166,-3830.477490,3849.070898,10732.986159
2705.778495,153.219100,666.185348,9104.533087
2705.778824,-3140.991542,5107.421000,6365.771101
2705.779153,2068.457845,962.267725,16654.633695
2705.779482,4290.134789,2738.761985,8290.306550
2705.779811,4826.401637,6143.709319,7920.203579
2705.780140,3524.039291,5625.565159,4737.318029
2705.780469,4443.353888,7994.224174,3404.947333
2705.780798,2911.162892,4737.318029,11103.089130
2705.781127,-919.314598,6735.874072,6513.812290
2705.781456,2451.505594,5699.585753,11473.192101
2705.781785,-1302.362347,4145.153275,7698.141797
2705.782114,-229.828649,4885.359217,6661.853478
2705.782443,-2911.162892,2072.576638,11547.212695
2705.782772,-4443.353888,-3478.967927,11695.253884
2705.783101,-2757.943793,2146.597232,9992.780217
2705.783430,-1532.190996,-3256.906145,10140.821405
2705.783759,-3600.648841,1110.308913,8808.450710
2705.784089,-1762.019645,3256.906145,13767.830521
2705.784418,1455.581446,3923.091493,7328.038826
2705.784747,1455.581446,7698.141797,7772.162391
2705.785076,3370.820191,4589.276840,7846.182985
2705.785405,2528.115143,4515.256246,10066.800811
2705.785734,-919.314598,5403.503377,9770.718434
2705.786063,1378.971896,5551.544565,6957.935855
2705.786392,842.705048,3552.988522,6809.894666
2705.786721,2068.457845,1702.473667,9548.656652
2705.787050,1455.581446,3330.926739,9548.656652
2705.787379,995.924147,2294.638420,10658.965565
2705.787708,-689.485948,1184.329507,8142.265362
2705.788037,2374.896044,1332.370696,9474.636058
2705.788366,1072.533697,4737.318029,8290.306550
2705.788695,0.000000,3256.906145,9400.615463
2705.789024,-229.828649,3775.050304,8364.327145
2705.789353,1762.019645,1998.556043,8660.409521
2705.789682,2604.724693,3256.906145,8142.265362
2705.790011,2911.162892,3775.050304,8808.450710
2705.790340,766.095498,2146.597232,9104.533087
2705.790669,459.657299,1850.514855,9326.594869
2705.790998,76.609550,3034.844362,8734.430116
2705.791327,-536.266849,2368.659014,10066.800811
2705.791656,-1532.190996,3256.906145,9918.759623
2705.791985,-2145.067394,3627.009116,9104.533087
2705.792314,-1532.190996,1184.329507,9696.697840
2705.792643,-919.314598,666.185348,10288.862594
2705.792972,-612.876398,-296.082377,10732.986159
2705.793302,-1149.143247,962.267725,9770.718434
2705.793631,76.609550,1332.370696,9030.512492
2705.793960,2374.896044,2220.617826,7994.224174
2705.794289,3217.601092,3701.029710,7105.977043
2705.794618,1149.143247,4071.132681,8512.368333
2705.794947,76.609550,2886.803174,8882.471304
2705.795276,1838.629195,2664.741391,7846.182985
2705.795606,2757.943793,3330.926739,7846.182985
2705.795935,1302.362347,3404.947333,8216.285956
2705.796264,-1225.752797,1258.350101,10436.903782
2705.796593,-1378.971896,-296.082377,11177.109724
2705.796922,-1838.629195,1184.329507,9770.718434
2705.797251,-2757.943793,1480.411884,9918.759623
2705.797581,-3370.820191,1480.411884,10584.944971
2705.797910,-1685.410096,740.205942,10140.821405
2705.798239,-1608.800546,1924.535449,7624.121203
2705.798568,-612.876398,1184.329507,8438.347739
2705.798897,383.047749,2146.597232,7846.182985
2705.799227,1072.533697,2294.638420,9030.512492
2705.799556,1302.362347,3627.009116,7105.977043
2705.799885,766.095498,1628.453072,7031.956449
2705.800214,995.924147,962.267725,9622.677246
2705.800543,1225.752797,-370.102971,9696.697840
2705.800872,689.485948,1554.432478,10214.842000
2705.801202,-229.828649,1850.514855,9400.615463
2705.801531,153.219100,814.226536,9696.697840
2705.801860,0.000000,3034.844362,9992.780217
2705.802189,0.000000,2664.741391,9770.718434
2705.802518,-612.876398,1628.453072,9474.636058
2705.802847,689.485948,814.226536,9104.533087
2705.803177,1455.581446,1406.391290,8512.368333
2705.803506,1072.533697,740.205942,8438.347739
2705.803835,1378.971896,-666.185348,8734.430116
2705.804164,1608.800546,-222.061783,6587.832884
2705.804493,1149.143247,1924.535449,7624.121203
2705.804823,1072.533697,2146.597232,7402.059420
2705.805152,1608.800546,370.102971,8808.450710
2705.805481,2068.457845,1258.350101,8956.491898
2705.805810,1378.971896,592.164754,8882.471304
2705.806139,-229.828649,-814.226536,10362.883188
2705.806468,459.657299,-962.267725,10955.047942
2705.806798,383.047749,814.226536,9844.739029
2705.807127,-766.095498,1850.514855,9178.553681
2705.807456,-459.657299,1258.350101,9178.553681
2705.807785,459.657299,592.164754,8882.471304
2705.808114,76.609550,1480.411884,8512.368333
2705.808443,459.657299,-0.000000,8660.409521
2705.808773,229.828649,-1332.370696,8142.265362
2705.809102,0.000000,-740.205942,8142.265362
2705.809431,-689.485948,-0.000000,8364.327145
2705.809760,-766.095498,-2220.617826,9030.512492
2705.810089,-459.657299,-2368.659014,9326.594869
2705.810418,229.828649,-1628.453072,9770.718434
2705.810748,0.000000,-1258.350101,10658.965565
2705.811077,766.095498,-518.144159,10510.924376
2705.811406,536.266849,666.185348,9474.636058
2705.811735,0.000000,2960.823768,10066.800811
2705.812064,153.219100,1998.556043,9474.636058
2705.812394,1378.971896,1258.350101,9400.615463
2705.812723,1455.581446,1924.535449,8956.491898
2705.813052,689.485948,814.226536,9400.615463
2705.813381,536.266849,-814.226536,9622.677246
2705.813710,0.000000,-1110.308913,8734.430116
2705.814039,-229.828649,-74.020594,8586.388927
2705.814369,-306.438199,-518.144159,8364.327145
2705.814698,76.609550,-1628.453072,8882.471304
2705.815027,689.485948,-518.144159,8364.327145
2705.815356,1762.019645,-518.144159,8586.388927
2705.815685,842.705048,-666.185348,8660.409521
2705.816014,766.095498,-518.144159,9548.656652
2705.816344,536.266849,1406.391290,9474.636058
2705.816673,766.095498,1036.288319,9030.512492
2705.817002,1838.629195,296.082377,9400.615463
2705.817331,1378.971896,888.247130,8512.368333
2705.817660,1149.143247,666.185348,9178.553681
2705.817990,306.438199,-592.164754,9918.759623
2705.818319,459.657299,-296.082377,7624.121203
2705.818648,-383.047749,-0.000000,7328.038826
2705.818977,-919.314598,-592.164754,8882.471304
2705.819306,-459.657299,-1554.432478,8216.285956
2705.819635,-766.095498,-2146.597232,8142.265362
2705.819965,-536.266849,-1628.453072,8512.368333
2705.820294,-842.705048,-2886.803174,9992.780217
2705.820623,-153.219100,-1554.432478,9696.697840
2705.820952,-1378.971896,-370.102971,9178.553681
2705.821281,-229.828649,-370.102971,9918.759623
2705.821610,612.876398,518.144159,9030.512492
2705.821940,842.705048,-0.000000,9326.594869
2705.822269,1149.143247,-148.041188,10288.862594
2705.822598,1378.971896,-0.000000,9326.594869
2705.822927,689.485948,222.061783,8512.368333
2705.823256,-383.047749,888.247130,7772.162391
2705.823585,-766.095498,-592.164754,10066.800811
2705.823915,0.000000,-1332.370696,9326.594869
2705.824244,-306.438199,-1036.288319,8216.285956
2705.824573,-76.609550,-1480.411884,8660.409521
2705.824902,-995.924147,-2294.638420,9918.759623
2705.825231,-612.876398,-1258.350101,8882.471304
2705.825561,-689.485948,-370.102971,8734.430116
2705.825890,-229.828649,370.102971,9696.697840
2705.826219,842.705048,-74.020594,9770.718434
2705.826548,1532.190996,740.205942,9622.677246
2705.826877,1762.019645,1554.432478,9252.574275
2705.827206,2681.334243,814.226536,9770.718434
2705.827536,2528.115143,2368.659014,7698.141797
2705.827865,1608.800546,1554.432478,7994.224174
2705.828194,1378.971896,1110.308913,8956.491898
2705.828523,1762.019645,-0.000000,8216.285956
2705.828852,995.924147,296.082377,7698.141797
2705.829181,689.485948,-1998.556043,9844.739029
2705.829511,-536.266849,-2368.659014,9400.615463
2705.829840,-612.876398,-1924.535449,8882.471304
2705.830169,-1455.581446,-296.082377,9474.636058
2705.830498,-766.095498,-1776.494261,9770.718434
2705.830827,-229.828649,-666.185348,9548.656652
2705.831157,0.000000,-444.123565,9548.656652
2705.831486,153.219100,-444.123565,10140.821405
2705.831815,1455.581446,-370.102971,9622.677246
2705.832144,1608.800546,444.123565,8882.471304
2705.832473,842.705048,1184.329507,7994.224174
2705.832802,995.924147,222.061783,8956.491898
2705.833132,1378.971896,-74.020594,9030.512492
2705.833461,1225.752797,-222.061783,7698.141797
2705.833790,842.705048,-518.144159,9252.574275
2705.834119,-995.924147,-2072.576638,9030.512492
2705.834448,-1455.581446,-666.185348,8512.368333
2705.834777,-2221.676944,-1184.329507,9474.636058
2705.835107,-1685.410096,-2220.617826,9252.574275
2705.835436,-1072.533697,-1924.535449,10140.821405
2705.835765,-919.314598,-1184.329507,9548.656652
2705.836094,-995.924147,-1776.494261,9326.594869
2705.836423,306.438199,-1184.329507,10584.944971
2705.836753,766.095498,592.164754,7994.224174
2705.837082,995.924147,1850.514855,7698.141797
2705.837411,1455.581446,1406.391290,8734.430116
2705.837740,2757.943793,1554.432478,8068.244768
2705.838069,2834.553343,1924.535449,7550.100608
2705.838398,2221.676944,370.102971,8216.285956
2705.838728,1991.848295,-1406.391290,9548.656652
2705.839057,536.266849,-666.185348,7772.162391
2705.839386,-612.876398,-148.041188,8586.388927
2705.839715,-919.314598,-814.226536,9696.697840
2705.840044,-536.266849,-2368.659014,9844.739029
2705.840373,-689.485948,-518.144159,9104.533087
2705.840703,-842.705048,-740.205942,9992.780217
2705.841032,76.609550,-888.247130,9622.677246
2705.841361,1072.533697,444.123565,8586.388927
2705.841690,919.314598,1924.535449,8068.244768
2705.842019,1225.752797,1332.370696,9030.512492
2705.842348,2068.457845,592.164754,9474.636058
2705.842678,2145.067394,592.164754,7624.121203
2705.843007,1225.752797,370.102971,9696.697840
2705.843336,1225.752797,-370.102971,9326.594869
2705.843665,0.000000,-296.082377,8068.244768
2705.843994,-842.705048,-0.000000,9918.759623
2705.844324,-1378.971896,-888.247130,9622.677246
2705.844653,-766.095498,-1554.432478,9622.677246
2705.844982,-1302.362347,-222.061783,9252.574275
2705.845311,-842.705048,-1998.556043,10066.800811
2705.845640,-766.095498,-1184.329507,9548.656652
2705.845969,0.000000,-518.144159,8364.327145
2705.846299,76.609550,814.226536,9178.553681
2705.846628,612.876398,962.267725,8882.471304
2705.846957,1762.019645,222.061783,8290.306550
2705.847286,1838.629195,740.205942,7698.141797
2705.847615,919.314598,-0.000000,9474.636058
2705.847944,1072.533697,-1406.391290,9696.697840
2705.848274,0.000000,-0.000000,8512.368333
2705.848603,-1225.752797,370.102971,9770.718434
2705.848932,-1072.533697,-518.144159,9844.739029
2705.849261,0.000000,-1036.288319,10066.800811
2705.849590,76.609550,-1110.308913,9326.594869
2705.849920,-306.438199,-888.247130,9178.553681
2705.850249,1378.971896,-370.102971,9548.656652
2705.850578,1608.800546,1332.370696,8216.285956
2705.850907,1532.190996,518.144159,8882.471304
2705.851236,1991.848295,1332.370696,8734.430116
2705.851565,2911.162892,1036.288319,7550.100608
2705.851895,2451.505594,1998.556043,7402.059420
2705.852224,1302.362347,888.247130,8142.265362
2705.852553,1149.143247,-962.267725,10436.903782
2705.852882,-229.828649,-296.082377,8882.471304
2705.853211,-1608.800546,-740.205942,8956.491898
2705.853540,-1455.581446,-1998.556043,11103.089130
2705.853870,-1225.752797,-2072.576638,10066.800811
2705.854199,-1302.362347,-888.247130,9474.636058
2705.854528,-229.828649,-1480.411884,11029.068536
2705.854857,76.609550,-1184.329507,9474.636058
2705.855186,612.876398,592.164754,7254.018232
2705.855516,1608.800546,1406.391290,8586.388927
2705.855845,1685.410096,1702.473667,8142.265362
2705.856174,2911.162892,1406.391290,7402.059420
2705.856503,2451.505594,1998.556043,6735.874072
2705.856832,1378.971896,814.226536,9030.512492
2705.857161,1072.533697,-444.123565,9178.553681
2705.857491,-459.657299,-1850.514855,8808.450710
2705.857820,-1915.238745,-1036.288319,9918.759623
2705.858149,-2145.067394,-2738.761985,10955.047942
2705.858478,-2374.896044,-3256.906145,10510.924376
2705.858807,-2757.943793,-2072.576638,10288.862594
2705.859136,-1532.190996,-2590.720797,10955.047942
2705.859466,-153.219100,-666.185348,9548.656652
2705.859795,842.705048,-296.082377,9252.574275
2705.860124,1149.143247,1628.453072,7179.997637
2705.860453,2221.676944,814.226536,8364.327145
2705.860782,3830.477490,1776.494261,7031.956449
2705.861111,3830.477490,2072.576638,6217.729913
2705.861441,2528.115143,1776.494261,8290.306550
2705.861770,2068.457845,-0.000000,7994.224174
2705.862099,612.876398,-74.020594,8216.285956
2705.862428,-689.485948,-148.041188,9252.574275
2705.862757,-1302.362347,-2146.597232,10214.842000
2705.863087,-2374.896044,-2738.761985,10732.986159
2705.863416,-2757.943793,-2368.659014,11177.109724
2705.863745,-2374.896044,-2072.576638,10955.047942
2705.864074,-1072.533697,-3108.864956,10807.006753
2705.864403,-459.657299,-444.123565,8512.368333
2705.864732,919.314598,518.144159,9326.594869
2705.865062,1762.019645,1628.453072,9104.533087
2705.865391,3370.820191,2072.576638,6735.874072
2705.865720,3677.258390,3034.844362,6883.915261
2705.866049,3064.381992,2220.617826,8290.306550
2705.866378,3140.991542,592.164754,7994.224174
2705.866707,1455.581446,1036.288319,7402.059420
2705.867037,-536.266849,296.082377,9252.574275
2705.867366,-1225.752797,-1998.556043,10881.027347
2705.867695,-1915.238745,-3034.844362,11325.150913
2705.868024,-2298.286494,-2590.720797,10732.986159
2705.868353,-2374.896044,-2146.597232,11621.233289
2705.868683,-1915.238745,-1036.288319,10807.006753
2705.869012,-1225.752797,592.164754,9474.636058
2705.869341,-153.219100,1554.432478,8660.409521
2705.869670,1608.800546,1036.288319,9400.615463
2705.869999,2987.772442,1628.453072,7994.224174
2705.870328,2911.162892,1554.432478,7254.018232
2705.870658,3370.820191,962.267725,7846.182985
2705.870987,2911.162892,222.061783,7328.038826
2705.871316,1532.190996,296.082377,8512.368333
2705.871645,0.000000,-0.000000,8734.430116
2705.871974,0.000000,-1480.411884,9696.697840
2705.872303,-459.657299,-1110.308913,9992.780217
2705.872633,-1225.752797,-1036.288319,9474.636058
2705.872962,-1762.019645,-1110.308913,10288.862594
2705.873291,-919.314598,-1776.494261,11325.150913
2705.873620,-153.219100,-222.061783,9178.553681
2705.873949,229.828649,-0.000000,9178.553681
2705.874279,1378.971896,-0.000000,9474.636058
2705.874608,2757.943793,1258.350101,7550.100608
2705.874937,3064.381992,1702.473667,7402.059420
2705.875266,2604.724693,1554.432478,7550.100608
2705.875595,2528.115143,1110.308913,7476.080014
2705.875924,995.924147,1480.411884,7254.018232
2705.876254,-766.095498,1332.370696,8364.327145
2705.876583,-995.924147,-1998.556043,10436.903782
2705.876912,-1532.190996,-2072.576638,9844.739029
2705.877241,-1532.190996,-2664.741391,10881.027347
2705.877570,-2451.505594,-2960.823768,11473.192101
2705.877899,-1915.238745,-2368.659014,11695.253884
2705.878229,-1072.533697,-0.000000,9030.512492
2705.878558,-612.876398,962.267725,9326.594869
2705.878887,689.485948,1776.494261,9474.636058
2705.879216,2528.115143,1332.370696,7624.121203
2705.879545,2987.772442,2590.720797,7402.059420
2705.879874,2681.334243,1184.329507,7624.121203
2705.880204,2451.505594,592.164754,7476.080014
2705.880533,919.314598,888.247130,7105.977043
2705.880862,-153.219100,-74.020594,9400.615463
2705.881191,-1149.143247,-1850.514855,10436.903782
2705.881520,-1302.362347,-2738.761985,10214.842000
2705.881850,-2068.457845,-2146.597232,9918.759623
2705.882179,-2145.067394,-2738.761985,10658.965565
2705.882508,-1838.629195,-2368.659014,10584.944971
2705.882837,-1608.800546,-962.267725,9400.615463
2705.883166,0.000000,296.082377,9474.636058
2705.883495,1302.362347,-222.061783,9770.718434
2705.883825,2911.162892,-0.000000,7698.141797
2705.884154,3064.381992,1184.329507,7994.224174
2705.884483,3447.429741,1850.514855,7105.977043
2705.884812,2911.162892,740.205942,7624.121203
2705.885141,1915.238745,2146.597232,6809.894666
2705.885470,689.485948,814.226536,8364.327145
2705.885800,459.657299,-74.020594,9696.697840
2705.886129,-229.828649,-1332.370696,9178.553681
2705.886458,-1302.362347,-2442.679609,10436.903782
2705.886787,-2298.286494,-3627.009116,11621.233289
2705.887116,-1915.238745,-2812.782580,11103.089130
2705.887446,-1608.800546,-1110.308913,10066.800811
2705.887775,-1072.533697,-222.061783,9474.636058
2705.888104,1225.752797,592.164754,10362.883188
2705.888433,2374.896044,962.267725,8290.306550
2705.888762,2221.676944,1850.514855,7328.038826
2705.889091,2911.162892,1998.556043,8290.306550
2705.889421,2681.334243,2294.638420,8216.285956
2705.889750,1608.800546,2442.679609,7031.956449
2705.890079,306.438199,1184.329507,8068.244768
2705.890408,0.000000,-888.247130,10288.862594
2705.890737,-1072.533697,-1924.535449,9474.636058
2705.891066,-1608.800546,-1850.514855,10214.842000
2705.891396,-2451.505594,-2812.782580,10955.047942
2705.891725,-1915.238745,-2368.659014,10362.883188
2705.892054,-1915.238745,-0.000000,9030.512492
2705.892383,-1225.752797,-518.144159,9770.718434
2705.892712,306.438199,-0.000000,9474.636058
2705.893042,2451.505594,1628.453072,8290.306550
2705.893371,2298.286494,1554.432478,7698.141797
2705.893700,2604.724693,962.267725,8364.327145
2705.894029,2911.162892,1110.308913,7624.121203
2705.894359,1532.190996,2294.638420,6439.791695
2705.894688,766.095498,1480.411884,7846.182985
2705.895017,919.314598,-518.144159,9400.615463
2705.895346,536.266849,-1480.411884,9252.574275
2705.895675,-459.657299,-2294.638420,9178.553681
2705.896005,-1532.190996,-2442.679609,10066.800811
2705.896334,-1838.629195,-2442.679609,10881.027347
2705.896663,-1838.629195,-1406.391290,9770.718434
2705.896992,-919.314598,-296.082377,9622.677246
2705.897322,842.705048,-888.247130,10140.821405
2705.897651,2374.896044,740.205942,8290.306550
2705.897980,2834.553343,1924.535449,8438.347739
2705.898309,2987.772442,1924.535449,9030.512492
2705.898638,2528.115143,1850.514855,7179.997637
2705.898968,1225.752797,2664.741391,7698.141797
2705.899297,612.876398,2368.659014,8438.347739
2705.899626,153.219100,-296.082377,9104.533087
2705.899955,-536.266849,-1702.473667,10066.800811
2705.900285,-1608.800546,-2146.597232,10066.800811
2705.900614,-2757.943793,-3182.885551,11695.253884
2705.900943,-2298.286494,-2442.679609,10732.986159
2705.901272,-2298.286494,-740.205942,9548.656652
2705.901601,-1608.800546,370.102971,10584.944971
2705.901931,383.047749,296.082377,9326.594869
2705.902260,1685.410096,1036.288319,8364.327145
2705.902589,1072.533697,1850.514855,8512.368333
2705.902918,2451.505594,592.164754,8512.368333
2705.903248,2451.505594,962.267725,7994.224174
2705.903577,1378.971896,1702.473667,6809.894666
2705.903906,0.000000,1184.329507,8438.347739
2705.904235,0.000000,-518.144159,10362.883188
2705.904565,0.000000,-1332.370696,8882.471304
2705.904894,-1455.581446,-1110.308913,9178.553681
2705.905223,-1072.533697,-2442.679609,10658.965565
2705.905552,-1378.971896,-2812.782580,10214.842000
2705.905881,-1838.629195,-1036.288319,8956.491898
2705.906211,-1378.971896,-0.000000,9030.512492
2705.906540,689.485948,-1406.391290,10066.800811
2705.906869,2068.457845,-740.205942,8438.347739
2705.907198,2757.943793,222.061783,7402.059420
2705.907528,3370.820191,-148.041188,8660.409521
2705.907857,3217.601092,740.205942,7402.059420
2705.908186,1915.238745,1480.411884,7105.977043
2705.908515,1072.533697,1332.370696,8438.347739
2705.908844,1149.143247,-740.205942,9030.512492
2705.909174,919.314598,-1924.535449,8586.388927
2705.909503,-229.828649,-1406.391290,9474.636058
2705.909832,-919.314598,-1998.556043,9696.697840
2705.910161,-995.924147,-2294.638420,9696.697840
2705.910491,-1762.019645,-222.061783,9252.574275
2705.910820,-1455.581446,-1480.411884,10288.862594
2705.911149,0.000000,-1258.350101,9770.718434
2705.911478,1225.752797,-518.144159,8142.265362
2705.911807,1149.143247,1184.329507,8438.347739
2705.912137,1532.190996,-0.000000,9030.512492
2705.912466,2145.067394,962.267725,7994.224174
2705.912795,919.314598,1332.370696,7550.100608
2705.913124,536.266849,1702.473667,9104.533087
2705.913454,766.095498,-0.000000,8808.450710
2705.913783,76.609550,-1110.308913,9400.615463
2705.914112,0.000000,-518.144159,10066.800811
2705.914441,-766.095498,-2738.761985,10658.965565
2705.914771,-995.924147,-888.247130,9992.780217
2705.915100,-1225.752797,-0.000000,8660.409521
2705.915429,-1149.143247,222.061783,9844.739029
2705.915758,383.047749,-296.082377,9400.615463
2705.916087,1149.143247,-0.000000,8142.265362
2705.916417,1302.362347,888.247130,8290.306550
2705.916746,1991.848295,222.061783,9104.533087
2705.917075,1838.629195,-296.082377,8882.471304
2705.917404,612.876398,666.185348,8512.368333
2705.917734,536.266849,888.247130,8290.306550
2705.918063,1149.143247,-888.247130,9178.553681
2705.918392,383.047749,148.041188,9326.594869
2705.918721,153.219100,-74.020594,9474.636058
2705.919050,0.000000,-1480.411884,9548.656652
2705.919380,0.000000,-444.123565,9030.512492
2705.919709,-689.485948,-0.000000,8956.491898
2705.920038,-919.314598,-74.020594,9474.636058
2705.920367,229.828649,-1776.494261,9104.533087
2705.920697,1072.533697,-666.185348,9178.553681
2705.921026,76.609550,444.123565,9030.512492
2705.921355,1149.143247,-1110.308913,9474.636058
2705.921684,1072.533697,592.164754,8216.285956
2705.922013,229.828649,1184.329507,7846.182985
2705.922343,0.000000,1110.308913,9030.512492
2705.922672,766.095498,370.102971,9252.574275
2705.923001,76.609550,-0.000000,8882.471304
2705.923330,-766.095498,-0.000000,9622.677246
2705.923660,-459.657299,-962.267725,10436.903782
2705.923989,-919.314598,-1924.535449,9844.739029
2705.924318,-1149.143247,-0.000000,8734.430116
2705.924647,-689.485948,-222.061783,9696.697840
2705.924977,-459.657299,-666.185348,9844.739029
2705.925306,612.876398,592.164754,8586.388927
2705.925635,1149.143247,444.123565,8660.409521
2705.925964,995.924147,-666.185348,8882.471304
2705.926293,689.485948,814.226536,8290.306550
2705.926623,229.828649,592.164754,8808.450710
2705.926952,-229.828649,1184.329507,8586.388927
2705.927281,0.000000,-1110.308913,9918.759623
2705.927610,459.657299,-0.000000,9474.636058
2705.927940,-459.657299,-518.144159,9400.615463
2705.928269,0.000000,-1776.494261,10436.903782
2705.928598,0.000000,-592.164754,9400.615463
2705.928927,153.219100,-0.000000,8512.368333
2705.929256,0.000000,-814.226536,9622.677246
2705.929586,1072.533697,-222.061783,8586.388927
2705.929915,1685.410096,296.082377,8808.450710
2705.930244,2145.067394,296.082377,7920.203579
2705.930573,2145.067394,-370.102971,8734.430116
2705.930903,2145.067394,-222.061783,8586.388927
2705.931232,612.876398,1110.308913,7550.100608
2705.931561,153.219100,370.102971,9104.533087
2705.931890,1072.533697,-814.226536,9104.533087
2705.932219,536.266849,-148.041188,8512.368333
2705.932549,-306.438199,-1184.329507,10510.924376
2705.932878,-306.438199,-2146.597232,10214.842000
2705.933207,0.000000,-888.247130,8734.430116
2705.933536,-536.266849,-370.102971,8808.450710
2705.933866,-229.828649,-74.020594,9104.533087
2705.934195,536.266849,-1406.391290,9918.759623
2705.934524,1072.533697,-0.000000,8438.347739
2705.934853,689.485948,1184.329507,7328.038826
2705.935183,766.095498,-74.020594,9548.656652
2705.935512,383.047749,-222.061783,9326.594869
2705.935841,-383.047749,962.267725,8586.388927
2705.936170,-689.485948,-518.144159,9252.574275
2705.936499,459.657299,-222.061783,9030.512492
2705.936829,229.828649,-148.041188,9548.656652
2705.937158,-459.657299,-222.061783,10140.821405
2705.937487,-306.438199,-592.164754,9474.636058
2705.937816,383.047749,-0.000000,9178.553681
2705.938146,0.000000,1776.494261,7698.141797
2705.938475,229.828649,1406.391290,9252.574275
2705.938804,766.095498,740.205942,9030.512492
2705.939133,842.705048,-0.000000,8586.388927
2705.939462,459.657299,296.082377,9252.574275
2705.939792,766.095498,-888.247130,8660.409521
2705.940121,76.609550,-444.123565,9400.615463
2705.940450,-689.485948,592.164754,8882.471304
2705.940779,-383.047749,-222.061783,9844.739029
2705.941109,229.828649,-1184.329507,9548.656652
2705.941438,919.314598,-962.267725,9326.594869
2705.941767,459.657299,-222.061783,9474.636058
2705.942096,0.000000,-888.247130,9474.636058
2705.942425,1149.143247,-0.000000,8660.409521
2705.942755,919.314598,1406.391290,7698.141797
2705.943084,689.485948,666.185348,9252.574275
2705.943413,1378.971896,-222.061783,8808.450710
2705.943742,1685.410096,666.185348,7846.182985
2705.944072,536.266849,-0.000000,9696.697840
2705.944401,766.095498,-1184.329507,10214.842000
2705.944730,-689.485948,-1258.350101,9326.594869
2705.945059,-1225.752797,-518.144159,9696.697840
2705.945389,-1072.533697,-296.082377,9918.759623
2705.945718,-383.047749,-2368.659014,10214.842000
2705.946047,-306.438199,-666.185348,9178.553681
2705.946376,-153.219100,-222.061783,9474.636058
2705.946705,612.876398,-296.082377,9696.697840
2705.947035,1455.581446,296.082377,8290.306550
2705.947364,995.924147,1850.514855,7772.162391
2705.947693,919.314598,814.226536,8882.471304
2705.948022,1302.362347,-148.041188,9030.512492
2705.948352,1302.362347,-296.082377,8142.265362
2705.948681,689.485948,666.185348,8142.265362
2705.949010,689.485948,-962.267725,9030.512492
2705.949339,0.000000,-666.185348,9474.636058
2705.949668,-1378.971896,296.082377,9400.615463
2705.949998,-1225.752797,-888.247130,9400.615463
2705.950327,-306.438199,-814.226536,9400.615463
2705.950656,76.609550,-222.061783,9104.533087
2705.950985,0.000000,-0.000000,9696.697840
2705.951315,229.828649,-962.267725,9992.780217
2705.951644,2221.676944,518.144159,8586.388927
2705.951973,1838.629195,1332.370696,7476.080014
2705.952302,1685.410096,1258.350101,8586.388927
2705.952631,2451.505594,370.102971,8660.409521
2705.952961,2145.067394,814.226536,7476.080014
2705.953290,1455.581446,222.061783,8438.347739
2705.953619,995.924147,-740.205942,9400.615463
2705.953948,0.000000,-0.000000,9844.739029
2705.954278,-536.266849,-0.000000,8142.265362
2705.954607,-1455.581446,-1184.329507,9844.739029
2705.954936,-612.876398,-1258.350101,9992.780217
2705.955265,-383.047749,-888.247130,9178.553681
2705.955595,-536.266849,-148.041188,9992.780217
2705.955924,0.000000,-1480.411884,10658.965565
2705.956253,536.266849,296.082377,8882.471304
2705.956582,536.266849,296.082377,8734.430116
2705.956911,995.924147,1036.288319,8734.430116
2705.957241,1532.190996,-74.020594,9326.594869
2705.957570,1149.143247,1776.494261,7772.162391
2705.957899,919.314598,-74.020594,9030.512492
2705.958228,459.657299,-962.267725,10288.862594
2705.958558,0.000000,-74.020594,8586.388927
2705.958887,-1072.533697,-444.123565,9696.697840
2705.959216,-1991.848295,-740.205942,9992.780217
2705.959545,-536.266849,-1554.432478,9696.697840
2705.959874,-612.876398,-1554.432478,9474.636058
2705.960204,-612.876398,-444.123565,10066.800811
2705.960533,0.000000,-1110.308913,9474.636058
2705.960862,306.438199,-444.123565,8364.327145
2705.961191,229.828649,1628.453072,8142.265362
2705.961521,842.705048,-0.000000,9104.533087
2705.961850,1225.752797,592.164754,8512.368333
2705.962179,1225.752797,740.205942,7550.100608
2705.962508,689.485948,370.102971,8734.430116
2705.962837,536.266849,-888.247130,9992.780217
2705.963167,383.047749,-1332.370696,8734.430116
2705.963496,-1225.752797,-222.061783,9178.553681
2705.963825,-1225.752797,-666.185348,10362.883188
2705.964154,-153.219100,-1110.308913,9474.636058
2705.964484,229.828649,-74.020594,9178.553681
2705.964813,229.828649,148.041188,9178.553681
2705.965142,1455.581446,-962.267725,9622.677246
2705.965471,2374.896044,1036.288319,8290.306550
2705.965801,1762.019645,1702.473667,7994.224174
2705.966130,1762.019645,1036.288319,8882.471304
2705.966459,2604.724693,518.144159,8586.388927
2705.966788,2145.067394,888.247130,7550.100608
2705.967117,1532.190996,370.102971,8956.491898
2705.967447,536.266849,-592.164754,8808.450710
2705.967776,0.000000,-1258.350101,9326.594869
2705.968105,-1072.533697,296.082377,9770.718434
2705.968434,-1532.190996,-1998.556043,10584.944971
2705.968764,-1072.533697,-2220.617826,10288.862594
2705.969093,-1302.362347,-1184.329507,9474.636058
2705.969422,-459.657299,-1184.329507,10584.944971
2705.969751,459.657299,-1480.411884,9474.636058
2705.970080,1149.143247,-592.164754,8068.244768
2705.970410,1685.410096,1480.411884,7920.203579
2705.970739,2068.457845,1480.411884,8438.347739
2705.971068,2451.505594,1554.432478,7994.224174
2705.971397,2145.067394,1850.514855,7254.018232
2705.971727,2068.457845,1332.370696,7624.121203
2705.972056,1225.752797,-592.164754,9178.553681
2705.972385,-459.657299,-592.164754,8956.491898
2705.972714,-2451.505594,-444.123565,9326.594869
2705.973043,-2681.334243,-1850.514855,9770.718434
2705.973373,-2068.457845,-2442.679609,10288.862594
2705.973702,-1762.019645,-2146.597232,10214.842000
2705.974031,-1838.629195,-1776.494261,10362.883188
2705.974360,-536.266849,-1924.535449,10436.903782
2705.974690,919.314598,-148.041188,8586.388927
2705.975019,1149.143247,962.267725,7402.059420
2705.975348,2374.896044,888.247130,9030.512492
2705.975677,3294.210641,1184.329507,7994.224174
2705.976007,2987.772442,2146.597232,7105.977043
2705.976336,2834.553343,2368.659014,7328.038826
2705.976665,2374.896044,1036.288319,8364.327145
2705.976994,842.705048,1776.494261,8068.244768
2705.977323,229.828649,1036.288319,7994.224174
2705.977653,-1302.362347,-1702.473667,10510.924376
2705.977982,-1838.629195,-2368.659014,10140.821405
2705.978311,-1915.238745,-2960.823768,11103.089130
2705.978640,-2451.505594,-2590.720797,11399.171507
2705.978970,-2068.457845,-2368.659014,11103.089130
2705.979299,-2221.676944,-1184.329507,9918.759623
2705.979628,-612.876398,1184.329507,8660.409521
2705.979957,1455.581446,814.226536,9474.636058
2705.980286,3370.820191,1406.391290,7846.182985
2705.980616,2834.553343,3034.844362,6809.894666
2705.980945,2528.115143,1998.556043,8290.306550
2705.981274,2145.067394,518.144159,7920.203579
2705.981603,1225.752797,1184.329507,7624.121203
2705.981933,76.609550,814.226536,8808.450710
2705.982262,-1608.800546,-962.267725,9918.759623
2705.982591,-2068.457845,-2442.679609,10584.944971
2705.982920,-2221.676944,-3034.844362,10436.903782
2705.983249,-2604.724693,-2220.617826,10658.965565
2705.983579,-2374.896044,-2738.761985,10807.006753
2705.983908,-2221.676944,-1406.391290,10066.800811
2705.984237,-766.095498,-0.000000,8438.347739
2705.984566,1149.143247,518.144159,8956.491898
2705.984896,2757.943793,148.041188,7920.203579
2705.985225,2987.772442,1628.453072,6439.791695
2705.985554,2834.553343,888.247130,7624.121203
2705.985883,3140.991542,518.144159,8290.306550
2705.986213,2145.067394,1110.308913,6809.894666
2705.986542,1072.533697,444.123565,7328.038826
2705.986871,0.000000,-1110.308913,9178.553681
2705.987200,76.609550,-2664.741391,10658.965565
2705.987529,-1302.362347,-1924.535449,9326.594869
2705.987859,-2145.067394,-3330.926739,10807.006753
2705.988188,-1991.848295,-2664.741391,11251.130318
2705.988517,-1378.971896,-666.185348,9844.739029
2705.988846,-306.438199,592.164754,8956.491898
2705.989176,612.876398,444.123565,9104.533087
2705.989505,2757.943793,518.144159,8512.368333
2705.989834,3447.429741,1628.453072,7624.121203
2705.990163,3217.601092,962.267725,7550.100608
2705.990492,2451.505594,1110.308913,7550.100608
2705.990822,1762.019645,1184.329507,7846.182985
2705.991151,766.095498,1628.453072,8216.285956
2705.991480,-153.219100,-1406.391290,9548.656652
2705.991809,-383.047749,-1702.473667,9992.780217
2705.992139,-1838.629195,-2516.700203,9918.759623
2705.992468,-2221.676944,-2664.741391,10881.027347
2705.992797,-1915.238745,-2812.782580,11621.233289
2705.993126,-1532.190996,-518.144159,9326.594869
2705.993455,-1149.143247,-0.000000,9474.636058
2705.993785,842.705048,888.247130,9474.636058
2705.994114,2221.676944,814.226536,8142.265362
2705.994443,2604.724693,1776.494261,6809.894666
2705.994772,2757.943793,1702.473667,7698.141797
2705.995101,2528.115143,1110.308913,7920.203579
2705.995430,1378.971896,1332.370696,7031.956449
2705.995760,229.828649,1628.453072,8068.244768
2705.996089,-459.657299,-1110.308913,10362.883188
2705.996418,-689.485948,-2294.638420,9918.759623
2705.996747,-1532.190996,-2516.700203,9696.697840
2705.997076,-2145.067394,-3627.009116,11177.109724
2705.997405,-2298.286494,-3182.885551,11251.130318
2705.997734,-1608.800546,-888.247130,9474.636058
2705.998063,-1378.971896,814.226536,8882.471304
2705.998392,306.438199,444.123565,9622.677246
2705.998721,2757.943793,814.226536,7920.203579
2705.999051,3524.039291,1850.514855,7550.100608
2705.999380,3064.381992,1850.514855,7920.203579
2705.999709,2451.505594,1702.473667,7105.977043
2706.000038,1455.581446,1850.514855,7772.162391
2706.000367,919.314598,2590.720797,7476.080014
2706.000696,0.000000,-148.041188,9474.636058
2706.001025,-306.438199,-1702.473667,10362.883188
2706.001354,-1225.752797,-1554.432478,9104.533087
2706.001683,-1762.019645,-2368.659014,11917.315666
2706.002012,-2145.067394,-3256.906145,11103.089130
2706.002342,-2145.067394,-814.226536,10362.883188
2706.002671,-1225.752797,-0.000000,10510.924376
2706.003000,306.438199,-222.061783,9178.553681
2706.003329,2068.457845,666.185348,8808.450710
2706.003658,2451.505594,2072.576638,7328.038826
2706.003987,2757.943793,1480.411884,8142.265362
2706.004316,2451.505594,2294.638420,7624.121203
2706.004645,1302.362347,1850.514855,6587.832884
2706.004974,459.657299,2442.679609,7920.203579
2706.005303,0.000000,148.041188,9326.594869
2706.005632,-689.485948,-2146.597232,9696.697840
2706.005962,-1915.238745,-1480.411884,9252.574275
2706.006291,-2068.457845,-2886.803174,11103.089130
2706.006620,-1762.019645,-4367.215058,11473.192101
2706.006949,-2145.067394,-1332.370696,10066.800811
2706.007278,-1072.533697,-222.061783,9326.594869
2706.007607,0.000000,-0.000000,9326.594869
2706.007936,1532.190996,1110.308913,8586.388927
2706.008265,3370.820191,2072.576638,7772.162391
2706.008594,3140.991542,1554.432478,8216.285956
2706.008923,2911.162892,740.205942,8290.306550
2706.009253,2068.457845,1406.391290,7105.977043
2706.009582,1302.362347,1776.494261,7994.224174
2706.009911,1072.533697,296.082377,7920.203579
2706.010240,766.095498,-1776.494261,9400.615463
2706.010569,-766.095498,-2146.597232,10288.862594
2706.010898,-1225.752797,-2294.638420,10066.800811
2706.011227,-766.095498,-4145.153275,11251.130318
2706.011556,-1762.019645,-1554.432478,9104.533087
2706.011885,-1608.800546,-962.267725,10732.986159
2706.012214,306.438199,-1258.350101,10510.924376
2706.012544,1455.581446,370.102971,8882.471304
2706.012873,3064.381992,1332.370696,7698.141797
2706.013202,3370.820191,1702.473667,8512.368333
2706.013531,3064.381992,1184.329507,8364.327145
2706.013860,2221.676944,1332.370696,7328.038826
2706.014189,842.705048,2664.741391,7476.080014
2706.014518,1072.533697,814.226536,8882.471304
2706.014847,1072.533697,-518.144159,8808.450710
2706.015176,-919.314598,-1554.432478,9696.697840
2706.015505,-1149.143247,-3256.906145,10140.821405
2706.015835,-1302.362347,-2812.782580,10955.047942
2706.016164,-2374.896044,-2294.638420,9326.594869
2706.016493,-2451.505594,-1184.329507,10288.862594
2706.016822,-919.314598,-1480.411884,10732.986159
2706.017151,689.485948,-0.000000,8438.347739
2706.017480,1455.581446,296.082377,7920.203579
2706.017809,2604.724693,1554.432478,8142.265362
2706.018138,2834.553343,814.226536,7920.203579
2706.018467,1762.019645,1332.370696,7920.203579
2706.018796,842.705048,1258.350101,7476.080014
2706.019125,459.657299,-296.082377,8808.450710
2706.019455,76.609550,-444.123565,8364.327145
2706.019784,-536.266849,-1332.370696,10066.800811
2706.020113,-1455.581446,-2738.761985,10510.924376
2706.020442,-1991.848295,-3552.988522,9918.759623
2706.020771,-2374.896044,-1406.391290,9178.553681
2706.021100,-2451.505594,-1406.391290,10510.924376
2706.021429,-1455.581446,-1480.411884,10510.924376
2706.021758,689.485948,-592.164754,9622.677246
2706.022087,1991.848295,1036.288319,8216.285956
2706.022416,2298.286494,888.247130,8808.450710
2706.022746,2528.115143,1480.411884,8290.306550
2706.023075,1838.629195,1406.391290,7772.162391
2706.023404,1072.533697,2590.720797,7772.162391
2706.023733,1302.362347,1036.288319,9030.512492
2706.024062,766.095498,444.123565,9252.574275
2706.024391,-459.657299,-444.123565,9474.636058
2706.024720,-995.924147,-1998.556043,10658.965565
2706.025049,-1762.019645,-2368.659014,10214.842000
2706.025378,-2451.505594,-962.267725,10288.862594
2706.025707,-2145.067394,-444.123565,10436.903782
2706.026037,-842.705048,-592.164754,10288.862594
2706.026366,0.000000,370.102971,9474.636058
2706.026695,1608.800546,814.226536,8068.244768
2706.027024,2374.896044,1406.391290,8882.471304
2706.027353,2834.553343,1110.308913,8438.347739
2706.027682,1838.629195,2442.679609,6661.853478
2706.028011,536.266849,1702.473667,7772.162391
2706.028340,919.314598,1258.350101,8512.368333
2706.028669,1838.629195,-0.000000,8216.285956
2706.028998,-612.876398,-518.144159,9548.656652
2706.029328,-919.314598,-1184.329507,9696.697840
2706.029657,-1225.752797,-1776.494261,10510.924376
2706.029986,-1838.629195,-1332.370696,9104.533087
2706.030315,-1762.019645,-666.185348,9918.759623
2706.030644,-766.095498,-888.247130,9918.759623
2706.030973,306.438199,-740.205942,8808.450710
2706.031302,1302.362347,222.061783,8808.450710
2706.031631,2145.067394,-0.000000,9326.594869
2706.031960,2987.772442,370.102971,8512.368333
2706.032289,1838.629195,2072.576638,7550.100608
2706.032618,995.924147,1998.556043,8512.368333
2706.032948,1149.143247,962.267725,8512.368333
2706.033277,2451.505594,740.205942,8808.450710
2706.033606,1608.800546,592.164754,8290.306550
2706.033935,0.000000,-1332.370696,9844.739029
2706.034264,689.485948,-1480.411884,9992.780217
2706.034593,-229.828649,-1110.308913,8956.491898
2706.034922,-1225.752797,-0.000000,9844.739029
2706.035251,-459.657299,-888.247130,10732.986159
2706.035580,-536.266849,-666.185348,9030.512492
2706.035909,229.828649,-0.000000,9918.759623
2706.036239,1762.019645,-0.000000,9104.533087
2706.036568,1608.800546,-962.267725,9252.574275
2706.036897,459.657299,1628.453072,7994.224174
2706.037226,306.438199,1702.473667,8660.409521
2706.037555,536.266849,-0.000000,9178.553681
2706.037884,1072.533697,888.247130,8142.265362
2706.038213,919.314598,296.082377,9252.574275
2706.038542,153.219100,-1406.391290,9918.759623
2706.038871,-306.438199,-2368.659014,9696.697840
2706.039200,-383.047749,-1776.494261,9030.512492
2706.039530,-1072.533697,-518.144159,9326.594869
2706.039859,-459.657299,-370.102971,9474.636058
2706.040188,-153.219100,-518.144159,8660.409521
2706.040517,153.219100,-148.041188,9252.574275
2706.040846,1455.581446,-1258.350101,9770.718434
2706.041175,1532.190996,-1998.556043,8512.368333
2706.041504,-306.438199,-0.000000,8290.306550
2706.041833,-306.438199,-0.000000,8512.368333
2706.042162,0.000000,-1036.288319,9178.553681
2706.042491,0.000000,-518.144159,8882.471304
2706.042821,0.000000,-814.226536,8808.450710
2706.043150,0.000000,-1628.453072,10214.842000
2706.043479,229.828649,-1332.370696,8660.409521
2706.043808,0.000000,-1036.288319,8290.306550
2706.044137,-306.438199,-222.061783,8734.430116
2706.044466,0.000000,-1184.329507,9548.656652
2706.044795,842.705048,222.061783,8882.471304
2706.045124,995.924147,888.247130,8290.306550
2706.045453,1991.848295,296.082377,8512.368333
2706.045782,1685.410096,-0.000000,8438.347739
2706.046112,459.657299,666.185348,8512.368333
2706.046441,-229.828649,444.123565,8438.347739
2706.046770,383.047749,-370.102971,9326.594869
2706.047099,459.657299,296.082377,9252.574275
2706.047428,76.609550,-370.102971,9474.636058
2706.047757,0.000000,-592.164754,9992.780217
2706.048086,76.609550,-1258.350101,9104.533087
2706.048415,76.609550,1628.453072,8216.285956
2706.048744,0.000000,1184.329507,8734.430116
2706.049073,229.828649,-0.000000,9696.697840
2706.049402,1149.143247,-74.020594,9104.533087
2706.049732,1149.143247,814.226536,8586.388927
2706.050061,1072.533697,-74.020594,9474.636058
2706.050390,1225.752797,-148.041188,9400.615463
2706.050719,459.657299,740.205942,9178.553681
2706.051048,-229.828649,1850.514855,8882.471304
2706.051377,229.828649,296.082377,9400.615463
2706.051706,383.047749,222.061783,9252.574275
2706.052035,76.609550,-370.102971,9326.594869
2706.052364,0.000000,-1554.432478,10140.821405
2706.052693,229.828649,-1036.288319,9474.636058
2706.053023,76.609550,-74.020594,7994.224174
2706.053352,0.000000,888.247130,8586.388927
2706.053681,536.266849,-592.164754,9844.739029
2706.054010,842.705048,-74.020594,8586.388927
2706.054339,612.876398,444.123565,7994.224174
2706.054668,1225.752797,-1036.288319,8438.347739
2706.054997,612.876398,-370.102971,9622.677246
2706.055326,76.609550,-0.000000,9474.636058
2706.055655,-459.657299,-1258.350101,9104.533087
2706.055984,536.266849,-1184.329507,9104.533087
2706.056314,1149.143247,-370.102971,9918.759623
2706.056643,-153.219100,-0.000000,9030.512492
2706.056972,536.266849,-0.000000,9548.656652
2706.057301,1455.581446,-0.000000,9474.636058
2706.057630,689.485948,1628.453072,7254.018232
2706.057959,76.609550,1110.308913,9474.636058
2706.058288,612.876398,148.041188,9178.553681
2706.058617,689.485948,-0.000000,8068.244768
2706.058946,766.095498,518.144159,9400.615463
2706.059275,306.438199,-666.185348,9844.739029
2706.059605,0.000000,-1110.308913,9918.759623
2706.059934,-1378.971896,-0.000000,9326.594869
2706.060263,-612.876398,-0.000000,8734.430116
2706.060592,76.609550,-222.061783,9178.553681
2706.060921,536.266849,222.061783,9252.574275
2706.061250,612.876398,74.020594,8734.430116
2706.061579,153.219100,-1036.288319,9474.636058
2706.061908,1225.752797,-592.164754,8438.347739
2706.062237,689.485948,518.144159,7031.956449
2706.062566,153.219100,222.061783,8882.471304
2706.062895,459.657299,-1184.329507,9030.512492
2706.063225,766.095498,-1110.308913,8068.244768
2706.063554,153.219100,-74.020594,8734.430116
2706.063883,229.828649,-666.185348,9400.615463
2706.064212,0.000000,-1998.556043,8956.491898
2706.064541,-1378.971896,-740.205942,8586.388927
2706.064870,-1532.190996,-1628.453072,10066.800811
2706.065199,0.000000,-1850.514855,9992.780217
2706.065528,383.047749,-1924.535449,8956.491898
2706.065857,0.000000,-222.061783,9474.636058
2706.066186,612.876398,-296.082377,9844.739029
2706.066516,2145.067394,-444.123565,8438.347739
2706.066845,1225.752797,1776.494261,7402.059420
2706.067174,1149.143247,1036.288319,8808.450710
2706.067503,995.924147,-0.000000,8512.368333
2706.067832,1608.800546,370.102971,7994.224174
2706.068161,1532.190996,-296.082377,8808.450710
2706.068490,612.876398,-1776.494261,9252.574275
2706.068819,229.828649,-1332.370696,10214.842000
2706.069148,-1072.533697,-370.102971,9030.512492
2706.069477,-1225.752797,222.061783,9844.739029
2706.069807,76.609550,-888.247130,10140.821405
2706.070136,383.047749,-0.000000,9252.574275
2706.070465,229.828649,666.185348,9548.656652
2706.070794,383.047749,-296.082377,9474.636058
2706.071123,1762.019645,-0.000000,8586.388927
2706.071452,1149.143247,1998.556043,7994.224174
2706.071781,995.924147,1332.370696,8290.306550
2706.072110,1762.019645,296.082377,9104.533087
2706.072439,1991.848295,-0.000000,7920.203579
2706.072768,1455.581446,-0.000000,7920.203579
2706.073098,536.266849,-1184.329507,9548.656652
2706.073427,-612.876398,-370.102971,8734.430116
2706.073756,-1072.533697,-0.000000,9400.615463
2706.074085,-1762.019645,74.020594,9696.697840
2706.074414,-612.876398,-1258.350101,9770.718434
2706.074743,-306.438199,-962.267725,9770.718434
2706.075072,-766.095498,-1036.288319,9770.718434
2706.075401,229.828649,-888.247130,10140.821405
2706.075730,842.705048,-444.123565,8512.368333
2706.076059,612.876398,1184.329507,7772.162391
2706.076388,766.095498,2516.700203,8956.491898
2706.076718,1072.533697,666.185348,8660.409521
2706.077047,1532.190996,2294.638420,7179.997637
2706.077376,1149.143247,1258.350101,8142.265362
2706.077705,306.438199,-592.164754,9918.759623
2706.078034,0.000000,-1184.329507,9474.636058
2706.078363,-995.924147,-962.267725,9474.636058
2706.078692,-1225.752797,-888.247130,9474.636058
2706.079021,-919.314598,-1332.370696,10658.965565
2706.079350,-383.047749,-518.144159,10288.862594
2706.079679,-459.657299,740.205942,9252.574275
2706.080009,842.705048,518.144159,9918.759623
2706.080338,1608.800546,296.082377,8512.368333
2706.080667,1915.238745,1554.432478,8142.265362
2706.080996,1991.848295,1554.432478,8512.368333
2706.081325,2681.334243,1184.329507,7920.203579
2706.081654,2145.067394,962.267725,7994.224174
2706.081983,2068.457845,1184.329507,8364.327145
2706.082312,1455.581446,148.041188,9178.553681
2706.082641,766.095498,-1036.288319,8586.388927
2706.082970,-459.657299,296.082377,8512.368333
2706.083300,-1685.410096,-962.267725,10288.862594
2706.083629,-1532.190996,-2220.617826,10658.965565
2706.083958,-919.314598,-1776.494261,9844.739029
2706.084287,-1225.752797,-1036.288319,9992.780217
2706.084616,-612.876398,-1998.556043,9992.780217
2706.084945,1072.533697,-1628.453072,9400.615463
2706.085274,1532.190996,518.144159,7698.141797
2706.085603,1072.533697,148.041188,9030.512492
2706.085932,2451.505594,296.082377,8216.285956
2706.086261,2068.457845,148.041188,7254.018232
2706.086591,1762.019645,-0.000000,8290.306550
2706.086920,1378.971896,-2072.576638,8956.491898
2706.087249,0.000000,-2812.782580,9474.636058
2706.087578,-1072.533697,-2886.803174,8956.491898
2706.087907,-1991.848295,-3108.864956,10066.800811
2706.088236,-1608.800546,-4589.276840,11621.233289
2706.088565,-1302.362347,-3775.050304,10140.821405
2706.088894,-1455.581446,-3330.926739,10362.883188
2706.089223,-1225.752797,-2590.720797,9696.697840
2706.089552,1149.143247,-3478.967927,9252.574275
2706.089881,995.924147,296.082377,7920.203579
2706.090211,1225.752797,-296.082377,8068.244768
2706.090540,2451.505594,-1036.288319,8364.327145
2706.090869,3140.991542,-1332.370696,7402.059420
2706.091198,2834.553343,-814.226536,7624.121203
2706.091527,1685.410096,-2220.617826,8438.347739
2706.091856,689.485948,-3182.885551,8734.430116
2706.092185,0.000000,-3330.926739,9400.615463
2706.092514,-1225.752797,-3182.885551,9474.636058
2706.092843,-1378.971896,-3552.988522,9918.759623
2706.093172,-1302.362347,-3404.947333,9474.636058
2706.093502,-1149.143247,-2812.782580,9918.759623
2706.093831,-1762.019645,-2738.761985,10214.842000
2706.094160,-229.828649,-4219.173869,10140.821405
2706.094489,1072.533697,-3849.070898,8512.368333
2706.094818,1608.800546,-592.164754,8216.285956
2706.095147,1685.410096,-814.226536,7624.121203
2706.095476,2145.067394,-1258.350101,7550.100608
2706.095805,3294.210641,-592.164754,7550.100608
2706.096134,2681.334243,-1036.288319,7179.997637
2706.096463,1302.362347,-2368.659014,7994.224174
2706.096793,0.000000,-3923.091493,8882.471304
2706.097122,-459.657299,-4885.359217,10066.800811
2706.097451,-1302.362347,-4071.132681,9474.636058
2706.097780,-2528.115143,-6069.688724,10066.800811
2706.098109,-2681.334243,-5847.626942,11843.295072
2706.098438,-1455.581446,-4737.318029,10658.965565
2706.098767,-1072.533697,-4145.153275,9326.594869
2706.099097,-689.485948,-4145.153275,8586.388927
2706.099426,153.219100,-3256.906145,10066.800811
2706.099755,2068.457845,-2664.741391,9030.512492
2706.100084,2911.162892,-1924.535449,7328.038826
2706.100413,2757.943793,-1776.494261,7179.997637
2706.100742,2604.724693,-1110.308913,7179.997637
2706.101071,2987.772442,-1850.514855,7920.203579
2706.101400,2911.162892,-2812.782580,8216.285956
2706.101730,1378.971896,-3330.926739,8068.244768
2706.102059,-383.047749,-4145.153275,9178.553681
2706.102388,-919.314598,-4367.215058,10140.821405
2706.102717,-1378.971896,-3849.070898,10066.800811
2706.103046,-1608.800546,-4071.132681,10658.965565
2706.103375,-2528.115143,-3404.947333,9696.697840
2706.103704,-1991.848295,-3849.070898,10510.924376
2706.104034,-229.828649,-3034.844362,10140.821405
2706.104363,1378.971896,-2960.823768,8956.491898
2706.104692,1608.800546,-1776.494261,8586.388927
2706.105021,1532.190996,-1776.494261,8586.388927
2706.105350,2757.943793,-1924.535449,8808.450710
2706.105679,3524.039291,-1258.350101,7920.203579
2706.106008,3830.477490,-1110.308913,7105.977043
2706.106337,2145.067394,-888.247130,7994.224174
2706.106667,1915.238745,-2072.576638,8142.265362
2706.106996,2145.067394,-2960.823768,9104.533087
2706.107325,1072.533697,-3404.947333,9474.636058
2706.107654,-842.705048,-4737.318029,9696.697840
2706.107983,-2221.676944,-4811.338623,10881.027347
2706.108312,-2451.505594,-4441.235652,11399.171507
2706.108641,-1991.848295,-4219.173869,10288.862594
2706.108971,-1838.629195,-3923.091493,9474.636058
2706.109300,-842.705048,-2960.823768,9770.718434
2706.109629,-536.266849,-2442.679609,9326.594869
2706.109958,76.609550,-1628.453072,8068.244768
2706.110287,1838.629195,-2516.700203,7402.059420
2706.110616,2451.505594,-2368.659014,7476.080014
2706.110945,1991.848295,-2812.782580,8290.306550
2706.111274,2068.457845,-3701.029710,8364.327145
2706.111604,1762.019645,-3627.009116,8216.285956
2706.111933,1608.800546,-2590.720797,8068.244768
2706.112262,1302.362347,-2294.638420,8068.244768
2706.112591,459.657299,-2590.720797,9622.677246
2706.112920,-306.438199,-3108.864956,10362.883188
2706.113249,-689.485948,-2960.823768,9548.656652
2706.113578,-1225.752797,-2960.823768,8882.471304
2706.113908,-612.876398,-3552.988522,9326.594869
2706.114237,-383.047749,-4663.297435,10066.800811
2706.114566,-306.438199,-5181.441594,10288.862594
2706.114895,-153.219100,-5921.647536,9474.636058
2706.115224,536.266849,-4515.256246,8512.368333
2706.115553,153.219100,-2368.659014,8882.471304
2706.115882,0.000000,-1480.411884,8660.409521
2706.116212,306.438199,-1332.370696,8586.388927
2706.116541,1072.533697,-1998.556043,8808.450710
2706.116870,1225.752797,-2072.576638,9104.533087
2706.117199,919.314598,-2664.741391,9770.718434
2706.117528,229.828649,-3701.029710,9474.636058
2706.117857,1072.533697,-3552.988522,9104.533087
2706.118186,1149.143247,-3627.009116,9178.553681
2706.118515,919.314598,-3256.906145,9326.594869
2706.118845,842.705048,-2886.803174,9104.533087
2706.119174,459.657299,-2812.782580,8808.450710
2706.119503,76.609550,-2072.576638,8660.409521
2706.119832,-306.438199,-2590.720797,8808.450710
2706.120161,-1302.362347,-2812.782580,9474.636058
2706.120490,-1378.971896,-3552.988522,9474.636058
2706.120819,-919.314598,-4145.153275,9622.677246
2706.121149,76.609550,-4737.318029,9622.677246
2706.121478,612.876398,-4737.318029,9474.636058
2706.121807,1455.581446,-3552.988522,9252.574275
2706.122136,2221.676944,-2516.700203,8142.265362
2706.122465,2987.772442,-1332.370696,7105.977043
2706.122794,3524.039291,-370.102971,7105.977043
2706.123123,4136.915689,-888.247130,6365.771101
2706.123452,3830.477490,-1554.432478,7476.080014
2706.123782,1915.238745,-2738.761985,8512.368333
2706.124111,153.219100,-4071.132681,9474.636058
2706.124440,-1838.629195,-4811.338623,10214.842000
2706.124769,-3064.381992,-5625.565159,11103.089130
2706.125098,-3753.867940,-5255.462188,10955.047942
2706.125427,-3370.820191,-4737.318029,10732.986159
2706.125756,-2604.724693,-3775.050304,9770.718434
2706.126086,-1685.410096,-3256.906145,9252.574275
2706.126415,229.828649,-2886.803174,9104.533087
2706.126744,2221.676944,-2738.761985,8512.368333
2706.127073,3830.477490,-2368.659014,7476.080014
2706.127402,5286.058936,-2590.720797,6957.935855
2706.127731,5745.716235,-2368.659014,7328.038826
2706.128060,5132.839837,-1850.514855,6957.935855
2706.128389,4903.011187,-444.123565,6957.935855
2706.128719,3983.696590,-592.164754,7105.977043
2706.129048,3064.381992,-148.041188,6587.832884
2706.129377,919.314598,-1850.514855,8068.244768
2706.129706,-3294.210641,-5995.668130,11251.130318
2706.130035,-4749.792088,-5625.565159,11473.192101
2706.130364,-5439.278036,-7772.162391,13323.706956
2706.130693,-5898.935335,-7920.203579,11769.274478
2706.131023,-5286.058936,-4885.359217,10955.047942
2706.131352,-3447.429741,-5921.647536,9992.780217
2706.131681,-3217.601092,-3256.906145,9326.594869
2706.132010,-612.876398,-1406.391290,7550.100608
2706.132339,1685.410096,-3404.947333,11843.295072
2706.132668,3677.258390,-1554.432478,7624.121203
2706.132997,5975.544884,-592.164754,6587.832884
2706.133327,4519.963438,-1924.535449,3849.070898
2706.133656,4519.963438,-148.041188,5773.606348
2706.133985,5132.839837,222.061783,9326.594869
2706.134314,3753.867940,222.061783,7105.977043
2706.134643,3753.867940,1184.329507,6069.688724
2706.134972,2987.772442,-1406.391290,8290.306550
2706.135301,-2528.115143,-2664.741391,7920.203579
2706.135630,-3600.648841,-9326.594869,15248.242405
2706.135960,-4596.572988,-3256.906145,11769.274478
2706.136289,-2451.505594,-9178.553681,12361.439231
