#time,accel_x,accel_y,accel_z
2681.569702,459.657299,-0.000000,8956.491898
2681.570031,383.047749,-222.061783,9030.512492
2681.570360,306.438199,-148.041188,8882.471304
2681.570689,153.219100,-74.020594,8808.450710
2681.571018,229.828649,-370.102971,8734.430116
2681.571347,459.657299,-74.020594,8956.491898
2681.571676,383.047749,-148.041188,8956.491898
2681.572005,459.657299,-74.020594,8882.471304
2681.572334,383.047749,-222.061783,8956.491898
2681.572663,383.047749,-0.000000,9104.533087
2681.572992,919.314598,-74.020594,9326.594869
2681.573321,459.657299,-592.164754,8734.430116
2681.573650,153.219100,-0.000000,8882.471304
2681.573979,229.828649,-0.000000,9030.512492
2681.574308,383.047749,-444.123565,9030.512492
2681.574637,229.828649,-74.020594,9474.636058
2681.574966,76.609550,-296.082377,9474.636058
2681.575295,766.095498,-740.205942,9252.574275
2681.575624,306.438199,-592.164754,8956.491898
2681.575953,383.047749,-0.000000,9326.594869
2681.576282,383.047749,-296.082377,9252.574275
2681.576611,612.876398,-74.020594,9178.553681
2681.576940,689.485948,-444.123565,9104.533087
2681.577269,689.485948,-0.000000,9178.553681
2681.577598,459.657299,-444.123565,8660.409521
2681.577927,536.266849,-0.000000,9400.615463
2681.578256,459.657299,-0.000000,9178.553681
2681.578585,459.657299,-222.061783,9178.553681
2681.578914,229.828649,-444.123565,9104.533087
2681.579243,612.876398,-74.020594,9178.553681
2681.579571,153.219100,-148.041188,9548.656652
2681.579900,76.609550,-222.061783,8956.491898
2681.580229,536.266849,-222.061783,8882.471304
2681.580558,153.219100,-74.020594,8808.450710
2681.580887,459.657299,-222.061783,8808.450710
2681.581216,383.047749,-0.000000,8882.471304
2681.581545,383.047749,-148.041188,8882.471304
2681.581874,-229.828649,-370.102971,9252.574275
2681.582203,383.047749,-74.020594,8956.491898
2681.582532,76.609550,-0.000000,9030.512492
2681.582861,229.828649,-74.020594,9030.512492
2681.583190,0.000000,-148.041188,8956.491898
2681.583519,306.438199,-74.020594,8956.491898
2681.583848,383.047749,-74.020594,8734.430116
2681.584177,689.485948,-0.000000,8660.409521
2681.584506,536.266849,-74.020594,9178.553681
2681.584835,689.485948,-74.020594,9030.512492
2681.585164,536.266849,-148.041188,8956.491898
2681.585493,536.266849,-148.041188,9104.533087
2681.585822,229.828649,-296.082377,9326.594869
2681.586151,153.219100,-518.144159,9030.512492
2681.586480,459.657299,-444.123565,9252.574275
2681.586809,306.438199,-518.144159,9104.533087
2681.587138,0.000000,-222.061783,9474.636058
2681.587467,153.219100,-222.061783,9400.615463
2681.587796,459.657299,-0.000000,9326.594869
2681.588125,383.047749,-74.020594,9252.574275
2681.588454,766.095498,-0.000000,9400.615463
2681.588783,766.095498,-148.041188,8882.471304
2681.589112,306.438199,-296.082377,9474.636058
2681.589441,76.609550,-444.123565,9252.574275
2681.589770,229.828649,-148.041188,9252.574275
2681.590099,306.438199,-148.041188,8956.491898
2681.590428,229.828649,-222.061783,8956.491898
2681.590757,306.438199,-0.000000,9474.636058
2681.591086,229.828649,-370.102971,9326.594869
2681.591414,536.266849,-222.061783,9252.574275
2681.591743,229.828649,-222.061783,9104.533087
2681.592072,229.828649,-0.000000,8882.471304
2681.592401,536.266849,-0.000000,8734.430116
2681.592730,229.828649,-0.000000,8808.450710
2681.593059,306.438199,-74.020594,8734.430116
2681.593388,229.828649,-74.020594,9104.533087
2681.593717,383.047749,-296.082377,8438.347739
2681.594046,459.657299,-74.020594,9030.512492
2681.594375,229.828649,-444.123565,8882.471304
2681.594704,-153.219100,-296.082377,9252.574275
2681.595033,0.000000,-222.061783,9252.574275
2681.595362,229.828649,-74.020594,9030.512492
2681.595691,76.609550,-296.082377,8808.450710
2681.596020,76.609550,-0.000000,9104.533087
2681.596349,153.219100,-74.020594,9030.512492
2681.596678,459.657299,-370.102971,9104.533087
2681.597007,1532.190996,-740.205942,10214.842000
2681.597336,1532.190996,-962.267725,9400.615463
2681.597665,1608.800546,-518.144159,9474.636058
2681.597994,1838.629195,-592.164754,9474.636058
2681.598323,2221.676944,-74.020594,8956.491898
2681.598652,3370.820191,-0.000000,9178.553681
2681.598981,3753.867940,-1258.350101,8882.471304
2681.599310,3830.477490,-0.000000,8882.471304
2681.599639,2681.334243,592.164754,8956.491898
2681.599968,3140.991542,444.123565,8290.306550
2681.600297,2987.772442,-222.061783,9400.615463
2681.600626,3064.381992,-296.082377,9252.574275
2681.600955,2068.457845,-666.185348,9104.533087
2681.601284,2145.067394,-1110.308913,10140.821405
2681.601613,2528.115143,-1480.411884,9252.574275
2681.601942,2834.553343,-0.000000,8956.491898
2681.602271,2528.115143,-888.247130,9844.739029
2681.602600,3370.820191,-592.164754,9178.553681
2681.602929,3294.210641,444.123565,9252.574275
2681.603258,4979.620737,740.205942,7994.224174
2681.603586,4673.182538,666.185348,7772.162391
2681.603915,4673.182538,1184.329507,9178.553681
2681.604244,4749.792088,888.247130,7698.141797
2681.604573,3753.867940,370.102971,7920.203579
2681.604902,3677.258390,222.061783,9326.594869
2681.605231,2604.724693,-0.000000,8586.388927
2681.605560,2604.724693,-148.041188,9844.739029
2681.605889,1685.410096,-1332.370696,9178.553681
2681.606218,2757.943793,-888.247130,9474.636058
2681.606547,1225.752797,-1036.288319,9400.615463
2681.606876,1915.238745,-222.061783,9474.636058
2681.607205,1685.410096,-370.102971,9474.636058
2681.607534,3140.991542,814.226536,8882.471304
2681.607863,2987.772442,-0.000000,8808.450710
2681.608192,3600.648841,814.226536,9548.656652
2681.608521,3524.039291,222.061783,8438.347739
2681.608850,4136.915689,888.247130,8364.327145
2681.609179,3830.477490,370.102971,9696.697840
2681.609508,3677.258390,-74.020594,8734.430116
2681.609837,2987.772442,-592.164754,9326.594869
2681.610166,3064.381992,-1480.411884,9918.759623
2681.610495,3140.991542,-1036.288319,10066.800811
2681.610824,2451.505594,-1554.432478,9770.718434
2681.611153,2604.724693,-1406.391290,10140.821405
2681.611482,2911.162892,-666.185348,9474.636058
2681.611811,3370.820191,-74.020594,9400.615463
2681.612140,3447.429741,740.205942,8364.327145
2681.612469,4136.915689,1184.329507,8734.430116
2681.612798,4290.134789,1924.535449,8142.265362
2681.613127,4519.963438,2146.597232,7476.080014
2681.613456,3983.696590,1998.556043,7550.100608
2681.613785,3370.820191,1406.391290,8290.306550
2681.614114,3064.381992,740.205942,8216.285956
2681.614443,2451.505594,-444.123565,8882.471304
2681.614772,2451.505594,-1702.473667,9918.759623
2681.615101,2145.067394,-2664.741391,9622.677246
2681.615429,2374.896044,-2442.679609,10362.883188
2681.615758,2834.553343,-2590.720797,10436.903782
2681.616087,3753.867940,-1776.494261,9918.759623
2681.616416,4826.401637,-222.061783,9548.656652
2681.616745,5745.716235,666.185348,8956.491898
2681.617074,6052.154434,1998.556043,8364.327145
2681.617403,5515.887586,2072.576638,7846.182985
2681.617732,5132.839837,2738.761985,7402.059420
2681.618061,4366.744339,3701.029710,6661.853478
2681.618390,3753.867940,2590.720797,7105.977043
2681.618719,2221.676944,888.247130,7846.182985
2681.619048,536.266849,-1998.556043,9918.759623
2681.619377,-536.266849,-3923.091493,10362.883188
2681.619706,-995.924147,-4811.338623,11917.315666
2681.620035,-1225.752797,-5033.400406,10955.047942
2681.620364,-536.266849,-2664.741391,10807.006753
2681.620693,76.609550,-1776.494261,11029.068536
2681.621022,842.705048,-444.123565,10066.800811
2681.621351,3447.429741,666.185348,10658.965565
2681.621680,6052.154434,1998.556043,8586.388927
2681.622009,6665.030833,1332.370696,8956.491898
2681.622338,5745.716235,1110.308913,8068.244768
2681.622667,5898.935335,2368.659014,7105.977043
2681.622996,5592.497135,2812.782580,7328.038826
2681.623325,5439.278036,2220.617826,6291.750507
2681.623654,5286.058936,3330.926739,6365.771101
2681.623983,4366.744339,2294.638420,6439.791695
2681.624312,4443.353888,1480.411884,6587.832884
2681.624641,4290.134789,-1480.411884,8068.244768
2681.624970,919.314598,-5625.565159,11621.233289
2681.625299,-842.705048,-5403.503377,11991.336260
2681.625628,-1685.410096,-4367.215058,12583.501014
2681.625957,-1532.190996,-7402.059420,13915.871710
2681.626286,-612.876398,-888.247130,9992.780217
2681.626615,2528.115143,-148.041188,12435.459826
2681.626944,3677.258390,1406.391290,10510.924376
2681.627273,5592.497135,2220.617826,9104.533087
2681.627601,7354.516781,1036.288319,9474.636058
2681.627930,7660.954980,3256.906145,6957.935855
2681.628259,8427.050478,4515.256246,5255.462188
2681.628588,8120.612279,1776.494261,4885.359217
2681.628917,7967.393179,2368.659014,4367.215058
2681.629246,7354.516781,2516.700203,7254.018232
2681.629575,5515.887586,-0.000000,7031.956449
2681.629904,3370.820191,2146.597232,5847.626942
2681.630233,4749.792088,-1110.308913,8512.368333
2681.630562,-153.219100,-3627.009116,12731.542202
2681.630891,-2221.676944,-6661.853478,13397.727550
2681.631220,-2451.505594,-888.247130,12361.439231
2681.631549,-842.705048,-7254.018232,14063.912898
2681.631878,-1838.629195,888.247130,10584.944971
2681.632207,1685.410096,-444.123565,12509.480420
2681.632536,153.219100,1702.473667,9918.759623
2681.632865,1838.629195,296.082377,14211.954086
2681.633194,6971.469032,-0.000000,7698.141797
2681.633523,9806.022374,1924.535449,8438.347739
2681.633852,6588.421283,1776.494261,6883.915261
2681.634181,7124.688131,1258.350101,4737.318029
2681.634510,5745.716235,444.123565,8216.285956
2681.634839,5209.449386,1110.308913,6957.935855
2681.635168,5286.058936,2516.700203,5847.626942
2681.635497,3140.991542,2146.597232,8364.327145
2681.635826,2987.772442,1406.391290,7698.141797
2681.636155,4136.915689,1628.453072,9030.512492
2681.636484,2221.676944,-1702.473667,9178.553681
2681.636813,995.924147,-2294.638420,11177.109724
2681.637142,459.657299,-2812.782580,11843.295072
2681.637471,-689.485948,-3701.029710,11547.212695
2681.637800,-459.657299,-1184.329507,10732.986159
2681.638129,1378.971896,814.226536,11177.109724
2681.638458,2298.286494,666.185348,9178.553681
2681.638787,2681.334243,1036.288319,7920.203579
2681.639116,3677.258390,814.226536,7772.162391
2681.639444,4136.915689,1924.535449,7772.162391
2681.639773,3140.991542,666.185348,8438.347739
2681.640102,4290.134789,-1628.453072,7920.203579
2681.640431,3677.258390,-1702.473667,8808.450710
2681.640760,2374.896044,-2664.741391,10288.862594
2681.641089,2221.676944,-2294.638420,10658.965565
2681.641418,1608.800546,-0.000000,10140.821405
2681.641747,2528.115143,444.123565,9696.697840
2681.642076,3753.867940,1406.391290,8956.491898
2681.642405,2528.115143,-0.000000,10066.800811
2681.642734,3907.087040,1036.288319,8660.409521
2681.643063,5745.716235,518.144159,8068.244768
2681.643392,5286.058936,1184.329507,8364.327145
2681.643721,5362.668486,1184.329507,7846.182985
2681.644050,4903.011187,444.123565,8068.244768
2681.644379,2911.162892,-814.226536,8364.327145
2681.644708,2911.162892,-0.000000,8512.368333
2681.645037,1838.629195,-740.205942,9992.780217
2681.645366,766.095498,-1406.391290,10288.862594
2681.645695,766.095498,-1850.514855,10436.903782
2681.646023,1149.143247,-1924.535449,10955.047942
2681.646352,1762.019645,-962.267725,10066.800811
2681.646681,1378.971896,-814.226536,10288.862594
2681.647010,2145.067394,-444.123565,10658.965565
2681.647339,3907.087040,962.267725,8808.450710
2681.647668,6205.373534,1628.453072,8068.244768
2681.647997,6358.592633,1480.411884,8142.265362
2681.648326,5132.839837,666.185348,8734.430116
2681.648655,4979.620737,1258.350101,7698.141797
2681.648984,5286.058936,1702.473667,6957.935855
2681.649313,5669.106685,1036.288319,7179.997637
2681.649642,5056.230287,2146.597232,7476.080014
2681.649970,4060.306139,1110.308913,7402.059420
2681.650299,1762.019645,-814.226536,8142.265362
2681.650628,919.314598,-1924.535449,9918.759623
2681.650957,-1149.143247,-1850.514855,10288.862594
2681.651286,-2374.896044,-2368.659014,11251.130318
2681.651615,-2987.772442,-740.205942,9474.636058
2681.651944,-2145.067394,-814.226536,9474.636058
2681.652273,-1762.019645,-2368.659014,11103.089130
2681.652602,-1225.752797,-1776.494261,10881.027347
2681.652931,-689.485948,-296.082377,9326.594869
2681.653260,0.000000,-296.082377,9252.574275
2681.653589,153.219100,-592.164754,9178.553681
2681.653917,766.095498,666.185348,9252.574275
2681.654246,1149.143247,-518.144159,8586.388927
2681.654575,1762.019645,592.164754,6883.915261
2681.654904,1915.238745,-0.000000,7772.162391
2681.655233,2298.286494,814.226536,8956.491898
2681.655562,1225.752797,-296.082377,8364.327145
2681.655891,0.000000,370.102971,7994.224174
2681.656220,-1608.800546,-222.061783,8586.388927
2681.656549,-2145.067394,-444.123565,10510.924376
2681.656878,-2221.676944,-1184.329507,9992.780217
2681.657207,-919.314598,-444.123565,9030.512492
2681.657536,-1608.800546,-1554.432478,9918.759623
2681.657864,-1608.800546,-1554.432478,9992.780217
2681.658193,-995.924147,-1776.494261,10140.821405
2681.658522,-612.876398,-1258.350101,9400.615463
2681.658851,-229.828649,-296.082377,8956.491898
2681.659180,1072.533697,-444.123565,9400.615463
2681.659509,2374.896044,-222.061783,9030.512492
2681.659838,3907.087040,518.144159,8142.265362
2681.660167,4443.353888,1184.329507,7031.956449
2681.660496,3370.820191,1776.494261,6587.832884
2681.660825,3600.648841,2516.700203,8068.244768
2681.661154,2298.286494,2664.741391,7105.977043
2681.661483,536.266849,1480.411884,8586.388927
2681.661811,-995.924147,-74.020594,9326.594869
2681.662140,-1302.362347,-0.000000,9178.553681
2681.662469,-1685.410096,-2738.761985,10362.883188
2681.662798,-2528.115143,-2146.597232,9844.739029
2681.663127,-1838.629195,-2146.597232,10658.965565
2681.663456,-1685.410096,-1258.350101,9474.636058
2681.663785,-1608.800546,-1924.535449,10214.842000
2681.664114,-995.924147,-1110.308913,11547.212695
2681.664443,-612.876398,-666.185348,9104.533087
2681.664772,-919.314598,-0.000000,9252.574275
2681.665101,-536.266849,148.041188,9548.656652
2681.665430,-306.438199,-222.061783,10510.924376
2681.665758,1455.581446,-0.000000,10288.862594
2681.666087,3140.991542,1702.473667,7031.956449
2681.666416,2834.553343,1924.535449,7105.977043
2681.666745,1915.238745,1850.514855,7105.977043
2681.667074,2374.896044,2072.576638,8068.244768
2681.667403,1225.752797,1258.350101,8586.388927
2681.667732,0.000000,-888.247130,8364.327145
2681.668061,-383.047749,-2072.576638,9696.697840
2681.668390,-995.924147,-1850.514855,9844.739029
2681.668719,-536.266849,-2220.617826,9992.780217
2681.669048,-689.485948,-1998.556043,9622.677246
2681.669377,0.000000,-1110.308913,9696.697840
2681.669705,689.485948,-444.123565,9844.739029
2681.670034,306.438199,222.061783,9104.533087
2681.670363,306.438199,-74.020594,9178.553681
2681.670692,1838.629195,-0.000000,8216.285956
2681.671021,2987.772442,888.247130,8142.265362
2681.671350,2451.505594,888.247130,7254.018232
2681.671679,2604.724693,-0.000000,7328.038826
2681.672008,1455.581446,1258.350101,7328.038826
2681.672337,1991.848295,1184.329507,8216.285956
2681.672666,1072.533697,-666.185348,8512.368333
2681.672995,-229.828649,-1406.391290,9548.656652
2681.673324,-766.095498,-2590.720797,10436.903782
2681.673653,-612.876398,-1850.514855,9178.553681
2681.673981,-1149.143247,-1628.453072,9622.677246
2681.674310,-1762.019645,-2072.576638,10288.862594
2681.674639,-1455.581446,-1110.308913,9474.636058
2681.674968,-383.047749,592.164754,9548.656652
2681.675297,459.657299,-814.226536,10066.800811
2681.675626,459.657299,888.247130,9178.553681
2681.675955,153.219100,-0.000000,9474.636058
2681.676284,842.705048,1702.473667,7402.059420
2681.676613,1149.143247,1480.411884,8364.327145
2681.676942,459.657299,296.082377,9104.533087
2681.677271,-229.828649,1184.329507,8142.265362
2681.677600,0.000000,-592.164754,10214.842000
2681.677928,-689.485948,-666.185348,9178.553681
2681.678257,-1685.410096,-1184.329507,10510.924376
2681.678586,-995.924147,-1258.350101,10288.862594
2681.678915,-689.485948,-0.000000,8808.450710
2681.679244,-766.095498,-444.123565,9770.718434
2681.679573,-689.485948,-222.061783,9696.697840
2681.679902,0.000000,592.164754,10066.800811
2681.680231,306.438199,-370.102971,9474.636058
2681.680560,0.000000,-296.082377,9474.636058
2681.680889,76.609550,148.041188,9178.553681
2681.681218,919.314598,1184.329507,8956.491898
2681.681547,1072.533697,814.226536,9030.512492
2681.681875,459.657299,518.144159,7994.224174
2681.682204,1072.533697,1406.391290,8068.244768
2681.682533,995.924147,-0.000000,8364.327145
2681.682862,766.095498,-444.123565,8438.347739
2681.683191,229.828649,-1850.514855,9104.533087
2681.683520,0.000000,-1702.473667,10066.800811
2681.683849,383.047749,-888.247130,9770.718434
2681.684178,306.438199,-518.144159,8586.388927
2681.684507,1072.533697,296.082377,9178.553681
2681.684836,1225.752797,888.247130,9474.636058
2681.685165,2604.724693,1036.288319,8734.430116
2681.685494,2145.067394,1480.411884,8512.368333
2681.685822,2451.505594,370.102971,8956.491898
2681.686151,1991.848295,444.123565,9326.594869
2681.686480,995.924147,1036.288319,9252.574275
2681.686809,383.047749,-1332.370696,9104.533087
2681.687138,-766.095498,-518.144159,8808.450710
2681.687467,-919.314598,-148.041188,9696.697840
2681.687796,0.000000,-888.247130,9474.636058
2681.688125,-1302.362347,-1776.494261,9104.533087
2681.688454,-306.438199,-1406.391290,10214.842000
2681.688783,76.609550,-740.205942,9400.615463
2681.689112,76.609550,-222.061783,9474.636058
2681.689441,76.609550,-148.041188,9178.553681
2681.689769,919.314598,814.226536,8808.450710
2681.690098,1455.581446,444.123565,8882.471304
2681.690427,1149.143247,814.226536,7994.224174
2681.690756,1685.410096,962.267725,8290.306550
2681.691085,689.485948,-74.020594,8438.347739
2681.691414,0.000000,222.061783,8216.285956
2681.691743,-383.047749,-370.102971,8808.450710
2681.692072,-1532.190996,-1036.288319,8956.491898
2681.692401,-1685.410096,-814.226536,8586.388927
2681.692730,-612.876398,-444.123565,9030.512492
2681.693059,-1072.533697,-1258.350101,9474.636058
2681.693388,-1378.971896,-1110.308913,9548.656652
2681.693716,-1072.533697,-1258.350101,9992.780217
2681.694045,-1302.362347,-222.061783,9326.594869
2681.694374,229.828649,-1110.308913,9992.780217
2681.694703,-383.047749,296.082377,9400.615463
2681.695032,-536.266849,-666.185348,9474.636058
2681.695361,1225.752797,-888.247130,9844.739029
2681.695690,1915.238745,444.123565,9178.553681
2681.696019,1685.410096,-0.000000,7920.203579
2681.696348,2757.943793,148.041188,8142.265362
2681.696677,2451.505594,740.205942,6883.915261
2681.697006,1915.238745,814.226536,7920.203579
2681.697335,2374.896044,-148.041188,9104.533087
2681.697663,536.266849,148.041188,8512.368333
2681.697992,383.047749,-148.041188,8956.491898
2681.698321,0.000000,-444.123565,9918.759623
2681.698650,-1072.533697,-1628.453072,10214.842000
2681.698979,-689.485948,-1850.514855,10807.006753
2681.699308,689.485948,-1406.391290,10214.842000
2681.699637,689.485948,-518.144159,9770.718434
2681.699966,1455.581446,370.102971,8808.450710
2681.700295,1838.629195,1258.350101,8808.450710
2681.700624,2451.505594,888.247130,8808.450710
2681.700953,2451.505594,1702.473667,7846.182985
2681.701282,2145.067394,1406.391290,8142.265362
2681.701610,1608.800546,444.123565,8808.450710
2681.701939,766.095498,-74.020594,7846.182985
2681.702268,-306.438199,-1184.329507,9104.533087
2681.702597,-1685.410096,-1332.370696,9696.697840
2681.702926,-1455.581446,-1258.350101,10436.903782
2681.703255,-1532.190996,-666.185348,9474.636058
2681.703584,-1302.362347,-962.267725,9918.759623
2681.703913,-612.876398,-1110.308913,8660.409521
2681.704242,-229.828649,-1184.329507,10066.800811
2681.704571,-536.266849,-814.226536,10066.800811
2681.704900,-612.876398,-74.020594,9400.615463
2681.705229,-229.828649,1036.288319,9104.533087
2681.705557,689.485948,148.041188,9030.512492
2681.705886,1532.190996,2368.659014,6661.853478
2681.706215,1915.238745,296.082377,8512.368333
2681.706544,2757.943793,1850.514855,7105.977043
2681.706873,2221.676944,370.102971,7698.141797
2681.707202,842.705048,222.061783,8216.285956
2681.707531,0.000000,296.082377,7550.100608
2681.707860,-1149.143247,-740.205942,9696.697840
2681.708189,-1991.848295,-1036.288319,9474.636058
2681.708518,-1072.533697,-1998.556043,10214.842000
2681.708847,-1225.752797,-1554.432478,9844.739029
2681.709176,-459.657299,-1628.453072,10362.883188
2681.709504,-306.438199,-962.267725,9622.677246
2681.709833,-306.438199,-666.185348,9178.553681
2681.710162,306.438199,518.144159,9770.718434
2681.710491,1762.019645,518.144159,8142.265362
2681.710820,3140.991542,1480.411884,7550.100608
2681.711149,2528.115143,444.123565,7179.997637
2681.711478,2451.505594,962.267725,7846.182985
2681.711807,2068.457845,740.205942,8438.347739
2681.712136,1608.800546,-0.000000,7698.141797
2681.712465,459.657299,-962.267725,8734.430116
2681.712794,-995.924147,-1110.308913,9474.636058
2681.713123,-1608.800546,-1480.411884,9918.759623
2681.713451,-1072.533697,-1776.494261,10732.986159
2681.713780,-1608.800546,-1332.370696,9474.636058
2681.714109,-1149.143247,-1702.473667,10214.842000
2681.714438,-612.876398,-1332.370696,9918.759623
2681.714767,-536.266849,-148.041188,9696.697840
2681.715096,229.828649,-0.000000,9770.718434
2681.715425,1378.971896,1258.350101,8438.347739
2681.715754,2145.067394,2146.597232,7772.162391
2681.716083,2604.724693,2220.617826,7624.121203
2681.716412,2221.676944,1924.535449,8068.244768
2681.716741,1378.971896,1110.308913,9030.512492
2681.717070,1149.143247,370.102971,8660.409521
2681.717399,-229.828649,-444.123565,8882.471304
2681.717727,-1302.362347,-1184.329507,10288.862594
2681.718056,-2757.943793,-1258.350101,10436.903782
2681.718385,-1762.019645,-1036.288319,10066.800811
2681.718714,-1455.581446,-814.226536,10510.924376
2681.719043,-1225.752797,-1332.370696,9992.780217
2681.719372,-766.095498,-1184.329507,10362.883188
2681.719701,-459.657299,-444.123565,9992.780217
2681.720030,-919.314598,-370.102971,9252.574275
2681.720359,-306.438199,-370.102971,9622.677246
2681.720688,-383.047749,444.123565,10362.883188
2681.721017,919.314598,148.041188,10732.986159
2681.721346,1838.629195,518.144159,7994.224174
2681.721674,3064.381992,888.247130,7476.080014
2681.722003,3140.991542,962.267725,6957.935855
2681.722332,3294.210641,1480.411884,7254.018232
2681.722661,2068.457845,666.185348,8216.285956
2681.722990,153.219100,-296.082377,8364.327145
2681.723319,0.000000,-444.123565,8956.491898
2681.723648,-1072.533697,-1036.288319,9548.656652
2681.723977,-1608.800546,-1776.494261,10140.821405
2681.724306,-1991.848295,-2146.597232,10436.903782
2681.724635,-383.047749,-1480.411884,9474.636058
2681.724964,-689.485948,-1480.411884,8956.491898
2681.725293,919.314598,-814.226536,10362.883188
2681.725621,76.609550,666.185348,8660.409521
2681.725950,229.828649,222.061783,9474.636058
2681.726279,2528.115143,-444.123565,7994.224174
2681.726608,2068.457845,1924.535449,6661.853478
2681.726937,2451.505594,592.164754,7105.977043
2681.727266,3217.601092,1480.411884,7698.141797
2681.727595,2528.115143,370.102971,7550.100608
2681.727924,919.314598,-74.020594,7698.141797
2681.728253,0.000000,-1036.288319,8882.471304
2681.728582,-1455.581446,-1110.308913,9400.615463
2681.728911,-1608.800546,-1480.411884,9548.656652
2681.729240,-1608.800546,-1184.329507,10288.862594
2681.729568,-766.095498,-1776.494261,10140.821405
2681.729897,-919.314598,-1110.308913,9918.759623
2681.730226,-612.876398,-296.082377,9252.574275
2681.730555,-689.485948,592.164754,9474.636058
2681.730884,-689.485948,592.164754,9400.615463
2681.731213,383.047749,296.082377,9696.697840
2681.731542,229.828649,888.247130,9400.615463
2681.731871,995.924147,-0.000000,8734.430116
2681.732200,1685.410096,-222.061783,8290.306550
2681.732529,1072.533697,592.164754,8512.368333
2681.732858,919.314598,-0.000000,8808.450710
2681.733187,-536.266849,-148.041188,8438.347739
2681.733515,-995.924147,296.082377,8882.471304
2681.733844,-1072.533697,-222.061783,10584.944971
2681.734173,-1378.971896,-2072.576638,10510.924376
2681.734502,-1608.800546,-1776.494261,10066.800811
2681.734831,-919.314598,-1998.556043,11325.150913
2681.735160,-383.047749,-814.226536,9844.739029
2681.735489,383.047749,-370.102971,9474.636058
2681.735818,919.314598,962.267725,8882.471304
2681.736147,2604.724693,1406.391290,8882.471304
2681.736476,3907.087040,1480.411884,8586.388927
2681.736805,3217.601092,962.267725,7105.977043
2681.737134,2528.115143,1406.391290,8142.265362
2681.737462,3217.601092,814.226536,7994.224174
2681.737791,2681.334243,666.185348,7105.977043
2681.738120,842.705048,-74.020594,8142.265362
2681.738449,0.000000,-1036.288319,9622.677246
2681.738778,-1302.362347,-2220.617826,10807.006753
2681.739107,-1072.533697,-1332.370696,9918.759623
2681.739436,-1072.533697,-1702.473667,9622.677246
2681.739765,-1378.971896,-1480.411884,10140.821405
2681.740094,-689.485948,-592.164754,10288.862594
2681.740423,-306.438199,-666.185348,9400.615463
2681.740752,842.705048,370.102971,9030.512492
2681.741081,2604.724693,518.144159,8438.347739
2681.741409,2834.553343,1258.350101,6587.832884
2681.741738,3600.648841,1554.432478,7328.038826
2681.742067,2911.162892,1332.370696,7179.997637
2681.742396,2374.896044,1036.288319,8142.265362
2681.742725,1915.238745,1110.308913,8142.265362
2681.743054,612.876398,296.082377,8216.285956
2681.743383,-995.924147,-1184.329507,9326.594869
2681.743712,-2221.676944,-1776.494261,10510.924376
2681.744041,-2298.286494,-1702.473667,10436.903782
2681.744370,-2451.505594,-1554.432478,9030.512492
2681.744699,-2528.115143,-1998.556043,11029.068536
2681.745028,-2528.115143,-1332.370696,10584.944971
2681.745357,-383.047749,-444.123565,10362.883188
2681.745686,-766.095498,-888.247130,9326.594869
2681.746015,-459.657299,-0.000000,9178.553681
2681.746344,-229.828649,-518.144159,10066.800811
2681.746673,1302.362347,-0.000000,9252.574275
2681.747002,1762.019645,740.205942,7624.121203
2681.747331,2834.553343,740.205942,8142.265362
2681.747660,3064.381992,1184.329507,6587.832884
2681.747989,3294.210641,2072.576638,7105.977043
2681.748318,1915.238745,1184.329507,7105.977043
2681.748647,919.314598,222.061783,8142.265362
2681.748976,0.000000,-148.041188,8956.491898
2681.749305,-1072.533697,-74.020594,9326.594869
2681.749634,-1915.238745,-2220.617826,10955.047942
2681.749963,-2528.115143,-2368.659014,10807.006753
2681.750292,-995.924147,-2812.782580,11399.171507
2681.750621,-229.828649,-1776.494261,10436.903782
2681.750950,-153.219100,-370.102971,9178.553681
2681.751278,-306.438199,-0.000000,9326.594869
2681.751607,153.219100,-0.000000,9770.718434
2681.751936,1838.629195,-518.144159,9252.574275
2681.752265,2451.505594,444.123565,6735.874072
2681.752594,3830.477490,370.102971,7550.100608
2681.752923,3600.648841,1406.391290,6809.894666
2681.753252,4519.963438,1776.494261,7254.018232
2681.753581,2068.457845,814.226536,7772.162391
2681.753910,1072.533697,1184.329507,8364.327145
2681.754239,842.705048,740.205942,9474.636058
2681.754568,-1455.581446,-0.000000,9696.697840
2681.754897,-2451.505594,-1850.514855,11991.336260
2681.755226,-2757.943793,-1702.473667,11621.233289
2681.755555,-1149.143247,-1628.453072,10807.006753
2681.755884,-1225.752797,-1258.350101,10140.821405
2681.756213,-919.314598,-0.000000,9326.594869
2681.756542,-1378.971896,74.020594,9844.739029
2681.756871,0.000000,-296.082377,9474.636058
2681.757200,229.828649,-444.123565,8882.471304
2681.757529,306.438199,-592.164754,9992.780217
2681.757858,1302.362347,-0.000000,8364.327145
2681.758187,1838.629195,1332.370696,7846.182985
2681.758516,1762.019645,814.226536,7105.977043
2681.758845,1532.190996,1332.370696,7105.977043
2681.759174,1072.533697,1258.350101,8290.306550
2681.759503,919.314598,962.267725,8290.306550
2681.759832,-766.095498,-814.226536,9474.636058
2681.760161,-1685.410096,-1998.556043,10362.883188
2681.760490,-1455.581446,-1406.391290,9770.718434
2681.760819,-842.705048,-1184.329507,9400.615463
2681.761148,-536.266849,-1554.432478,8734.430116
2681.761477,-919.314598,-888.247130,9474.636058
2681.761806,0.000000,-222.061783,9992.780217
2681.762134,612.876398,-888.247130,9400.615463
2681.762463,536.266849,-2146.597232,9918.759623
2681.762792,1149.143247,296.082377,7328.038826
2681.763121,1149.143247,1554.432478,6957.935855
2681.763450,3677.258390,-0.000000,7105.977043
2681.763779,2221.676944,2368.659014,7254.018232
2681.764108,689.485948,148.041188,9252.574275
2681.764437,2068.457845,814.226536,8290.306550
2681.764766,919.314598,1036.288319,9252.574275
2681.765095,-1149.143247,-1776.494261,8734.430116
2681.765424,-995.924147,-1924.535449,10510.924376
2681.765753,-2757.943793,-3182.885551,11843.295072
2681.766082,-1225.752797,-0.000000,10288.862594
2681.766411,-612.876398,-2368.659014,10510.924376
2681.766740,-1072.533697,-222.061783,9400.615463
2681.767069,995.924147,222.061783,8586.388927
2681.767398,2298.286494,296.082377,8512.368333
2681.767727,1072.533697,-0.000000,7772.162391
2681.768056,3370.820191,1702.473667,8586.388927
2681.768385,2834.553343,2146.597232,7920.203579
2681.768714,1915.238745,2072.576638,7476.080014
2681.769043,612.876398,370.102971,7920.203579
2681.769372,-612.876398,1036.288319,9104.533087
2681.769701,-1608.800546,-222.061783,9918.759623
2681.770030,-689.485948,-2220.617826,9474.636058
2681.770359,-2068.457845,-1554.432478,9622.677246
2681.770688,-2451.505594,-1554.432478,10066.800811
2681.771017,-1762.019645,-1776.494261,10658.965565
2681.771346,-1302.362347,-1184.329507,9326.594869
2681.771675,-919.314598,-0.000000,9474.636058
2681.772004,-383.047749,888.247130,9622.677246
2681.772333,536.266849,-1110.308913,9474.636058
2681.772661,1455.581446,-0.000000,8808.450710
2681.772990,2757.943793,-148.041188,7402.059420
2681.773319,2528.115143,1776.494261,6957.935855
2681.773648,2681.334243,1480.411884,7105.977043
2681.773977,2451.505594,1998.556043,7328.038826
2681.774306,1532.190996,666.185348,8142.265362
2681.774635,1455.581446,1406.391290,7624.121203
2681.774964,-229.828649,-962.267725,8808.450710
2681.775293,-1608.800546,-1924.535449,9622.677246
2681.775622,-1838.629195,-2442.679609,10881.027347
2681.775951,-1455.581446,-2368.659014,10955.047942
2681.776280,-766.095498,-1850.514855,10066.800811
2681.776609,-995.924147,-1332.370696,9992.780217
2681.776938,76.609550,-0.000000,9548.656652
2681.777267,1762.019645,666.185348,9474.636058
2681.777596,2528.115143,666.185348,7698.141797
2681.777925,2757.943793,740.205942,8956.491898
2681.778254,2757.943793,1258.350101,7994.224174
2681.778583,3217.601092,1184.329507,7402.059420
2681.778912,2451.505594,222.061783,7772.162391
2681.779241,1302.362347,962.267725,7698.141797
2681.779570,842.705048,-222.061783,9104.533087
2681.779899,-536.266849,-370.102971,9474.636058
2681.780228,-1915.238745,-1036.288319,10066.800811
2681.780557,-1991.848295,-2812.782580,10807.006753
2681.780886,-2145.067394,-1480.411884,9400.615463
2681.781215,-1072.533697,-962.267725,10362.883188
2681.781544,-612.876398,-74.020594,9622.677246
2681.781873,-995.924147,518.144159,9474.636058
2681.782202,-689.485948,592.164754,10140.821405
2681.782531,0.000000,148.041188,9030.512492
2681.782860,-153.219100,-518.144159,9326.594869
2681.783189,229.828649,-888.247130,8882.471304
2681.783517,995.924147,1110.308913,8512.368333
2681.783846,1225.752797,592.164754,8290.306550
2681.784175,1072.533697,888.247130,7698.141797
2681.784504,919.314598,1184.329507,8956.491898
2681.784833,612.876398,1480.411884,8290.306550
2681.785162,153.219100,-0.000000,8290.306550
2681.785491,-995.924147,-1628.453072,9770.718434
2681.785820,-1762.019645,-1406.391290,9770.718434
2681.786149,-1302.362347,-2072.576638,10881.027347
2681.786478,-1072.533697,-1110.308913,10807.006753
2681.786807,-536.266849,-518.144159,9326.594869
2681.787136,-459.657299,-0.000000,9918.759623
2681.787465,689.485948,222.061783,9178.553681
2681.787794,1838.629195,666.185348,8660.409521
2681.788123,1225.752797,444.123565,9178.553681
2681.788452,2987.772442,444.123565,9104.533087
2681.788781,2374.896044,592.164754,8734.430116
2681.789110,2068.457845,444.123565,7846.182985
2681.789439,1762.019645,-296.082377,7772.162391
2681.789768,1225.752797,-0.000000,7920.203579
2681.790097,919.314598,-370.102971,8142.265362
2681.790426,229.828649,-1332.370696,9696.697840
2681.790755,-919.314598,-1776.494261,10436.903782
2681.791084,-689.485948,-1406.391290,9992.780217
2681.791413,-306.438199,-1036.288319,10066.800811
2681.791742,-153.219100,-444.123565,9474.636058
2681.792071,229.828649,-74.020594,9400.615463
2681.792400,919.314598,1184.329507,8956.491898
2681.792729,2068.457845,1258.350101,8364.327145
2681.793058,2068.457845,1184.329507,7476.080014
2681.793387,2145.067394,740.205942,8068.244768
2681.793716,1762.019645,1332.370696,8364.327145
2681.794044,1378.971896,370.102971,7994.224174
2681.794373,0.000000,-444.123565,7846.182985
2681.794702,-919.314598,-814.226536,9178.553681
2681.795031,-1378.971896,-666.185348,9696.697840
2681.795360,-383.047749,-1110.308913,8734.430116
2681.795689,-1302.362347,-1628.453072,8438.347739
2681.796018,-1762.019645,-1998.556043,10807.006753
2681.796347,-1378.971896,-1998.556043,10955.047942
2681.796676,-842.705048,-592.164754,9770.718434
2681.797005,-383.047749,-0.000000,9548.656652
2681.797334,0.000000,-0.000000,9474.636058
2681.797663,1072.533697,962.267725,8660.409521
2681.797992,2068.457845,1702.473667,8438.347739
2681.798321,1608.800546,1110.308913,7772.162391
2681.798650,1838.629195,222.061783,8956.491898
2681.798979,1838.629195,370.102971,8364.327145
2681.799308,536.266849,740.205942,8290.306550
2681.799637,612.876398,-962.267725,8660.409521
2681.799966,-842.705048,-1258.350101,9104.533087
2681.800295,-306.438199,-74.020594,10436.903782
2681.800624,-612.876398,-1332.370696,9252.574275
2681.800953,-1685.410096,-962.267725,9622.677246
2681.801282,-1608.800546,-1998.556043,9696.697840
2681.801611,612.876398,-1998.556043,9474.636058
2681.801940,0.000000,740.205942,8660.409521
2681.802269,383.047749,-370.102971,9770.718434
2681.802598,2298.286494,740.205942,9400.615463
2681.802927,2374.896044,2368.659014,7328.038826
2681.803256,2451.505594,1480.411884,6883.915261
2681.803585,3064.381992,370.102971,8808.450710
2681.803914,1762.019645,-814.226536,8660.409521
2681.804243,1838.629195,814.226536,8364.327145
2681.804572,766.095498,-1110.308913,8438.347739
2681.804900,-1072.533697,-1036.288319,8734.430116
2681.805229,-612.876398,-962.267725,9918.759623
2681.805558,-612.876398,-518.144159,9178.553681
2681.805887,-1149.143247,-1628.453072,9104.533087
2681.806216,-766.095498,-2072.576638,10140.821405
2681.806545,-306.438199,-1110.308913,9696.697840
2681.806874,612.876398,-148.041188,9104.533087
2681.807203,612.876398,-0.000000,8586.388927
2681.807532,919.314598,888.247130,9474.636058
2681.807861,1608.800546,1998.556043,8734.430116
2681.808190,2221.676944,2812.782580,6661.853478
2681.808519,1302.362347,962.267725,8586.388927
2681.808848,689.485948,-296.082377,8438.347739
2681.809177,612.876398,296.082377,9326.594869
2681.809506,-536.266849,-1258.350101,8956.491898
2681.809835,-1762.019645,-1110.308913,8882.471304
2681.810164,-766.095498,-1258.350101,10658.965565
2681.810493,-1762.019645,-148.041188,9548.656652
2681.810822,-1149.143247,-666.185348,9844.739029
2681.811151,-1762.019645,-2146.597232,9696.697840
2681.811480,-1072.533697,-740.205942,9326.594869
2681.811809,0.000000,-740.205942,10066.800811
2681.812138,-306.438199,-148.041188,8808.450710
2681.812467,919.314598,-0.000000,9696.697840
2681.812796,1762.019645,1332.370696,8438.347739
2681.813125,2451.505594,1628.453072,8142.265362
2681.813454,2451.505594,1184.329507,6735.874072
2681.813783,2374.896044,-0.000000,8290.306550
2681.814112,1762.019645,148.041188,8660.409521
2681.814441,1532.190996,296.082377,8068.244768
2681.814770,0.000000,-1110.308913,8956.491898
2681.815099,-1455.581446,-962.267725,9844.739029
2681.815428,-1915.238745,-666.185348,9548.656652
2681.815756,-1225.752797,-962.267725,10658.965565
2681.816085,-1378.971896,-962.267725,9178.553681
2681.816414,-1302.362347,-1480.411884,10510.924376
2681.816743,-306.438199,-1258.350101,10214.842000
2681.817072,0.000000,-74.020594,9178.553681
2681.817401,1149.143247,370.102971,9548.656652
2681.817730,1991.848295,740.205942,8512.368333
2681.818059,2298.286494,1998.556043,7402.059420
2681.818388,3294.210641,1332.370696,7105.977043
2681.818717,2221.676944,740.205942,7846.182985
2681.819046,2145.067394,444.123565,8216.285956
2681.819375,1072.533697,-0.000000,8808.450710
2681.819704,0.000000,-444.123565,9252.574275
2681.820033,-1225.752797,-1036.288319,9548.656652
2681.820362,-2145.067394,-814.226536,9770.718434
2681.820691,-2451.505594,-2072.576638,11325.150913
2681.821020,-1302.362347,-1480.411884,10436.903782
2681.821349,-1302.362347,-1406.391290,9474.636058
2681.821678,-1608.800546,-962.267725,10214.842000
2681.822007,-1302.362347,-888.247130,10584.944971
2681.822336,-459.657299,-592.164754,10140.821405
2681.822665,459.657299,-370.102971,9696.697840
2681.822994,1225.752797,888.247130,8142.265362
2681.823323,2451.505594,1036.288319,8882.471304
2681.823652,2911.162892,1702.473667,7328.038826
2681.823981,2757.943793,962.267725,8068.244768
2681.824310,2911.162892,1110.308913,7328.038826
2681.824639,2374.896044,666.185348,8142.265362
2681.824968,1225.752797,-0.000000,8142.265362
2681.825297,-153.219100,-74.020594,9104.533087
2681.825626,-1838.629195,-1406.391290,9992.780217
2681.825955,-1072.533697,-1036.288319,10658.965565
2681.826283,-689.485948,-1628.453072,10807.006753
2681.826612,-1608.800546,-2590.720797,9844.739029
2681.826941,-1455.581446,-2590.720797,10955.047942
2681.827270,153.219100,-518.144159,9770.718434
2681.827599,1685.410096,-518.144159,8142.265362
2681.827928,1991.848295,370.102971,8142.265362
2681.828257,3294.210641,1406.391290,7550.100608
2681.828586,4213.525239,1554.432478,6661.853478
2681.828915,4136.915689,2146.597232,5995.668130
2681.829244,4060.306139,814.226536,7179.997637
2681.829573,2451.505594,740.205942,8512.368333
2681.829902,1608.800546,-0.000000,8882.471304
2681.830231,-689.485948,-814.226536,8956.491898
2681.830560,-2221.676944,-2072.576638,10066.800811
2681.830889,-2451.505594,-1554.432478,11399.171507
2681.831218,-2221.676944,-1184.329507,11843.295072
2681.831547,-2451.505594,-888.247130,9918.759623
2681.831876,-2068.457845,-1480.411884,10510.924376
2681.832205,-1302.362347,-1554.432478,10955.047942
2681.832534,153.219100,-222.061783,9400.615463
2681.832863,1915.238745,1110.308913,8512.368333
2681.833192,2145.067394,1110.308913,7328.038826
2681.833521,2451.505594,1850.514855,7105.977043
2681.833850,3294.210641,2368.659014,7994.224174
2681.834179,1762.019645,888.247130,7476.080014
2681.834508,1072.533697,-0.000000,7846.182985
2681.834837,0.000000,-444.123565,9178.553681
2681.835166,-1378.971896,-518.144159,9474.636058
2681.835495,-2451.505594,-1258.350101,10881.027347
2681.835824,-3140.991542,-2072.576638,11177.109724
2681.836153,-3447.429741,-888.247130,10362.883188
2681.836482,-1685.410096,-666.185348,10066.800811
2681.836811,-1991.848295,-1406.391290,9178.553681
2681.837139,-1378.971896,-222.061783,9474.636058
2681.837468,-459.657299,-1332.370696,10658.965565
2681.837797,1225.752797,-0.000000,7920.203579
2681.838126,2068.457845,518.144159,7328.038826
2681.838455,3294.210641,1480.411884,6587.832884
2681.838784,3294.210641,2516.700203,5995.668130
2681.839113,3370.820191,1628.453072,7550.100608
2681.839442,2298.286494,962.267725,7476.080014
2681.839771,1762.019645,-222.061783,8882.471304
2681.840100,1149.143247,-148.041188,8956.491898
2681.840429,-1378.971896,-370.102971,8956.491898
2681.840758,-2298.286494,-3182.885551,11843.295072
2681.841087,-2451.505594,-1406.391290,10288.862594
2681.841416,-1608.800546,-962.267725,10881.027347
2681.841745,-1685.410096,-2960.823768,10436.903782
2681.842074,-1149.143247,-814.226536,10066.800811
2681.842403,-383.047749,-2368.659014,10584.944971
2681.842732,1532.190996,-74.020594,8808.450710
2681.843061,2298.286494,592.164754,8216.285956
2681.843390,2911.162892,1480.411884,7994.224174
2681.843719,3600.648841,2368.659014,6587.832884
2681.844048,4136.915689,2590.720797,7994.224174
2681.844377,2911.162892,666.185348,7254.018232
2681.844706,2604.724693,296.082377,7994.224174
2681.845035,536.266849,-0.000000,9474.636058
2681.845364,-612.876398,-74.020594,9178.553681
2681.845693,-1991.848295,-1628.453072,10584.944971
2681.846022,-2987.772442,-1554.432478,10732.986159
2681.846351,-2451.505594,-2072.576638,11843.295072
2681.846680,-2145.067394,-1036.288319,10066.800811
2681.847009,-2374.896044,-1628.453072,10214.842000
2681.847338,-2145.067394,-1406.391290,10362.883188
2681.847668,-1072.533697,-814.226536,9918.759623
2681.847997,-229.828649,-592.164754,9474.636058
2681.848326,536.266849,-74.020594,9474.636058
2681.848655,1378.971896,740.205942,8290.306550
2681.848984,3600.648841,1776.494261,7402.059420
2681.849313,3447.429741,1776.494261,6143.709319
2681.849642,3447.429741,592.164754,7550.100608
2681.849971,2911.162892,888.247130,7031.956449
2681.850300,2451.505594,1332.370696,8216.285956
2681.850629,842.705048,666.185348,7550.100608
2681.850958,-842.705048,-370.102971,8882.471304
2681.851287,-2221.676944,-1776.494261,10510.924376
2681.851616,-2451.505594,-1332.370696,10510.924376
2681.851945,-1685.410096,-1406.391290,10140.821405
2681.852274,-1991.848295,-2294.638420,10140.821405
2681.852603,-1072.533697,-1924.535449,10436.903782
2681.852932,-919.314598,-888.247130,10510.924376
2681.853261,0.000000,-1258.350101,9548.656652
2681.853590,383.047749,-814.226536,10214.842000
2681.853920,2068.457845,1332.370696,8142.265362
2681.854249,3983.696590,1702.473667,7920.203579
2681.854578,4060.306139,1554.432478,6365.771101
2681.854907,4366.744339,2294.638420,7550.100608
2681.855236,3600.648841,1554.432478,7402.059420
2681.855565,2757.943793,1332.370696,7105.977043
2681.855894,1149.143247,666.185348,8438.347739
2681.856223,-842.705048,-0.000000,9030.512492
2681.856552,-2834.553343,-148.041188,10362.883188
2681.856881,-3140.991542,-2664.741391,12213.398043
2681.857210,-3064.381992,-2886.803174,10140.821405
2681.857539,-2834.553343,-2368.659014,10881.027347
2681.857868,-2757.943793,-1480.411884,10584.944971
2681.858197,-1762.019645,-592.164754,10066.800811
2681.858526,-1302.362347,-888.247130,9992.780217
2681.858855,-1378.971896,666.185348,9252.574275
2681.859184,1149.143247,444.123565,10140.821405
2681.859513,3140.991542,1554.432478,7254.018232
2681.859843,3830.477490,1554.432478,6661.853478
2681.860172,3677.258390,1776.494261,7179.997637
2681.860501,3753.867940,1998.556043,6735.874072
2681.860830,2451.505594,1480.411884,7105.977043
2681.861159,689.485948,666.185348,8142.265362
2681.861488,-536.266849,-296.082377,9326.594869
2681.861817,-2451.505594,-518.144159,10288.862594
2681.862146,-2451.505594,-2442.679609,10807.006753
2681.862475,-3370.820191,-2738.761985,10955.047942
2681.862804,-2757.943793,-3256.906145,10510.924376
2681.863133,-2298.286494,-2368.659014,11029.068536
2681.863462,-1149.143247,-444.123565,10214.842000
2681.863791,-842.705048,-370.102971,8956.491898
2681.864120,536.266849,-444.123565,10807.006753
2681.864449,3140.991542,1332.370696,7994.224174
2681.864778,4443.353888,1628.453072,6883.915261
2681.865107,4673.182538,1406.391290,7105.977043
2681.865436,4903.011187,1702.473667,7105.977043
2681.865765,4903.011187,1480.411884,7105.977043
2681.866095,3140.991542,2220.617826,6957.935855
2681.866424,2068.457845,-370.102971,8216.285956
2681.866753,-459.657299,-1036.288319,9252.574275
2681.867082,-1991.848295,-1628.453072,10732.986159
2681.867411,-2604.724693,-3108.864956,10510.924376
2681.867740,-2757.943793,-3034.844362,10584.944971
2681.868069,-2298.286494,-2960.823768,10955.047942
2681.868398,-1225.752797,-1480.411884,10732.986159
2681.868727,-842.705048,-592.164754,9030.512492
2681.869056,306.438199,-148.041188,9844.739029
2681.869385,2757.943793,1184.329507,7920.203579
2681.869714,3677.258390,2590.720797,7179.997637
2681.870043,4213.525239,1702.473667,7105.977043
2681.870372,4519.963438,2072.576638,6513.812290
2681.870701,3753.867940,2812.782580,8142.265362
2681.871030,2451.505594,1554.432478,7179.997637
2681.871359,459.657299,592.164754,7624.121203
2681.871688,-1378.971896,-222.061783,9844.739029
2681.872018,-1991.848295,-1776.494261,10436.903782
2681.872347,-2681.334243,-962.267725,10658.965565
2681.872676,-3140.991542,-3182.885551,10140.821405
2681.873005,-2604.724693,-2812.782580,10807.006753
2681.873334,-2451.505594,-1184.329507,11029.068536
2681.873663,-1149.143247,-370.102971,10510.924376
2681.873992,-1225.752797,-592.164754,9104.533087
2681.874321,-842.705048,-0.000000,9844.739029
2681.874650,383.047749,-0.000000,10584.944971
2681.874979,2068.457845,74.020594,8290.306550
2681.875308,3217.601092,-0.000000,8142.265362
2681.875637,3677.258390,1480.411884,7105.977043
2681.875966,3447.429741,1332.370696,7254.018232
2681.876295,2911.162892,1554.432478,7994.224174
2681.876624,1838.629195,1702.473667,7476.080014
2681.876953,612.876398,148.041188,8956.491898
2681.877282,-995.924147,-518.144159,9696.697840
2681.877611,-2374.896044,-2294.638420,10140.821405
2681.877940,-3753.867940,-3552.988522,12213.398043
2681.878270,-3064.381992,-2886.803174,10881.027347
2681.878599,-1378.971896,-2664.741391,10955.047942
2681.878928,-1532.190996,-666.185348,9548.656652
2681.879257,-766.095498,222.061783,9474.636058
2681.879586,229.828649,-74.020594,10658.965565
2681.879915,2221.676944,666.185348,8364.327145
2681.880244,3524.039291,1184.329507,6883.915261
2681.880573,3447.429741,1036.288319,7179.997637
2681.880902,3294.210641,1628.453072,7402.059420
2681.881231,3370.820191,1998.556043,7105.977043
2681.881560,2528.115143,1480.411884,6439.791695
2681.881889,842.705048,888.247130,7550.100608
2681.882218,-919.314598,-222.061783,9178.553681
2681.882547,-2068.457845,-296.082377,9104.533087
2681.882876,-2451.505594,-2220.617826,11177.109724
2681.883205,-2834.553343,-2442.679609,10288.862594
2681.883534,-2298.286494,-1850.514855,10066.800811
2681.883863,-2145.067394,-1258.350101,9992.780217
2681.884193,-1378.971896,-296.082377,8956.491898
2681.884522,-1072.533697,-222.061783,9622.677246
2681.884851,0.000000,-222.061783,9474.636058
2681.885180,766.095498,-74.020594,9548.656652
2681.885509,1455.581446,-222.061783,9474.636058
2681.885838,2298.286494,370.102971,7994.224174
2681.886167,2451.505594,1554.432478,6735.874072
2681.886496,2604.724693,1258.350101,7328.038826
2681.886825,2757.943793,1036.288319,7624.121203
2681.887154,1455.581446,1554.432478,7624.121203
2681.887483,995.924147,-0.000000,8512.368333
2681.887812,-1149.143247,-1480.411884,9696.697840
2681.888141,-3064.381992,-2368.659014,11103.089130
2681.888470,-3294.210641,-3256.906145,11843.295072
2681.888799,-2604.724693,-2220.617826,11029.068536
2681.889128,-1838.629195,-2072.576638,10214.842000
2681.889457,-842.705048,-518.144159,10214.842000
2681.889786,306.438199,-74.020594,9918.759623
2681.890115,1991.848295,1110.308913,8660.409521
2681.890445,3677.258390,888.247130,7994.224174
2681.890774,4749.792088,1110.308913,8142.265362
2681.891103,4596.572988,1998.556043,6957.935855
2681.891432,4749.792088,1406.391290,6957.935855
2681.891761,3217.601092,1258.350101,7105.977043
2681.892090,2451.505594,814.226536,7476.080014
2681.892419,1225.752797,444.123565,8438.347739
2681.892748,-306.438199,-814.226536,9622.677246
2681.893077,-1991.848295,-2072.576638,10362.883188
2681.893406,-2604.724693,-3034.844362,11547.212695
2681.893735,-2451.505594,-2220.617826,11843.295072
2681.894064,-1685.410096,-1554.432478,11177.109724
2681.894393,-1608.800546,-0.000000,10066.800811
2681.894722,0.000000,296.082377,9474.636058
2681.895051,1072.533697,1480.411884,8882.471304
2681.895380,2911.162892,1332.370696,8734.430116
2681.895709,3907.087040,1628.453072,7476.080014
2681.896038,3447.429741,1628.453072,7846.182985
2681.896368,2987.772442,1702.473667,6587.832884
2681.896697,2145.067394,814.226536,7402.059420
2681.897026,1149.143247,962.267725,8586.388927
2681.897355,-383.047749,-0.000000,7846.182985
2681.897684,-1378.971896,-1406.391290,9252.574275
2681.898013,-1915.238745,-1332.370696,9918.759623
2681.898342,-2834.553343,-1850.514855,11399.171507
2681.898671,-3524.039291,-3108.864956,11325.150913
2681.899000,-2451.505594,-1850.514855,10288.862594
2681.899329,-2145.067394,-1258.350101,9918.759623
2681.899658,-1685.410096,-74.020594,9474.636058
2681.899987,229.828649,-370.102971,9104.533087
2681.900316,919.314598,814.226536,8290.306550
2681.900645,2451.505594,740.205942,8512.368333
2681.900974,2451.505594,-0.000000,8068.244768
2681.901303,2911.162892,-0.000000,7624.121203
2681.901632,2987.772442,1332.370696,7105.977043
2681.901961,2451.505594,962.267725,7105.977043
2681.902291,1225.752797,148.041188,7624.121203
2681.902620,0.000000,-74.020594,8660.409521
2681.902949,-842.705048,-740.205942,9844.739029
2681.903278,-1685.410096,-1554.432478,9696.697840
2681.903607,-2604.724693,-2590.720797,10955.047942
2681.903936,-2145.067394,-2072.576638,10732.986159
2681.904265,-1762.019645,-518.144159,9918.759623
2681.904594,-995.924147,-1184.329507,9992.780217
2681.904923,229.828649,-1332.370696,9696.697840
2681.905252,766.095498,740.205942,8734.430116
2681.905581,3217.601092,-0.000000,8512.368333
2681.905910,1608.800546,740.205942,7624.121203
2681.906239,2528.115143,666.185348,8882.471304
2681.906568,2911.162892,1036.288319,8438.347739
2681.906897,3064.381992,2368.659014,6957.935855
2681.907226,2374.896044,740.205942,7476.080014
2681.907555,1685.410096,1480.411884,8290.306550
2681.907884,306.438199,-0.000000,9178.553681
2681.908213,-1072.533697,-74.020594,9326.594869
2681.908543,-1608.800546,-1258.350101,10214.842000
2681.908872,-2604.724693,-2368.659014,11473.192101
2681.909201,-2451.505594,-1776.494261,11103.089130
2681.909530,-1532.190996,-1332.370696,10436.903782
2681.909859,-1838.629195,-1480.411884,9696.697840
2681.910188,-995.924147,-222.061783,10362.883188
2681.910517,0.000000,518.144159,9474.636058
2681.910846,919.314598,592.164754,9474.636058
2681.911175,1532.190996,-0.000000,9326.594869
2681.911504,2145.067394,74.020594,8512.368333
2681.911833,2834.553343,1628.453072,7846.182985
2681.912162,3140.991542,1110.308913,7994.224174
2681.912491,1762.019645,740.205942,7698.141797
2681.912820,536.266849,1480.411884,8068.244768
2681.913149,459.657299,666.185348,9178.553681
2681.913478,-306.438199,-814.226536,8660.409521
2681.913807,-1302.362347,-1924.535449,9548.656652
2681.914136,-1608.800546,-2220.617826,10362.883188
2681.914466,-1149.143247,-2294.638420,9622.677246
2681.914795,-919.314598,-1110.308913,9474.636058
2681.915124,-766.095498,-666.185348,9548.656652
2681.915453,459.657299,-222.061783,9104.533087
2681.915782,1685.410096,888.247130,8364.327145
2681.916111,2451.505594,518.144159,8142.265362
2681.916440,2757.943793,-74.020594,7994.224174
2681.916769,2528.115143,1406.391290,8068.244768
2681.917098,2528.115143,1110.308913,8364.327145
2681.917427,2757.943793,740.205942,7402.059420
2681.917756,1838.629195,518.144159,8216.285956
2681.918085,1072.533697,444.123565,8290.306550
2681.918414,612.876398,-0.000000,9104.533087
2681.918743,-612.876398,-1998.556043,10066.800811
2681.919072,-1149.143247,-2516.700203,10807.006753
2681.919401,-995.924147,-1850.514855,10955.047942
2681.919730,-1225.752797,-1554.432478,9918.759623
2681.920059,-766.095498,-592.164754,9178.553681
2681.920388,0.000000,-0.000000,9696.697840
2681.920718,1149.143247,1554.432478,8438.347739
2681.921047,1685.410096,518.144159,8586.388927
2681.921376,2145.067394,-0.000000,8882.471304
2681.921705,2451.505594,444.123565,9030.512492
2681.922034,1378.971896,518.144159,8734.430116
2681.922363,1149.143247,-0.000000,7920.203579
2681.922692,-229.828649,592.164754,8216.285956
2681.923021,-612.876398,370.102971,10362.883188
2681.923350,-919.314598,-222.061783,9622.677246
2681.923679,-1532.190996,-1850.514855,9474.636058
2681.924008,-1762.019645,-2294.638420,10214.842000
2681.924337,-1608.800546,-2664.741391,10510.924376
2681.924666,-1532.190996,-1110.308913,9696.697840
2681.924995,-995.924147,-666.185348,9326.594869
2681.925324,-459.657299,296.082377,8956.491898
2681.925653,306.438199,962.267725,8808.450710
2681.925982,1225.752797,1258.350101,8216.285956
2681.926311,995.924147,962.267725,7476.080014
2681.926641,919.314598,-0.000000,8808.450710
2681.926970,919.314598,-74.020594,8586.388927
2681.927299,306.438199,666.185348,9030.512492
2681.927628,383.047749,-814.226536,8956.491898
2681.927957,-153.219100,-0.000000,7772.162391
2681.928286,-383.047749,-0.000000,9622.677246
2681.928615,-612.876398,-888.247130,9770.718434
2681.928944,-536.266849,-1998.556043,9474.636058
2681.929273,-919.314598,-1998.556043,9918.759623
2681.929602,229.828649,-1036.288319,9326.594869
2681.929931,76.609550,-888.247130,9252.574275
2681.930260,842.705048,-296.082377,8290.306550
2681.930589,1685.410096,444.123565,7994.224174
2681.930918,1991.848295,962.267725,8512.368333
2681.931247,2451.505594,518.144159,8142.265362
2681.931576,2374.896044,148.041188,8808.450710
2681.931905,1685.410096,-518.144159,9178.553681
2681.932234,842.705048,-0.000000,8660.409521
2681.932563,612.876398,-222.061783,9326.594869
2681.932893,306.438199,-814.226536,9326.594869
2681.933222,-1072.533697,-740.205942,9178.553681
2681.933551,-766.095498,-592.164754,9696.697840
2681.933880,-306.438199,-962.267725,9104.533087
2681.934209,-842.705048,-814.226536,9548.656652
2681.934538,-536.266849,-1184.329507,9696.697840
2681.934867,306.438199,-0.000000,9474.636058
2681.935196,536.266849,-0.000000,9474.636058
2681.935525,383.047749,1776.494261,7920.203579
2681.935854,766.095498,1702.473667,8882.471304
2681.936183,383.047749,222.061783,8438.347739
2681.936512,306.438199,814.226536,9178.553681
2681.936841,-383.047749,-1110.308913,9548.656652
2681.937170,-919.314598,-1406.391290,9622.677246
2681.937499,306.438199,-0.000000,9622.677246
2681.937828,-612.876398,-0.000000,8734.430116
2681.938157,0.000000,74.020594,9474.636058
2681.938486,-306.438199,-222.061783,8956.491898
2681.938816,459.657299,-0.000000,9474.636058
2681.939145,383.047749,-74.020594,8364.327145
2681.939474,383.047749,-518.144159,8734.430116
2681.939803,689.485948,-666.185348,9178.553681
2681.940132,995.924147,740.205942,9326.594869
2681.940461,1072.533697,-888.247130,9104.533087
2681.940790,1225.752797,518.144159,8216.285956
2681.941119,1149.143247,222.061783,8660.409521
2681.941448,1302.362347,-0.000000,8586.388927
2681.941777,612.876398,-370.102971,9326.594869
2681.942106,76.609550,-888.247130,9474.636058
2681.942435,536.266849,-814.226536,10140.821405
2681.942764,76.609550,-0.000000,9622.677246
2681.943093,0.000000,-296.082377,9104.533087
2681.943423,0.000000,-370.102971,8808.450710
2681.943752,0.000000,-0.000000,8882.471304
2681.944081,1072.533697,-0.000000,8734.430116
2681.944410,459.657299,-962.267725,9252.574275
2681.944739,459.657299,-370.102971,9474.636058
2681.945068,689.485948,-1036.288319,9400.615463
2681.945398,383.047749,592.164754,7920.203579
2681.945727,1762.019645,-444.123565,8882.471304
2681.946056,1072.533697,370.102971,8586.388927
2681.946385,612.876398,814.226536,8660.409521
2681.946714,1608.800546,-74.020594,8808.450710
2681.947043,459.657299,-0.000000,7624.121203
2681.947372,689.485948,-518.144159,9252.574275
2681.947702,-383.047749,-222.061783,9326.594869
2681.948031,-689.485948,-0.000000,8438.347739
2681.948360,-1302.362347,-518.144159,9622.677246
2681.948689,-1762.019645,-518.144159,9474.636058
2681.949018,-1685.410096,-740.205942,9696.697840
2681.949347,-1532.190996,-1554.432478,9400.615463
2681.949677,-1302.362347,-1480.411884,9400.615463
2681.950006,-1532.190996,-2368.659014,9992.780217
2681.950335,-536.266849,-444.123565,9474.636058
2681.950664,459.657299,-518.144159,8512.368333
2681.950993,1302.362347,814.226536,8290.306550
2681.951322,2451.505594,1184.329507,7624.121203
2681.951651,2987.772442,1258.350101,7846.182985
2681.951981,2374.896044,518.144159,8290.306550
2681.952310,1991.848295,-74.020594,8068.244768
2681.952639,1149.143247,-222.061783,9104.533087
2681.952968,383.047749,-0.000000,8586.388927
2681.953297,-689.485948,-444.123565,9474.636058
2681.953626,-1608.800546,-1332.370696,10066.800811
2681.953956,-1225.752797,-962.267725,9918.759623
2681.954285,-1225.752797,-962.267725,9696.697840
2681.954614,-919.314598,-1924.535449,9992.780217
2681.954943,-1762.019645,-1850.514855,9770.718434
2681.955272,-229.828649,-1480.411884,10214.842000
2681.955601,1608.800546,-592.164754,9104.533087
2681.955931,2068.457845,370.102971,8290.306550
2681.956260,2834.553343,518.144159,7846.182985
2681.956589,3064.381992,1480.411884,7550.100608
2681.956918,3677.258390,1628.453072,7846.182985
2681.957247,3217.601092,962.267725,8216.285956
2681.957576,1838.629195,962.267725,8734.430116
2681.957905,1149.143247,518.144159,9178.553681
2681.958235,306.438199,222.061783,8882.471304
2681.958564,-1455.581446,-74.020594,9400.615463
2681.958893,-2221.676944,-1258.350101,10584.944971
2681.959222,-1762.019645,-222.061783,10584.944971
2681.959551,-2145.067394,-962.267725,10066.800811
2681.959880,-2068.457845,-1184.329507,9770.718434
2681.960210,-995.924147,-592.164754,10955.047942
2681.960539,536.266849,-222.061783,8956.491898
2681.960868,995.924147,-222.061783,7846.182985
2681.961197,2451.505594,1036.288319,8956.491898
2681.961526,2681.334243,1184.329507,6661.853478
2681.961855,2681.334243,1702.473667,7179.997637
2681.962184,3370.820191,1850.514855,8068.244768
2681.962514,2221.676944,666.185348,7846.182985
2681.962843,1149.143247,814.226536,8808.450710
2681.963172,766.095498,-0.000000,9326.594869
2681.963501,-1302.362347,-1850.514855,9622.677246
2681.963830,-2757.943793,-1628.453072,10510.924376
2681.964159,-2757.943793,-1998.556043,10955.047942
2681.964489,-2451.505594,-1480.411884,10362.883188
2681.964818,-1915.238745,-1110.308913,9696.697840
2681.965147,-1991.848295,-1628.453072,9918.759623
2681.965476,-1532.190996,-1998.556043,10436.903782
2681.965805,0.000000,-444.123565,9178.553681
2681.966134,2451.505594,74.020594,6587.832884
2681.966464,2374.896044,666.185348,7624.121203
2681.966793,2068.457845,1776.494261,8438.347739
2681.967122,4060.306139,1850.514855,6735.874072
2681.967451,2834.553343,888.247130,7402.059420
2681.967780,2757.943793,962.267725,7994.224174
2681.968109,1838.629195,888.247130,8364.327145
2681.968438,-153.219100,888.247130,9030.512492
2681.968768,-1455.581446,-1110.308913,9548.656652
2681.969097,-2451.505594,-1036.288319,10584.944971
2681.969426,-2681.334243,-1776.494261,10955.047942
2681.969755,-2068.457845,-1628.453072,9696.697840
2681.970084,-2451.505594,-1110.308913,9326.594869
2681.970413,-1378.971896,-888.247130,10732.986159
2681.970743,0.000000,-1258.350101,9178.553681
2681.971072,612.876398,370.102971,8512.368333
2681.971401,1378.971896,-0.000000,8438.347739
2681.971730,2681.334243,1184.329507,7105.977043
2681.972059,3370.820191,2368.659014,7105.977043
2681.972388,3294.210641,1850.514855,6735.874072
2681.972717,2834.553343,1184.329507,7402.059420
2681.973047,2068.457845,592.164754,8586.388927
2681.973376,1762.019645,1332.370696,8660.409521
2681.973705,0.000000,148.041188,9918.759623
2681.974034,-1915.238745,-1036.288319,10362.883188
2681.974363,-2987.772442,-1258.350101,10436.903782
2681.974692,-2528.115143,-1702.473667,11843.295072
2681.975022,-2681.334243,-1258.350101,10066.800811
2681.975351,-1915.238745,-1554.432478,9770.718434
2681.975680,-2221.676944,-2368.659014,10658.965565
2681.976009,-1302.362347,-1110.308913,10066.800811
2681.976338,229.828649,-814.226536,9474.636058
2681.976667,1378.971896,-222.061783,8438.347739
2681.976997,2298.286494,1258.350101,7920.203579
2681.977326,2987.772442,1480.411884,7179.997637
2681.977655,3140.991542,592.164754,7920.203579
2681.977984,2987.772442,518.144159,8364.327145
2681.978313,2451.505594,1406.391290,8290.306550
2681.978642,2604.724693,740.205942,8660.409521
2681.978971,612.876398,-0.000000,8660.409521
2681.979301,-1378.971896,-518.144159,10288.862594
2681.979630,-1762.019645,-1702.473667,11177.109724
2681.979959,-1532.190996,-1184.329507,9622.677246
2681.980288,-1915.238745,-1628.453072,9696.697840
2681.980617,-1455.581446,-2590.720797,10881.027347
2681.980946,-1072.533697,-1850.514855,10066.800811
2681.981276,459.657299,-1184.329507,8956.491898
2681.981605,1072.533697,-0.000000,7994.224174
2681.981934,1149.143247,1332.370696,7698.141797
2681.982263,2068.457845,2516.700203,6809.894666
2681.982592,2681.334243,2516.700203,6513.812290
2681.982921,1378.971896,1184.329507,7254.018232
2681.983250,995.924147,518.144159,7846.182985
2681.983580,-306.438199,962.267725,8142.265362
2681.983909,-1915.238745,-0.000000,8956.491898
2681.984238,-3524.039291,-1036.288319,9178.553681
2681.984567,-4060.306139,-1776.494261,10510.924376
2681.984896,-5132.839837,-444.123565,9252.574275
2681.985225,-5209.449386,-1110.308913,10066.800811
2681.985555,-6281.983084,-1776.494261,9918.759623
2681.985884,-6205.373534,-2886.803174,11029.068536
2681.986213,-5745.716235,-2442.679609,10658.965565
2681.986542,-4519.963438,-1258.350101,9400.615463
2681.986871,-4060.306139,-1110.308913,9474.636058
2681.987200,-3600.648841,666.185348,8882.471304
2681.987530,-2757.943793,1110.308913,9400.615463
2681.987859,-2221.676944,1110.308913,8512.368333
2681.988188,-536.266849,-296.082377,8364.327145
2681.988517,-1608.800546,222.061783,9030.512492
2681.988846,-1915.238745,1110.308913,7772.162391
2681.989175,-1991.848295,592.164754,8142.265362
2681.989504,-2221.676944,370.102971,8290.306550
2681.989834,-2528.115143,-296.082377,9992.780217
2681.990163,-3524.039291,-0.000000,9474.636058
2681.990492,-2681.334243,-0.000000,9178.553681
2681.990821,-2451.505594,-296.082377,8364.327145
2681.991150,-3140.991542,-444.123565,9030.512492
2681.991479,-3753.867940,-2442.679609,10955.047942
2681.991809,-3753.867940,-1258.350101,10510.924376
2681.992138,-2681.334243,-592.164754,9918.759623
2681.992467,-2145.067394,-0.000000,8808.450710
2681.992796,-1915.238745,-0.000000,9030.512492
2681.993125,-2298.286494,-0.000000,9548.656652
2681.993454,-1991.848295,222.061783,8660.409521
2681.993783,-1072.533697,1406.391290,8512.368333
2681.994113,-1225.752797,-370.102971,7772.162391
2681.994442,-1378.971896,-296.082377,8660.409521
2681.994771,-2681.334243,-1184.329507,9622.677246
2681.995100,-2681.334243,-518.144159,8808.450710
2681.995429,-2298.286494,-74.020594,8290.306550
2681.995758,-1915.238745,-0.000000,8956.491898
2681.996088,-2145.067394,-0.000000,9104.533087
2681.996417,-2298.286494,-296.082377,9326.594869
2681.996746,-2068.457845,-444.123565,8808.450710
2681.997075,-1532.190996,-888.247130,8438.347739
2681.997404,-1762.019645,-1184.329507,9326.594869
2681.997733,-2528.115143,-2146.597232,9770.718434
2681.998063,-2221.676944,-1332.370696,9622.677246
2681.998392,-1838.629195,-518.144159,9474.636058
2681.998721,-1762.019645,-0.000000,9030.512492
2681.999050,-612.876398,444.123565,8290.306550
2681.999379,-842.705048,518.144159,8734.430116
2681.999708,-1532.190996,148.041188,9252.574275
2682.000037,-1455.581446,-0.000000,8734.430116
2682.000367,-1225.752797,1258.350101,8512.368333
2682.000696,-1378.971896,1406.391290,7402.059420
2682.001025,-1378.971896,-0.000000,7772.162391
2682.001354,-1532.190996,-1184.329507,9104.533087
2682.001683,-2298.286494,-1776.494261,9252.574275
2682.002012,-2528.115143,-666.185348,8290.306550
2682.002342,-2757.943793,962.267725,7624.121203
2682.002671,-3140.991542,1258.350101,7550.100608
2682.003000,-3370.820191,518.144159,8142.265362
2682.003329,-4060.306139,-814.226536,9326.594869
2682.003658,-4903.011187,-1332.370696,9770.718434
2682.003987,-4979.620737,-1258.350101,10066.800811
2682.004316,-6052.154434,-1776.494261,10362.883188
2682.004646,-5745.716235,-1924.535449,10584.944971
2682.004975,-4979.620737,-2294.638420,10881.027347
2682.005304,-4596.572988,-1998.556043,10066.800811
2682.005633,-3524.039291,-740.205942,9326.594869
2682.005962,-2374.896044,740.205942,7994.224174
2682.006291,-1225.752797,1332.370696,8734.430116
2682.006621,-1532.190996,888.247130,7254.018232
2682.006950,-2374.896044,1332.370696,8364.327145
2682.007279,-2451.505594,296.082377,8956.491898
2682.007608,-2221.676944,-0.000000,8290.306550
2682.007937,-1378.971896,148.041188,9178.553681
2682.008266,-1915.238745,-148.041188,8512.368333
2682.008596,-2451.505594,-666.185348,9178.553681
2682.008925,-2604.724693,-370.102971,10214.842000
2682.009254,-2374.896044,518.144159,8808.450710
2682.009583,-2298.286494,444.123565,8882.471304
2682.009912,-2451.505594,148.041188,8882.471304
2682.010241,-2451.505594,-0.000000,9104.533087
2682.010570,-2757.943793,-666.185348,9400.615463
2682.010900,-3753.867940,-148.041188,9622.677246
2682.011229,-4366.744339,-1036.288319,9326.594869
2682.011558,-4443.353888,-666.185348,9918.759623
2682.011887,-5132.839837,-222.061783,9696.697840
2682.012216,-4903.011187,-444.123565,9918.759623
2682.012545,-4596.572988,-592.164754,9770.718434
2682.012875,-3907.087040,-666.185348,9696.697840
2682.013204,-3140.991542,-1702.473667,9548.656652
2682.013533,-1302.362347,-1776.494261,9326.594869
2682.013862,-383.047749,-666.185348,8586.388927
2682.014191,-1072.533697,592.164754,8216.285956
2682.014520,-229.828649,-222.061783,11325.150913
2682.014849,995.924147,1406.391290,6661.853478
2682.015179,2911.162892,2960.823768,6291.750507
2682.015508,1991.848295,3034.844362,5773.606348
2682.015837,536.266849,2072.576638,6661.853478
2682.016166,-612.876398,888.247130,9474.636058
2682.016495,-2834.553343,296.082377,7920.203579
2682.016824,-3524.039291,-2590.720797,10436.903782
2682.017154,-4979.620737,-2664.741391,9770.718434
2682.017483,-5822.325785,-2294.638420,9178.553681
2682.017812,-6894.859482,-4515.256246,11843.295072
2682.018141,-7201.297681,-2294.638420,11103.089130
2682.018470,-5286.058936,-2368.659014,11843.295072
2682.018799,-3830.477490,-1184.329507,9548.656652
2682.019129,-1225.752797,1184.329507,8438.347739
2682.019458,-842.705048,962.267725,7402.059420
2682.019787,-1225.752797,1036.288319,7550.100608
2682.020116,2987.772442,296.082377,10510.924376
2682.020445,2834.553343,3034.844362,3478.967927
2682.020774,4903.011187,2220.617826,7105.977043
2682.021103,1685.410096,2146.597232,4589.276840
2682.021433,1915.238745,1406.391290,8882.471304
2682.021762,-2604.724693,-74.020594,8216.285956
2682.022091,-2528.115143,-1406.391290,8734.430116
2682.022420,-3064.381992,-2664.741391,13027.624579
2682.022749,-5209.449386,-0.000000,7105.977043
2682.023078,-6588.421283,-3552.988522,12435.459826
2682.023408,-9193.145976,-2368.659014,11769.274478
2682.023737,-6358.592633,-1480.411884,10584.944971
2682.024066,-6205.373534,-1998.556043,10732.986159
2682.024395,-4213.525239,-222.061783,9030.512492
2682.024724,-2681.334243,-0.000000,9178.553681
2682.025053,-2451.505594,-1406.391290,7920.203579
2682.025382,-2221.676944,1850.514855,7031.956449
2682.025712,-2145.067394,-1036.288319,9770.718434
2682.026041,-1838.629195,-0.000000,9030.512492
2682.026370,-2145.067394,370.102971,9104.533087
2682.026699,-2757.943793,518.144159,9178.553681
2682.027028,-3217.601092,296.082377,8142.265362
2682.027357,-2451.505594,-814.226536,8882.471304
2682.027687,-2068.457845,1554.432478,8660.409521
2682.028016,-2451.505594,1702.473667,8438.347739
2682.028345,-2451.505594,1110.308913,7846.182985
2682.028674,-2757.943793,1258.350101,7476.080014
2682.029003,-3140.991542,1332.370696,8808.450710
2682.029332,-2528.115143,-74.020594,7624.121203
2682.029662,-2145.067394,518.144159,8068.244768
2682.029991,-2374.896044,-740.205942,9030.512492
2682.030320,-2604.724693,-0.000000,8882.471304
2682.030649,-4443.353888,296.082377,8956.491898
2682.030978,-4060.306139,518.144159,9400.615463
2682.031307,-3524.039291,1406.391290,9326.594869
2682.031636,-3600.648841,1480.411884,9844.739029
2682.031966,-3370.820191,666.185348,9992.780217
2682.032295,-3447.429741,444.123565,10881.027347
2682.032624,-4213.525239,666.185348,11251.130318
2682.032953,-2451.505594,-0.000000,10066.800811
2682.033282,-1685.410096,518.144159,9326.594869
2682.033611,-1149.143247,666.185348,8808.450710
2682.033941,-842.705048,592.164754,10066.800811
2682.034270,536.266849,-222.061783,11843.295072
2682.034599,2068.457845,2738.761985,6809.894666
2682.034928,4596.572988,3182.885551,8142.265362
2682.035257,3753.867940,4367.215058,5107.421000
2682.035586,3600.648841,4515.256246,7254.018232
2682.035915,2298.286494,4811.338623,8142.265362
2682.036245,2834.553343,4515.256246,7179.997637
2682.036574,2604.724693,3849.070898,9104.533087
2682.036903,842.705048,2590.720797,8068.244768
2682.037232,-612.876398,592.164754,11325.150913
2682.037561,-2451.505594,962.267725,11547.212695
2682.037890,-842.705048,592.164754,10436.903782
2682.038220,-1532.190996,518.144159,11029.068536
2682.038549,-766.095498,2220.617826,10658.965565
2682.038878,689.485948,3330.926739,9178.553681
2682.039207,1608.800546,1998.556043,7846.182985
2682.039536,2451.505594,4219.173869,7402.059420
2682.039865,3140.991542,5625.565159,7031.956449
2682.040195,2298.286494,4441.235652,6809.894666
2682.040524,1762.019645,5699.585753,6809.894666
2682.040853,1225.752797,4367.215058,7179.997637
2682.041182,-1149.143247,2368.659014,8808.450710
2682.041511,-2757.943793,666.185348,9770.718434
2682.041840,-3370.820191,962.267725,11991.336260
2682.042169,-3677.258390,-74.020594,11991.336260
2682.042499,-3907.087040,2738.761985,8882.471304
2682.042828,-3447.429741,1998.556043,10732.986159
2682.043157,-3677.258390,2886.803174,10140.821405
2682.043486,-3140.991542,2516.700203,11103.089130
2682.043815,-1608.800546,2368.659014,10436.903782
2682.044144,-536.266849,3404.947333,8512.368333
2682.044474,-1072.533697,3330.926739,8734.430116
2682.044803,-1762.019645,3108.864956,9918.759623
2682.045132,612.876398,370.102971,13397.727550
2682.045461,1838.629195,3849.070898,6439.791695
2682.045790,5209.449386,4145.153275,8512.368333
2682.046119,3140.991542,4959.379811,5847.626942
2682.046448,4213.525239,7105.977043,6883.915261
2682.046777,2681.334243,7179.997637,6809.894666
2682.047107,2145.067394,5921.647536,7328.038826
2682.047436,1378.971896,6143.709319,8438.347739
2682.047765,-229.828649,5995.668130,7698.141797
2682.048094,153.219100,4219.173869,8216.285956
2682.048423,-2221.676944,1776.494261,9622.677246
2682.048752,-766.095498,-2368.659014,11769.274478
2682.049081,-2451.505594,1110.308913,10436.903782
2682.049411,-1378.971896,-1480.411884,11843.295072
2682.049740,-1991.848295,2146.597232,8512.368333
2682.050069,0.000000,2812.782580,12065.356855
2682.050398,2528.115143,4737.318029,8586.388927
2682.050727,2681.334243,5403.503377,8364.327145
2682.051056,3983.696590,3701.029710,7476.080014
2682.051385,3600.648841,4663.297435,7624.121203
2682.051715,2528.115143,5699.585753,7624.121203
2682.052044,1685.410096,4441.235652,6735.874072
2682.052373,536.266849,3552.988522,7846.182985
2682.052702,-1149.143247,1480.411884,10807.006753
2682.053031,-1838.629195,-666.185348,11325.150913
2682.053360,-2757.943793,1332.370696,10881.027347
2682.053689,-2528.115143,-1554.432478,9992.780217
2682.054018,-2451.505594,1258.350101,9474.636058
2682.054348,-1915.238745,2738.761985,10955.047942
2682.054677,-1302.362347,1702.473667,9326.594869
2682.055006,-919.314598,1850.514855,11251.130318
2682.055335,3524.039291,740.205942,9252.574275
2682.055664,4366.744339,3627.009116,6365.771101
2682.055993,4136.915689,3108.864956,7846.182985
2682.056322,2451.505594,3034.844362,6365.771101
2682.056652,3600.648841,4811.338623,8364.327145
2682.056981,2145.067394,4885.359217,7105.977043
2682.057310,2145.067394,4663.297435,5699.585753
2682.057639,1532.190996,4959.379811,8808.450710
2682.057968,-306.438199,1776.494261,7698.141797
2682.058297,-2911.162892,-4145.153275,14137.933492
2682.058626,-4749.792088,-2072.576638,11621.233289
2682.058956,-2834.553343,-1110.308913,11843.295072
2682.059285,-4213.525239,-1480.411884,10881.027347
2682.059614,-2451.505594,2516.700203,10288.862594
2682.059943,0.000000,2812.782580,8068.244768
2682.060272,383.047749,3404.947333,8438.347739
2682.060601,3753.867940,2886.803174,10732.986159
2682.060930,2834.553343,2590.720797,4811.338623
2682.061259,5209.449386,3627.009116,8956.491898
2682.061589,3294.210641,7328.038826,3923.091493
2682.061918,5286.058936,3478.967927,5699.585753
2682.062247,2681.334243,4811.338623,6217.729913
2682.062576,3677.258390,4737.318029,7772.162391
2682.062905,1762.019645,3775.050304,7105.977043
2682.063234,-459.657299,7476.080014,5477.523971
2682.063563,-3830.477490,-518.144159,10362.883188
2682.063893,-6128.763984,-3256.906145,14804.118840
2682.064222,-4596.572988,3256.906145,9474.636058
2682.064551,-3140.991542,-2812.782580,11695.253884
2682.064880,-3983.696590,-2146.597232,11843.295072
2682.065209,-2451.505594,3256.906145,12805.562797
2682.065538,-536.266849,1332.370696,8364.327145
2682.065867,-2757.943793,5699.585753,7920.203579
2682.066196,1378.971896,-0.000000,14137.933492
2682.066526,3983.696590,2220.617826,7772.162391
2682.066855,4596.572988,5477.523971,8216.285956
2682.067184,3677.258390,3627.009116,4959.379811
2682.067513,2528.115143,4737.318029,5773.606348
2682.067842,1685.410096,5699.585753,10807.006753
2682.068171,-153.219100,6587.832884,6217.729913
2682.068500,536.266849,7031.956449,10288.862594
2682.068830,-383.047749,4589.276840,8142.265362
2682.069159,153.219100,5107.421000,7105.977043
2682.069488,-1991.848295,1332.370696,11769.274478
2682.069817,-3447.429741,-1554.432478,11547.212695
2682.070146,-1532.190996,-0.000000,9696.697840
2682.070475,-919.314598,-1702.473667,10288.862594
2682.070804,-2451.505594,2072.576638,8586.388927
2682.071134,-1149.143247,3404.947333,11843.295072
2682.071463,842.705048,3775.050304,8142.265362
2682.071792,2068.457845,7846.182985,7846.182985
2682.072121,3140.991542,5625.565159,7031.956449
2682.072450,1915.238745,4737.318029,9918.759623
2682.072779,0.000000,5181.441594,9252.574275
2682.073108,919.314598,4367.215058,8142.265362
2682.073437,536.266849,3256.906145,7179.997637
2682.073767,1991.848295,-592.164754,11251.130318
2682.074096,842.705048,1628.453072,10807.006753
2682.074425,689.485948,2146.597232,9918.759623
2682.074754,-842.705048,2738.761985,9252.574275
2682.075083,995.924147,1406.391290,9770.718434
2682.075412,689.485948,4811.338623,8660.409521
2682.075741,229.828649,4441.235652,8734.430116
2682.076071,0.000000,3775.050304,8364.327145
2682.076400,2451.505594,2368.659014,7772.162391
2682.076729,3600.648841,3182.885551,7772.162391
2682.077058,2604.724693,3997.112087,8216.285956
2682.077387,1149.143247,2960.823768,9178.553681
2682.077716,842.705048,2368.659014,8586.388927
2682.078045,612.876398,3256.906145,8660.409521
2682.078375,-229.828649,3108.864956,9696.697840
2682.078704,-1302.362347,2812.782580,10732.986159
2682.079033,-3064.381992,2146.597232,10955.047942
2682.079362,-1991.848295,-1110.308913,11473.192101
2682.079691,-1838.629195,-1332.370696,10658.965565
2682.080020,-1302.362347,-1110.308913,11177.109724
2682.080349,-2221.676944,1036.288319,9918.759623
2682.080678,153.219100,1258.350101,9104.533087
2682.081008,2451.505594,1628.453072,7624.121203
2682.081337,3907.087040,3849.070898,7179.997637
2682.081666,1762.019645,3478.967927,7476.080014
2682.081995,0.000000,2294.638420,8290.306550
2682.082324,2604.724693,2072.576638,7476.080014
2682.082653,3524.039291,1850.514855,7476.080014
2682.082982,919.314598,814.226536,8882.471304
2682.083312,-1608.800546,-296.082377,10362.883188
2682.083641,-2374.896044,-2072.576638,12139.377449
2682.083970,-1532.190996,-1036.288319,10881.027347
2682.084299,-2451.505594,-222.061783,9474.636058
2682.084628,-3217.601092,296.082377,10140.821405
2682.084957,-2757.943793,-296.082377,10140.821405
2682.085286,-536.266849,-888.247130,8882.471304
2682.085616,1149.143247,222.061783,7328.038826
2682.085945,1302.362347,-0.000000,7328.038826
2682.086274,1455.581446,740.205942,7624.121203
2682.086603,2451.505594,1110.308913,7328.038826
2682.086932,2451.505594,1554.432478,6069.688724
2682.087261,1915.238745,1406.391290,7179.997637
2682.087590,1608.800546,962.267725,8956.491898
2682.087919,1378.971896,1036.288319,8882.471304
2682.088249,0.000000,444.123565,8808.450710
2682.088578,-1225.752797,-740.205942,10510.924376
2682.088907,-2374.896044,-1998.556043,11547.212695
2682.089236,-2221.676944,-2072.576638,11177.109724
2682.089565,-1915.238745,-592.164754,9918.759623
2682.089894,-2068.457845,-296.082377,10288.862594
2682.090223,-689.485948,-814.226536,9622.677246
2682.090553,1072.533697,-222.061783,8808.450710
2682.090882,2145.067394,370.102971,7179.997637
2682.091211,2221.676944,296.082377,7031.956449
2682.091540,2298.286494,666.185348,8586.388927
2682.091869,2987.772442,888.247130,7772.162391
2682.092198,3140.991542,1258.350101,7105.977043
2682.092527,2451.505594,888.247130,8660.409521
2682.092856,1915.238745,148.041188,9030.512492
2682.093186,1455.581446,-666.185348,10066.800811
2682.093515,229.828649,-222.061783,9696.697840
2682.093844,-919.314598,-444.123565,10288.862594
2682.094173,-842.705048,-74.020594,11325.150913
2682.094502,-995.924147,-518.144159,10140.821405
2682.094831,-919.314598,-74.020594,8956.491898
2682.095160,-995.924147,-0.000000,9178.553681
2682.095490,76.609550,-1406.391290,9770.718434
2682.095819,689.485948,-814.226536,7846.182985
2682.096148,919.314598,-666.185348,7328.038826
2682.096477,459.657299,-740.205942,7920.203579
2682.096806,766.095498,-888.247130,9474.636058
2682.097135,1225.752797,444.123565,7550.100608
2682.097464,536.266849,-518.144159,7846.182985
2682.097794,842.705048,1036.288319,9178.553681
2682.098123,1072.533697,-518.144159,9992.780217
2682.098452,229.828649,-888.247130,9770.718434
2682.098781,0.000000,-0.000000,9400.615463
2682.099110,-383.047749,-0.000000,9696.697840
2682.099439,-536.266849,370.102971,9844.739029
2682.099768,-383.047749,1776.494261,9400.615463
2682.100097,-842.705048,888.247130,9030.512492
2682.100427,-1838.629195,-74.020594,8660.409521
2682.100756,-612.876398,-740.205942,8734.430116
2682.101085,-306.438199,-888.247130,8956.491898
2682.101414,-689.485948,-1480.411884,8882.471304
2682.101743,-229.828649,-1480.411884,9104.533087
2682.102072,612.876398,-1258.350101,9178.553681
2682.102401,383.047749,1036.288319,8660.409521
2682.102731,842.705048,222.061783,9030.512492
2682.103060,1685.410096,666.185348,9252.574275
2682.103389,2374.896044,1776.494261,9474.636058
2682.103718,2374.896044,1924.535449,8586.388927
2682.104047,1149.143247,2072.576638,9178.553681
2682.104376,1149.143247,962.267725,10140.821405
2682.104705,1149.143247,666.185348,9178.553681
2682.105035,229.828649,888.247130,8216.285956
2682.105364,-229.828649,-222.061783,9178.553681
2682.105693,-306.438199,-592.164754,8882.471304
2682.106022,-536.266849,-888.247130,9400.615463
2682.106351,-612.876398,-1554.432478,8956.491898
2682.106680,-1302.362347,-1776.494261,9474.636058
2682.107009,0.000000,-1628.453072,9992.780217
2682.107338,842.705048,-740.205942,8956.491898
2682.107668,689.485948,-0.000000,8216.285956
2682.107997,919.314598,296.082377,9326.594869
2682.108326,1915.238745,-74.020594,9474.636058
2682.108655,1991.848295,518.144159,9474.636058
2682.108984,995.924147,370.102971,8290.306550
2682.109313,459.657299,-222.061783,9548.656652
2682.109642,459.657299,148.041188,9992.780217
2682.109972,0.000000,-222.061783,9252.574275
2682.110301,-995.924147,-296.082377,9030.512492
2682.110630,-1608.800546,-1110.308913,9326.594869
2682.110959,-1225.752797,-2220.617826,9918.759623
2682.111288,-1378.971896,-2812.782580,9474.636058
2682.111617,-1378.971896,-2960.823768,8734.430116
2682.111946,0.000000,-3034.844362,9992.780217
2682.112275,229.828649,-2516.700203,9178.553681
2682.112605,536.266849,-666.185348,8734.430116
2682.112934,919.314598,1036.288319,7994.224174
2682.113263,1378.971896,592.164754,8512.368333
2682.113592,2374.896044,1480.411884,8364.327145
2682.113921,2604.724693,666.185348,7698.141797
2682.114250,919.314598,296.082377,8882.471304
2682.114579,536.266849,-74.020594,9770.718434
2682.114909,842.705048,-1110.308913,9178.553681
2682.115238,0.000000,-1036.288319,8734.430116
2682.115567,-1149.143247,-444.123565,8734.430116
2682.115896,0.000000,-2072.576638,9548.656652
2682.116225,153.219100,-1850.514855,8956.491898
2682.116554,306.438199,-962.267725,7994.224174
2682.116883,536.266849,-1332.370696,8216.285956
2682.117213,919.314598,-1036.288319,8660.409521
2682.117542,1915.238745,666.185348,7698.141797
2682.117871,1991.848295,1110.308913,7550.100608
2682.118200,1532.190996,1332.370696,7920.203579
2682.118529,1915.238745,888.247130,9252.574275
2682.118858,1991.848295,-740.205942,9030.512492
2682.119187,1302.362347,-148.041188,8438.347739
2682.119516,153.219100,-0.000000,9474.636058
2682.119846,-306.438199,-666.185348,10066.800811
2682.120175,-536.266849,-148.041188,9918.759623
2682.120504,-536.266849,-0.000000,9326.594869
2682.120833,-1225.752797,-592.164754,9252.574275
2682.121162,-536.266849,-1110.308913,9770.718434
2682.121491,0.000000,-592.164754,9326.594869
2682.121820,0.000000,-888.247130,8882.471304
2682.122150,0.000000,-1036.288319,9770.718434
2682.122479,459.657299,-888.247130,9474.636058
2682.122808,689.485948,-0.000000,8216.285956
2682.123137,536.266849,962.267725,8512.368333
2682.123466,536.266849,1480.411884,8956.491898
2682.123795,229.828649,740.205942,9252.574275
2682.124124,0.000000,1110.308913,9474.636058
2682.124454,-459.657299,-296.082377,9474.636058
2682.124783,-1149.143247,-1036.288319,10362.883188
2682.125112,-1072.533697,-1776.494261,10807.006753
2682.125441,-1225.752797,-1332.370696,9844.739029
2682.125770,-1455.581446,-1110.308913,9548.656652
2682.126099,-1302.362347,-814.226536,9474.636058
2682.126428,459.657299,-148.041188,9030.512492
2682.126757,1225.752797,1184.329507,8068.244768
2682.127087,766.095498,814.226536,7920.203579
2682.127416,2068.457845,888.247130,8512.368333
2682.127745,2451.505594,1998.556043,7772.162391
2682.128074,1455.581446,1702.473667,7698.141797
2682.128403,1685.410096,1554.432478,8290.306550
2682.128732,1455.581446,-0.000000,8956.491898
2682.129061,1149.143247,-444.123565,9252.574275
2682.129391,766.095498,-222.061783,8956.491898
2682.129720,306.438199,-518.144159,9696.697840
2682.130049,-229.828649,-814.226536,10066.800811
2682.130378,-383.047749,-222.061783,9770.718434
2682.130707,-383.047749,518.144159,9400.615463
2682.131036,-766.095498,-74.020594,9104.533087
2682.131365,76.609550,-444.123565,9548.656652
2682.131695,1455.581446,-0.000000,9030.512492
2682.132024,1685.410096,-370.102971,8586.388927
2682.132353,1532.190996,-222.061783,8808.450710
2682.132682,2068.457845,444.123565,8734.430116
2682.133011,2681.334243,1702.473667,8438.347739
2682.133340,1762.019645,2072.576638,7476.080014
2682.133669,995.924147,1184.329507,8882.471304
2682.133998,842.705048,592.164754,9030.512492
2682.134328,689.485948,-1110.308913,9770.718434
2682.134657,-1072.533697,-888.247130,9844.739029
2682.134986,-1685.410096,-2368.659014,10362.883188
2682.135315,-1915.238745,-2664.741391,11547.212695
2682.135644,-1991.848295,-888.247130,9326.594869
2682.135973,-1685.410096,-1850.514855,9696.697840
2682.136302,-1762.019645,-1406.391290,10140.821405
2682.136632,0.000000,-1998.556043,9474.636058
2682.136961,766.095498,-1406.391290,8438.347739
2682.137290,1149.143247,-888.247130,8512.368333
2682.137619,1149.143247,-666.185348,8512.368333
2682.137948,1838.629195,-296.082377,8216.285956
2682.138277,1915.238745,1332.370696,6439.791695
2682.138606,1302.362347,296.082377,7920.203579
2682.138935,1225.752797,-222.061783,8808.450710
2682.139265,995.924147,-518.144159,8512.368333
2682.139594,383.047749,-1110.308913,8660.409521
2682.139923,-766.095498,-888.247130,9178.553681
2682.140252,-1225.752797,-1998.556043,10436.903782
2682.140581,-1532.190996,-1924.535449,9770.718434
2682.140910,-1302.362347,-1406.391290,9474.636058
2682.141239,-1762.019645,-1036.288319,9400.615463
2682.141569,-383.047749,-1184.329507,9474.636058
2682.141898,383.047749,-370.102971,9400.615463
2682.142227,1378.971896,-814.226536,8734.430116
2682.142556,1072.533697,296.082377,8142.265362
2682.142885,2221.676944,592.164754,8734.430116
2682.143214,3294.210641,2516.700203,7846.182985
2682.143543,3064.381992,2516.700203,7550.100608
2682.143873,2298.286494,2442.679609,7328.038826
2682.144202,2298.286494,1406.391290,8808.450710
2682.144531,2451.505594,1850.514855,9178.553681
2682.144860,536.266849,666.185348,8808.450710
2682.145189,-842.705048,592.164754,9548.656652
2682.145518,-1532.190996,-1110.308913,10807.006753
2682.145847,-1455.581446,-148.041188,10214.842000
2682.146176,-2604.724693,-296.082377,10362.883188
2682.146505,-2757.943793,-666.185348,10807.006753
2682.146835,-1302.362347,-518.144159,10288.862594
2682.147164,-689.485948,-444.123565,9918.759623
2682.147493,0.000000,-592.164754,9104.533087
2682.147822,842.705048,-592.164754,9548.656652
2682.148151,2374.896044,592.164754,9030.512492
2682.148480,2681.334243,1554.432478,7254.018232
2682.148809,2374.896044,1480.411884,7698.141797
2682.149138,1915.238745,1628.453072,7994.224174
2682.149468,2528.115143,1924.535449,7698.141797
2682.149797,1685.410096,1258.350101,8290.306550
2682.150126,-536.266849,666.185348,8512.368333
2682.150455,-1532.190996,-1332.370696,9622.677246
2682.150784,-1838.629195,-1998.556043,10881.027347
2682.151113,-2834.553343,-2220.617826,9918.759623
2682.151442,-3294.210641,-2294.638420,10066.800811
2682.151771,-3140.991542,-2960.823768,10955.047942
2682.152101,-2528.115143,-1776.494261,10584.944971
2682.152430,-1225.752797,-1702.473667,9696.697840
2682.152759,0.000000,-666.185348,8808.450710
2682.153088,1532.190996,-666.185348,9400.615463
2682.153417,3294.210641,1702.473667,7994.224174
2682.153746,2987.772442,2368.659014,6883.915261
2682.154075,2374.896044,2220.617826,7846.182985
2682.154404,2528.115143,1332.370696,8290.306550
2682.154734,3524.039291,3034.844362,7920.203579
2682.155063,3140.991542,2442.679609,7179.997637
2682.155392,1455.581446,1332.370696,7698.141797
2682.155721,306.438199,592.164754,9474.636058
2682.156050,-306.438199,-1332.370696,9844.739029
2682.156379,-2451.505594,-1332.370696,9918.759623
2682.156708,-3064.381992,-2590.720797,11547.212695
2682.157037,-2834.553343,-3330.926739,10955.047942
2682.157367,-2298.286494,-1776.494261,10732.986159
2682.157696,-1838.629195,-1110.308913,10288.862594
2682.158025,-612.876398,-1776.494261,10214.842000
2682.158354,1455.581446,-0.000000,9548.656652
2682.158683,3140.991542,1036.288319,8216.285956
2682.159012,3600.648841,2072.576638,7105.977043
2682.159341,2987.772442,1110.308913,7550.100608
2682.159670,3370.820191,1184.329507,8216.285956
2682.160000,3370.820191,2664.741391,5847.626942
2682.160329,2911.162892,1332.370696,7031.956449
2682.160658,1838.629195,1184.329507,6735.874072
2682.160987,1378.971896,-962.267725,8734.430116
2682.161316,-1608.800546,-3404.947333,9326.594869
2682.161645,-2604.724693,-3182.885551,8586.388927
2682.161974,-3370.820191,-4515.256246,12213.398043
2682.162303,-3447.429741,-4959.379811,12065.356855
2682.162633,-3447.429741,-2368.659014,9918.759623
2682.162962,-3447.429741,-3849.070898,9992.780217
2682.163291,-2298.286494,-2590.720797,11621.233289
2682.163620,995.924147,-1998.556043,10288.862594
2682.163949,3294.210641,888.247130,8216.285956
2682.164278,3140.991542,1258.350101,6735.874072
2682.164607,2987.772442,1554.432478,7624.121203
2682.164936,3140.991542,1702.473667,7624.121203
2682.165265,3370.820191,3256.906145,6513.812290
2682.165595,3294.210641,1332.370696,7476.080014
2682.165924,2374.896044,740.205942,7994.224174
2682.166253,2451.505594,1628.453072,7624.121203
2682.166582,-842.705048,-1480.411884,9326.594869
2682.166911,-3140.991542,-2516.700203,10732.986159
2682.167240,-2681.334243,-2146.597232,11843.295072
2682.167569,-2145.067394,-4737.318029,12287.418637
2682.167898,-3600.648841,-962.267725,8882.471304
2682.168228,-2681.334243,-814.226536,12435.459826
2682.168557,-229.828649,-814.226536,11547.212695
2682.168886,459.657299,2664.741391,9104.533087
2682.169215,2987.772442,1554.432478,8364.327145
2682.169544,3217.601092,2368.659014,7994.224174
2682.169873,3140.991542,2294.638420,8512.368333
2682.170202,3753.867940,2590.720797,6587.832884
2682.170531,2298.286494,2368.659014,7105.977043
2682.170861,1838.629195,888.247130,9030.512492
2682.171190,2604.724693,2590.720797,6735.874072
2682.171519,2757.943793,4071.132681,7772.162391
2682.171848,76.609550,666.185348,8142.265362
2682.172177,-2145.067394,-962.267725,10288.862594
2682.172506,-2145.067394,-2516.700203,11399.171507
2682.172835,-2911.162892,-3256.906145,11325.150913
2682.173164,-3753.867940,-3775.050304,11251.130318
2682.173494,-3830.477490,-2738.761985,11621.233289
2682.173823,-1532.190996,-1554.432478,11177.109724
2682.174152,-459.657299,1110.308913,8586.388927
2682.174481,919.314598,888.247130,7994.224174
2682.174810,2528.115143,518.144159,7994.224174
2682.175139,4136.915689,1998.556043,7624.121203
2682.175468,3217.601092,1850.514855,7328.038826
2682.175797,1991.848295,1776.494261,6439.791695
2682.176127,2068.457845,592.164754,8290.306550
2682.176456,2145.067394,740.205942,8512.368333
2682.176785,229.828649,-296.082377,9178.553681
2682.177114,-1685.410096,-1998.556043,9770.718434
2682.177443,-2911.162892,-3182.885551,11103.089130
2682.177772,-2374.896044,-4219.173869,12435.459826
2682.178101,-3447.429741,-2664.741391,10288.862594
2682.178430,-2604.724693,-1924.535449,10955.047942
2682.178760,-1455.581446,-888.247130,10214.842000
2682.179089,0.000000,-518.144159,9030.512492
2682.179418,1302.362347,1850.514855,8586.388927
2682.179747,2374.896044,-0.000000,7550.100608
2682.180076,3370.820191,518.144159,7402.059420
2682.180405,3677.258390,1702.473667,7105.977043
2682.180734,3524.039291,1110.308913,7031.956449
2682.181063,1915.238745,1332.370696,7105.977043
2682.181393,1915.238745,2220.617826,8216.285956
2682.181722,2298.286494,1776.494261,7105.977043
2682.182051,-612.876398,-666.185348,8364.327145
2682.182380,-1455.581446,-1110.308913,10362.883188
2682.182709,-1608.800546,-2368.659014,10584.944971
2682.183038,-2451.505594,-3627.009116,11843.295072
2682.183367,-2987.772442,-1628.453072,9622.677246
2682.183696,-1762.019645,-2146.597232,10732.986159
2682.184026,0.000000,-0.000000,9622.677246
2682.184355,1915.238745,666.185348,7846.182985
2682.184684,1915.238745,592.164754,7772.162391
2682.185013,2451.505594,1406.391290,7994.224174
2682.185342,3677.258390,1110.308913,8068.244768
2682.185671,3217.601092,2146.597232,6143.709319
2682.186000,1915.238745,888.247130,7179.997637
2682.186329,1915.238745,296.082377,8364.327145
2682.186658,383.047749,-0.000000,9104.533087
2682.186988,-383.047749,-666.185348,9474.636058
2682.187317,-2374.896044,-2146.597232,10362.883188
2682.187646,-2604.724693,-2368.659014,11029.068536
2682.187975,-2528.115143,-4145.153275,11769.274478
2682.188304,-2834.553343,-2442.679609,10510.924376
2682.188633,-2987.772442,-2664.741391,10510.924376
2682.188962,-1302.362347,-1110.308913,11029.068536
2682.189291,919.314598,370.102971,9326.594869
2682.189621,1532.190996,592.164754,7772.162391
2682.189950,1762.019645,296.082377,7920.203579
2682.190279,2681.334243,444.123565,8438.347739
2682.190608,3140.991542,962.267725,7698.141797
2682.190937,3217.601092,1480.411884,7179.997637
2682.191266,1608.800546,814.226536,8068.244768
2682.191595,1072.533697,666.185348,9548.656652
2682.191924,536.266849,370.102971,8068.244768
2682.192254,-919.314598,-1110.308913,9104.533087
2682.192583,-2068.457845,-740.205942,9770.718434
2682.192912,-2068.457845,-2294.638420,11177.109724
2682.193241,-2145.067394,-1998.556043,10807.006753
2682.193570,-1915.238745,-1628.453072,9844.739029
2682.193899,-995.924147,-962.267725,9400.615463
2682.194228,383.047749,-592.164754,8882.471304
2682.194557,1532.190996,962.267725,8142.265362
2682.194887,2145.067394,1480.411884,7698.141797
2682.195216,2604.724693,1036.288319,8216.285956
2682.195545,2681.334243,2146.597232,8364.327145
2682.195874,3217.601092,2368.659014,7179.997637
2682.196203,2834.553343,2220.617826,7105.977043
2682.196532,1762.019645,1702.473667,8438.347739
2682.196861,2451.505594,2664.741391,7698.141797
2682.197190,1302.362347,1110.308913,8216.285956
2682.197520,-689.485948,-0.000000,9400.615463
2682.197849,-1608.800546,-1258.350101,9696.697840
2682.198178,-2145.067394,-2590.720797,11843.295072
2682.198507,-2374.896044,-3627.009116,10510.924376
2682.198836,-3140.991542,-2220.617826,10658.965565
2682.199165,-2068.457845,-1554.432478,10510.924376
2682.199494,-1149.143247,-0.000000,9622.677246
2682.199823,459.657299,666.185348,8438.347739
2682.200153,919.314598,740.205942,8512.368333
2682.200482,1685.410096,592.164754,9252.574275
2682.200811,2681.334243,518.144159,8216.285956
2682.201140,2681.334243,-666.185348,7328.038826
2682.201469,1762.019645,-74.020594,8068.244768
2682.201798,1225.752797,-0.000000,8586.388927
2682.202127,995.924147,296.082377,8882.471304
2682.202456,-995.924147,-148.041188,8142.265362
2682.202786,-1762.019645,-666.185348,9178.553681
2682.203115,-1915.238745,-1702.473667,10955.047942
2682.203444,-2451.505594,-2368.659014,10288.862594
2682.203773,-2451.505594,-2368.659014,9770.718434
2682.204102,-2451.505594,-2442.679609,10214.842000
2682.204431,-1302.362347,-1776.494261,10362.883188
2682.204760,536.266849,-1480.411884,9622.677246
2682.205089,689.485948,-740.205942,7328.038826
2682.205418,1685.410096,444.123565,7994.224174
2682.205748,2834.553343,814.226536,8808.450710
2682.206077,3294.210641,1258.350101,7550.100608
2682.206406,2987.772442,1924.535449,7476.080014
2682.206735,1915.238745,1776.494261,7920.203579
2682.207064,1838.629195,1480.411884,7920.203579
2682.207393,1762.019645,2294.638420,8438.347739
2682.207722,612.876398,444.123565,8734.430116
2682.208051,-1225.752797,-740.205942,10288.862594
2682.208381,-919.314598,-1850.514855,11251.130318
2682.208710,-1225.752797,-1998.556043,10288.862594
2682.209039,-2298.286494,-1332.370696,9918.759623
2682.209368,-1838.629195,-1184.329507,10658.965565
2682.209697,-153.219100,-370.102971,9622.677246
2682.210026,689.485948,814.226536,9548.656652
2682.210355,1149.143247,888.247130,8438.347739
2682.210684,1991.848295,518.144159,8882.471304
2682.211014,2681.334243,962.267725,9104.533087
2682.211343,3370.820191,740.205942,8438.347739
2682.211672,1991.848295,296.082377,7772.162391
2682.212001,1378.971896,296.082377,9474.636058
2682.212330,1915.238745,1332.370696,8438.347739
2682.212659,536.266849,444.123565,8142.265362
2682.212988,-612.876398,296.082377,8734.430116
2682.213317,-995.924147,-1628.453072,10066.800811
2682.213647,-1532.190996,-2072.576638,10140.821405
2682.213976,-2374.896044,-2072.576638,9474.636058
2682.214305,-2528.115143,-2368.659014,9992.780217
2682.214634,-2451.505594,-2072.576638,10288.862594
2682.214963,-689.485948,-592.164754,9696.697840
2682.215292,0.000000,-888.247130,8290.306550
2682.215621,0.000000,-222.061783,8586.388927
2682.215950,1991.848295,-296.082377,8882.471304
2682.216280,2911.162892,-592.164754,7772.162391
2682.216609,2145.067394,666.185348,7846.182985
2682.216938,2068.457845,444.123565,8512.368333
2682.217267,1532.190996,1332.370696,8956.491898
2682.217596,1455.581446,1184.329507,7920.203579
2682.217925,689.485948,962.267725,8216.285956
2682.218254,-459.657299,-0.000000,9548.656652
2682.218583,-459.657299,-740.205942,9992.780217
2682.218913,-766.095498,-1110.308913,10066.800811
2682.219242,-1378.971896,-1332.370696,10066.800811
2682.219571,-1762.019645,-1332.370696,10140.821405
2682.219900,-842.705048,-444.123565,10362.883188
2682.220229,0.000000,-148.041188,9104.533087
2682.220558,76.609550,814.226536,8956.491898
2682.220887,536.266849,1554.432478,9030.512492
2682.221216,1838.629195,370.102971,9252.574275
2682.221546,2145.067394,1776.494261,8438.347739
2682.221875,1838.629195,1554.432478,8734.430116
2682.222204,1532.190996,1258.350101,9178.553681
2682.222533,1838.629195,1628.453072,8438.347739
2682.222862,1608.800546,1480.411884,8882.471304
2682.223191,229.828649,1036.288319,8438.347739
2682.223520,-383.047749,666.185348,9770.718434
2682.223849,0.000000,-444.123565,8956.491898
2682.224179,-612.876398,-1480.411884,9252.574275
2682.224508,-1838.629195,-592.164754,9548.656652
2682.224837,-1608.800546,-1924.535449,9992.780217
2682.225166,-919.314598,-1332.370696,9918.759623
2682.225495,-1072.533697,-1184.329507,8290.306550
2682.225824,-536.266849,-1036.288319,8956.491898
2682.226153,459.657299,-1036.288319,9622.677246
2682.226482,1225.752797,-444.123565,8142.265362
2682.226811,1455.581446,-518.144159,8068.244768
2682.227141,995.924147,518.144159,7920.203579
2682.227470,1149.143247,-148.041188,9030.512492
2682.227799,1302.362347,666.185348,7772.162391
2682.228128,459.657299,444.123565,8364.327145
2682.228457,-536.266849,-222.061783,8882.471304
2682.228786,-612.876398,-1480.411884,9474.636058
2682.229115,-306.438199,-2368.659014,9696.697840
2682.229444,-1072.533697,-2368.659014,9400.615463
2682.229774,-1378.971896,-2220.617826,9622.677246
2682.230103,-612.876398,-1628.453072,9918.759623
2682.230432,0.000000,-592.164754,9696.697840
2682.230761,459.657299,296.082377,8142.265362
2682.231090,612.876398,-0.000000,9474.636058
2682.231419,1685.410096,-0.000000,9918.759623
2682.231748,2528.115143,370.102971,8364.327145
2682.232077,1991.848295,1258.350101,8364.327145
2682.232407,1838.629195,74.020594,9104.533087
2682.232736,2221.676944,962.267725,9548.656652
2682.233065,1608.800546,888.247130,8660.409521
2682.233394,689.485948,962.267725,8660.409521
2682.233723,229.828649,666.185348,9474.636058
2682.234052,229.828649,-222.061783,9992.780217
2682.234381,153.219100,-518.144159,10140.821405
2682.234710,-229.828649,-296.082377,9474.636058
2682.235040,-766.095498,-1110.308913,10436.903782
2682.235369,76.609550,-148.041188,9474.636058
2682.235698,306.438199,592.164754,9104.533087
2682.236027,536.266849,1480.411884,7994.224174
2682.236356,842.705048,666.185348,9178.553681
2682.236685,1455.581446,666.185348,9178.553681
2682.237014,1685.410096,592.164754,7698.141797
2682.237343,1072.533697,1110.308913,8956.491898
2682.237673,459.657299,-370.102971,9474.636058
2682.238002,229.828649,222.061783,9326.594869
2682.238331,-229.828649,296.082377,8586.388927
2682.238660,-919.314598,-444.123565,9178.553681
2682.238989,-842.705048,-1036.288319,9992.780217
2682.239318,0.000000,-1924.535449,10288.862594
2682.239647,-153.219100,-1184.329507,9178.553681
2682.239976,-1072.533697,-1776.494261,9548.656652
2682.240306,-383.047749,-1332.370696,9844.739029
2682.240635,383.047749,-296.082377,8734.430116
2682.240964,536.266849,444.123565,7920.203579
2682.241293,383.047749,-222.061783,8660.409521
2682.241622,689.485948,-222.061783,9326.594869
2682.241951,1532.190996,-1258.350101,9178.553681
2682.242280,76.609550,-444.123565,7772.162391
2682.242609,-76.609550,-296.082377,9326.594869
2682.242939,-383.047749,-888.247130,9992.780217
2682.243268,0.000000,-592.164754,9030.512492
2682.243597,-306.438199,-0.000000,8660.409521
2682.243926,0.000000,-666.185348,9104.533087
2682.244255,0.000000,-296.082377,9622.677246
2682.244584,1149.143247,-0.000000,10066.800811
2682.244913,1149.143247,-296.082377,8438.347739
2682.245242,1149.143247,-444.123565,9104.533087
2682.245572,1685.410096,666.185348,9400.615463
2682.245901,1915.238745,2072.576638,7698.141797
2682.246230,1149.143247,1776.494261,7920.203579
2682.246559,1149.143247,1554.432478,8660.409521
2682.246888,1762.019645,666.185348,9104.533087
2682.247217,1532.190996,814.226536,9474.636058
2682.247546,76.609550,444.123565,8808.450710
2682.247876,-383.047749,74.020594,9400.615463
2682.248205,0.000000,-518.144159,10066.800811
2682.248534,0.000000,-0.000000,9622.677246
2682.248863,-689.485948,-814.226536,9400.615463
2682.249192,0.000000,-444.123565,9548.656652
2682.249521,919.314598,-0.000000,9104.533087
2682.249850,842.705048,666.185348,8438.347739
2682.250180,689.485948,592.164754,8956.491898
2682.250509,1302.362347,-888.247130,9474.636058
2682.250838,1302.362347,-0.000000,9030.512492
2682.251167,1302.362347,296.082377,8216.285956
2682.251496,995.924147,-962.267725,8290.306550
2682.251825,0.000000,-370.102971,9474.636058
2682.252154,536.266849,-1406.391290,9992.780217
2682.252484,-383.047749,-1924.535449,9104.533087
2682.252813,-1455.581446,-1036.288319,9400.615463
2682.253142,-689.485948,-1776.494261,10214.842000
2682.253471,-459.657299,-592.164754,9918.759623
2682.253800,-459.657299,-814.226536,8808.450710
2682.254129,-612.876398,-1406.391290,8734.430116
2682.254458,0.000000,-666.185348,9992.780217
2682.254788,919.314598,-1258.350101,9474.636058
2682.255117,689.485948,-1406.391290,8438.347739
2682.255446,1302.362347,-518.144159,8734.430116
2682.255775,2528.115143,-666.185348,9030.512492
2682.256104,2068.457845,1110.308913,7994.224174
2682.256433,766.095498,814.226536,8364.327145
2682.256762,919.314598,1332.370696,8438.347739
2682.257092,919.314598,518.144159,9252.574275
2682.257421,995.924147,-296.082377,8882.471304
2682.257750,0.000000,-1110.308913,8808.450710
2682.258079,-766.095498,-740.205942,9992.780217
2682.258408,-459.657299,-1258.350101,9918.759623
2682.258737,-306.438199,-518.144159,9030.512492
2682.259066,-919.314598,666.185348,8660.409521
2682.259396,0.000000,666.185348,9104.533087
2682.259725,612.876398,888.247130,8882.471304
2682.260054,1225.752797,666.185348,8216.285956
2682.260383,1302.362347,1554.432478,8290.306550
2682.260712,1072.533697,148.041188,9326.594869
2682.261041,1762.019645,518.144159,9400.615463
2682.261370,1762.019645,1480.411884,8512.368333
2682.261700,612.876398,1258.350101,7994.224174
2682.262029,766.095498,370.102971,8734.430116
2682.262358,766.095498,296.082377,9474.636058
2682.262687,-306.438199,-592.164754,9400.615463
2682.263016,-1685.410096,-296.082377,9548.656652
2682.263345,-1608.800546,-592.164754,9992.780217
2682.263674,-1302.362347,-962.267725,9844.739029
2682.264004,-1991.848295,-814.226536,9326.594869
2682.264333,-1991.848295,-1554.432478,9844.739029
2682.264662,-1072.533697,-2368.659014,10214.842000
2682.264991,0.000000,-1332.370696,9400.615463
2682.265320,689.485948,-1480.411884,8808.450710
2682.265649,766.095498,-666.185348,9104.533087
2682.265978,1685.410096,-296.082377,8956.491898
2682.266308,2145.067394,888.247130,7698.141797
2682.266637,1608.800546,888.247130,7328.038826
2682.266966,1302.362347,888.247130,8068.244768
2682.267295,766.095498,-444.123565,9252.574275
2682.267624,1378.971896,-518.144159,8956.491898
2682.267953,306.438199,-1998.556043,9030.512492
2682.268282,-1455.581446,-1776.494261,9622.677246
2682.268612,-1685.410096,-2220.617826,10584.944971
2682.268941,-1225.752797,-1184.329507,9992.780217
2682.269270,-1532.190996,-1258.350101,9104.533087
2682.269599,-995.924147,-1036.288319,9400.615463
2682.269928,76.609550,-666.185348,9178.553681
2682.270257,1072.533697,-222.061783,9252.574275
2682.270586,1455.581446,148.041188,8068.244768
2682.270916,2145.067394,-0.000000,9104.533087
2682.271245,2604.724693,1110.308913,8290.306550
2682.271574,3294.210641,1480.411884,7920.203579
2682.271903,2528.115143,1332.370696,7846.182985
2682.272232,2451.505594,962.267725,8290.306550
2682.272561,2604.724693,2960.823768,8438.347739
2682.272890,2451.505594,1480.411884,7698.141797
2682.273220,459.657299,1258.350101,8290.306550
2682.273549,-153.219100,-444.123565,9992.780217
2682.273878,-689.485948,-740.205942,9474.636058
2682.274207,-1378.971896,-1628.453072,9770.718434
2682.274536,-2834.553343,-1184.329507,10140.821405
2682.274865,-2451.505594,-2664.741391,11473.192101
2682.275194,-1762.019645,-1776.494261,10807.006753
2682.275524,-842.705048,-740.205942,9474.636058
2682.275853,229.828649,-222.061783,9104.533087
2682.276182,1532.190996,-74.020594,10066.800811
2682.276511,2757.943793,888.247130,8512.368333
2682.276840,2757.943793,1480.411884,7179.997637
2682.277169,1685.410096,1332.370696,7698.141797
2682.277498,2221.676944,962.267725,8438.347739
2682.277828,2604.724693,1406.391290,7550.100608
2682.278157,1455.581446,666.185348,7179.997637
2682.278486,-536.266849,-222.061783,9400.615463
2682.278815,-1838.629195,-1480.411884,10362.883188
2682.279144,-2145.067394,-1776.494261,9770.718434
2682.279473,-3677.258390,-2294.638420,10214.842000
2682.279802,-3907.087040,-2368.659014,10955.047942
2682.280132,-3217.601092,-2664.741391,11103.089130
2682.280461,-2451.505594,-2664.741391,10584.944971
2682.280790,-1302.362347,-1776.494261,9326.594869
2682.281119,0.000000,-1702.473667,9918.759623
2682.281448,2757.943793,370.102971,9474.636058
2682.281777,3753.867940,1480.411884,6883.915261
2682.282106,2911.162892,1184.329507,8142.265362
2682.282436,1991.848295,1554.432478,8290.306550
2682.282765,2604.724693,2442.679609,7698.141797
2682.283094,3447.429741,2664.741391,7476.080014
2682.283423,2681.334243,1480.411884,7031.956449
2682.283752,1149.143247,2072.576638,8068.244768
2682.284081,1685.410096,1776.494261,7624.121203
2682.284411,842.705048,148.041188,8438.347739
2682.284740,-1762.019645,-1998.556043,10288.862594
2682.285069,-2145.067394,-2442.679609,10510.924376
2682.285398,-2604.724693,-2146.597232,11769.274478
2682.285727,-2451.505594,-3775.050304,11695.253884
2682.286056,-3370.820191,-2368.659014,9918.759623
2682.286385,-383.047749,-2294.638420,11843.295072
2682.286715,1149.143247,666.185348,9030.512492
2682.287044,2374.896044,2220.617826,7994.224174
2682.287373,2911.162892,1924.535449,7772.162391
2682.287702,3600.648841,1480.411884,8586.388927
2682.288031,3830.477490,2368.659014,8512.368333
2682.288360,2374.896044,2738.761985,6143.709319
2682.288689,1915.238745,1184.329507,8068.244768
2682.289019,1685.410096,1924.535449,7105.977043
2682.289348,2145.067394,2738.761985,7402.059420
2682.289677,459.657299,-0.000000,8290.306550
2682.290006,-2451.505594,-3701.029710,10066.800811
2682.290335,-2451.505594,-4071.132681,11325.150913
2682.290664,-2987.772442,-4145.153275,11473.192101
2682.290993,-4213.525239,-5033.400406,11769.274478
2682.291323,-4443.353888,-2516.700203,10436.903782
2682.291652,-1455.581446,-2220.617826,11473.192101
2682.291981,0.000000,-222.061783,9548.656652
2682.292310,1455.581446,962.267725,7476.080014
2682.292639,3294.210641,-222.061783,8068.244768
2682.292968,3983.696590,962.267725,8216.285956
2682.293297,3983.696590,1332.370696,6809.894666
2682.293627,2068.457845,1184.329507,5255.462188
2682.293956,1455.581446,1258.350101,8364.327145
2682.294285,1532.190996,1036.288319,8142.265362
2682.294614,2145.067394,1850.514855,6957.935855
2682.294943,-842.705048,-1036.288319,8882.471304
2682.295272,-2451.505594,-3923.091493,11695.253884
2682.295601,-2604.724693,-2442.679609,11325.150913
2682.295931,-2528.115143,-4811.338623,11843.295072
2682.296260,-3830.477490,-2220.617826,9992.780217
2682.296589,-1455.581446,-1776.494261,11991.336260
2682.296918,229.828649,-518.144159,9474.636058
2682.297247,2068.457845,1702.473667,8882.471304
2682.297576,2374.896044,1554.432478,7920.203579
2682.297905,4519.963438,888.247130,7772.162391
2682.298235,3140.991542,2146.597232,7994.224174
2682.298564,2757.943793,2516.700203,6883.915261
2682.298893,1149.143247,2886.803174,7105.977043
2682.299222,1608.800546,1258.350101,8068.244768
2682.299551,1915.238745,2516.700203,7846.182985
2682.299880,1915.238745,1628.453072,6661.853478
2682.300209,-536.266849,-1184.329507,8808.450710
2682.300539,-1915.238745,-2738.761985,11695.253884
2682.300868,-2451.505594,-2146.597232,10955.047942
2682.301197,-3140.991542,-4071.132681,11473.192101
2682.301526,-4060.306139,-2072.576638,10510.924376
2682.301855,-1532.190996,-1406.391290,12805.562797
2682.302184,536.266849,-0.000000,9030.512492
2682.302513,1455.581446,2146.597232,7994.224174
2682.302843,1915.238745,1110.308913,8660.409521
2682.303172,3064.381992,1258.350101,8734.430116
2682.303501,3370.820191,1332.370696,7994.224174
2682.303830,2451.505594,1628.453072,5773.606348
2682.304159,1072.533697,1258.350101,7624.121203
2682.304488,1838.629195,1258.350101,8512.368333
2682.304817,1455.581446,1110.308913,6661.853478
2682.305147,-536.266849,-962.267725,9474.636058
2682.305476,-2757.943793,-2812.782580,9918.759623
2682.305805,-2834.553343,-2960.823768,11325.150913
2682.306134,-2834.553343,-4219.173869,11769.274478
2682.306463,-3370.820191,-2368.659014,9918.759623
2682.306792,-2451.505594,-2294.638420,10732.986159
2682.307121,-459.657299,-1258.350101,9770.718434
2682.307451,1225.752797,296.082377,8734.430116
2682.307780,2221.676944,592.164754,8364.327145
2682.308109,2757.943793,592.164754,7920.203579
2682.308438,3370.820191,1184.329507,8216.285956
2682.308767,3064.381992,1332.370696,7476.080014
2682.309096,2145.067394,2368.659014,7476.080014
2682.309425,1608.800546,1406.391290,8216.285956
2682.309755,1685.410096,2516.700203,7328.038826
2682.310084,1225.752797,3034.844362,7550.100608
2682.310413,766.095498,1480.411884,7402.059420
2682.310742,-383.047749,-1184.329507,9770.718434
2682.311071,-1302.362347,-2960.823768,11991.336260
2682.311400,-2145.067394,-2516.700203,10955.047942
2682.311729,-2681.334243,-2738.761985,10881.027347
2682.312059,-2298.286494,-1924.535449,10658.965565
2682.312388,-383.047749,666.185348,11547.212695
2682.312717,459.657299,962.267725,8216.285956
2682.313046,383.047749,1406.391290,7994.224174
2682.313375,2528.115143,1776.494261,9104.533087
2682.313704,4213.525239,2294.638420,8512.368333
2682.314033,3140.991542,1554.432478,7105.977043
2682.314363,1455.581446,888.247130,7105.977043
2682.314692,1378.971896,962.267725,7846.182985
2682.315021,1762.019645,1554.432478,7476.080014
2682.315350,0.000000,296.082377,7402.059420
2682.315679,-766.095498,-1776.494261,9474.636058
2682.316008,-2298.286494,-2368.659014,10584.944971
2682.316337,-2451.505594,-3330.926739,11473.192101
2682.316667,-2987.772442,-3552.988522,9918.759623
2682.316996,-3447.429741,-2516.700203,10584.944971
2682.317325,-2374.896044,-2294.638420,11473.192101
2682.317654,-153.219100,-0.000000,9104.533087
2682.317983,612.876398,296.082377,7846.182985
2682.318312,2145.067394,740.205942,8660.409521
2682.318641,3294.210641,296.082377,8660.409521
2682.318971,3600.648841,296.082377,7994.224174
2682.319300,2528.115143,888.247130,7105.977043
2682.319629,2068.457845,1258.350101,7624.121203
2682.319958,1991.848295,2294.638420,8586.388927
2682.320287,2374.896044,1258.350101,8290.306550
2682.320616,-612.876398,-814.226536,8882.471304
2682.320945,-1302.362347,-2368.659014,10732.986159
2682.321275,-1685.410096,-2590.720797,11251.130318
2682.321604,-1685.410096,-3182.885551,10807.006753
2682.321933,-2451.505594,-2146.597232,10436.903782
2682.322262,-1225.752797,-1406.391290,10807.006753
2682.322591,306.438199,-296.082377,9992.780217
2682.322920,1915.238745,962.267725,8068.244768
2682.323249,1915.238745,814.226536,7994.224174
2682.323579,2451.505594,1406.391290,9104.533087
2682.323908,3370.820191,1406.391290,8438.347739
2682.324237,3294.210641,2220.617826,7179.997637
2682.324566,1762.019645,1332.370696,7920.203579
2682.324895,1915.238745,1554.432478,8882.471304
2682.325224,2145.067394,1702.473667,7254.018232
2682.325554,1378.971896,2072.576638,7402.059420
2682.325883,919.314598,518.144159,7624.121203
2682.326212,-153.219100,-1258.350101,9622.677246
2682.326541,-995.924147,-2664.741391,10584.944971
2682.326870,-1838.629195,-2072.576638,10066.800811
2682.327199,-2374.896044,-2886.803174,11029.068536
2682.327528,-1608.800546,-1628.453072,9992.780217
2682.327858,-536.266849,444.123565,9622.677246
2682.328187,-229.828649,666.185348,9030.512492
2682.328516,306.438199,666.185348,8734.430116
2682.328845,2221.676944,-0.000000,8586.388927
2682.329174,3294.210641,518.144159,8142.265362
2682.329503,2451.505594,370.102971,7550.100608
2682.329832,766.095498,518.144159,7846.182985
2682.330162,1225.752797,370.102971,8068.244768
2682.330491,842.705048,444.123565,7772.162391
2682.330820,-383.047749,-222.061783,8142.265362
2682.331149,-1608.800546,-962.267725,10436.903782
2682.331478,-1455.581446,-2516.700203,10881.027347
2682.331807,-1915.238745,-2442.679609,10214.842000
2682.332136,-3983.696590,-2442.679609,10362.883188
2682.332466,-2145.067394,-2590.720797,12065.356855
2682.332795,-1225.752797,-1406.391290,10214.842000
2682.333124,153.219100,148.041188,8438.347739
2682.333453,536.266849,814.226536,7994.224174
2682.333782,1455.581446,666.185348,9178.553681
2682.334111,2681.334243,-148.041188,8882.471304
2682.334440,3217.601092,370.102971,7624.121203
2682.334770,2068.457845,592.164754,7402.059420
2682.335099,1685.410096,962.267725,8586.388927
2682.335428,1378.971896,1628.453072,8216.285956
2682.335757,919.314598,740.205942,8734.430116
2682.336086,-229.828649,-0.000000,8882.471304
2682.336415,-383.047749,-1554.432478,9770.718434
2682.336744,-536.266849,-888.247130,10658.965565
2682.337074,-1532.190996,-444.123565,9992.780217
2682.337403,-2374.896044,-962.267725,9992.780217
2682.337732,-1302.362347,-814.226536,9992.780217
2682.338061,0.000000,592.164754,8734.430116
2682.338390,306.438199,962.267725,7994.224174
2682.338719,842.705048,-0.000000,8290.306550
2682.339048,1838.629195,888.247130,8512.368333
2682.339378,2528.115143,-74.020594,8216.285956
2682.339707,1762.019645,-0.000000,8586.388927
2682.340036,1302.362347,296.082377,8142.265362
2682.340365,919.314598,370.102971,8882.471304
2682.340694,536.266849,1332.370696,8216.285956
2682.341023,-536.266849,666.185348,8290.306550
2682.341352,-766.095498,-740.205942,9918.759623
2682.341682,-995.924147,-962.267725,10214.842000
2682.342011,-689.485948,-1554.432478,9696.697840
2682.342340,-1455.581446,-1036.288319,9326.594869
2682.342669,-1608.800546,-1850.514855,10288.862594
2682.342998,-306.438199,-1258.350101,10214.842000
2682.343327,0.000000,-148.041188,9104.533087
2682.343656,229.828649,-0.000000,8364.327145
2682.343986,612.876398,296.082377,9548.656652
2682.344315,1532.190996,296.082377,9252.574275
2682.344644,1838.629195,518.144159,8438.347739
2682.344973,1608.800546,1184.329507,8808.450710
2682.345302,1378.971896,740.205942,8882.471304
2682.345631,1455.581446,370.102971,9696.697840
2682.345960,689.485948,-0.000000,8586.388927
2682.346290,459.657299,-370.102971,8660.409521
2682.346619,0.000000,-370.102971,10140.821405
2682.346948,0.000000,-444.123565,9992.780217
2682.347277,0.000000,-0.000000,9104.533087
2682.347606,-919.314598,296.082377,8882.471304
2682.347935,-459.657299,-592.164754,9844.739029
2682.348264,536.266849,-222.061783,9252.574275
2682.348593,919.314598,-370.102971,8068.244768
2682.348923,766.095498,-592.164754,8586.388927
2682.349252,1685.410096,-444.123565,9030.512492
2682.349581,1608.800546,148.041188,8734.430116
2682.349910,1608.800546,592.164754,8290.306550
2682.350239,612.876398,962.267725,8882.471304
2682.350568,1455.581446,666.185348,8882.471304
2682.350897,1685.410096,444.123565,8808.450710
2682.351226,689.485948,-0.000000,8808.450710
2682.351555,-536.266849,-296.082377,8882.471304
2682.351885,-306.438199,-1184.329507,9992.780217
2682.352214,-229.828649,-962.267725,9252.574275
2682.352543,-459.657299,-1924.535449,9474.636058
2682.352872,-1302.362347,-1924.535449,9474.636058
2682.353201,-229.828649,-1924.535449,9918.759623
2682.353530,383.047749,-1554.432478,8216.285956
2682.353859,0.000000,-370.102971,8216.285956
2682.354188,0.000000,-148.041188,9400.615463
2682.354517,459.657299,-962.267725,9178.553681
2682.354847,995.924147,-148.041188,8734.430116
2682.355176,842.705048,-296.082377,9030.512492
2682.355505,612.876398,-0.000000,8882.471304
2682.355834,919.314598,-740.205942,9696.697840
2682.356163,612.876398,148.041188,8512.368333
2682.356492,-536.266849,592.164754,8660.409521
2682.356821,-1072.533697,148.041188,9770.718434
2682.357150,-842.705048,-74.020594,9474.636058
2682.357479,-153.219100,-0.000000,8808.450710
2682.357809,-995.924147,-1258.350101,9030.512492
2682.358138,-459.657299,-1554.432478,10066.800811
2682.358467,76.609550,-1184.329507,9474.636058
2682.358796,383.047749,-74.020594,8512.368333
2682.359125,229.828649,518.144159,8438.347739
2682.359454,536.266849,148.041188,8808.450710
2682.359783,1072.533697,-222.061783,9474.636058
2682.360112,2374.896044,296.082377,8808.450710
2682.360441,1915.238745,814.226536,8142.265362
2682.360771,1302.362347,740.205942,8808.450710
2682.361100,1072.533697,962.267725,9104.533087
2682.361429,612.876398,666.185348,8512.368333
2682.361758,-1225.752797,666.185348,8512.368333
2682.362087,-383.047749,-666.185348,10066.800811
2682.362416,-383.047749,-370.102971,10584.944971
2682.362745,-383.047749,-1406.391290,9252.574275
2682.363074,-306.438199,-1110.308913,9474.636058
2682.363403,0.000000,-888.247130,9474.636058
2682.363733,612.876398,-296.082377,9104.533087
2682.364062,689.485948,370.102971,8068.244768
2682.364391,766.095498,518.144159,9326.594869
2682.364720,1532.190996,296.082377,9400.615463
2682.365049,1762.019645,888.247130,8216.285956
2682.365378,1378.971896,592.164754,9474.636058
2682.365707,842.705048,296.082377,9252.574275
2682.366036,383.047749,-296.082377,9992.780217
2682.366365,76.609550,-296.082377,9918.759623
2682.366695,-383.047749,-222.061783,8808.450710
2682.367024,-536.266849,-0.000000,9548.656652
2682.367353,-536.266849,-666.185348,10066.800811
2682.367682,153.219100,-222.061783,9178.553681
2682.368011,-612.876398,-74.020594,8956.491898
2682.368340,0.000000,-74.020594,8808.450710
2682.368669,536.266849,-148.041188,9252.574275
2682.368998,842.705048,296.082377,8660.409521
2682.369327,306.438199,-0.000000,8068.244768
2682.369656,1072.533697,-666.185348,8808.450710
2682.369986,919.314598,444.123565,8734.430116
2682.370315,995.924147,888.247130,8438.347739
2682.370644,229.828649,518.144159,8956.491898
2682.370973,76.609550,296.082377,9326.594869
2682.371302,76.609550,74.020594,9548.656652
2682.371631,0.000000,-222.061783,8734.430116
2682.371960,-306.438199,-0.000000,9474.636058
2682.372289,-383.047749,-518.144159,9622.677246
2682.372618,612.876398,-1036.288319,9622.677246
2682.372948,842.705048,-592.164754,8068.244768
2682.373277,459.657299,-222.061783,8660.409521
2682.373606,1225.752797,-0.000000,9474.636058
2682.373935,1608.800546,1258.350101,7920.203579
2682.374264,1378.971896,962.267725,8142.265362
2682.374593,689.485948,296.082377,8512.368333
2682.374922,842.705048,-444.123565,9326.594869
2682.375251,766.095498,-814.226536,9474.636058
2682.375580,229.828649,-1332.370696,9030.512492
2682.375910,-842.705048,-1184.329507,9622.677246
2682.376239,0.000000,-1628.453072,10955.047942
2682.376568,-612.876398,-814.226536,9770.718434
2682.376897,-1072.533697,-296.082377,9622.677246
2682.377226,-1225.752797,296.082377,9474.636058
2682.377555,0.000000,-592.164754,9918.759623
2682.377884,842.705048,-0.000000,8364.327145
2682.378213,459.657299,-1110.308913,8512.368333
2682.378542,1225.752797,-666.185348,9474.636058
2682.378872,1302.362347,-666.185348,8808.450710
2682.379201,1532.190996,222.061783,7772.162391
2682.379530,842.705048,962.267725,7550.100608
2682.379859,536.266849,-0.000000,9030.512492
2682.380188,383.047749,444.123565,9548.656652
2682.380517,842.705048,-148.041188,8364.327145
2682.380846,-1072.533697,-370.102971,8956.491898
2682.381175,-919.314598,-1036.288319,10214.842000
2682.381504,-842.705048,-2072.576638,10066.800811
2682.381834,-995.924147,-1776.494261,9104.533087
2682.382163,-1149.143247,-740.205942,8956.491898
2682.382492,-612.876398,-666.185348,9474.636058
2682.382821,229.828649,296.082377,9474.636058
2682.383150,919.314598,-0.000000,7846.182985
2682.383479,919.314598,444.123565,7994.224174
2682.383808,1149.143247,222.061783,9252.574275
2682.384137,2068.457845,814.226536,7994.224174
2682.384466,1991.848295,888.247130,7476.080014
2682.384796,1225.752797,814.226536,8438.347739
2682.385125,1149.143247,-148.041188,9104.533087
2682.385454,1072.533697,-148.041188,9474.636058
2682.385783,842.705048,-148.041188,8142.265362
2682.386112,-229.828649,-222.061783,9622.677246
2682.386441,-842.705048,-666.185348,10881.027347
2682.386770,-459.657299,-666.185348,9622.677246
2682.387099,-766.095498,-666.185348,8882.471304
2682.387428,-1149.143247,-444.123565,9992.780217
2682.387758,459.657299,-222.061783,10140.821405
2682.388087,689.485948,-0.000000,9252.574275
2682.388416,919.314598,370.102971,8586.388927
2682.388745,1302.362347,518.144159,8734.430116
2682.389074,1838.629195,370.102971,9030.512492
2682.389403,2068.457845,1036.288319,8290.306550
2682.389732,1838.629195,1184.329507,7698.141797
2682.390061,919.314598,1258.350101,8142.265362
2682.390390,1225.752797,370.102971,9252.574275
2682.390720,1302.362347,222.061783,8882.471304
2682.391049,-383.047749,-444.123565,8956.491898
2682.391378,-1378.971896,-1036.288319,10288.862594
