#time,accel_x,accel_y,accel_z
2694.900632,0.000000,-0.000000,9474.636058
2694.900961,76.609550,-0.000000,9178.553681
2694.901290,306.438199,-222.061783,9104.533087
2694.901619,229.828649,-222.061783,9104.533087
2694.901949,536.266849,-74.020594,9178.553681
2694.902278,0.000000,-148.041188,9474.636058
2694.902607,689.485948,-296.082377,9252.574275
2694.902936,153.219100,-222.061783,8956.491898
2694.903265,153.219100,-74.020594,8808.450710
2694.903595,153.219100,-0.000000,8734.430116
2694.903924,383.047749,-0.000000,8956.491898
2694.904253,536.266849,-222.061783,8808.450710
2694.904582,229.828649,-296.082377,8808.450710
2694.904911,459.657299,-370.102971,8882.471304
2694.905241,229.828649,-0.000000,8882.471304
2694.905570,153.219100,-0.000000,8808.450710
2694.905899,229.828649,-148.041188,9104.533087
2694.906228,153.219100,-148.041188,8956.491898
2694.906557,0.000000,-222.061783,8956.491898
2694.906886,459.657299,-296.082377,8956.491898
2694.907216,306.438199,-148.041188,8956.491898
2694.907545,459.657299,-148.041188,8808.450710
2694.907874,383.047749,-148.041188,8734.430116
2694.908203,153.219100,-74.020594,9104.533087
2694.908532,229.828649,-148.041188,8882.471304
2694.908862,459.657299,-444.123565,9030.512492
2694.909191,536.266849,-296.082377,9252.574275
2694.909520,-689.485948,-148.041188,9400.615463
2694.909849,-229.828649,-74.020594,9400.615463
2694.910178,153.219100,-74.020594,9252.574275
2694.910508,153.219100,-222.061783,9178.553681
2694.910837,306.438199,-222.061783,9178.553681
2694.911166,612.876398,-0.000000,9326.594869
2694.911495,459.657299,-148.041188,9474.636058
2694.911824,-229.828649,-296.082377,9326.594869
2694.912153,612.876398,-0.000000,9326.594869
2694.912483,306.438199,-148.041188,9178.553681
2694.912812,229.828649,-74.020594,9178.553681
2694.913141,229.828649,-148.041188,9178.553681
2694.913470,383.047749,-222.061783,9178.553681
2694.913799,536.266849,-370.102971,9252.574275
2694.914129,0.000000,-444.123565,9104.533087
2694.914458,306.438199,-148.041188,8882.471304
2694.914787,306.438199,-148.041188,8882.471304
2694.915116,612.876398,-0.000000,8808.450710
2694.915445,383.047749,-0.000000,8956.491898
2694.915775,459.657299,-370.102971,8956.491898
2694.916104,536.266849,-0.000000,9104.533087
2694.916433,536.266849,-74.020594,9178.553681
2694.916762,0.000000,-74.020594,8956.491898
2694.917091,0.000000,-148.041188,9104.533087
2694.917420,76.609550,-222.061783,8956.491898
2694.917750,0.000000,-296.082377,8956.491898
2694.918079,76.609550,-296.082377,9252.574275
2694.918408,306.438199,-148.041188,9104.533087
2694.918737,0.000000,-296.082377,9252.574275
2694.919066,536.266849,-148.041188,9104.533087
2694.919396,459.657299,-74.020594,8956.491898
2694.919725,536.266849,-74.020594,8882.471304
2694.920054,459.657299,-0.000000,9104.533087
2694.920383,536.266849,-148.041188,9400.615463
2694.920712,612.876398,-222.061783,9104.533087
2694.921042,459.657299,-222.061783,9474.636058
2694.921371,229.828649,-222.061783,9400.615463
2694.921700,229.828649,-222.061783,9400.615463
2694.922029,229.828649,-370.102971,9178.553681
2694.922358,306.438199,-370.102971,9178.553681
2694.922687,229.828649,-222.061783,9400.615463
2694.923017,459.657299,-74.020594,9400.615463
2694.923346,766.095498,-222.061783,9326.594869
2694.923675,842.705048,-370.102971,8956.491898
2694.924004,612.876398,-0.000000,8956.491898
2694.924333,536.266849,-74.020594,9030.512492
2694.924663,459.657299,-0.000000,9030.512492
2694.924992,383.047749,-296.082377,8808.450710
2694.925321,459.657299,-296.082377,9400.615463
2694.925650,0.000000,-444.123565,9178.553681
2694.925979,306.438199,-0.000000,9030.512492
2694.926308,153.219100,-296.082377,8808.450710
2694.926638,229.828649,-222.061783,9104.533087
2694.926967,229.828649,-0.000000,8956.491898
2694.927296,612.876398,-296.082377,8882.471304
2694.927625,229.828649,-296.082377,8882.471304
2694.927954,612.876398,222.061783,8956.491898
2694.928284,229.828649,-0.000000,8660.409521
2694.928613,383.047749,-0.000000,8808.450710
2694.928942,153.219100,-222.061783,8956.491898
2694.929271,536.266849,-74.020594,8882.471304
2694.929600,612.876398,-222.061783,9178.553681
2694.929930,76.609550,-518.144159,8808.450710
2694.930259,229.828649,-148.041188,8956.491898
2694.930588,459.657299,-222.061783,9104.533087
2694.930917,76.609550,-148.041188,9252.574275
2694.931246,153.219100,-0.000000,9252.574275
2694.931575,689.485948,-740.205942,9696.697840
2694.931905,1455.581446,-1258.350101,9474.636058
2694.932234,1532.190996,-148.041188,9622.677246
2694.932563,1991.848295,-592.164754,9548.656652
2694.932892,2298.286494,-296.082377,8956.491898
2694.933221,2987.772442,296.082377,8734.430116
2694.933551,3600.648841,-0.000000,9252.574275
2694.933880,4213.525239,-74.020594,8586.388927
2694.934209,3064.381992,444.123565,9178.553681
2694.934538,2451.505594,592.164754,8660.409521
2694.934867,2757.943793,-222.061783,8956.491898
2694.935197,3140.991542,-0.000000,9474.636058
2694.935526,1838.629195,-814.226536,8882.471304
2694.935855,1455.581446,-1184.329507,10214.842000
2694.936184,2298.286494,-2294.638420,9622.677246
2694.936513,3064.381992,-740.205942,9326.594869
2694.936842,2298.286494,-666.185348,9770.718434
2694.937172,3447.429741,-888.247130,9326.594869
2694.937501,3600.648841,-0.000000,9030.512492
2694.937830,5056.230287,1110.308913,8734.430116
2694.938159,5056.230287,1036.288319,6957.935855
2694.938488,4290.134789,1702.473667,8882.471304
2694.938818,5515.887586,1258.350101,8364.327145
2694.939147,4136.915689,592.164754,7254.018232
2694.939476,4673.182538,370.102971,9326.594869
2694.939805,2528.115143,-518.144159,8290.306550
2694.940134,1991.848295,-74.020594,9400.615463
2694.940464,689.485948,-1554.432478,9474.636058
2694.940793,1455.581446,-888.247130,9474.636058
2694.941122,995.924147,-1850.514855,10288.862594
2694.941451,306.438199,-1110.308913,9992.780217
2694.941780,1838.629195,-370.102971,9770.718434
2694.942109,2987.772442,444.123565,9400.615463
2694.942439,3294.210641,444.123565,7476.080014
2694.942768,4366.744339,1184.329507,9992.780217
2694.943097,4443.353888,1184.329507,7846.182985
2694.943426,4596.572988,666.185348,8142.265362
2694.943755,3983.696590,592.164754,8882.471304
2694.944085,3753.867940,-0.000000,8438.347739
2694.944414,3064.381992,-296.082377,9030.512492
2694.944743,2528.115143,-1628.453072,9992.780217
2694.945072,1991.848295,-1110.308913,10288.862594
2694.945401,1608.800546,-2146.597232,10066.800811
2694.945731,2221.676944,-1776.494261,10214.842000
2694.946060,2068.457845,-1480.411884,10214.842000
2694.946389,2987.772442,-296.082377,9844.739029
2694.946718,3753.867940,-0.000000,8808.450710
2694.947047,4290.134789,1480.411884,8438.347739
2694.947376,4519.963438,2146.597232,8290.306550
2694.947706,4903.011187,2664.741391,7698.141797
2694.948035,4596.572988,2368.659014,7254.018232
2694.948364,4213.525239,2220.617826,8216.285956
2694.948693,4443.353888,1480.411884,7624.121203
2694.949022,3217.601092,-74.020594,8438.347739
2694.949352,2528.115143,-962.267725,9474.636058
2694.949681,2298.286494,-2664.741391,9992.780217
2694.950010,1838.629195,-2886.803174,10288.862594
2694.950339,1915.238745,-3256.906145,10584.944971
2694.950668,2757.943793,-2664.741391,10436.903782
2694.950997,3677.258390,-1628.453072,9918.759623
2694.951327,4749.792088,-0.000000,9474.636058
2694.951656,5745.716235,962.267725,8808.450710
2694.951985,5669.106685,2368.659014,8290.306550
2694.952314,4979.620737,2590.720797,7698.141797
2694.952643,4673.182538,3627.009116,7105.977043
2694.952973,4366.744339,3034.844362,7550.100608
2694.953302,3677.258390,2294.638420,6661.853478
2694.953631,2757.943793,370.102971,7920.203579
2694.953960,612.876398,-2960.823768,9992.780217
2694.954289,-995.924147,-3775.050304,10510.924376
2694.954619,-995.924147,-5107.421000,12509.480420
2694.954948,-842.705048,-4885.359217,11473.192101
2694.955277,-459.657299,-1702.473667,10732.986159
2694.955606,689.485948,-1406.391290,11177.109724
2694.955935,1991.848295,444.123565,10436.903782
2694.956264,5056.230287,1332.370696,9770.718434
2694.956594,7354.516781,1998.556043,8142.265362
2694.956923,6818.249932,1406.391290,8290.306550
2694.957252,5592.497135,962.267725,7698.141797
2694.957581,5822.325785,2590.720797,6735.874072
2694.957910,5975.544884,1480.411884,7179.997637
2694.958240,4903.011187,2664.741391,5329.482782
2694.958569,4826.401637,3404.947333,6809.894666
2694.958898,4290.134789,1628.453072,6661.853478
2694.959227,4519.963438,370.102971,6143.709319
2694.959556,1455.581446,-3997.112087,9030.512492
2694.959886,0.000000,-8290.306550,13249.686362
2694.960215,-2221.676944,-2442.679609,10140.821405
2694.960544,-766.095498,-7105.977043,14434.015869
2694.960873,-1915.238745,-3552.988522,10807.006753
2694.961202,1072.533697,1184.329507,11843.295072
2694.961531,3447.429741,-296.082377,10881.027347
2694.961861,4903.011187,2664.741391,8290.306550
2694.962190,7660.954980,740.205942,9548.656652
2694.962519,7814.174080,1850.514855,8290.306550
2694.962848,7431.126331,3997.112087,5699.585753
2694.963177,7584.345430,3478.967927,5847.626942
2694.963507,7277.907231,370.102971,5033.400406
2694.963836,7277.907231,2812.782580,5847.626942
2694.964165,6205.373534,666.185348,7550.100608
2694.964494,3753.867940,1924.535449,6291.750507
2694.964823,4519.963438,518.144159,7105.977043
2694.965153,1838.629195,-2664.741391,10362.883188
2694.965482,-1762.019645,-5477.523971,12435.459826
2694.965811,-2681.334243,-666.185348,12287.418637
2694.966140,-1302.362347,-6291.750507,13693.809927
2694.966469,-1149.143247,-2368.659014,10362.883188
2694.966798,1149.143247,1406.391290,12879.583391
2694.967128,1225.752797,-0.000000,10140.821405
2694.967457,-383.047749,1036.288319,13249.686362
2694.967786,6511.811733,-1258.350101,9770.718434
2694.968115,9806.022374,2146.597232,6809.894666
2694.968444,6741.640382,1554.432478,7254.018232
2694.968774,6511.811733,1258.350101,5551.544565
2694.969103,6281.983084,666.185348,7179.997637
2694.969432,6435.202183,296.082377,7254.018232
2694.969761,6205.373534,2516.700203,4663.297435
2694.970090,4749.792088,2738.761985,9992.780217
2694.970420,2528.115143,1406.391290,7105.977043
2694.970749,3907.087040,1258.350101,8956.491898
2694.971078,1762.019645,-888.247130,9474.636058
2694.971407,919.314598,-2738.761985,11769.274478
2694.971736,-919.314598,-1850.514855,11473.192101
2694.972065,-689.485948,-5329.482782,13545.768739
2694.972395,-1225.752797,-1258.350101,9326.594869
2694.972724,1762.019645,-0.000000,10955.047942
2694.973053,1915.238745,518.144159,8808.450710
2694.973382,3294.210641,1554.432478,8290.306550
2694.973711,4519.963438,962.267725,8290.306550
2694.974041,4366.744339,1850.514855,8068.244768
2694.974370,3907.087040,1406.391290,6883.915261
2694.974699,3907.087040,-370.102971,7476.080014
2694.975028,3524.039291,-1776.494261,8512.368333
2694.975358,2374.896044,-2368.659014,9548.656652
2694.975687,1685.410096,-2368.659014,10807.006753
2694.976016,1149.143247,-1332.370696,10436.903782
2694.976345,2221.676944,-814.226536,10362.883188
2694.976674,2528.115143,1258.350101,9918.759623
2694.977004,3217.601092,592.164754,9252.574275
2694.977333,3753.867940,1036.288319,9400.615463
2694.977662,4903.011187,1628.453072,8068.244768
2694.977991,6358.592633,1554.432478,7846.182985
2694.978321,4979.620737,1036.288319,8364.327145
2694.978650,4903.011187,-0.000000,7624.121203
2694.978979,4060.306139,-518.144159,8290.306550
2694.979308,3677.258390,-222.061783,7994.224174
2694.979638,2068.457845,-74.020594,9104.533087
2694.979967,383.047749,-888.247130,10510.924376
2694.980296,-153.219100,-1702.473667,10584.944971
2694.980625,153.219100,-1480.411884,10362.883188
2694.980954,919.314598,-2146.597232,10140.821405
2694.981284,0.000000,-1850.514855,10807.006753
2694.981613,1149.143247,-1480.411884,11547.212695
2694.981942,2834.553343,-0.000000,9474.636058
2694.982271,5209.449386,1702.473667,8142.265362
2694.982601,6588.421283,2072.576638,7920.203579
2694.982930,5515.887586,1184.329507,8882.471304
2694.983259,4443.353888,444.123565,9030.512492
2694.983588,5439.278036,2220.617826,6143.709319
2694.983917,6894.859482,296.082377,7624.121203
2694.984247,5592.497135,962.267725,7476.080014
2694.984576,4443.353888,1998.556043,8142.265362
2694.984905,5439.278036,-296.082377,8142.265362
2694.985234,4366.744339,-0.000000,6735.874072
2694.985564,1915.238745,-962.267725,10510.924376
2694.985893,2145.067394,-2294.638420,11991.336260
2694.986222,0.000000,-222.061783,9918.759623
2694.986551,-229.828649,-2072.576638,9844.739029
2694.986881,689.485948,-444.123565,9696.697840
2694.987210,1072.533697,-1110.308913,11177.109724
2694.987539,1685.410096,740.205942,9104.533087
2694.987868,2298.286494,740.205942,7994.224174
2694.988197,2145.067394,296.082377,8438.347739
2694.988527,2681.334243,1258.350101,8068.244768
2694.988856,3064.381992,222.061783,7698.141797
2694.989185,995.924147,-1110.308913,7772.162391
2694.989514,919.314598,-592.164754,8882.471304
2694.989844,383.047749,-814.226536,9104.533087
2694.990173,0.000000,-1406.391290,9252.574275
2694.990502,-919.314598,-1184.329507,8512.368333
2694.990831,-1762.019645,-1554.432478,9622.677246
2694.991160,-2451.505594,-814.226536,10288.862594
2694.991490,-1072.533697,-740.205942,9474.636058
2694.991819,-766.095498,-296.082377,9548.656652
2694.992148,-1225.752797,-0.000000,9326.594869
2694.992477,-612.876398,-0.000000,9992.780217
2694.992807,0.000000,-814.226536,8882.471304
2694.993136,-919.314598,222.061783,7920.203579
2694.993465,1838.629195,-0.000000,8290.306550
2694.993794,1915.238745,1036.288319,7105.977043
2694.994124,2451.505594,962.267725,8142.265362
2694.994453,1608.800546,-666.185348,9030.512492
2694.994782,1455.581446,-888.247130,8216.285956
2694.995111,383.047749,-222.061783,7698.141797
2694.995440,689.485948,518.144159,8364.327145
2694.995770,-1072.533697,-444.123565,9696.697840
2694.996099,-383.047749,-222.061783,11177.109724
2694.996428,842.705048,-0.000000,9178.553681
2694.996757,0.000000,-296.082377,9104.533087
2694.997087,229.828649,-740.205942,8882.471304
2694.997416,1608.800546,-0.000000,9400.615463
2694.997745,689.485948,-0.000000,9770.718434
2694.998074,1072.533697,1036.288319,7846.182985
2694.998404,1532.190996,222.061783,8586.388927
2694.998733,153.219100,814.226536,8512.368333
2694.999062,536.266849,592.164754,9474.636058
2694.999391,-229.828649,-222.061783,9104.533087
2694.999720,-1149.143247,-444.123565,8956.491898
2695.000050,-689.485948,-962.267725,10732.986159
2695.000379,-1302.362347,-740.205942,10288.862594
2695.000708,-1685.410096,-740.205942,9104.533087
2695.001037,-612.876398,-518.144159,9030.512492
2695.001367,-459.657299,-296.082377,9992.780217
2695.001696,-995.924147,-592.164754,9844.739029
2695.002025,-153.219100,-1332.370696,10362.883188
2695.002354,383.047749,-1332.370696,9770.718434
2695.002683,0.000000,-296.082377,9474.636058
2695.003013,459.657299,-592.164754,9696.697840
2695.003342,2068.457845,222.061783,7920.203579
2695.003671,3140.991542,962.267725,8142.265362
2695.004000,2528.115143,888.247130,7772.162391
2695.004330,3447.429741,1036.288319,7402.059420
2695.004659,2604.724693,-0.000000,7698.141797
2695.004988,1991.848295,888.247130,7920.203579
2695.005317,229.828649,-814.226536,9474.636058
2695.005647,-612.876398,-518.144159,8882.471304
2695.005976,-689.485948,-1406.391290,9474.636058
2695.006305,-153.219100,-962.267725,10066.800811
2695.006634,-689.485948,-1776.494261,9918.759623
2695.006963,-153.219100,-1776.494261,10066.800811
2695.007293,612.876398,-888.247130,9696.697840
2695.007622,919.314598,-0.000000,9252.574275
2695.007951,1991.848295,-74.020594,8438.347739
2695.008280,2528.115143,1332.370696,7550.100608
2695.008610,2451.505594,1776.494261,7920.203579
2695.008939,2528.115143,592.164754,7994.224174
2695.009268,2451.505594,-0.000000,8216.285956
2695.009597,1838.629195,-0.000000,8216.285956
2695.009926,76.609550,296.082377,8068.244768
2695.010256,-1302.362347,-814.226536,8956.491898
2695.010585,-1302.362347,-888.247130,9178.553681
2695.010914,-1455.581446,-1110.308913,9696.697840
2695.011243,-1685.410096,-1184.329507,10140.821405
2695.011573,-1838.629195,-1036.288319,10288.862594
2695.011902,-1149.143247,-1110.308913,9992.780217
2695.012231,-1762.019645,-0.000000,9844.739029
2695.012560,-1378.971896,370.102971,9548.656652
2695.012890,-612.876398,-0.000000,9030.512492
2695.013219,-229.828649,-0.000000,9400.615463
2695.013548,-459.657299,370.102971,9326.594869
2695.013877,-459.657299,-444.123565,10288.862594
2695.014206,76.609550,-1036.288319,8956.491898
2695.014536,612.876398,370.102971,7994.224174
2695.014865,689.485948,592.164754,7920.203579
2695.015194,0.000000,888.247130,7772.162391
2695.015523,536.266849,1554.432478,8438.347739
2695.015853,0.000000,740.205942,9622.677246
2695.016182,306.438199,-0.000000,9844.739029
2695.016511,383.047749,-740.205942,9918.759623
2695.016840,-612.876398,-0.000000,10140.821405
2695.017169,-995.924147,-0.000000,9770.718434
2695.017499,0.000000,-0.000000,9844.739029
2695.017828,995.924147,-296.082377,9474.636058
2695.018157,2145.067394,-444.123565,9474.636058
2695.018486,1685.410096,222.061783,9104.533087
2695.018816,2451.505594,-888.247130,8438.347739
2695.019145,1991.848295,370.102971,7772.162391
2695.019474,1762.019645,1332.370696,8438.347739
2695.019803,1149.143247,814.226536,8512.368333
2695.020133,383.047749,-74.020594,8364.327145
2695.020462,919.314598,-222.061783,8512.368333
2695.020791,0.000000,-444.123565,9178.553681
2695.021120,-306.438199,-1628.453072,9918.759623
2695.021449,-306.438199,-2368.659014,9696.697840
2695.021779,-766.095498,-814.226536,10288.862594
2695.022108,-919.314598,-148.041188,9696.697840
2695.022437,0.000000,-740.205942,9104.533087
2695.022766,995.924147,-74.020594,8808.450710
2695.023096,1838.629195,518.144159,8512.368333
2695.023425,1838.629195,370.102971,8808.450710
2695.023754,919.314598,-0.000000,8068.244768
2695.024083,1072.533697,962.267725,8364.327145
2695.024412,153.219100,1554.432478,7698.141797
2695.024742,-1608.800546,666.185348,8956.491898
2695.025071,-766.095498,-2368.659014,10140.821405
2695.025400,-459.657299,-1184.329507,8216.285956
2695.025729,-536.266849,-1924.535449,9104.533087
2695.026059,-919.314598,-2368.659014,9474.636058
2695.026388,-1225.752797,-1332.370696,9474.636058
2695.026717,-1149.143247,-592.164754,10362.883188
2695.027046,-459.657299,296.082377,9252.574275
2695.027376,612.876398,-740.205942,9474.636058
2695.027705,612.876398,518.144159,8734.430116
2695.028034,766.095498,-518.144159,10214.842000
2695.028363,1838.629195,-444.123565,8734.430116
2695.028692,3294.210641,1258.350101,7402.059420
2695.029022,2757.943793,1406.391290,7846.182985
2695.029351,1838.629195,1480.411884,7476.080014
2695.029680,2374.896044,814.226536,7920.203579
2695.030009,2068.457845,296.082377,7402.059420
2695.030339,1072.533697,-518.144159,8586.388927
2695.030668,76.609550,-1998.556043,9548.656652
2695.030997,-536.266849,-2072.576638,10732.986159
2695.031326,-766.095498,-2294.638420,10881.027347
2695.031656,-842.705048,-666.185348,9770.718434
2695.031985,-612.876398,-888.247130,10362.883188
2695.032314,0.000000,-74.020594,9474.636058
2695.032643,229.828649,-666.185348,10510.924376
2695.032972,1378.971896,-0.000000,9548.656652
2695.033302,1532.190996,-0.000000,9992.780217
2695.033631,995.924147,444.123565,9178.553681
2695.033960,153.219100,1850.514855,7772.162391
2695.034289,995.924147,814.226536,9400.615463
2695.034619,76.609550,518.144159,7994.224174
2695.034948,766.095498,-0.000000,8290.306550
2695.035277,0.000000,-1480.411884,8660.409521
2695.035606,-1302.362347,-518.144159,9622.677246
2695.035935,-1762.019645,-2442.679609,10955.047942
2695.036265,-1378.971896,-148.041188,8808.450710
2695.036594,-1225.752797,148.041188,10140.821405
2695.036923,-306.438199,-296.082377,9252.574275
2695.037252,766.095498,222.061783,9474.636058
2695.037582,1149.143247,444.123565,8882.471304
2695.037911,2604.724693,-296.082377,7920.203579
2695.038240,2374.896044,666.185348,8364.327145
2695.038569,1302.362347,1702.473667,8290.306550
2695.038899,0.000000,962.267725,8216.285956
2695.039228,-689.485948,148.041188,8216.285956
2695.039557,-689.485948,-296.082377,7920.203579
2695.039886,-306.438199,-1480.411884,9474.636058
2695.040215,-919.314598,-1850.514855,9918.759623
2695.040545,-1302.362347,-1998.556043,9474.636058
2695.040874,-383.047749,-1850.514855,9770.718434
2695.041203,-995.924147,-444.123565,9326.594869
2695.041532,-306.438199,-444.123565,9474.636058
2695.041862,229.828649,-444.123565,9696.697840
2695.042191,2145.067394,-444.123565,9104.533087
2695.042520,2834.553343,962.267725,7698.141797
2695.042849,3677.258390,370.102971,8216.285956
2695.043178,3370.820191,1110.308913,6957.935855
2695.043508,3447.429741,2294.638420,7179.997637
2695.043837,1838.629195,962.267725,7550.100608
2695.044166,1532.190996,-148.041188,7402.059420
2695.044495,229.828649,-814.226536,9104.533087
2695.044825,-612.876398,-1628.453072,9252.574275
2695.045154,-1685.410096,-3182.885551,11695.253884
2695.045483,-2451.505594,-2368.659014,11177.109724
2695.045812,-1378.971896,-888.247130,9992.780217
2695.046142,-1378.971896,-74.020594,10807.006753
2695.046471,-842.705048,740.205942,9844.739029
2695.046800,76.609550,666.185348,9622.677246
2695.047129,-229.828649,-222.061783,10510.924376
2695.047458,536.266849,-592.164754,10807.006753
2695.047788,1225.752797,222.061783,8956.491898
2695.048117,1378.971896,1406.391290,7698.141797
2695.048446,919.314598,1110.308913,8290.306550
2695.048775,689.485948,1702.473667,7328.038826
2695.049105,1149.143247,296.082377,8882.471304
2695.049434,459.657299,148.041188,7772.162391
2695.049763,383.047749,-222.061783,9252.574275
2695.050092,-1149.143247,-1628.453072,9178.553681
2695.050421,-1072.533697,-1628.453072,9326.594869
2695.050751,-1532.190996,-888.247130,10584.944971
2695.051080,-1149.143247,-1184.329507,10066.800811
2695.051409,-383.047749,-592.164754,9178.553681
2695.051738,612.876398,370.102971,9030.512492
2695.052068,536.266849,-0.000000,10732.986159
2695.052397,919.314598,-888.247130,10066.800811
2695.052726,2068.457845,-0.000000,7846.182985
2695.053055,1455.581446,1850.514855,7402.059420
2695.053385,536.266849,1406.391290,8438.347739
2695.053714,0.000000,592.164754,7920.203579
2695.054043,1762.019645,666.185348,7550.100608
2695.054372,459.657299,-962.267725,8438.347739
2695.054701,229.828649,-2664.741391,8808.450710
2695.055031,-383.047749,-1036.288319,8438.347739
2695.055360,-1762.019645,-2590.720797,9474.636058
2695.055689,-689.485948,-1628.453072,10214.842000
2695.056018,-306.438199,-74.020594,9918.759623
2695.056348,-306.438199,-1258.350101,8734.430116
2695.056677,1762.019645,296.082377,10584.944971
2695.057006,1608.800546,-0.000000,8660.409521
2695.057335,2911.162892,1110.308913,7846.182985
2695.057664,3217.601092,666.185348,7550.100608
2695.057994,1762.019645,2294.638420,7105.977043
2695.058323,1378.971896,1628.453072,8068.244768
2695.058652,1378.971896,296.082377,7920.203579
2695.058981,689.485948,-666.185348,7179.997637
2695.059311,-919.314598,-1258.350101,9400.615463
2695.059640,-1608.800546,-2368.659014,10658.965565
2695.059969,-1915.238745,-1702.473667,9178.553681
2695.060298,-1225.752797,-962.267725,10288.862594
2695.060628,-1915.238745,-518.144159,9474.636058
2695.060957,-995.924147,1036.288319,10362.883188
2695.061286,-842.705048,-888.247130,9474.636058
2695.061615,-689.485948,518.144159,9696.697840
2695.061944,0.000000,-1110.308913,10658.965565
2695.062274,-306.438199,-740.205942,9252.574275
2695.062603,766.095498,-74.020594,9326.594869
2695.062932,383.047749,1776.494261,7846.182985
2695.063261,1072.533697,1332.370696,7920.203579
2695.063591,2221.676944,1258.350101,7402.059420
2695.063920,2451.505594,1332.370696,7254.018232
2695.064249,1072.533697,296.082377,8586.388927
2695.064578,229.828649,-1184.329507,9252.574275
2695.064908,-689.485948,-1480.411884,9178.553681
2695.065237,-995.924147,-888.247130,10362.883188
2695.065566,-1762.019645,-1702.473667,10732.986159
2695.065895,-1225.752797,-1184.329507,9770.718434
2695.066224,0.000000,-888.247130,10066.800811
2695.066554,919.314598,-1036.288319,10510.924376
2695.066883,1685.410096,666.185348,9178.553681
2695.067212,2987.772442,444.123565,9252.574275
2695.067541,2374.896044,1628.453072,8290.306550
2695.067871,2451.505594,2368.659014,7994.224174
2695.068200,1532.190996,1998.556043,7772.162391
2695.068529,1378.971896,740.205942,8438.347739
2695.068858,766.095498,-222.061783,8882.471304
2695.069187,-383.047749,-1702.473667,9474.636058
2695.069517,-1225.752797,-2812.782580,10584.944971
2695.069846,-1149.143247,-2516.700203,9622.677246
2695.070175,-536.266849,-1924.535449,9178.553681
2695.070504,-1455.581446,-1332.370696,9696.697840
2695.070834,-383.047749,444.123565,9104.533087
2695.071163,0.000000,370.102971,9474.636058
2695.071492,1685.410096,592.164754,9992.780217
2695.071821,2298.286494,740.205942,7624.121203
2695.072151,3140.991542,2294.638420,7254.018232
2695.072480,2911.162892,1702.473667,7105.977043
2695.072809,2451.505594,2220.617826,7698.141797
2695.073138,2068.457845,1036.288319,8216.285956
2695.073467,919.314598,666.185348,7698.141797
2695.073797,0.000000,-1480.411884,9104.533087
2695.074126,-1991.848295,-2146.597232,10214.842000
2695.074455,-1991.848295,-3256.906145,10288.862594
2695.074784,-1915.238745,-1628.453072,9326.594869
2695.075114,-1072.533697,-1554.432478,10140.821405
2695.075443,-1608.800546,-592.164754,10362.883188
2695.075772,-995.924147,-888.247130,9622.677246
2695.076101,-383.047749,-74.020594,9844.739029
2695.076430,0.000000,-1036.288319,10436.903782
2695.076759,1149.143247,-1110.308913,10807.006753
2695.077088,1762.019645,1332.370696,7550.100608
2695.077418,2451.505594,2220.617826,7328.038826
2695.077747,2145.067394,2072.576638,8142.265362
2695.078076,3217.601092,1184.329507,7328.038826
2695.078405,2451.505594,592.164754,7179.997637
2695.078734,1302.362347,-74.020594,8586.388927
2695.079063,383.047749,-1850.514855,8660.409521
2695.079392,-229.828649,-2590.720797,9918.759623
2695.079722,-1991.848295,-2812.782580,10066.800811
2695.080051,-1532.190996,-1628.453072,10140.821405
2695.080380,-1991.848295,-1480.411884,9696.697840
2695.080709,76.609550,-518.144159,10658.965565
2695.081038,76.609550,370.102971,10436.903782
2695.081367,995.924147,222.061783,10510.924376
2695.081696,1991.848295,1036.288319,9178.553681
2695.082026,2681.334243,3034.844362,8438.347739
2695.082355,1915.238745,2664.741391,7698.141797
2695.082684,2451.505594,2590.720797,7105.977043
2695.083013,2068.457845,1184.329507,7031.956449
2695.083342,995.924147,296.082377,9252.574275
2695.083671,-229.828649,-1924.535449,8660.409521
2695.084000,-995.924147,-3034.844362,8586.388927
2695.084329,-1762.019645,-3182.885551,10881.027347
2695.084659,-2604.724693,-1998.556043,9844.739029
2695.084988,-1532.190996,-1332.370696,8956.491898
2695.085317,-1532.190996,-888.247130,9474.636058
2695.085646,-919.314598,222.061783,9178.553681
2695.085975,-536.266849,444.123565,10066.800811
2695.086304,0.000000,-0.000000,9178.553681
2695.086633,76.609550,444.123565,8512.368333
2695.086963,229.828649,1406.391290,8882.471304
2695.087292,459.657299,1110.308913,8290.306550
2695.087621,1072.533697,2368.659014,7179.997637
2695.087950,1378.971896,444.123565,8216.285956
2695.088279,306.438199,-444.123565,8216.285956
2695.088608,383.047749,-888.247130,9622.677246
2695.088937,-306.438199,-2516.700203,9030.512492
2695.089267,-766.095498,-1850.514855,9770.718434
2695.089596,-1455.581446,-1702.473667,10881.027347
2695.089925,-1072.533697,-222.061783,9548.656652
2695.090254,0.000000,-740.205942,9696.697840
2695.090583,306.438199,-518.144159,10214.842000
2695.090912,459.657299,-444.123565,10436.903782
2695.091241,2068.457845,-0.000000,8882.471304
2695.091571,2681.334243,370.102971,8512.368333
2695.091900,1991.848295,2146.597232,7846.182985
2695.092229,1991.848295,1998.556043,8586.388927
2695.092558,1915.238745,1480.411884,8290.306550
2695.092887,1762.019645,1258.350101,7698.141797
2695.093216,612.876398,-370.102971,8142.265362
2695.093545,153.219100,-1850.514855,9252.574275
2695.093874,-383.047749,-2516.700203,9326.594869
2695.094204,-2068.457845,-1702.473667,11325.150913
2695.094533,-1072.533697,-2590.720797,10955.047942
2695.094862,-1608.800546,-888.247130,8882.471304
2695.095191,76.609550,-0.000000,9326.594869
2695.095520,842.705048,888.247130,9696.697840
2695.095849,2298.286494,-0.000000,8660.409521
2695.096178,2298.286494,1850.514855,8882.471304
2695.096508,2451.505594,2442.679609,7846.182985
2695.096837,1072.533697,1998.556043,8438.347739
2695.097166,612.876398,2072.576638,7624.121203
2695.097495,153.219100,296.082377,8216.285956
2695.097824,-689.485948,-1036.288319,9474.636058
2695.098153,-1685.410096,-2664.741391,9918.759623
2695.098482,-1378.971896,-3182.885551,10288.862594
2695.098812,-1532.190996,-2146.597232,9252.574275
2695.099141,-1455.581446,-2146.597232,10288.862594
2695.099470,-1532.190996,-888.247130,9622.677246
2695.099799,0.000000,-0.000000,9474.636058
2695.100128,76.609550,-0.000000,10288.862594
2695.100457,1991.848295,222.061783,9474.636058
2695.100786,3140.991542,1924.535449,7772.162391
2695.101115,2911.162892,1776.494261,7846.182985
2695.101445,1915.238745,1924.535449,7179.997637
2695.101774,1762.019645,2738.761985,8142.265362
2695.102103,1762.019645,1110.308913,7402.059420
2695.102432,842.705048,444.123565,7698.141797
2695.102761,-536.266849,-962.267725,9918.759623
2695.103090,-1915.238745,-2516.700203,9770.718434
2695.103419,-1762.019645,-3627.009116,10881.027347
2695.103749,-1225.752797,-1258.350101,9696.697840
2695.104078,-919.314598,-666.185348,9474.636058
2695.104407,-766.095498,-1036.288319,9696.697840
2695.104736,0.000000,740.205942,9474.636058
2695.105065,1532.190996,-222.061783,10510.924376
2695.105394,2145.067394,222.061783,8364.327145
2695.105723,3447.429741,1406.391290,8142.265362
2695.106053,2681.334243,2146.597232,7105.977043
2695.106382,2374.896044,2442.679609,7772.162391
2695.106711,1608.800546,2072.576638,8290.306550
2695.107040,1532.190996,1036.288319,6809.894666
2695.107369,842.705048,-74.020594,8586.388927
2695.107698,-612.876398,-1924.535449,9474.636058
2695.108027,-1378.971896,-2516.700203,9770.718434
2695.108356,-1532.190996,-3627.009116,10732.986159
2695.108686,-2145.067394,-1406.391290,9548.656652
2695.109015,-1991.848295,-666.185348,10510.924376
2695.109344,-919.314598,-740.205942,10066.800811
2695.109673,-1225.752797,296.082377,9474.636058
2695.110002,0.000000,-740.205942,11325.150913
2695.110331,383.047749,-444.123565,10214.842000
2695.110660,689.485948,814.226536,9030.512492
2695.110990,1072.533697,1850.514855,8808.450710
2695.111319,689.485948,2220.617826,8216.285956
2695.111648,1838.629195,1184.329507,8290.306550
2695.111977,1685.410096,1184.329507,7402.059420
2695.112306,1302.362347,-1258.350101,8734.430116
2695.112635,536.266849,-2220.617826,8512.368333
2695.112964,229.828649,-1924.535449,9474.636058
2695.113294,-1532.190996,-2146.597232,10436.903782
2695.113623,-1762.019645,-1554.432478,9992.780217
2695.113952,-1072.533697,-444.123565,9992.780217
2695.114281,-383.047749,-592.164754,9992.780217
2695.114610,842.705048,222.061783,10658.965565
2695.114939,612.876398,1036.288319,10066.800811
2695.115268,1455.581446,666.185348,9252.574275
2695.115598,1685.410096,1480.411884,8438.347739
2695.115927,1455.581446,2146.597232,8142.265362
2695.116256,995.924147,1258.350101,8882.471304
2695.116585,1838.629195,444.123565,8068.244768
2695.116914,1455.581446,148.041188,7624.121203
2695.117243,842.705048,-1702.473667,8512.368333
2695.117572,383.047749,-2368.659014,10066.800811
2695.117901,0.000000,-2442.679609,9474.636058
2695.118231,-306.438199,-1110.308913,8512.368333
2695.118560,-919.314598,-888.247130,9474.636058
2695.118889,0.000000,-74.020594,9104.533087
2695.119218,689.485948,1184.329507,8586.388927
2695.119547,1302.362347,518.144159,9474.636058
2695.119876,1378.971896,-0.000000,9030.512492
2695.120205,919.314598,296.082377,8512.368333
2695.120535,536.266849,1184.329507,8364.327145
2695.120864,-383.047749,666.185348,8882.471304
2695.121193,-612.876398,148.041188,9104.533087
2695.121522,-689.485948,-592.164754,8512.368333
2695.121851,-383.047749,-148.041188,8808.450710
2695.122180,-536.266849,-1850.514855,9474.636058
2695.122509,-689.485948,-2072.576638,9548.656652
2695.122839,76.609550,-888.247130,9622.677246
2695.123168,306.438199,-148.041188,9104.533087
2695.123497,-459.657299,-148.041188,9104.533087
2695.123826,153.219100,222.061783,9548.656652
2695.124155,1532.190996,1036.288319,8956.491898
2695.124484,1838.629195,740.205942,9104.533087
2695.124813,1455.581446,1110.308913,8660.409521
2695.125142,689.485948,1110.308913,8438.347739
2695.125472,919.314598,370.102971,8512.368333
2695.125801,-766.095498,1036.288319,8290.306550
2695.126130,-1762.019645,-1258.350101,10658.965565
2695.126459,-612.876398,-1924.535449,9844.739029
2695.126788,-919.314598,-1184.329507,7846.182985
2695.127117,-842.705048,-2812.782580,9178.553681
2695.127446,995.924147,-2368.659014,9770.718434
2695.127776,536.266849,-1776.494261,9030.512492
2695.128105,1685.410096,370.102971,9252.574275
2695.128434,2221.676944,444.123565,8068.244768
2695.128763,2757.943793,1924.535449,6883.915261
2695.129092,3140.991542,1702.473667,8068.244768
2695.129421,2987.772442,1776.494261,8142.265362
2695.129750,2145.067394,1850.514855,8068.244768
2695.130080,1378.971896,296.082377,8068.244768
2695.130409,-153.219100,-0.000000,9474.636058
2695.130738,-1455.581446,-1258.350101,10732.986159
2695.131067,-2068.457845,-1776.494261,9622.677246
2695.131396,-1149.143247,-2294.638420,10288.862594
2695.131725,-2987.772442,-1184.329507,8956.491898
2695.132054,-306.438199,-2368.659014,10510.924376
2695.132384,-766.095498,-1258.350101,8216.285956
2695.132713,-1302.362347,370.102971,9474.636058
2695.133042,-995.924147,-814.226536,10584.944971
2695.133371,76.609550,-148.041188,9400.615463
2695.133700,1072.533697,-74.020594,8216.285956
2695.134029,3217.601092,1332.370696,8290.306550
2695.134358,2757.943793,296.082377,7402.059420
2695.134687,2528.115143,2146.597232,7550.100608
2695.135017,2221.676944,1998.556043,8068.244768
2695.135346,0.000000,1258.350101,8956.491898
2695.135675,-536.266849,370.102971,9178.553681
2695.136004,-1608.800546,-0.000000,9030.512492
2695.136333,-1532.190996,-2368.659014,10214.842000
2695.136662,-1762.019645,-1184.329507,9474.636058
2695.136991,-1149.143247,-2886.803174,9844.739029
2695.137321,-1225.752797,-2072.576638,9696.697840
2695.137650,-1072.533697,-0.000000,8956.491898
2695.137979,-842.705048,-0.000000,9400.615463
2695.138308,-612.876398,-148.041188,9770.718434
2695.138637,1225.752797,-0.000000,9474.636058
2695.138966,2451.505594,518.144159,7698.141797
2695.139295,2298.286494,814.226536,7846.182985
2695.139625,2068.457845,888.247130,7698.141797
2695.139954,1915.238745,1924.535449,7772.162391
2695.140283,766.095498,1110.308913,8512.368333
2695.140612,536.266849,296.082377,8586.388927
2695.140941,536.266849,-518.144159,9474.636058
2695.141270,-766.095498,-2072.576638,9178.553681
2695.141599,-1149.143247,-1998.556043,10732.986159
2695.141928,-1838.629195,-2220.617826,9918.759623
2695.142258,-1302.362347,-1332.370696,9474.636058
2695.142587,-919.314598,-740.205942,10510.924376
2695.142916,-153.219100,-666.185348,10066.800811
2695.143245,689.485948,518.144159,7920.203579
2695.143574,2068.457845,518.144159,9474.636058
2695.143903,2374.896044,1554.432478,8068.244768
2695.144232,2528.115143,1554.432478,8142.265362
2695.144562,919.314598,1110.308913,8364.327145
2695.144891,306.438199,1110.308913,9178.553681
2695.145220,-919.314598,-0.000000,9474.636058
2695.145549,-919.314598,-1036.288319,8808.450710
2695.145878,-919.314598,-1776.494261,9770.718434
2695.146207,-1762.019645,-2368.659014,10881.027347
2695.146536,-1762.019645,-1850.514855,9918.759623
2695.146866,-1149.143247,-1184.329507,9918.759623
2695.147195,-1072.533697,-296.082377,9770.718434
2695.147524,-306.438199,444.123565,9844.739029
2695.147853,1378.971896,-370.102971,9252.574275
2695.148182,1762.019645,666.185348,7328.038826
2695.148511,3294.210641,222.061783,8438.347739
2695.148840,2834.553343,1110.308913,7105.977043
2695.149169,2834.553343,1258.350101,7920.203579
2695.149499,1302.362347,1850.514855,8068.244768
2695.149828,1072.533697,518.144159,8216.285956
2695.150157,383.047749,-518.144159,8882.471304
2695.150486,-459.657299,-148.041188,9104.533087
2695.150815,-995.924147,-1702.473667,9474.636058
2695.151144,-1532.190996,-2738.761985,9770.718434
2695.151473,-766.095498,-2664.741391,10288.862594
2695.151803,306.438199,-1258.350101,9474.636058
2695.152132,1149.143247,-888.247130,9104.533087
2695.152461,2068.457845,222.061783,8512.368333
2695.152790,3370.820191,444.123565,7402.059420
2695.153119,4826.401637,2664.741391,7179.997637
2695.153448,4826.401637,2368.659014,7105.977043
2695.153777,3983.696590,2146.597232,7624.121203
2695.154107,2374.896044,1184.329507,8142.265362
2695.154436,153.219100,-370.102971,8660.409521
2695.154765,-1532.190996,-666.185348,10584.944971
2695.155094,-2451.505594,-2812.782580,10362.883188
2695.155423,-2834.553343,-2664.741391,11399.171507
2695.155752,-2298.286494,-2738.761985,11177.109724
2695.156081,-2528.115143,-2146.597232,9696.697840
2695.156411,-1455.581446,-1776.494261,9474.636058
2695.156740,-1302.362347,-518.144159,9548.656652
2695.157069,-1302.362347,666.185348,9400.615463
2695.157398,-383.047749,-740.205942,9770.718434
2695.157727,2374.896044,370.102971,7994.224174
2695.158056,3370.820191,1776.494261,7031.956449
2695.158385,3600.648841,2146.597232,7031.956449
2695.158714,3294.210641,2294.638420,6809.894666
2695.159044,3064.381992,2960.823768,7698.141797
2695.159373,995.924147,1702.473667,8216.285956
2695.159702,-689.485948,592.164754,8512.368333
2695.160031,-2374.896044,-1554.432478,9770.718434
2695.160360,-2528.115143,-2368.659014,10807.006753
2695.160689,-3294.210641,-2442.679609,10584.944971
2695.161018,-2834.553343,-2442.679609,10807.006753
2695.161348,-1685.410096,-2442.679609,10881.027347
2695.161677,-1915.238745,-148.041188,10584.944971
2695.162006,-1991.848295,740.205942,9770.718434
2695.162335,-919.314598,-0.000000,8734.430116
2695.162664,459.657299,-1184.329507,9696.697840
2695.162993,1455.581446,518.144159,11769.274478
2695.163322,2451.505594,666.185348,6587.832884
2695.163652,4903.011187,1184.329507,7624.121203
2695.163981,3830.477490,2368.659014,5773.606348
2695.164310,3600.648841,2368.659014,7550.100608
2695.164639,2068.457845,1036.288319,7624.121203
2695.164968,1762.019645,1184.329507,7179.997637
2695.165297,766.095498,-592.164754,9548.656652
2695.165626,-1915.238745,-1998.556043,10288.862594
2695.165955,-2681.334243,-3478.967927,11769.274478
2695.166285,-2757.943793,-3034.844362,11103.089130
2695.166614,-2221.676944,-1850.514855,10436.903782
2695.166943,-1915.238745,-1554.432478,9992.780217
2695.167272,-536.266849,-74.020594,9178.553681
2695.167601,612.876398,-74.020594,9844.739029
2695.167930,1915.238745,222.061783,8882.471304
2695.168259,3600.648841,2072.576638,7402.059420
2695.168589,2604.724693,2368.659014,6809.894666
2695.168918,2221.676944,2072.576638,7698.141797
2695.169247,1072.533697,962.267725,8364.327145
2695.169576,536.266849,-0.000000,7920.203579
2695.169905,153.219100,-1628.453072,8438.347739
2695.170234,-766.095498,-1998.556043,8660.409521
2695.170563,-2221.676944,-2146.597232,11177.109724
2695.170893,-3140.991542,-2368.659014,11769.274478
2695.171222,-2221.676944,-814.226536,9104.533087
2695.171551,-1608.800546,-444.123565,10881.027347
2695.171880,-1685.410096,-0.000000,9474.636058
2695.172209,-306.438199,-0.000000,9474.636058
2695.172538,1838.629195,-518.144159,9252.574275
2695.172867,2987.772442,962.267725,7550.100608
2695.173197,3140.991542,1036.288319,7624.121203
2695.173526,3217.601092,2516.700203,5773.606348
2695.173855,2374.896044,2072.576638,7624.121203
2695.174184,1302.362347,962.267725,8438.347739
2695.174513,1991.848295,370.102971,6809.894666
2695.174842,0.000000,-1332.370696,8216.285956
2695.175171,-1302.362347,-2220.617826,10214.842000
2695.175500,-1915.238745,-3552.988522,11325.150913
2695.175830,-1991.848295,-2516.700203,11547.212695
2695.176159,-1532.190996,-1776.494261,11251.130318
2695.176488,-1532.190996,-814.226536,10584.944971
2695.176817,0.000000,-74.020594,10881.027347
2695.177146,1762.019645,1480.411884,9030.512492
2695.177475,3907.087040,888.247130,8512.368333
2695.177804,4290.134789,2220.617826,6513.812290
2695.178133,4596.572988,2368.659014,7550.100608
2695.178462,2681.334243,3478.967927,7254.018232
2695.178791,919.314598,1110.308913,7476.080014
2695.179120,689.485948,666.185348,8290.306550
2695.179449,-383.047749,-1036.288319,8364.327145
2695.179778,-1685.410096,-2738.761985,10362.883188
2695.180107,-3217.601092,-3627.009116,11621.233289
2695.180436,-3294.210641,-2886.803174,10881.027347
2695.180765,-2604.724693,-1406.391290,9622.677246
2695.181094,-2911.162892,-444.123565,10288.862594
2695.181423,-2221.676944,-296.082377,10584.944971
2695.181752,-1225.752797,518.144159,9548.656652
2695.182081,689.485948,-0.000000,11103.089130
2695.182410,2374.896044,962.267725,8290.306550
2695.182739,3983.696590,1258.350101,7402.059420
2695.183068,3370.820191,3330.926739,5181.441594
2695.183397,2451.505594,2886.803174,7476.080014
2695.183726,842.705048,1850.514855,7920.203579
2695.184055,536.266849,740.205942,7254.018232
2695.184384,-153.219100,-888.247130,8882.471304
2695.184712,-1378.971896,-2590.720797,11103.089130
2695.185041,-2834.553343,-4145.153275,11177.109724
2695.185370,-2221.676944,-3627.009116,9918.759623
2695.185699,-2145.067394,-1406.391290,10732.986159
2695.186028,-1685.410096,-518.144159,10066.800811
2695.186357,-995.924147,222.061783,9474.636058
2695.186686,306.438199,-666.185348,10807.006753
2695.187015,3140.991542,592.164754,7698.141797
2695.187344,4979.620737,666.185348,7476.080014
2695.187673,4749.792088,962.267725,6809.894666
2695.188002,4366.744339,2368.659014,6217.729913
2695.188331,2987.772442,3034.844362,7476.080014
2695.188660,2451.505594,1332.370696,6883.915261
2695.188989,2298.286494,814.226536,6439.791695
2695.189318,153.219100,-1406.391290,9474.636058
2695.189647,-1762.019645,-3330.926739,9992.780217
2695.189976,-2451.505594,-4441.235652,11843.295072
2695.190305,-2451.505594,-3552.988522,11325.150913
2695.190634,-2374.896044,-1036.288319,9696.697840
2695.190963,-1991.848295,-1258.350101,11325.150913
2695.191292,-1915.238745,-0.000000,10140.821405
2695.191621,153.219100,-592.164754,10658.965565
2695.191950,1838.629195,296.082377,9622.677246
2695.192279,3830.477490,1110.308913,7624.121203
2695.192608,4136.915689,2516.700203,6365.771101
2695.192937,2911.162892,3552.988522,6587.832884
2695.193266,1915.238745,2442.679609,8364.327145
2695.193594,2145.067394,1850.514855,7254.018232
2695.193923,1915.238745,-0.000000,7550.100608
2695.194252,-383.047749,-888.247130,9104.533087
2695.194581,-2221.676944,-2664.741391,10807.006753
2695.194910,-2911.162892,-3404.947333,11695.253884
2695.195239,-2757.943793,-1850.514855,9918.759623
2695.195568,-2221.676944,-962.267725,11547.212695
2695.195897,-2604.724693,-814.226536,10288.862594
2695.196226,-1378.971896,148.041188,9548.656652
2695.196555,-536.266849,-0.000000,10955.047942
2695.196884,2145.067394,-740.205942,10658.965565
2695.197213,2604.724693,1406.391290,6809.894666
2695.197542,3294.210641,2072.576638,8142.265362
2695.197871,1915.238745,3108.864956,6883.915261
2695.198200,2681.334243,2146.597232,7846.182985
2695.198529,2374.896044,1110.308913,6957.935855
2695.198858,1838.629195,-518.144159,7105.977043
2695.199187,0.000000,-2516.700203,9992.780217
2695.199516,-1838.629195,-2442.679609,9696.697840
2695.199845,-2145.067394,-4737.318029,11695.253884
2695.200174,-2757.943793,-2220.617826,10288.862594
2695.200503,-1915.238745,-1406.391290,11029.068536
2695.200832,-1685.410096,-1258.350101,11029.068536
2695.201161,-536.266849,-222.061783,9770.718434
2695.201490,2068.457845,222.061783,10584.944971
2695.201819,2221.676944,-0.000000,7772.162391
2695.202147,4443.353888,1628.453072,7254.018232
2695.202476,3217.601092,3552.988522,5847.626942
2695.202805,1608.800546,3256.906145,7179.997637
2695.203134,2604.724693,1480.411884,7550.100608
2695.203463,1225.752797,1036.288319,6587.832884
2695.203792,153.219100,-1258.350101,8216.285956
2695.204121,-1685.410096,-2664.741391,9030.512492
2695.204450,-2987.772442,-3701.029710,11399.171507
2695.204779,-2911.162892,-2886.803174,10288.862594
2695.205108,-1608.800546,-1480.411884,9474.636058
2695.205437,-2834.553343,-1184.329507,10288.862594
2695.205766,-2757.943793,-814.226536,10584.944971
2695.206095,-2221.676944,-370.102971,10584.944971
2695.206424,-1532.190996,296.082377,9252.574275
2695.206753,612.876398,-148.041188,10584.944971
2695.207082,1378.971896,1480.411884,7772.162391
2695.207411,2987.772442,3627.009116,7254.018232
2695.207740,2987.772442,2146.597232,7105.977043
2695.208069,2374.896044,2812.782580,5773.606348
2695.208398,3064.381992,296.082377,7846.182985
2695.208727,1608.800546,-296.082377,7105.977043
2695.209056,689.485948,-1480.411884,8734.430116
2695.209385,-1532.190996,-4219.173869,10510.924376
2695.209714,-1915.238745,-2738.761985,10510.924376
2695.210043,-2374.896044,-2146.597232,12583.501014
2695.210372,-1991.848295,-1554.432478,10510.924376
2695.210701,-383.047749,-444.123565,10807.006753
2695.211029,842.705048,-74.020594,10510.924376
2695.211358,2451.505594,1110.308913,8660.409521
2695.211687,4213.525239,962.267725,8660.409521
2695.212016,3907.087040,2072.576638,7624.121203
2695.212345,3600.648841,3627.009116,7698.141797
2695.212674,2451.505594,2368.659014,8660.409521
2695.213003,2757.943793,1332.370696,7031.956449
2695.213332,2068.457845,222.061783,8068.244768
2695.213661,306.438199,-1924.535449,9474.636058
2695.213990,-995.924147,-2886.803174,9992.780217
2695.214319,-1532.190996,-3330.926739,10658.965565
2695.214648,-2145.067394,-3182.885551,11843.295072
2695.214977,-1915.238745,-1184.329507,9548.656652
2695.215306,-1915.238745,-888.247130,9474.636058
2695.215635,-459.657299,-148.041188,9696.697840
2695.215964,2221.676944,1776.494261,9474.636058
2695.216293,3370.820191,1924.535449,8512.368333
2695.216622,3753.867940,1702.473667,6069.688724
2695.216951,3447.429741,2146.597232,7105.977043
2695.217280,2221.676944,2812.782580,6365.771101
2695.217609,2068.457845,2368.659014,6809.894666
2695.217938,536.266849,296.082377,7476.080014
2695.218267,-383.047749,-740.205942,8660.409521
2695.218596,-1608.800546,-2664.741391,9696.697840
2695.218925,-2834.553343,-3997.112087,10955.047942
2695.219254,-2145.067394,-3701.029710,10436.903782
2695.219583,-3217.601092,-1998.556043,10214.842000
2695.219911,-2145.067394,-1998.556043,11325.150913
2695.220240,-2145.067394,-296.082377,9474.636058
2695.220569,-1225.752797,148.041188,10362.883188
2695.220898,0.000000,-592.164754,11251.130318
2695.221227,1532.190996,370.102971,8734.430116
2695.221556,2987.772442,1184.329507,8142.265362
2695.221885,1991.848295,2368.659014,5773.606348
2695.222214,1608.800546,2368.659014,7994.224174
2695.222543,2451.505594,888.247130,7476.080014
2695.222872,766.095498,1702.473667,7105.977043
2695.223201,842.705048,-1776.494261,9474.636058
2695.223530,0.000000,-2590.720797,9474.636058
2695.223859,-1149.143247,-2886.803174,9474.636058
2695.224188,-2374.896044,-2812.782580,11769.274478
2695.224517,-2374.896044,-2146.597232,10955.047942
2695.224846,-2451.505594,-1110.308913,11029.068536
2695.225175,-459.657299,-296.082377,10140.821405
2695.225504,919.314598,1258.350101,9622.677246
2695.225833,1532.190996,-296.082377,9844.739029
2695.226162,2528.115143,1702.473667,8364.327145
2695.226491,2987.772442,2516.700203,7698.141797
2695.226820,2528.115143,1924.535449,7105.977043
2695.227149,2374.896044,2886.803174,6661.853478
2695.227478,1762.019645,962.267725,7772.162391
2695.227807,306.438199,518.144159,8216.285956
2695.228136,-612.876398,-1406.391290,9104.533087
2695.228465,-995.924147,-3182.885551,10732.986159
2695.228793,-1608.800546,-2516.700203,10436.903782
2695.229122,-2604.724693,-2146.597232,10436.903782
2695.229451,-2757.943793,-1332.370696,10658.965565
2695.229780,-2068.457845,-518.144159,10066.800811
2695.230109,-306.438199,-74.020594,10140.821405
2695.230438,76.609550,1258.350101,9474.636058
2695.230767,1302.362347,296.082377,9104.533087
2695.231096,1762.019645,740.205942,8142.265362
2695.231425,2374.896044,2220.617826,7698.141797
2695.231754,842.705048,1258.350101,7994.224174
2695.232083,1225.752797,1332.370696,8216.285956
2695.232412,1072.533697,518.144159,7846.182985
2695.232741,306.438199,-592.164754,8586.388927
2695.233070,0.000000,-2294.638420,9474.636058
2695.233399,-1072.533697,-3034.844362,10214.842000
2695.233728,-1072.533697,-2368.659014,10807.006753
2695.234057,-842.705048,-888.247130,9770.718434
2695.234386,-995.924147,-1036.288319,10140.821405
2695.234715,229.828649,-518.144159,10140.821405
2695.235044,1762.019645,444.123565,9104.533087
2695.235373,2528.115143,-0.000000,9622.677246
2695.235702,3294.210641,888.247130,7550.100608
2695.236031,3677.258390,1554.432478,8216.285956
2695.236360,2528.115143,2368.659014,7698.141797
2695.236689,2068.457845,2442.679609,7402.059420
2695.237018,1455.581446,222.061783,8068.244768
2695.237347,995.924147,-592.164754,8216.285956
2695.237675,1225.752797,-1332.370696,9178.553681
2695.238004,383.047749,-3552.988522,10066.800811
2695.238333,-766.095498,-2886.803174,9696.697840
2695.238662,-1072.533697,-1480.411884,9474.636058
2695.238991,-1072.533697,-888.247130,9918.759623
2695.239320,0.000000,222.061783,9474.636058
2695.239649,919.314598,370.102971,8882.471304
2695.239978,2298.286494,1258.350101,8734.430116
2695.240307,2298.286494,592.164754,8290.306550
2695.240636,2145.067394,518.144159,7846.182985
2695.240965,1608.800546,1258.350101,7994.224174
2695.241294,306.438199,1850.514855,8438.347739
2695.241623,-842.705048,592.164754,8882.471304
2695.241952,-919.314598,-592.164754,9178.553681
2695.242281,-1608.800546,-962.267725,9400.615463
2695.242610,-2221.676944,-2516.700203,10214.842000
2695.242939,-1991.848295,-2886.803174,9918.759623
2695.243268,-1762.019645,-2146.597232,9474.636058
2695.243597,-2298.286494,-888.247130,9918.759623
2695.243926,-2068.457845,-592.164754,10288.862594
2695.244255,-842.705048,370.102971,9178.553681
2695.244584,459.657299,888.247130,8512.368333
2695.244913,1378.971896,1184.329507,8956.491898
2695.245242,1225.752797,444.123565,9104.533087
2695.245571,842.705048,814.226536,9474.636058
2695.245900,766.095498,666.185348,9696.697840
2695.246229,0.000000,1332.370696,7698.141797
2695.246557,383.047749,592.164754,7846.182985
2695.246886,689.485948,-0.000000,8216.285956
2695.247215,689.485948,-962.267725,9400.615463
2695.247544,-995.924147,-1776.494261,8956.491898
2695.247873,0.000000,-2886.803174,9474.636058
2695.248202,-306.438199,-1850.514855,9622.677246
2695.248531,-995.924147,-814.226536,9400.615463
2695.248860,-766.095498,-814.226536,9696.697840
2695.249189,919.314598,-222.061783,8660.409521
2695.249518,2298.286494,296.082377,8808.450710
2695.249847,2987.772442,814.226536,8586.388927
2695.250176,2374.896044,740.205942,8216.285956
2695.250505,1685.410096,1258.350101,7994.224174
2695.250834,2068.457845,1332.370696,8216.285956
2695.251163,1072.533697,1776.494261,7550.100608
2695.251492,0.000000,518.144159,8216.285956
2695.251821,229.828649,-1110.308913,9844.739029
2695.252150,-919.314598,-1480.411884,8956.491898
2695.252479,-1378.971896,-2442.679609,10510.924376
2695.252808,-766.095498,-2664.741391,9770.718434
2695.253137,-1149.143247,-1184.329507,9474.636058
2695.253466,-2068.457845,-444.123565,10362.883188
2695.253795,-153.219100,666.185348,9474.636058
2695.254124,1302.362347,-666.185348,9104.533087
2695.254453,1991.848295,1480.411884,9104.533087
2695.254782,2681.334243,444.123565,8734.430116
2695.255111,2374.896044,1184.329507,7994.224174
2695.255439,2068.457845,1406.391290,8512.368333
2695.255768,1532.190996,1924.535449,9030.512492
2695.256097,689.485948,814.226536,8586.388927
2695.256426,536.266849,814.226536,9104.533087
2695.256755,-612.876398,-1258.350101,10214.842000
2695.257084,-1762.019645,-1924.535449,10955.047942
2695.257413,-1072.533697,-2220.617826,10362.883188
2695.257742,-1225.752797,-1924.535449,10510.924376
2695.258071,-1378.971896,-1110.308913,10288.862594
2695.258400,-383.047749,-666.185348,9770.718434
2695.258729,919.314598,370.102971,8956.491898
2695.259058,1991.848295,-148.041188,8586.388927
2695.259387,2374.896044,740.205942,8438.347739
2695.259716,3370.820191,1258.350101,8142.265362
2695.260045,2757.943793,1776.494261,7698.141797
2695.260374,2681.334243,1702.473667,7846.182985
2695.260703,1378.971896,1480.411884,8660.409521
2695.261032,842.705048,148.041188,8290.306550
2695.261361,689.485948,-0.000000,8290.306550
2695.261690,306.438199,-1998.556043,9104.533087
2695.262019,-383.047749,-2368.659014,10140.821405
2695.262348,-1608.800546,-1850.514855,10584.944971
2695.262677,-1455.581446,-1628.453072,9400.615463
2695.263006,-1302.362347,-592.164754,8956.491898
2695.263335,-919.314598,-148.041188,9770.718434
2695.263664,306.438199,-222.061783,8438.347739
2695.263993,1838.629195,-0.000000,8660.409521
2695.264321,689.485948,962.267725,8438.347739
2695.264650,1991.848295,-0.000000,8438.347739
2695.264979,766.095498,1332.370696,8068.244768
2695.265308,0.000000,962.267725,8438.347739
2695.265637,-536.266849,1036.288319,8068.244768
2695.265966,-842.705048,-814.226536,8808.450710
2695.266295,-1302.362347,-962.267725,9326.594869
2695.266624,-1378.971896,-2368.659014,9770.718434
2695.266953,-2681.334243,-2738.761985,10362.883188
2695.267282,-2145.067394,-2146.597232,9696.697840
2695.267611,-1532.190996,-222.061783,9918.759623
2695.267940,-1838.629195,-222.061783,9400.615463
2695.268269,-766.095498,-592.164754,9326.594869
2695.268598,153.219100,-0.000000,8586.388927
2695.268927,1302.362347,-222.061783,8512.368333
2695.269256,1838.629195,666.185348,8660.409521
2695.269585,2374.896044,-0.000000,8068.244768
2695.269914,1455.581446,888.247130,7994.224174
2695.270243,1072.533697,888.247130,7994.224174
2695.270572,1149.143247,-0.000000,8808.450710
2695.270901,306.438199,-1110.308913,8956.491898
2695.271230,459.657299,-518.144159,9178.553681
2695.271559,-383.047749,-2368.659014,9918.759623
2695.271888,-612.876398,-1850.514855,9622.677246
2695.272217,0.000000,-1184.329507,9770.718434
2695.272546,0.000000,-0.000000,9326.594869
2695.272875,995.924147,-0.000000,9178.553681
2695.273203,1225.752797,592.164754,8216.285956
2695.273532,3524.039291,444.123565,8808.450710
2695.273861,3294.210641,740.205942,7920.203579
2695.274190,3294.210641,962.267725,8216.285956
2695.274519,2681.334243,1332.370696,7328.038826
2695.274848,1762.019645,1258.350101,8290.306550
2695.275177,76.609550,518.144159,8882.471304
2695.275506,306.438199,-962.267725,8586.388927
2695.275835,-536.266849,-1554.432478,10584.944971
2695.276164,-1455.581446,-1258.350101,10584.944971
2695.276493,-1532.190996,-2294.638420,10584.944971
2695.276822,-1225.752797,-1628.453072,10881.027347
2695.277151,-1302.362347,-740.205942,9918.759623
2695.277480,0.000000,-0.000000,9992.780217
2695.277809,689.485948,518.144159,8956.491898
2695.278139,2528.115143,1480.411884,7328.038826
2695.278468,3524.039291,1332.370696,7031.956449
2695.278797,2757.943793,1776.494261,7846.182985
2695.279126,2528.115143,814.226536,8068.244768
2695.279455,1685.410096,1628.453072,7179.997637
2695.279784,459.657299,740.205942,7920.203579
2695.280113,-1072.533697,-0.000000,9474.636058
2695.280442,-1608.800546,-1184.329507,10658.965565
2695.280771,-1532.190996,-2368.659014,9992.780217
2695.281100,-2221.676944,-2368.659014,9992.780217
2695.281429,-2298.286494,-2368.659014,10881.027347
2695.281758,-1608.800546,-2442.679609,9844.739029
2695.282087,-2451.505594,370.102971,9474.636058
2695.282416,-1455.581446,-888.247130,10140.821405
2695.282745,-229.828649,-1110.308913,9622.677246
2695.283075,2374.896044,962.267725,8142.265362
2695.283404,2681.334243,-222.061783,8512.368333
2695.283733,3907.087040,1998.556043,6069.688724
2695.284062,3677.258390,888.247130,6735.874072
2695.284391,2757.943793,2442.679609,7550.100608
2695.284720,2298.286494,1850.514855,7846.182985
2695.285049,1378.971896,1258.350101,7105.977043
2695.285378,-995.924147,-148.041188,8364.327145
2695.285707,0.000000,-1110.308913,10066.800811
2695.286036,-2068.457845,-3775.050304,10807.006753
2695.286365,-2911.162892,-2516.700203,10807.006753
2695.286694,-2451.505594,-2368.659014,11251.130318
2695.287023,-2987.772442,-1702.473667,9918.759623
2695.287352,-2145.067394,-296.082377,9622.677246
2695.287681,383.047749,-518.144159,9696.697840
2695.288011,76.609550,-0.000000,8364.327145
2695.288340,1838.629195,814.226536,8512.368333
2695.288669,2911.162892,888.247130,6957.935855
2695.288998,2911.162892,1702.473667,7698.141797
2695.289327,919.314598,2146.597232,7624.121203
2695.289656,536.266849,1554.432478,7328.038826
2695.289985,-536.266849,-148.041188,8808.450710
2695.290314,-612.876398,-1480.411884,8734.430116
2695.290643,-1762.019645,-1850.514855,10732.986159
2695.290972,-2451.505594,-3182.885551,10955.047942
2695.291301,-2451.505594,-2072.576638,10362.883188
2695.291630,-2451.505594,-1998.556043,11251.130318
2695.291959,-2681.334243,-1332.370696,10955.047942
2695.292288,-1455.581446,-666.185348,10362.883188
2695.292617,766.095498,-296.082377,9104.533087
2695.292947,1762.019645,1184.329507,7772.162391
2695.293276,3217.601092,1184.329507,7476.080014
2695.293605,3140.991542,2146.597232,6513.812290
2695.293934,3064.381992,2812.782580,6143.709319
2695.294263,1302.362347,2886.803174,6883.915261
2695.294592,0.000000,444.123565,8142.265362
2695.294921,-1532.190996,-148.041188,8586.388927
2695.295250,-2757.943793,-888.247130,8808.450710
2695.295579,-3677.258390,-2886.803174,10881.027347
2695.295908,-4749.792088,-2738.761985,9992.780217
2695.296237,-4366.744339,-2886.803174,11621.233289
2695.296566,-4903.011187,-1406.391290,10140.821405
2695.296895,-4136.915689,-1776.494261,9992.780217
2695.297224,-3294.210641,-814.226536,9918.759623
2695.297553,-1455.581446,-0.000000,8734.430116
2695.297883,-612.876398,-0.000000,7994.224174
2695.298212,-229.828649,-0.000000,9474.636058
2695.298541,0.000000,962.267725,6661.853478
2695.298870,1608.800546,1850.514855,7772.162391
2695.299199,842.705048,2368.659014,5403.503377
2695.299528,-459.657299,1702.473667,8068.244768
2695.299857,-2298.286494,-74.020594,9400.615463
2695.300186,-2757.943793,666.185348,8586.388927
2695.300515,-2911.162892,-1998.556043,10066.800811
2695.300844,-5439.278036,-1554.432478,9400.615463
2695.301173,-5745.716235,-2368.659014,12065.356855
2695.301502,-6128.763984,-2368.659014,11251.130318
2695.301831,-4826.401637,-1036.288319,10584.944971
2695.302160,-4136.915689,-1776.494261,10881.027347
2695.302489,-3064.381992,-0.000000,9178.553681
2695.302818,-1455.581446,1924.535449,8364.327145
2695.303148,-1532.190996,1258.350101,7846.182985
2695.303477,-1302.362347,740.205942,8882.471304
2695.303806,-1225.752797,1702.473667,7550.100608
2695.304135,-306.438199,1924.535449,7328.038826
2695.304464,-1685.410096,1332.370696,6513.812290
2695.304793,-2451.505594,444.123565,8068.244768
2695.305122,-3907.087040,-592.164754,9104.533087
2695.305451,-3830.477490,-666.185348,9326.594869
2695.305780,-3907.087040,-148.041188,7402.059420
2695.306109,-5515.887586,-1036.288319,9696.697840
2695.306438,-7431.126331,-3182.885551,11547.212695
2695.306767,-7354.516781,-4071.132681,12509.480420
2695.307096,-6281.983084,-2072.576638,11029.068536
2695.307425,-4290.134789,-1628.453072,9918.759623
2695.307754,-3370.820191,-1554.432478,10288.862594
2695.308084,-3140.991542,888.247130,9474.636058
2695.308413,-842.705048,1184.329507,8438.347739
2695.308742,-306.438199,1406.391290,7772.162391
2695.309071,1149.143247,666.185348,9474.636058
2695.309400,1149.143247,962.267725,5773.606348
2695.309729,2374.896044,1332.370696,7402.059420
2695.310058,383.047749,1554.432478,5255.462188
2695.310387,536.266849,370.102971,7402.059420
2695.310716,-1685.410096,-0.000000,9696.697840
2695.311045,-2681.334243,-740.205942,10214.842000
2695.311374,-2221.676944,-2368.659014,11621.233289
2695.311703,-3217.601092,-888.247130,8512.368333
2695.312032,-3217.601092,-1406.391290,10140.821405
2695.312361,-3524.039291,-1480.411884,10881.027347
2695.312690,-2068.457845,-1702.473667,10881.027347
2695.313020,-1532.190996,-888.247130,10362.883188
2695.313349,-1762.019645,370.102971,9326.594869
2695.313678,-2145.067394,1036.288319,8808.450710
2695.314007,-2145.067394,-296.082377,8216.285956
2695.314336,-1608.800546,1184.329507,8364.327145
2695.314665,-1149.143247,370.102971,8290.306550
2695.314994,-536.266849,296.082377,7402.059420
2695.315323,-995.924147,1110.308913,7402.059420
2695.315652,-2451.505594,1406.391290,7328.038826
2695.315981,-2681.334243,370.102971,7698.141797
2695.316310,-2451.505594,-1776.494261,9474.636058
2695.316639,-2911.162892,-1850.514855,9696.697840
2695.316968,-3447.429741,-370.102971,10066.800811
2695.317297,-3830.477490,814.226536,8808.450710
2695.317626,-3983.696590,518.144159,8734.430116
2695.317956,-3753.867940,148.041188,10066.800811
2695.318285,-3524.039291,-740.205942,9992.780217
2695.318614,-3830.477490,-1036.288319,10510.924376
2695.318943,-4290.134789,-740.205942,9622.677246
2695.319272,-4366.744339,-740.205942,9178.553681
2695.319601,-3677.258390,-1184.329507,9548.656652
2695.319930,-2987.772442,-740.205942,8808.450710
2695.320259,-2451.505594,-1332.370696,8734.430116
2695.320588,-2221.676944,-296.082377,8660.409521
2695.320917,-2298.286494,-0.000000,8438.347739
2695.321246,-2451.505594,74.020594,9178.553681
2695.321575,-2451.505594,518.144159,8660.409521
2695.321904,-2987.772442,666.185348,8882.471304
2695.322233,-2757.943793,518.144159,9326.594869
2695.322562,-2834.553343,444.123565,9474.636058
2695.322892,-2987.772442,444.123565,9696.697840
2695.323221,-3370.820191,-148.041188,9548.656652
2695.323550,-3677.258390,-666.185348,9474.636058
2695.323879,-3064.381992,-1036.288319,9548.656652
2695.324208,-2681.334243,-0.000000,9030.512492
2695.324537,-2298.286494,-222.061783,8808.450710
2695.324866,-2068.457845,-0.000000,8438.347739
2695.325195,-1915.238745,-222.061783,8660.409521
2695.325524,-2221.676944,-592.164754,8364.327145
2695.325853,-2298.286494,-666.185348,9030.512492
2695.326182,-2911.162892,-222.061783,9252.574275
2695.326511,-3140.991542,-0.000000,9400.615463
2695.326840,-3447.429741,592.164754,9548.656652
2695.327169,-3907.087040,666.185348,9622.677246
2695.327498,-3677.258390,740.205942,9770.718434
2695.327828,-3217.601092,-370.102971,9474.636058
2695.328157,-2911.162892,-962.267725,9474.636058
2695.328486,-1915.238745,-1998.556043,9400.615463
2695.328815,-1455.581446,-1036.288319,9104.533087
2695.329144,-1302.362347,-0.000000,7772.162391
2695.329473,-1378.971896,222.061783,8142.265362
2695.329802,-536.266849,-0.000000,8956.491898
2695.330131,306.438199,444.123565,7105.977043
2695.330460,0.000000,1110.308913,7846.182985
2695.330789,-459.657299,740.205942,7105.977043
2695.331118,-1378.971896,518.144159,8290.306550
2695.331447,-2451.505594,-74.020594,9474.636058
2695.331776,-2528.115143,-1036.288319,10288.862594
2695.332105,-2757.943793,-1480.411884,9548.656652
2695.332434,-3217.601092,-1184.329507,9548.656652
2695.332763,-4366.744339,-1850.514855,10288.862594
2695.333093,-4519.963438,-1036.288319,10807.006753
2695.333422,-3753.867940,-592.164754,10510.924376
2695.333751,-2757.943793,-370.102971,9400.615463
2695.334080,-1838.629195,370.102971,9104.533087
2695.334409,-1455.581446,888.247130,7698.141797
2695.334738,-1685.410096,814.226536,7105.977043
2695.335067,-1225.752797,-518.144159,10140.821405
2695.335396,-383.047749,-0.000000,8956.491898
2695.335725,0.000000,-0.000000,7402.059420
2695.336054,-536.266849,-0.000000,8142.265362
2695.336383,-1149.143247,592.164754,7920.203579
2695.336712,-1608.800546,-518.144159,9474.636058
2695.337041,-2834.553343,-74.020594,9400.615463
2695.337370,-2528.115143,-148.041188,9770.718434
2695.337699,-2145.067394,-518.144159,9622.677246
2695.338029,-2987.772442,740.205942,8586.388927
2695.338358,-3830.477490,148.041188,9252.574275
2695.338687,-3753.867940,148.041188,8734.430116
2695.339016,-3064.381992,444.123565,8290.306550
2695.339345,-2911.162892,-444.123565,9104.533087
2695.339674,-3907.087040,-888.247130,8734.430116
2695.340003,-4366.744339,-1998.556043,9104.533087
2695.340332,-4903.011187,-3034.844362,9474.636058
2695.340661,-4903.011187,-2294.638420,9918.759623
2695.340990,-4749.792088,-2072.576638,10214.842000
2695.341319,-4213.525239,-1850.514855,10140.821405
2695.341648,-4060.306139,-888.247130,10362.883188
2695.341977,-3524.039291,-0.000000,9844.739029
2695.342306,-2451.505594,518.144159,9474.636058
2695.342635,-1915.238745,1776.494261,8512.368333
2695.342965,-1455.581446,2294.638420,8364.327145
2695.343294,-1685.410096,2368.659014,7920.203579
2695.343623,-2221.676944,1628.453072,7624.121203
2695.343952,-2068.457845,1628.453072,8586.388927
2695.344281,-1838.629195,592.164754,7624.121203
2695.344610,-1762.019645,296.082377,7328.038826
2695.344939,-2221.676944,-0.000000,7550.100608
2695.345268,-2681.334243,296.082377,7772.162391
2695.345597,-3294.210641,296.082377,8512.368333
2695.345926,-3447.429741,1184.329507,8882.471304
2695.346255,-3677.258390,1924.535449,9400.615463
2695.346584,-3370.820191,1184.329507,9992.780217
2695.346913,-2757.943793,1554.432478,10140.821405
2695.347242,-3753.867940,1258.350101,10066.800811
2695.347571,-4366.744339,148.041188,11843.295072
2695.347901,-3217.601092,370.102971,11473.192101
2695.348230,-2298.286494,814.226536,10362.883188
2695.348559,-995.924147,518.144159,9844.739029
2695.348888,-612.876398,2072.576638,6957.935855
2695.349217,-995.924147,814.226536,9770.718434
2695.349546,766.095498,740.205942,11769.274478
2695.349875,2451.505594,3034.844362,5847.626942
2695.350204,5439.278036,3923.091493,7550.100608
2695.350533,3753.867940,4293.194464,4145.153275
2695.350862,4136.915689,4959.379811,6883.915261
2695.351191,2834.553343,3849.070898,7772.162391
2695.351520,2451.505594,4441.235652,8142.265362
2695.351849,1532.190996,1554.432478,10510.924376
2695.352178,-306.438199,2664.741391,10140.821405
2695.352507,-1915.238745,740.205942,11695.253884
2695.352837,-2221.676944,518.144159,11325.150913
2695.353166,-1302.362347,1554.432478,10140.821405
2695.353495,0.000000,1332.370696,11769.274478
2695.353824,1072.533697,2368.659014,9400.615463
2695.354153,1915.238745,4441.235652,7624.121203
2695.354482,2451.505594,2590.720797,7254.018232
2695.354811,3600.648841,5033.400406,6217.729913
2695.355140,2528.115143,5107.421000,5847.626942
2695.355469,2374.896044,4663.297435,7550.100608
2695.355798,1072.533697,4071.132681,8290.306550
2695.356127,-612.876398,1924.535449,9622.677246
2695.356456,-3064.381992,2072.576638,9696.697840
2695.356785,-3677.258390,-0.000000,11547.212695
2695.357114,-3907.087040,370.102971,11177.109724
2695.357443,-3524.039291,2368.659014,10288.862594
2695.357773,-3983.696590,2146.597232,9622.677246
2695.358102,-4290.134789,2220.617826,11251.130318
2695.358431,-2834.553343,2220.617826,11399.171507
2695.358760,-2145.067394,2368.659014,9918.759623
2695.359089,-766.095498,3404.947333,8142.265362
2695.359418,-1225.752797,3552.988522,7698.141797
2695.359747,-1455.581446,2072.576638,10288.862594
2695.360076,1225.752797,2368.659014,10584.944971
2695.360405,2681.334243,5699.585753,3775.050304
2695.360734,4749.792088,4145.153275,8586.388927
2695.361063,2757.943793,5255.462188,5921.647536
2695.361392,3830.477490,6291.750507,7772.162391
2695.361721,1685.410096,6439.791695,6661.853478
2695.362050,1915.238745,5699.585753,7179.997637
2695.362379,1149.143247,4441.235652,9400.615463
2695.362708,459.657299,5329.482782,7550.100608
2695.363038,-2298.286494,2072.576638,11769.274478
2695.363367,-2911.162892,-0.000000,11843.295072
2695.363696,-1838.629195,1480.411884,10436.903782
2695.364025,-2068.457845,-1184.329507,11547.212695
2695.364354,-2221.676944,2664.741391,9326.594869
2695.364683,-766.095498,2146.597232,11695.253884
2695.365012,1378.971896,2368.659014,9474.636058
2695.365341,2221.676944,5403.503377,7994.224174
2695.365670,3524.039291,3997.112087,7476.080014
2695.365999,3983.696590,4663.297435,7846.182985
2695.366328,3370.820191,5773.606348,7328.038826
2695.366657,2987.772442,4959.379811,7105.977043
2695.366986,1149.143247,3627.009116,7846.182985
2695.367315,689.485948,3923.091493,10881.027347
2695.367644,-1532.190996,814.226536,12139.377449
2695.367974,-3447.429741,-0.000000,11769.274478
2695.368303,-3140.991542,1480.411884,12213.398043
2695.368632,-2145.067394,-814.226536,11695.253884
2695.368961,-3064.381992,2072.576638,9474.636058
2695.369290,-1608.800546,1258.350101,9474.636058
2695.369619,-766.095498,2368.659014,8586.388927
2695.369948,1149.143247,-148.041188,13323.706956
2695.370277,3140.991542,1776.494261,7254.018232
2695.370606,5439.278036,3330.926739,8216.285956
2695.370935,3294.210641,3552.988522,5921.647536
2695.371264,3830.477490,4293.194464,4441.235652
2695.371593,3753.867940,4737.318029,7920.203579
2695.371922,2451.505594,5181.441594,6513.812290
2695.372251,2221.676944,4885.359217,7846.182985
2695.372580,536.266849,3997.112087,7179.997637
2695.372910,-2834.553343,1480.411884,7994.224174
2695.373239,-3677.258390,-4145.153275,14137.933492
2695.373568,-3907.087040,888.247130,11103.089130
2695.373897,-3370.820191,-1998.556043,10658.965565
2695.374226,-2987.772442,296.082377,9326.594869
2695.374555,-2298.286494,2590.720797,11103.089130
2695.374884,612.876398,2220.617826,8660.409521
2695.375213,0.000000,3256.906145,7994.224174
2695.375542,3907.087040,2294.638420,10140.821405
2695.375871,3064.381992,3627.009116,5033.400406
2695.376200,5132.839837,3923.091493,9326.594869
2695.376529,3140.991542,6365.771101,3849.070898
2695.376858,4903.011187,1924.535449,7328.038826
2695.377187,2681.334243,5773.606348,5699.585753
2695.377516,3524.039291,4219.173869,6587.832884
2695.377846,919.314598,4663.297435,7550.100608
2695.378175,-612.876398,7105.977043,5181.441594
2695.378504,-4673.182538,-666.185348,10214.842000
2695.378833,-6281.983084,-3701.029710,14804.118840
2695.379162,-4290.134789,3701.029710,9252.574275
2695.379491,-4136.915689,-4515.256246,10436.903782
2695.379820,-4673.182538,-2368.659014,12731.542202
2695.380149,-3447.429741,3627.009116,13027.624579
2695.380478,153.219100,666.185348,9400.615463
2695.380808,-2528.115143,6439.791695,6809.894666
2695.381137,2068.457845,-888.247130,14582.057057
2695.381466,4826.401637,3108.864956,7846.182985
2695.381795,3677.258390,6217.729913,7105.977043
2695.382124,3907.087040,3775.050304,5921.647536
2695.382453,2604.724693,6735.874072,3997.112087
2695.382782,3294.210641,5033.400406,11769.274478
2695.383111,-1149.143247,6661.853478,5921.647536
2695.383440,1378.971896,7179.997637,10362.883188
2695.383770,-612.876398,2960.823768,8290.306550
2695.384099,76.609550,6217.729913,5033.400406
2695.384428,-1762.019645,1998.556043,13175.665768
2695.384757,-4060.306139,-2368.659014,12805.562797
2695.385086,-2681.334243,-0.000000,9104.533087
2695.385415,-1991.848295,-1258.350101,11251.130318
2695.385744,-2451.505594,222.061783,10658.965565
2695.386073,-2451.505594,3256.906145,9992.780217
2695.386402,1455.581446,2368.659014,7550.100608
2695.386732,1225.752797,8142.265362,6957.935855
2695.387061,2911.162892,5329.482782,7920.203579
2695.387390,2221.676944,4071.132681,9696.697840
2695.387719,229.828649,5329.482782,9474.636058
2695.388048,383.047749,5995.668130,7994.224174
2695.388377,1149.143247,2960.823768,6735.874072
2695.388706,2451.505594,1036.288319,10214.842000
2695.389035,1685.410096,2368.659014,11029.068536
2695.389365,612.876398,2368.659014,10658.965565
2695.389694,-383.047749,1998.556043,7772.162391
2695.390023,919.314598,1776.494261,9770.718434
2695.390352,1225.752797,4663.297435,9178.553681
2695.390681,-306.438199,3627.009116,9030.512492
2695.391010,0.000000,2664.741391,8364.327145
2695.391339,2068.457845,1628.453072,8660.409521
2695.391668,2757.943793,3256.906145,7920.203579
2695.391997,2451.505594,3627.009116,8956.491898
2695.392327,153.219100,2368.659014,9474.636058
2695.392656,-459.657299,1110.308913,9844.739029
2695.392985,-919.314598,2960.823768,9548.656652
2695.393314,-689.485948,3478.967927,9918.759623
2695.393643,-1302.362347,4145.153275,9844.739029
2695.393972,-2451.505594,3627.009116,10140.821405
2695.394301,-1378.971896,1406.391290,10288.862594
2695.394630,-383.047749,-148.041188,9918.759623
2695.394960,0.000000,-222.061783,10288.862594
2695.395289,-1225.752797,1554.432478,9622.677246
2695.395618,153.219100,2368.659014,9030.512492
2695.395947,2757.943793,2442.679609,7698.141797
2695.396276,2987.772442,3923.091493,6513.812290
2695.396605,1378.971896,3256.906145,8364.327145
2695.396934,689.485948,3108.864956,8290.306550
2695.397263,2374.896044,2146.597232,8290.306550
2695.397592,3064.381992,1850.514855,7920.203579
2695.397922,536.266849,2220.617826,8290.306550
2695.398251,-1225.752797,1406.391290,11029.068536
2695.398580,-1378.971896,-518.144159,11177.109724
2695.398909,-1302.362347,148.041188,9992.780217
2695.399238,-2298.286494,1406.391290,9400.615463
2695.399567,-2451.505594,740.205942,10732.986159
2695.399896,-2987.772442,-0.000000,10288.862594
2695.400225,-1532.190996,740.205942,8512.368333
2695.400554,-459.657299,740.205942,7624.121203
2695.400884,-383.047749,-0.000000,8956.491898
2695.401213,612.876398,814.226536,9030.512492
2695.401542,1455.581446,2220.617826,7105.977043
2695.401871,1072.533697,1850.514855,6957.935855
2695.402200,919.314598,740.205942,8956.491898
2695.402529,1149.143247,-0.000000,10510.924376
2695.402858,1072.533697,1480.411884,9252.574275
2695.403187,229.828649,2220.617826,8068.244768
2695.403517,0.000000,1628.453072,10140.821405
2695.403846,-229.828649,1850.514855,10584.944971
2695.404175,-459.657299,962.267725,9474.636058
2695.404504,-1302.362347,888.247130,9400.615463
2695.404833,-306.438199,-222.061783,9696.697840
2695.405162,229.828649,-0.000000,9178.553681
2695.405491,689.485948,-148.041188,8808.450710
2695.405820,842.705048,-1332.370696,8660.409521
2695.406149,1532.190996,-1776.494261,8142.265362
2695.406479,2374.896044,814.226536,7994.224174
2695.406808,2374.896044,2220.617826,7105.977043
2695.407137,2834.553343,1110.308913,8512.368333
2695.407466,3447.429741,1480.411884,8808.450710
2695.407795,3753.867940,1258.350101,8364.327145
2695.408124,1762.019645,518.144159,9474.636058
2695.408453,919.314598,-666.185348,9696.697840
2695.408782,536.266849,370.102971,11251.130318
2695.409111,-766.095498,-0.000000,10362.883188
2695.409441,-2834.553343,592.164754,9548.656652
2695.409770,-1455.581446,-1110.308913,10510.924376
2695.410099,-1072.533697,-148.041188,9474.636058
2695.410428,-1378.971896,518.144159,9252.574275
2695.410757,-842.705048,-1776.494261,9104.533087
2695.411086,0.000000,-1480.411884,9400.615463
2695.411415,0.000000,-592.164754,8660.409521
2695.411744,536.266849,-444.123565,8068.244768
2695.412074,919.314598,-1628.453072,8586.388927
2695.412403,2374.896044,-1332.370696,8512.368333
2695.412732,2681.334243,1258.350101,8290.306550
2695.413061,1302.362347,1258.350101,9326.594869
2695.413390,1072.533697,-0.000000,9326.594869
2695.413719,1302.362347,1480.411884,9104.533087
2695.414048,0.000000,1406.391290,8364.327145
2695.414377,-1149.143247,-0.000000,9400.615463
2695.414706,-1149.143247,-1850.514855,10140.821405
2695.415036,-842.705048,-1036.288319,9178.553681
2695.415365,-1838.629195,-518.144159,9104.533087
2695.415694,-2145.067394,-2738.761985,9696.697840
2695.416023,-1072.533697,-3330.926739,9326.594869
2695.416352,-383.047749,-370.102971,7698.141797
2695.416681,153.219100,-518.144159,7624.121203
2695.417010,1149.143247,-148.041188,8142.265362
2695.417339,2145.067394,-148.041188,7920.203579
2695.417669,2528.115143,1184.329507,7328.038826
2695.417998,2221.676944,1184.329507,8290.306550
2695.418327,2451.505594,-296.082377,9030.512492
2695.418656,2298.286494,1110.308913,8438.347739
2695.418985,536.266849,1702.473667,8808.450710
2695.419314,0.000000,-0.000000,9918.759623
2695.419643,0.000000,-222.061783,9548.656652
2695.419972,-383.047749,-0.000000,9992.780217
2695.420301,-1762.019645,-296.082377,10140.821405
2695.420631,-1685.410096,-1924.535449,9696.697840
2695.420960,-306.438199,-1776.494261,9548.656652
2695.421289,-306.438199,222.061783,8512.368333
2695.421618,-995.924147,666.185348,8956.491898
2695.421947,153.219100,-1554.432478,10066.800811
2695.422276,1302.362347,-0.000000,9104.533087
2695.422605,1302.362347,814.226536,9030.512492
2695.422934,1302.362347,444.123565,8586.388927
2695.423263,1378.971896,444.123565,10288.862594
2695.423593,1149.143247,2146.597232,9326.594869
2695.423922,612.876398,1258.350101,8882.471304
2695.424251,306.438199,-0.000000,9918.759623
2695.424580,612.876398,-518.144159,9770.718434
2695.424909,-459.657299,-0.000000,9548.656652
2695.425238,-1532.190996,-1110.308913,10214.842000
2695.425567,-459.657299,-2590.720797,9992.780217
2695.425896,-842.705048,-1110.308913,8290.306550
2695.426226,-919.314598,444.123565,8808.450710
2695.426555,-306.438199,-1036.288319,8660.409521
2695.426884,536.266849,-814.226536,7994.224174
2695.427213,1072.533697,-296.082377,8512.368333
2695.427542,766.095498,-222.061783,8290.306550
2695.427871,995.924147,-1332.370696,8808.450710
2695.428200,536.266849,-222.061783,9178.553681
2695.428529,919.314598,592.164754,9400.615463
2695.428858,306.438199,-0.000000,9474.636058
2695.429188,1225.752797,-962.267725,8660.409521
2695.429517,1762.019645,-0.000000,9474.636058
2695.429846,536.266849,148.041188,8956.491898
2695.430175,459.657299,-1036.288319,9400.615463
2695.430504,1378.971896,-592.164754,9326.594869
2695.430833,383.047749,296.082377,7772.162391
2695.431162,536.266849,1184.329507,7994.224174
2695.431491,383.047749,-1258.350101,7994.224174
2695.431820,689.485948,-1998.556043,7994.224174
2695.432150,689.485948,-0.000000,8364.327145
2695.432479,229.828649,-814.226536,8882.471304
2695.432808,612.876398,-1702.473667,9326.594869
2695.433137,76.609550,370.102971,9326.594869
2695.433466,-153.219100,-0.000000,9400.615463
2695.433795,-306.438199,-740.205942,9474.636058
2695.434124,766.095498,-888.247130,9770.718434
2695.434453,536.266849,148.041188,9918.759623
2695.434783,76.609550,148.041188,9178.553681
2695.435112,1455.581446,-222.061783,9770.718434
2695.435441,1302.362347,962.267725,8142.265362
2695.435770,383.047749,1702.473667,8290.306550
2695.436099,0.000000,518.144159,8290.306550
2695.436428,153.219100,-1184.329507,8216.285956
2695.436757,306.438199,296.082377,8216.285956
2695.437086,-689.485948,-444.123565,8586.388927
2695.437415,-1378.971896,-2294.638420,9030.512492
2695.437745,-1991.848295,-2220.617826,10288.862594
2695.438074,-1915.238745,-1110.308913,10066.800811
2695.438403,-2145.067394,-1332.370696,10066.800811
2695.438732,-229.828649,-1184.329507,9844.739029
2695.439061,919.314598,-1036.288319,9474.636058
2695.439390,229.828649,444.123565,9030.512492
2695.439719,1149.143247,-444.123565,9474.636058
2695.440048,2298.286494,-370.102971,8808.450710
2695.440378,1915.238745,1850.514855,7624.121203
2695.440707,1762.019645,2442.679609,7624.121203
2695.441036,1762.019645,592.164754,7994.224174
2695.441365,1915.238745,-0.000000,8216.285956
2695.441694,1915.238745,-74.020594,8364.327145
2695.442023,0.000000,-1406.391290,9104.533087
2695.442352,-842.705048,-1776.494261,9474.636058
2695.442681,-536.266849,-1628.453072,9844.739029
2695.443010,-1072.533697,-0.000000,9696.697840
2695.443340,-1225.752797,-888.247130,9474.636058
2695.443669,76.609550,-1258.350101,10362.883188
2695.443998,459.657299,444.123565,9696.697840
2695.444327,1149.143247,888.247130,9844.739029
2695.444656,1838.629195,-0.000000,9474.636058
2695.444985,2145.067394,888.247130,8956.491898
2695.445314,2221.676944,2960.823768,8438.347739
2695.445643,1838.629195,1924.535449,8142.265362
2695.445972,1991.848295,666.185348,8290.306550
2695.446302,2528.115143,666.185348,7846.182985
2695.446631,1302.362347,888.247130,8142.265362
2695.446960,0.000000,-74.020594,9474.636058
2695.447289,-995.924147,-1850.514855,9548.656652
2695.447618,-1608.800546,-1332.370696,9326.594869
2695.447947,-2374.896044,-370.102971,9326.594869
2695.448276,-1915.238745,-1702.473667,9770.718434
2695.448605,-1225.752797,-1480.411884,10584.944971
2695.448935,-1225.752797,-518.144159,9696.697840
2695.449264,-383.047749,-444.123565,9696.697840
2695.449593,383.047749,-74.020594,8586.388927
2695.449922,1378.971896,518.144159,8586.388927
2695.450251,1302.362347,2738.761985,8068.244768
2695.450580,1608.800546,1702.473667,7624.121203
2695.450909,2834.553343,-0.000000,7772.162391
2695.451238,2834.553343,592.164754,7402.059420
2695.451567,1302.362347,-0.000000,8290.306550
2695.451897,-153.219100,-1628.453072,8660.409521
2695.452226,-919.314598,-1184.329507,9326.594869
2695.452555,-1225.752797,-222.061783,9400.615463
2695.452884,-2145.067394,-814.226536,9622.677246
2695.453213,-1991.848295,-2738.761985,11177.109724
2695.453542,-1302.362347,-2294.638420,10362.883188
2695.453871,0.000000,-740.205942,9400.615463
2695.454200,-383.047749,-1184.329507,10510.924376
2695.454529,1149.143247,-148.041188,9474.636058
2695.454859,1608.800546,1628.453072,7994.224174
2695.455188,1685.410096,1776.494261,8364.327145
2695.455517,2298.286494,1332.370696,7402.059420
2695.455846,3524.039291,1110.308913,7328.038826
2695.456175,2987.772442,2072.576638,7550.100608
2695.456504,1532.190996,296.082377,8660.409521
2695.456833,153.219100,-1776.494261,9326.594869
2695.457162,-1072.533697,-1110.308913,9400.615463
2695.457492,-1608.800546,-666.185348,10362.883188
2695.457821,-1915.238745,-1998.556043,9918.759623
2695.458150,-1762.019645,-2294.638420,9770.718434
2695.458479,-995.924147,-740.205942,11325.150913
2695.458808,-1378.971896,-666.185348,10214.842000
2695.459137,-536.266849,-1110.308913,9918.759623
2695.459466,919.314598,222.061783,9252.574275
2695.459795,1532.190996,2368.659014,8216.285956
2695.460124,1762.019645,2590.720797,8364.327145
2695.460454,2834.553343,962.267725,7550.100608
2695.460783,3217.601092,1480.411884,7550.100608
2695.461112,2298.286494,1924.535449,7994.224174
2695.461441,919.314598,-592.164754,8290.306550
2695.461770,0.000000,-1480.411884,9030.512492
2695.462099,-995.924147,-518.144159,9104.533087
2695.462428,-1915.238745,-1110.308913,9548.656652
2695.462757,-1991.848295,-2960.823768,10510.924376
2695.463087,-1532.190996,-2886.803174,10658.965565
2695.463416,-1838.629195,-1110.308913,10362.883188
2695.463745,-1532.190996,-1184.329507,10436.903782
2695.464074,-383.047749,-1628.453072,9622.677246
2695.464403,1149.143247,370.102971,8734.430116
2695.464732,2528.115143,2368.659014,8882.471304
2695.465061,2221.676944,1406.391290,7994.224174
2695.465390,3294.210641,222.061783,7920.203579
2695.465719,3677.258390,2294.638420,7624.121203
2695.466049,3294.210641,2072.576638,7402.059420
2695.466378,1608.800546,-592.164754,8882.471304
2695.466707,536.266849,-1332.370696,8808.450710
2695.467036,-995.924147,-666.185348,9696.697840
2695.467365,-1915.238745,-1554.432478,11325.150913
2695.467694,-2528.115143,-3034.844362,10807.006753
2695.468023,-2451.505594,-2368.659014,10881.027347
2695.468352,-2221.676944,-222.061783,10584.944971
2695.468681,-1378.971896,-1480.411884,10288.862594
2695.469011,-229.828649,-1332.370696,10436.903782
2695.469340,1225.752797,1406.391290,8956.491898
2695.469669,2298.286494,1628.453072,8586.388927
2695.469998,3064.381992,962.267725,7624.121203
2695.470327,4443.353888,1036.288319,6587.832884
2695.470656,3370.820191,2368.659014,6809.894666
2695.470985,2528.115143,2590.720797,7254.018232
2695.471314,1991.848295,888.247130,7624.121203
2695.471644,229.828649,-0.000000,7698.141797
2695.471973,-1608.800546,814.226536,9104.533087
2695.472302,-2451.505594,-1702.473667,9770.718434
2695.472631,-2834.553343,-3256.906145,10732.986159
2695.472960,-3064.381992,-2738.761985,10881.027347
2695.473289,-2987.772442,-2294.638420,11103.089130
2695.473618,-2374.896044,-2294.638420,10510.924376
2695.473947,-689.485948,-1480.411884,10732.986159
2695.474276,919.314598,1110.308913,8142.265362
2695.474606,2221.676944,1850.514855,8364.327145
2695.474935,3524.039291,1110.308913,7179.997637
2695.475264,4290.134789,2368.659014,6809.894666
2695.475593,3064.381992,2738.761985,7846.182985
2695.475922,2451.505594,1480.411884,6883.915261
2695.476251,2221.676944,740.205942,7328.038826
2695.476580,1915.238745,296.082377,8290.306550
2695.476909,-689.485948,-1406.391290,10807.006753
2695.477239,-1532.190996,-4441.235652,10881.027347
2695.477568,-2298.286494,-3404.947333,10510.924376
2695.477897,-2221.676944,-3404.947333,12213.398043
2695.478226,-3600.648841,-1258.350101,9918.759623
2695.478555,-1685.410096,-2442.679609,11917.315666
2695.478884,-842.705048,518.144159,9992.780217
2695.479213,76.609550,2738.761985,9474.636058
2695.479543,1991.848295,814.226536,8734.430116
2695.479872,4136.915689,1406.391290,7846.182985
2695.480201,4290.134789,2294.638420,7920.203579
2695.480530,2911.162892,1554.432478,7328.038826
2695.480859,1991.848295,-222.061783,7772.162391
2695.481188,2145.067394,888.247130,8142.265362
2695.481517,1225.752797,1628.453072,8216.285956
2695.481846,-689.485948,222.061783,9104.533087
2695.482175,-1302.362347,-2590.720797,10214.842000
2695.482505,-1838.629195,-2220.617826,11103.089130
2695.482834,-3140.991542,-1184.329507,10807.006753
2695.483163,-3140.991542,-2294.638420,11325.150913
2695.483492,-2298.286494,-1998.556043,10436.903782
2695.483821,0.000000,296.082377,9474.636058
2695.484150,689.485948,2220.617826,9252.574275
2695.484479,1608.800546,740.205942,8142.265362
2695.484808,3294.210641,1924.535449,7624.121203
2695.485137,3370.820191,3034.844362,7031.956449
2695.485467,2604.724693,1406.391290,7402.059420
2695.485796,2757.943793,222.061783,8068.244768
2695.486125,2911.162892,1554.432478,6735.874072
2695.486454,459.657299,740.205942,8734.430116
2695.486783,-689.485948,-1258.350101,9548.656652
2695.487112,-919.314598,-2812.782580,9918.759623
2695.487441,-1915.238745,-2368.659014,10807.006753
2695.487770,-2987.772442,-2368.659014,10584.944971
2695.488099,-1991.848295,-3182.885551,11251.130318
2695.488429,-1378.971896,-1776.494261,10510.924376
2695.488758,-306.438199,814.226536,9326.594869
2695.489087,919.314598,148.041188,9474.636058
2695.489416,2451.505594,-0.000000,7994.224174
2695.489745,4136.915689,1332.370696,7402.059420
2695.490074,3753.867940,2368.659014,7328.038826
2695.490403,2528.115143,518.144159,8068.244768
2695.490732,2528.115143,444.123565,7402.059420
2695.491061,2068.457845,2146.597232,7624.121203
2695.491391,612.876398,1036.288319,8512.368333
2695.491720,-536.266849,-1480.411884,9622.677246
2695.492049,-995.924147,-2368.659014,10214.842000
2695.492378,-2604.724693,-3182.885551,10955.047942
2695.492707,-3677.258390,-3256.906145,10955.047942
2695.493036,-2221.676944,-3108.864956,11177.109724
2695.493365,-1915.238745,-1184.329507,9918.759623
2695.493694,-1225.752797,1110.308913,9104.533087
2695.494023,229.828649,444.123565,8660.409521
2695.494353,2298.286494,1110.308913,7994.224174
2695.494682,2834.553343,3182.885551,7179.997637
2695.495011,2528.115143,2146.597232,6957.935855
2695.495340,1762.019645,666.185348,7920.203579
2695.495669,2451.505594,814.226536,8216.285956
2695.495998,1225.752797,592.164754,8068.244768
2695.496327,-383.047749,-74.020594,8438.347739
2695.496656,-1072.533697,-1850.514855,9474.636058
2695.496986,-1378.971896,-1702.473667,10362.883188
2695.497315,-2757.943793,-1036.288319,10732.986159
2695.497644,-2451.505594,-2146.597232,10732.986159
2695.497973,-1455.581446,-1184.329507,11029.068536
2695.498302,-842.705048,740.205942,9696.697840
2695.498631,-536.266849,666.185348,8956.491898
2695.498960,1302.362347,-148.041188,8956.491898
2695.499289,3064.381992,-0.000000,8586.388927
2695.499618,3524.039291,1036.288319,7698.141797
2695.499948,2528.115143,1184.329507,7402.059420
2695.500277,2757.943793,-74.020594,8438.347739
2695.500606,2298.286494,1554.432478,8142.265362
2695.500935,842.705048,1850.514855,8290.306550
2695.501264,0.000000,-1184.329507,8882.471304
2695.501593,-383.047749,-666.185348,8956.491898
2695.501922,-842.705048,-1258.350101,10955.047942
2695.502251,-2145.067394,-2442.679609,10732.986159
2695.502580,-2221.676944,-3404.947333,11769.274478
2695.502910,-1378.971896,-2368.659014,11029.068536
2695.503239,-919.314598,370.102971,9474.636058
2695.503568,383.047749,1406.391290,8956.491898
2695.503897,1762.019645,-814.226536,8142.265362
2695.504226,3294.210641,2146.597232,7476.080014
2695.504555,3370.820191,2294.638420,8216.285956
2695.504884,1532.190996,888.247130,7772.162391
2695.505213,2298.286494,1110.308913,7920.203579
2695.505542,2068.457845,1850.514855,7105.977043
2695.505872,229.828649,444.123565,8512.368333
2695.506201,-612.876398,-2146.597232,9918.759623
2695.506530,-919.314598,-1924.535449,9696.697840
2695.506859,-1762.019645,-1776.494261,10881.027347
2695.507188,-2528.115143,-1628.453072,10584.944971
2695.507517,-2374.896044,-3108.864956,10881.027347
2695.507846,-2298.286494,-0.000000,9844.739029
2695.508175,-1225.752797,592.164754,9030.512492
2695.508504,153.219100,518.144159,9030.512492
2695.508834,2068.457845,-0.000000,8808.450710
2695.509163,2451.505594,1702.473667,7994.224174
2695.509492,2528.115143,1628.453072,7698.141797
2695.509821,2298.286494,222.061783,8142.265362
2695.510150,1685.410096,962.267725,7698.141797
2695.510479,766.095498,1924.535449,8290.306550
2695.510808,0.000000,-74.020594,8586.388927
2695.511137,-919.314598,-2442.679609,10214.842000
2695.511466,-919.314598,-1036.288319,9918.759623
2695.511796,-2068.457845,-1628.453072,10584.944971
2695.512125,-2451.505594,-2146.597232,11621.233289
2695.512454,-1608.800546,-2516.700203,11399.171507
2695.512783,-995.924147,-0.000000,10140.821405
2695.513112,0.000000,222.061783,8808.450710
2695.513441,1838.629195,-296.082377,8956.491898
2695.513770,3064.381992,444.123565,8808.450710
2695.514099,3600.648841,2368.659014,7179.997637
2695.514428,2681.334243,814.226536,7402.059420
2695.514758,2451.505594,518.144159,7846.182985
2695.515087,1991.848295,2072.576638,7179.997637
2695.515416,1225.752797,962.267725,7994.224174
2695.515745,536.266849,-1406.391290,8660.409521
2695.516074,76.609550,-3182.885551,9548.656652
2695.516403,-766.095498,-2146.597232,10362.883188
2695.516732,-2374.896044,-3775.050304,10584.944971
2695.517061,-2528.115143,-3552.988522,10584.944971
2695.517391,-1455.581446,-1036.288319,10362.883188
2695.517720,-1149.143247,592.164754,8290.306550
2695.518049,-536.266849,-592.164754,8956.491898
2695.518378,2374.896044,-296.082377,8216.285956
2695.518707,2911.162892,888.247130,7624.121203
2695.519036,2681.334243,1332.370696,8216.285956
2695.519365,2221.676944,-0.000000,6957.935855
2695.519694,1915.238745,-0.000000,8142.265362
2695.520023,1072.533697,2146.597232,7550.100608
2695.520353,842.705048,148.041188,8438.347739
2695.520682,-612.876398,-962.267725,9326.594869
2695.521011,-536.266849,-888.247130,9918.759623
2695.521340,-1378.971896,-1110.308913,10436.903782
2695.521669,-2757.943793,-2442.679609,10288.862594
2695.521998,-2528.115143,-2590.720797,10807.006753
2695.522327,-1991.848295,-666.185348,9918.759623
2695.522656,-1455.581446,666.185348,9844.739029
2695.522985,0.000000,-518.144159,9474.636058
2695.523315,1762.019645,-222.061783,8512.368333
2695.523644,2681.334243,1924.535449,7920.203579
2695.523973,2757.943793,962.267725,8216.285956
2695.524302,2451.505594,518.144159,8290.306550
2695.524631,2604.724693,1628.453072,7550.100608
2695.524960,1915.238745,3034.844362,7994.224174
2695.525289,995.924147,962.267725,9252.574275
2695.525618,689.485948,-1184.329507,9178.553681
2695.525947,306.438199,-1332.370696,9548.656652
2695.526277,-1149.143247,-888.247130,10436.903782
2695.526606,-2068.457845,-2294.638420,10214.842000
2695.526935,-1991.848295,-1924.535449,11029.068536
2695.527264,-1608.800546,888.247130,9696.697840
2695.527593,-536.266849,-666.185348,9918.759623
2695.527922,-383.047749,-962.267725,9548.656652
2695.528251,1991.848295,370.102971,8808.450710
2695.528580,2298.286494,2516.700203,7994.224174
2695.528909,2068.457845,1110.308913,8142.265362
2695.529239,2145.067394,-74.020594,8512.368333
2695.529568,1455.581446,1184.329507,7698.141797
2695.529897,766.095498,1998.556043,7846.182985
2695.530226,995.924147,-444.123565,8438.347739
2695.530555,306.438199,-0.000000,9178.553681
2695.530884,-383.047749,-666.185348,10066.800811
2695.531213,-2145.067394,-1480.411884,9696.697840
2695.531542,-2374.896044,-2220.617826,10140.821405
2695.531871,-1455.581446,-1332.370696,10140.821405
2695.532201,-1991.848295,222.061783,9474.636058
2695.532530,-1378.971896,-740.205942,9474.636058
2695.532859,153.219100,-1702.473667,9474.636058
2695.533188,1455.581446,814.226536,8438.347739
2695.533517,1149.143247,1258.350101,8216.285956
2695.533846,1455.581446,-0.000000,8512.368333
2695.534175,1149.143247,1776.494261,7698.141797
2695.534504,1225.752797,1998.556043,7846.182985
2695.534833,1072.533697,1184.329507,8364.327145
2695.535163,995.924147,-814.226536,8882.471304
2695.535492,919.314598,-1036.288319,9326.594869
2695.535821,0.000000,-740.205942,8956.491898
2695.536150,-1072.533697,-2368.659014,10140.821405
2695.536479,-612.876398,-3108.864956,10362.883188
2695.536808,0.000000,-444.123565,9178.553681
2695.537137,-229.828649,962.267725,9252.574275
2695.537466,-306.438199,-148.041188,8882.471304
2695.537796,995.924147,-296.082377,8808.450710
2695.538125,1685.410096,1258.350101,8438.347739
2695.538454,1455.581446,222.061783,8512.368333
2695.538783,1225.752797,-1406.391290,9030.512492
2695.539112,1072.533697,-0.000000,8290.306550
2695.539441,459.657299,1110.308913,8586.388927
2695.539770,0.000000,-444.123565,9400.615463
2695.540099,612.876398,-1480.411884,9178.553681
2695.540428,306.438199,-222.061783,8512.368333
2695.540758,0.000000,-222.061783,9474.636058
2695.541087,0.000000,-1258.350101,9326.594869
2695.541416,383.047749,-1998.556043,10288.862594
2695.541745,689.485948,1110.308913,8808.450710
2695.542074,0.000000,222.061783,8438.347739
2695.542403,842.705048,-1036.288319,9474.636058
2695.542732,1455.581446,148.041188,8586.388927
2695.543061,1149.143247,1406.391290,8438.347739
2695.543390,766.095498,222.061783,9400.615463
2695.543720,306.438199,-222.061783,9474.636058
2695.544049,0.000000,518.144159,9474.636058
2695.544378,-995.924147,518.144159,9030.512492
2695.544707,-689.485948,-888.247130,9474.636058
2695.545036,0.000000,-1258.350101,9770.718434
2695.545365,76.609550,-370.102971,9622.677246
2695.545694,229.828649,-962.267725,9770.718434
2695.546023,689.485948,-1702.473667,9400.615463
2695.546352,766.095498,814.226536,8808.450710
2695.546682,383.047749,1628.453072,8438.347739
2695.547011,842.705048,1036.288319,8364.327145
2695.547340,2298.286494,-0.000000,8734.430116
2695.547669,1762.019645,814.226536,8364.327145
2695.547998,689.485948,370.102971,8364.327145
2695.548327,-459.657299,-1258.350101,9622.677246
2695.548656,153.219100,-370.102971,9696.697840
2695.548985,-919.314598,296.082377,9030.512492
2695.549314,-1378.971896,-444.123565,9992.780217
2695.549644,-536.266849,-2368.659014,9696.697840
2695.549973,229.828649,-740.205942,9104.533087
2695.550302,459.657299,-0.000000,9178.553681
2695.550631,383.047749,-518.144159,8660.409521
2695.550960,1072.533697,-296.082377,9548.656652
2695.551289,1991.848295,962.267725,8142.265362
2695.551618,1532.190996,1776.494261,7698.141797
2695.551947,2374.896044,666.185348,8068.244768
2695.552276,2221.676944,370.102971,7920.203579
2695.552606,1149.143247,1554.432478,9326.594869
2695.552935,0.000000,148.041188,9622.677246
2695.553264,-229.828649,-1998.556043,9400.615463
2695.553593,-1532.190996,-148.041188,9770.718434
2695.553922,-2068.457845,-0.000000,9770.718434
2695.554251,-2451.505594,-1776.494261,9622.677246
2695.554580,-1302.362347,-2590.720797,10288.862594
2695.554909,-459.657299,-1110.308913,9992.780217
2695.555238,-229.828649,-1036.288319,9252.574275
2695.555568,76.609550,-1480.411884,9474.636058
2695.555897,1608.800546,-814.226536,8956.491898
2695.556226,1762.019645,1850.514855,7476.080014
2695.556555,2221.676944,2220.617826,7328.038826
2695.556884,2681.334243,444.123565,7994.224174
2695.557213,3064.381992,1480.411884,7772.162391
2695.557542,2298.286494,1702.473667,8068.244768
2695.557871,766.095498,-592.164754,9178.553681
2695.558201,-612.876398,-1554.432478,9178.553681
2695.558530,-995.924147,-518.144159,9696.697840
2695.558859,-2221.676944,-962.267725,9770.718434
2695.559188,-1991.848295,-2294.638420,10584.944971
2695.559517,-842.705048,-2072.576638,10436.903782
2695.559846,-536.266849,-370.102971,9400.615463
2695.560175,0.000000,-740.205942,9474.636058
2695.560504,1532.190996,-962.267725,9770.718434
2695.560833,2528.115143,1332.370696,7772.162391
2695.561163,2528.115143,2368.659014,8364.327145
2695.561492,2528.115143,1258.350101,7698.141797
2695.561821,2987.772442,444.123565,7994.224174
2695.562150,3294.210641,2590.720797,7772.162391
2695.562479,2451.505594,1628.453072,7846.182985
2695.562808,612.876398,-518.144159,8660.409521
2695.563137,0.000000,-888.247130,10066.800811
2695.563466,-1608.800546,-444.123565,9992.780217
2695.563795,-2834.553343,-1998.556043,10362.883188
2695.564125,-2221.676944,-2960.823768,9918.759623
2695.564454,-1608.800546,-2442.679609,11103.089130
2695.564783,-1685.410096,-888.247130,10584.944971
2695.565112,-1762.019645,-1406.391290,9474.636058
2695.565441,766.095498,-740.205942,9474.636058
2695.565770,1455.581446,2368.659014,7994.224174
2695.566099,2298.286494,2368.659014,7920.203579
2695.566428,2528.115143,962.267725,7402.059420
2695.566757,3217.601092,1258.350101,7698.141797
2695.567087,3447.429741,2442.679609,7846.182985
2695.567416,766.095498,666.185348,8882.471304
2695.567745,-306.438199,-148.041188,10214.842000
2695.568074,-766.095498,-74.020594,9696.697840
2695.568403,-2145.067394,-666.185348,9918.759623
2695.568732,-3600.648841,-2664.741391,10510.924376
2695.569061,-2374.896044,-2960.823768,11473.192101
2695.569390,-2374.896044,-370.102971,11103.089130
2695.569719,-2145.067394,-962.267725,10214.842000
2695.570049,-612.876398,-1406.391290,9474.636058
2695.570378,1149.143247,-370.102971,9178.553681
2695.570707,1838.629195,2368.659014,7624.121203
2695.571036,2757.943793,962.267725,7105.977043
2695.571365,2911.162892,814.226536,7105.977043
2695.571694,3983.696590,1332.370696,7402.059420
2695.572023,2451.505594,2442.679609,7105.977043
2695.572352,1302.362347,296.082377,8290.306550
2695.572681,612.876398,-296.082377,8068.244768
2695.573011,-306.438199,-74.020594,9030.512492
2695.573340,-2221.676944,-592.164754,9696.697840
2695.573669,-2068.457845,-3849.070898,11103.089130
2695.573998,-1915.238745,-3404.947333,11325.150913
2695.574327,-2145.067394,-1776.494261,11103.089130
2695.574656,-1302.362347,-2072.576638,9992.780217
2695.574985,76.609550,-1702.473667,9622.677246
2695.575314,1685.410096,666.185348,8438.347739
2695.575643,2681.334243,2146.597232,8068.244768
2695.575973,3294.210641,1110.308913,7031.956449
2695.576302,3907.087040,444.123565,7698.141797
2695.576631,3753.867940,1924.535449,7476.080014
2695.576960,2604.724693,2146.597232,7402.059420
2695.577289,1225.752797,-0.000000,7105.977043
2695.577618,1455.581446,962.267725,8808.450710
2695.577947,-995.924147,592.164754,9770.718434
2695.578276,-2451.505594,-2294.638420,10362.883188
2695.578606,-2528.115143,-2960.823768,11769.274478
2695.578935,-2298.286494,-4441.235652,12139.377449
2695.579264,-3753.867940,-1406.391290,10288.862594
2695.579593,-1532.190996,-2146.597232,10955.047942
2695.579922,-995.924147,-1184.329507,9622.677246
2695.580251,612.876398,2442.679609,8808.450710
2695.580580,2451.505594,2368.659014,8216.285956
2695.580910,3370.820191,888.247130,7994.224174
2695.581239,3447.429741,1850.514855,7920.203579
2695.581568,3370.820191,2664.741391,6809.894666
2695.581897,1838.629195,1850.514855,7920.203579
2695.582226,1685.410096,666.185348,8068.244768
2695.582555,1762.019645,1184.329507,8364.327145
2695.582884,-1302.362347,666.185348,9474.636058
2695.583214,-1991.848295,-3330.926739,10658.965565
2695.583543,-2145.067394,-1924.535449,10955.047942
2695.583872,-2451.505594,-4145.153275,11695.253884
2695.584201,-3677.258390,-1554.432478,10510.924376
2695.584530,-1532.190996,-3108.864956,11843.295072
2695.584859,-689.485948,-814.226536,9696.697840
2695.585188,919.314598,1998.556043,9326.594869
2695.585518,2987.772442,1110.308913,7476.080014
2695.585847,4213.525239,-296.082377,7772.162391
2695.586176,4060.306139,1998.556043,7402.059420
2695.586505,3064.381992,2516.700203,5847.626942
2695.586834,1991.848295,1406.391290,7698.141797
2695.587163,1608.800546,1184.329507,7772.162391
2695.587492,1838.629195,3478.967927,7624.121203
2695.587822,919.314598,2072.576638,6735.874072
2695.588151,-1608.800546,-2590.720797,9178.553681
2695.588480,-1915.238745,-4663.297435,12583.501014
2695.588809,-2681.334243,-1924.535449,11103.089130
2695.589138,-2834.553343,-4885.359217,11917.315666
2695.589467,-2834.553343,-2442.679609,9992.780217
2695.589796,-1072.533697,518.144159,11399.171507
2695.590126,0.000000,2368.659014,9400.615463
2695.590455,1149.143247,1332.370696,8216.285956
2695.590784,3830.477490,1406.391290,6735.874072
2695.591113,3677.258390,2886.803174,7105.977043
2695.591442,2451.505594,2738.761985,7105.977043
2695.591771,1838.629195,-0.000000,7698.141797
2695.592100,1225.752797,-222.061783,7846.182985
2695.592430,153.219100,518.144159,8216.285956
2695.592759,-995.924147,-2368.659014,9696.697840
2695.593088,-1915.238745,-2664.741391,10140.821405
2695.593417,-2221.676944,-3997.112087,11843.295072
2695.593746,-3370.820191,-2664.741391,10214.842000
2695.594075,-2451.505594,-2294.638420,11473.192101
2695.594404,-1378.971896,-1702.473667,11029.068536
2695.594734,-689.485948,2516.700203,8882.471304
2695.595063,2145.067394,1702.473667,8216.285956
2695.595392,3064.381992,962.267725,7624.121203
2695.595721,3753.867940,1110.308913,7105.977043
2695.596050,3064.381992,518.144159,7105.977043
2695.596379,2221.676944,-0.000000,7328.038826
2695.596709,2604.724693,-296.082377,8438.347739
2695.597038,536.266849,444.123565,7698.141797
2695.597367,-842.705048,222.061783,8734.430116
2695.597696,-1838.629195,-2664.741391,10732.986159
2695.598025,-1608.800546,-4071.132681,10955.047942
2695.598354,-2604.724693,-2368.659014,10214.842000
2695.598683,-2604.724693,-3034.844362,12065.356855
2695.599013,-2221.676944,-2812.782580,10881.027347
2695.599342,-689.485948,-888.247130,10140.821405
2695.599671,1915.238745,1554.432478,8660.409521
2695.600000,3064.381992,2516.700203,7402.059420
2695.600329,3294.210641,1332.370696,7550.100608
2695.600658,3217.601092,2146.597232,7328.038826
2695.600987,2451.505594,3701.029710,7105.977043
2695.601317,1991.848295,888.247130,7920.203579
2695.601646,2451.505594,1628.453072,7402.059420
2695.601975,1762.019645,3108.864956,7698.141797
2695.602304,306.438199,-296.082377,9030.512492
2695.602633,-1225.752797,-3108.864956,10066.800811
2695.602962,-1225.752797,-2590.720797,10140.821405
2695.603291,-1991.848295,-1480.411884,11325.150913
2695.603621,-3600.648841,-3256.906145,11769.274478
2695.603950,-2451.505594,-1998.556043,11547.212695
2695.604279,-842.705048,370.102971,9770.718434
2695.604608,-306.438199,1924.535449,8290.306550
2695.604937,2145.067394,1332.370696,7698.141797
2695.605266,4213.525239,1036.288319,8512.368333
2695.605595,3753.867940,1554.432478,7179.997637
2695.605925,2911.162892,962.267725,7476.080014
2695.606254,1455.581446,518.144159,7105.977043
2695.606583,1915.238745,1110.308913,8438.347739
2695.606912,459.657299,2664.741391,6957.935855
2695.607241,0.000000,-740.205942,8882.471304
2695.607570,-1225.752797,-2886.803174,9474.636058
2695.607899,-1762.019645,-1998.556043,9474.636058
2695.608229,-3064.381992,-3404.947333,11547.212695
2695.608558,-3294.210641,-4293.194464,11103.089130
2695.608887,-1991.848295,-2146.597232,11843.295072
2695.609216,-842.705048,296.082377,9326.594869
2695.609545,0.000000,222.061783,9326.594869
2695.609874,2145.067394,296.082377,8512.368333
2695.610203,4290.134789,1480.411884,7624.121203
2695.610533,3370.820191,2368.659014,7105.977043
2695.610862,2374.896044,1184.329507,7846.182985
2695.611191,2068.457845,1406.391290,7698.141797
2695.611520,1378.971896,2664.741391,7179.997637
2695.611849,383.047749,2072.576638,8068.244768
2695.612178,-842.705048,-296.082377,8660.409521
2695.612508,-1072.533697,-3701.029710,10807.006753
2695.612837,-2374.896044,-888.247130,10955.047942
2695.613166,-3064.381992,-4219.173869,11843.295072
2695.613495,-3294.210641,-3775.050304,11177.109724
2695.613824,-1991.848295,-370.102971,11251.130318
2695.614153,-459.657299,1628.453072,9474.636058
2695.614482,536.266849,2072.576638,8808.450710
2695.614812,3064.381992,1184.329507,7624.121203
2695.615141,4749.792088,2442.679609,7402.059420
2695.615470,3217.601092,1628.453072,8142.265362
2695.615799,2451.505594,666.185348,7402.059420
2695.616128,1685.410096,962.267725,7846.182985
2695.616457,766.095498,2664.741391,7402.059420
2695.616786,0.000000,592.164754,8290.306550
2695.617116,-459.657299,-1628.453072,10584.944971
2695.617445,-766.095498,-3256.906145,9622.677246
2695.617774,-2374.896044,-1480.411884,10584.944971
2695.618103,-3983.696590,-4441.235652,11769.274478
2695.618432,-3677.258390,-3775.050304,10584.944971
2695.618761,-2451.505594,-1184.329507,10732.986159
2695.619090,-689.485948,-666.185348,9252.574275
2695.619420,1149.143247,-0.000000,8882.471304
2695.619749,3600.648841,222.061783,7698.141797
2695.620078,3983.696590,1776.494261,6957.935855
2695.620407,2681.334243,814.226536,8068.244768
2695.620736,2451.505594,-296.082377,7920.203579
2695.621065,2374.896044,2294.638420,6809.894666
2695.621394,1302.362347,2516.700203,8142.265362
2695.621724,536.266849,1554.432478,7105.977043
2695.622053,2374.896044,222.061783,7994.224174
2695.622382,153.219100,-2738.761985,10140.821405
2695.622711,-1225.752797,-3701.029710,11843.295072
2695.623040,-2145.067394,-3775.050304,11917.315666
2695.623369,-1762.019645,-5255.462188,11991.336260
2695.623698,-2834.553343,-74.020594,9104.533087
2695.624028,-229.828649,-0.000000,11547.212695
2695.624357,995.924147,592.164754,9548.656652
2695.624686,2681.334243,2442.679609,9178.553681
2695.625015,3677.258390,2886.803174,7624.121203
2695.625344,3140.991542,1332.370696,7772.162391
2695.625673,2451.505594,1480.411884,9326.594869
2695.626003,2068.457845,2516.700203,6217.729913
2695.626332,383.047749,1924.535449,8216.285956
2695.626661,842.705048,740.205942,8512.368333
2695.626990,2911.162892,148.041188,8290.306550
2695.627319,459.657299,222.061783,10066.800811
2695.627648,-1225.752797,-2368.659014,10066.800811
2695.627977,-1762.019645,-1258.350101,10955.047942
2695.628307,-2221.676944,-2442.679609,11325.150913
2695.628636,-2834.553343,148.041188,9474.636058
2695.628965,-995.924147,-814.226536,10881.027347
2695.629294,0.000000,-1332.370696,10584.944971
2695.629623,1762.019645,962.267725,8808.450710
2695.629952,1991.848295,592.164754,7846.182985
2695.630281,2145.067394,-74.020594,8512.368333
2695.630611,2145.067394,518.144159,8586.388927
2695.630940,1149.143247,2368.659014,6883.915261
2695.631269,612.876398,962.267725,7550.100608
2695.631598,919.314598,-370.102971,8438.347739
2695.631927,383.047749,-814.226536,8808.450710
2695.632256,-1225.752797,-2294.638420,9548.656652
2695.632585,-2451.505594,-3701.029710,10362.883188
2695.632915,-2451.505594,-4071.132681,11177.109724
2695.633244,-2374.896044,-1850.514855,9622.677246
2695.633573,-1378.971896,-148.041188,9474.636058
2695.633902,76.609550,-740.205942,9474.636058
2695.634231,1762.019645,-444.123565,8956.491898
2695.634560,2681.334243,1702.473667,7550.100608
2695.634889,2221.676944,1184.329507,7254.018232
2695.635219,2145.067394,666.185348,8290.306550
2695.635548,1685.410096,888.247130,8512.368333
2695.635877,919.314598,1184.329507,7698.141797
2695.636206,229.828649,-518.144159,8734.430116
2695.636535,536.266849,-1406.391290,9178.553681
2695.636864,-459.657299,-814.226536,9326.594869
2695.637193,-2528.115143,-1406.391290,9992.780217
2695.637523,-2451.505594,-2368.659014,10362.883188
2695.637852,-1915.238745,-1554.432478,10066.800811
2695.638181,-1838.629195,518.144159,9178.553681
2695.638510,-689.485948,370.102971,9474.636058
2695.638839,842.705048,-888.247130,9474.636058
2695.639168,2145.067394,444.123565,8216.285956
2695.639497,2604.724693,1998.556043,7772.162391
2695.639827,1915.238745,1184.329507,8586.388927
2695.640156,1532.190996,740.205942,8882.471304
2695.640485,1302.362347,2442.679609,7920.203579
2695.640814,153.219100,888.247130,8956.491898
2695.641143,76.609550,-0.000000,9030.512492
2695.641472,459.657299,-814.226536,9992.780217
2695.641802,-842.705048,-74.020594,9548.656652
2695.642131,-1608.800546,-1850.514855,10288.862594
2695.642460,-995.924147,-2146.597232,10288.862594
2695.642789,-919.314598,-1036.288319,10214.842000
2695.643118,-306.438199,444.123565,9696.697840
2695.643447,766.095498,-814.226536,8142.265362
2695.643776,1915.238745,-148.041188,8808.450710
2695.644106,2757.943793,1776.494261,8438.347739
2695.644435,2451.505594,1628.453072,7994.224174
2695.644764,1532.190996,-0.000000,8956.491898
2695.645093,1762.019645,962.267725,8512.368333
2695.645422,995.924147,888.247130,8660.409521
2695.645751,0.000000,-444.123565,9252.574275
2695.646080,306.438199,-1850.514855,10066.800811
2695.646410,383.047749,-814.226536,9696.697840
2695.646739,-995.924147,-222.061783,9400.615463
2695.647068,-766.095498,-1480.411884,9770.718434
2695.647397,-766.095498,-814.226536,9992.780217
2695.647726,-383.047749,1258.350101,9178.553681
2695.648055,766.095498,592.164754,8882.471304
2695.648384,1302.362347,-148.041188,8290.306550
2695.648714,2374.896044,444.123565,9104.533087
2695.649043,2451.505594,1332.370696,8512.368333
2695.649372,1225.752797,592.164754,8142.265362
2695.649701,1378.971896,-1110.308913,8808.450710
2695.650030,689.485948,592.164754,9178.553681
2695.650359,-459.657299,888.247130,9326.594869
2695.650688,-689.485948,-1332.370696,9104.533087
2695.651018,0.000000,-518.144159,9844.739029
2695.651347,-383.047749,-518.144159,9770.718434
2695.651676,-1225.752797,-888.247130,9622.677246
2695.652005,-919.314598,-2146.597232,9474.636058
2695.652334,-153.219100,-962.267725,8438.347739
2695.652663,0.000000,1184.329507,8808.450710
2695.652992,612.876398,-666.185348,9400.615463
2695.653322,1149.143247,-1554.432478,8808.450710
2695.653651,1762.019645,740.205942,7772.162391
2695.653980,1455.581446,1406.391290,7624.121203
2695.654309,842.705048,-370.102971,8290.306550
2695.654638,919.314598,-888.247130,9178.553681
2695.654967,842.705048,148.041188,9474.636058
2695.655296,-1378.971896,-518.144159,9548.656652
2695.655626,-1225.752797,-2442.679609,9696.697840
2695.655955,-536.266849,-1184.329507,9252.574275
2695.656284,-842.705048,-444.123565,10436.903782
2695.656613,-842.705048,-1036.288319,10140.821405
2695.656942,0.000000,-1850.514855,8734.430116
2695.657271,76.609550,-444.123565,8438.347739
2695.657601,0.000000,1628.453072,8364.327145
2695.657930,842.705048,-370.102971,9400.615463
2695.658259,1685.410096,-0.000000,7624.121203
2695.658588,1915.238745,1406.391290,7920.203579
2695.658917,1455.581446,1406.391290,9326.594869
2695.659246,919.314598,-222.061783,8142.265362
2695.659575,689.485948,-0.000000,9844.739029
2695.659905,-153.219100,888.247130,8438.347739
2695.660234,-229.828649,-666.185348,9178.553681
2695.660563,0.000000,-1924.535449,9992.780217
2695.660892,0.000000,-888.247130,9548.656652
2695.661221,-766.095498,222.061783,9696.697840
2695.661550,-689.485948,-814.226536,8882.471304
2695.661879,459.657299,-74.020594,9622.677246
2695.662209,383.047749,1258.350101,8068.244768
2695.662538,459.657299,1110.308913,8290.306550
2695.662867,1455.581446,-962.267725,8660.409521
2695.663196,1762.019645,-518.144159,8734.430116
2695.663525,2374.896044,814.226536,8216.285956
2695.663854,995.924147,-962.267725,9030.512492
2695.664183,919.314598,-1110.308913,10732.986159
2695.664513,536.266849,-74.020594,8438.347739
2695.664842,0.000000,1258.350101,8586.388927
2695.665171,-153.219100,-814.226536,9918.759623
2695.665500,536.266849,-1184.329507,10066.800811
2695.665829,229.828649,-222.061783,9992.780217
2695.666158,-383.047749,296.082377,8956.491898
2695.666487,383.047749,-444.123565,9622.677246
2695.666817,0.000000,-370.102971,9992.780217
2695.667146,229.828649,1480.411884,8438.347739
2695.667475,306.438199,370.102971,8808.450710
2695.667804,1072.533697,-0.000000,8364.327145
2695.668133,842.705048,888.247130,8290.306550
2695.668462,76.609550,888.247130,8956.491898
2695.668791,-306.438199,-740.205942,9548.656652
2695.669121,459.657299,-1184.329507,9992.780217
2695.669450,0.000000,370.102971,9400.615463
2695.669779,-459.657299,222.061783,9474.636058
2695.670108,306.438199,-1036.288319,10362.883188
2695.670437,919.314598,-592.164754,9622.677246
2695.670766,612.876398,888.247130,9622.677246
2695.671095,0.000000,-0.000000,9400.615463
2695.671425,1072.533697,-0.000000,8216.285956
2695.671754,1532.190996,2146.597232,7994.224174
2695.672083,766.095498,1406.391290,8660.409521
2695.672412,612.876398,-518.144159,7920.203579
2695.672741,1072.533697,-592.164754,7994.224174
2695.673070,919.314598,222.061783,8512.368333
2695.673400,-229.828649,-444.123565,9178.553681
2695.673729,-1072.533697,-2886.803174,9992.780217
2695.674058,-842.705048,-2294.638420,9474.636058
2695.674387,-612.876398,74.020594,9400.615463
2695.674716,-612.876398,-1554.432478,9770.718434
2695.675045,689.485948,-1628.453072,9252.574275
2695.675374,1149.143247,296.082377,9178.553681
2695.675704,689.485948,444.123565,8956.491898
2695.676033,919.314598,-370.102971,9030.512492
2695.676362,2068.457845,-222.061783,8512.368333
2695.676691,1762.019645,1480.411884,7772.162391
2695.677020,842.705048,296.082377,8512.368333
2695.677349,612.876398,-2146.597232,8364.327145
2695.677678,459.657299,-666.185348,7994.224174
2695.678007,229.828649,-222.061783,9326.594869
2695.678336,-1302.362347,-2072.576638,9474.636058
2695.678665,-1302.362347,-2738.761985,9992.780217
2695.678994,-1302.362347,-814.226536,9252.574275
2695.679323,-1225.752797,-814.226536,9696.697840
2695.679653,-612.876398,-1850.514855,9696.697840
2695.679982,383.047749,-2220.617826,10066.800811
2695.680311,383.047749,370.102971,9104.533087
2695.680640,536.266849,-0.000000,9178.553681
2695.680969,1532.190996,-370.102971,8512.368333
2695.681298,2068.457845,1554.432478,8660.409521
2695.681627,1225.752797,3182.885551,8142.265362
2695.681956,1685.410096,1258.350101,7772.162391
2695.682285,1685.410096,-222.061783,8734.430116
2695.682614,1532.190996,296.082377,8512.368333
2695.682943,459.657299,-814.226536,9104.533087
2695.683272,-1149.143247,-2442.679609,9326.594869
2695.683601,-1072.533697,-1554.432478,10436.903782
2695.683930,-1302.362347,-666.185348,9696.697840
2695.684259,-1455.581446,-0.000000,8512.368333
2695.684588,-306.438199,-1036.288319,9844.739029
2695.684917,306.438199,592.164754,9326.594869
2695.685246,0.000000,1258.350101,9178.553681
2695.685575,383.047749,-0.000000,9548.656652
2695.685904,1762.019645,-0.000000,9030.512492
2695.686233,2145.067394,1258.350101,9252.574275
2695.686562,1455.581446,1850.514855,8290.306550
2695.686891,1762.019645,-0.000000,8142.265362
2695.687220,2374.896044,518.144159,8956.491898
2695.687549,1991.848295,2442.679609,7846.182985
2695.687878,-229.828649,666.185348,9548.656652
2695.688207,-536.266849,-814.226536,10362.883188
2695.688536,-842.705048,-814.226536,9548.656652
2695.688865,-1762.019645,-0.000000,9770.718434
2695.689194,-1685.410096,-1628.453072,9918.759623
2695.689523,-919.314598,-1628.453072,9844.739029
2695.689852,-766.095498,296.082377,10140.821405
2695.690181,-612.876398,296.082377,10584.944971
2695.690510,-766.095498,-370.102971,9474.636058
2695.690839,1225.752797,592.164754,8660.409521
2695.691168,1455.581446,2812.782580,8142.265362
2695.691497,1225.752797,1850.514855,8216.285956
2695.691826,1608.800546,-74.020594,8660.409521
2695.692155,2451.505594,740.205942,8290.306550
2695.692484,995.924147,370.102971,9178.553681
2695.692813,-76.609550,-888.247130,9474.636058
2695.693142,-689.485948,-1332.370696,9326.594869
2695.693471,-919.314598,-0.000000,9474.636058
2695.693800,-1302.362347,518.144159,9252.574275
2695.694129,-1225.752797,-1480.411884,10066.800811
2695.694458,0.000000,-1628.453072,10362.883188
2695.694787,-229.828649,296.082377,9622.677246
2695.695116,612.876398,-0.000000,9030.512492
2695.695445,1149.143247,-1110.308913,8660.409521
2695.695774,1685.410096,888.247130,8734.430116
2695.696103,2145.067394,1406.391290,8660.409521
2695.696432,1838.629195,888.247130,7698.141797
2695.696761,2911.162892,222.061783,7402.059420
2695.697090,2681.334243,2220.617826,7624.121203
2695.697419,2298.286494,1628.453072,8364.327145
2695.697748,842.705048,-888.247130,8364.327145
2695.698077,153.219100,-1702.473667,9622.677246
2695.698406,-1072.533697,-0.000000,8882.471304
2695.698735,-1991.848295,-2220.617826,10066.800811
2695.699064,-2221.676944,-2886.803174,10288.862594
2695.699393,-1378.971896,-2368.659014,10436.903782
2695.699722,-1532.190996,-1036.288319,10214.842000
2695.700051,-689.485948,-962.267725,9474.636058
2695.700380,459.657299,-1406.391290,9474.636058
2695.700709,1685.410096,1702.473667,8808.450710
2695.701038,2068.457845,2738.761985,7254.018232
2695.701367,2298.286494,-148.041188,8438.347739
2695.701696,3140.991542,-222.061783,8068.244768
2695.702025,3140.991542,1480.411884,7624.121203
2695.702354,1915.238745,-148.041188,9474.636058
2695.702684,536.266849,-1628.453072,8438.347739
2695.703013,-612.876398,-1480.411884,9548.656652
2695.703342,-1608.800546,-1110.308913,9474.636058
2695.703671,-2604.724693,-3404.947333,9844.739029
2695.704000,-2451.505594,-3330.926739,11473.192101
2695.704329,-1991.848295,-2664.741391,9992.780217
2695.704658,-2145.067394,-2886.803174,10436.903782
2695.704987,-766.095498,-3182.885551,10214.842000
2695.705316,1225.752797,-3034.844362,9844.739029
2695.705645,1302.362347,-74.020594,8438.347739
2695.705974,2068.457845,518.144159,7328.038826
2695.706303,3677.258390,-0.000000,6957.935855
2695.706632,4213.525239,888.247130,7846.182985
2695.706961,3370.820191,1776.494261,6957.935855
2695.707290,2221.676944,-592.164754,8290.306550
2695.707619,1072.533697,-1776.494261,8216.285956
2695.707948,229.828649,-2812.782580,9104.533087
2695.708277,-1532.190996,-1776.494261,9770.718434
2695.708606,-3064.381992,-4737.318029,10658.965565
2695.708935,-2681.334243,-4589.276840,11843.295072
2695.709264,-2068.457845,-3997.112087,11177.109724
2695.709593,-1915.238745,-3478.967927,9548.656652
2695.709922,-1302.362347,-3256.906145,10288.862594
2695.710251,612.876398,-2368.659014,9696.697840
2695.710580,2374.896044,-222.061783,9030.512492
2695.710909,2681.334243,592.164754,7772.162391
2695.711238,2911.162892,-888.247130,7105.977043
2695.711567,3600.648841,592.164754,7772.162391
2695.711896,3600.648841,370.102971,6957.935855
2695.712225,1838.629195,-1036.288319,6957.935855
2695.712554,383.047749,-2442.679609,9474.636058
2695.712883,-842.705048,-2886.803174,9622.677246
2695.713212,-1455.581446,-4145.153275,9844.739029
2695.713541,-3753.867940,-4219.173869,9178.553681
2695.713870,-3600.648841,-4441.235652,11177.109724
2695.714199,-2221.676944,-4219.173869,10658.965565
2695.714528,-1915.238745,-3849.070898,9992.780217
2695.714857,-1225.752797,-4071.132681,9474.636058
2695.715186,-383.047749,-3849.070898,10214.842000
2695.715515,1532.190996,-2590.720797,9252.574275
2695.715844,3370.820191,-1776.494261,6883.915261
2695.716173,3217.601092,-888.247130,6957.935855
2695.716502,3370.820191,-296.082377,7179.997637
2695.716831,3370.820191,-1110.308913,7550.100608
2695.717160,3600.648841,-592.164754,7179.997637
2695.717489,3064.381992,-1998.556043,6957.935855
2695.717818,459.657299,-3404.947333,9178.553681
2695.718147,-1302.362347,-3923.091493,9474.636058
2695.718476,-1149.143247,-6143.709319,10807.006753
2695.718805,-2528.115143,-4959.379811,9992.780217
2695.719134,-2374.896044,-4441.235652,11029.068536
2695.719463,-2451.505594,-4367.215058,10066.800811
2695.719792,-1915.238745,-3923.091493,9844.739029
2695.720121,459.657299,-3627.009116,9178.553681
2695.720450,1762.019645,-3108.864956,8808.450710
2695.720779,1838.629195,-2220.617826,8364.327145
2695.721108,3140.991542,-2886.803174,8956.491898
2695.721437,3600.648841,-1924.535449,7994.224174
