#time,accel_x,accel_y,accel_z
2596.425044,229.828649,-222.061783,8956.491898
2596.425373,229.828649,-148.041188,9326.594869
2596.425702,459.657299,-148.041188,9030.512492
2596.426031,153.219100,-74.020594,8956.491898
2596.426360,383.047749,-370.102971,9474.636058
2596.426689,306.438199,-74.020594,9326.594869
2596.427018,383.047749,-74.020594,8586.388927
2596.427347,306.438199,-148.041188,9104.533087
2596.427676,229.828649,-0.000000,9178.553681
2596.428006,229.828649,-296.082377,9178.553681
2596.428335,459.657299,-0.000000,9622.677246
2596.428664,536.266849,-148.041188,9178.553681
2596.428993,-383.047749,-444.123565,9474.636058
2596.429322,229.828649,-518.144159,9178.553681
2596.429651,459.657299,-74.020594,8956.491898
2596.429980,306.438199,-0.000000,9030.512492
2596.430309,383.047749,-0.000000,9178.553681
2596.430638,612.876398,-0.000000,9104.533087
2596.430967,612.876398,-0.000000,8808.450710
2596.431297,612.876398,-222.061783,8808.450710
2596.431626,766.095498,-148.041188,8882.471304
2596.431955,383.047749,-0.000000,9030.512492
2596.432284,306.438199,-0.000000,9030.512492
2596.432613,153.219100,-74.020594,8882.471304
2596.432942,306.438199,-74.020594,9030.512492
2596.433271,153.219100,-740.205942,8882.471304
2596.433600,459.657299,-370.102971,9030.512492
2596.433929,459.657299,-296.082377,8438.347739
2596.434258,459.657299,-0.000000,8882.471304
2596.434587,229.828649,-148.041188,8808.450710
2596.434917,306.438199,-0.000000,9030.512492
2596.435246,536.266849,-148.041188,9252.574275
2596.435575,766.095498,-0.000000,9326.594869
2596.435904,612.876398,-148.041188,9252.574275
2596.436233,-306.438199,-222.061783,9474.636058
2596.436562,153.219100,-74.020594,9178.553681
2596.436891,229.828649,-370.102971,9178.553681
2596.437220,306.438199,-148.041188,9178.553681
2596.437549,536.266849,-370.102971,8956.491898
2596.437878,383.047749,-148.041188,9474.636058
2596.438208,1149.143247,-592.164754,9252.574275
2596.438537,383.047749,-222.061783,9178.553681
2596.438866,306.438199,-222.061783,9030.512492
2596.439195,536.266849,-148.041188,9030.512492
2596.439524,612.876398,-0.000000,9178.553681
2596.439853,766.095498,-74.020594,9622.677246
2596.440182,766.095498,-444.123565,9104.533087
2596.440511,536.266849,-148.041188,9474.636058
2596.440840,229.828649,-74.020594,9178.553681
2596.441169,229.828649,-74.020594,9104.533087
2596.441498,229.828649,-148.041188,9104.533087
2596.441828,383.047749,-0.000000,8956.491898
2596.442157,0.000000,-0.000000,8882.471304
2596.442486,766.095498,-222.061783,9030.512492
2596.442815,229.828649,-148.041188,9030.512492
2596.443144,536.266849,-0.000000,9030.512492
2596.443473,306.438199,-74.020594,8808.450710
2596.443802,383.047749,-0.000000,8734.430116
2596.444131,0.000000,-0.000000,8882.471304
2596.444460,229.828649,-518.144159,8956.491898
2596.444789,76.609550,-222.061783,8882.471304
2596.445119,153.219100,-592.164754,9104.533087
2596.445448,0.000000,-370.102971,9252.574275
2596.445777,229.828649,-74.020594,9030.512492
2596.446106,229.828649,-148.041188,9178.553681
2596.446435,383.047749,-0.000000,9030.512492
2596.446764,536.266849,-222.061783,8660.409521
2596.447093,612.876398,-296.082377,8956.491898
2596.447422,536.266849,-740.205942,9326.594869
2596.447751,383.047749,-222.061783,9104.533087
2596.448080,612.876398,-370.102971,9178.553681
2596.448410,612.876398,-370.102971,8956.491898
2596.448739,383.047749,-370.102971,9178.553681
2596.449068,306.438199,-74.020594,8956.491898
2596.449397,536.266849,-222.061783,9104.533087
2596.449726,459.657299,-222.061783,9326.594869
2596.450055,229.828649,-148.041188,9178.553681
2596.450384,536.266849,-518.144159,8956.491898
2596.450713,153.219100,-518.144159,8882.471304
2596.451042,0.000000,-0.000000,9400.615463
2596.451371,383.047749,-222.061783,9178.553681
2596.451700,306.438199,-0.000000,9178.553681
2596.452030,229.828649,-0.000000,9030.512492
2596.452359,536.266849,-222.061783,9104.533087
2596.452688,536.266849,-148.041188,9104.533087
2596.453017,536.266849,-888.247130,9918.759623
2596.453346,1149.143247,-888.247130,9104.533087
2596.453675,1455.581446,-592.164754,9326.594869
2596.454004,1991.848295,-296.082377,8956.491898
2596.454333,2451.505594,-0.000000,8734.430116
2596.454662,3370.820191,-0.000000,8586.388927
2596.454991,4136.915689,-296.082377,8660.409521
2596.455321,4136.915689,-0.000000,7920.203579
2596.455650,3370.820191,444.123565,8586.388927
2596.455979,3294.210641,370.102971,8216.285956
2596.456308,2681.334243,-222.061783,8882.471304
2596.456637,3064.381992,-518.144159,9104.533087
2596.456966,2145.067394,-1036.288319,8882.471304
2596.457295,1762.019645,-1850.514855,10214.842000
2596.457624,1838.629195,-2146.597232,9548.656652
2596.457953,2374.896044,-0.000000,9326.594869
2596.458282,2298.286494,-888.247130,9918.759623
2596.458611,3447.429741,-814.226536,9474.636058
2596.458941,3370.820191,296.082377,9400.615463
2596.459270,5515.887586,592.164754,8290.306550
2596.459599,5132.839837,518.144159,7846.182985
2596.459928,4596.572988,1184.329507,9326.594869
2596.460257,4903.011187,962.267725,7994.224174
2596.460586,4136.915689,888.247130,8216.285956
2596.460915,3677.258390,296.082377,9178.553681
2596.461244,2681.334243,-0.000000,8808.450710
2596.461573,2145.067394,-148.041188,9696.697840
2596.461902,1072.533697,-1258.350101,9770.718434
2596.462232,1991.848295,-962.267725,9844.739029
2596.462561,1072.533697,-1110.308913,9844.739029
2596.462890,1455.581446,-666.185348,9696.697840
2596.463219,1225.752797,-370.102971,9918.759623
2596.463548,2834.553343,592.164754,9474.636058
2596.463877,2987.772442,-74.020594,8438.347739
2596.464206,4136.915689,1332.370696,9696.697840
2596.464535,4060.306139,814.226536,7846.182985
2596.464864,4596.572988,1184.329507,8216.285956
2596.465193,4366.744339,962.267725,8586.388927
2596.465522,4060.306139,370.102971,8290.306550
2596.465852,3370.820191,-518.144159,8808.450710
2596.466181,2757.943793,-1850.514855,9622.677246
2596.466510,1915.238745,-1332.370696,10510.924376
2596.466839,1532.190996,-2072.576638,9770.718434
2596.467168,1991.848295,-1998.556043,9992.780217
2596.467497,2068.457845,-1480.411884,9770.718434
2596.467826,2911.162892,-148.041188,9474.636058
2596.468155,3217.601092,222.061783,8586.388927
2596.468484,4290.134789,1480.411884,8290.306550
2596.468813,4596.572988,1702.473667,8068.244768
2596.469143,4749.792088,2072.576638,7179.997637
2596.469472,4443.353888,2368.659014,7105.977043
2596.469801,3983.696590,1998.556043,7920.203579
2596.470130,3753.867940,962.267725,7624.121203
2596.470459,2528.115143,-370.102971,8586.388927
2596.470788,2834.553343,-1480.411884,10140.821405
2596.471117,2221.676944,-2960.823768,9992.780217
2596.471446,1915.238745,-3256.906145,10288.862594
2596.471775,1991.848295,-3034.844362,11177.109724
2596.472104,2911.162892,-2294.638420,10732.986159
2596.472434,3830.477490,-814.226536,9770.718434
2596.472763,5209.449386,444.123565,9400.615463
2596.473092,6511.811733,1480.411884,8734.430116
2596.473421,5822.325785,2368.659014,7698.141797
2596.473750,5745.716235,2960.823768,7550.100608
2596.474079,4826.401637,3478.967927,6957.935855
2596.474408,4443.353888,3701.029710,6809.894666
2596.474737,3524.039291,1332.370696,7772.162391
2596.475066,1149.143247,-370.102971,9326.594869
2596.475395,0.000000,-3256.906145,11103.089130
2596.475724,-1685.410096,-4367.215058,11251.130318
2596.476054,0.000000,-5181.441594,11621.233289
2596.476383,-689.485948,-2812.782580,9992.780217
2596.476712,76.609550,-1850.514855,11029.068536
2596.477041,536.266849,-222.061783,10214.842000
2596.477370,1915.238745,592.164754,10362.883188
2596.477699,4366.744339,148.041188,10288.862594
2596.478028,7201.297681,2146.597232,7105.977043
2596.478357,6818.249932,1332.370696,8512.368333
2596.478686,5132.839837,518.144159,7031.956449
2596.479015,5515.887586,2072.576638,7328.038826
2596.479345,5515.887586,1998.556043,7179.997637
2596.479674,5286.058936,2442.679609,5255.462188
2596.480003,4596.572988,2664.741391,6883.915261
2596.480332,4979.620737,2146.597232,6143.709319
2596.480661,4826.401637,370.102971,6365.771101
2596.480990,1915.238745,-4293.194464,9548.656652
2596.481319,0.000000,-6735.874072,12287.418637
2596.481648,-1455.581446,-3256.906145,11547.212695
2596.481977,-1225.752797,-6143.709319,14508.036463
2596.482306,-1608.800546,-3256.906145,11473.192101
2596.482635,229.828649,666.185348,11991.336260
2596.482965,3217.601092,666.185348,10881.027347
2596.483294,4903.011187,2368.659014,9400.615463
2596.483623,7584.345430,1628.453072,9104.533087
2596.483952,6511.811733,2072.576638,9326.594869
2596.484281,7431.126331,3034.844362,6513.812290
2596.484610,7354.516781,3478.967927,6291.750507
2596.484939,7354.516781,888.247130,4885.359217
2596.485268,6588.421283,3182.885551,5107.421000
2596.485597,5592.497135,1036.288319,7179.997637
2596.485926,4060.306139,2664.741391,5403.503377
2596.486256,3753.867940,1480.411884,6809.894666
2596.486585,-383.047749,-3849.070898,11029.068536
2596.486914,-2451.505594,-6291.750507,13397.727550
2596.487243,-2681.334243,-0.000000,11251.130318
2596.487572,-1762.019645,-7105.977043,11399.171507
2596.487901,-2681.334243,-1258.350101,11473.192101
2596.488230,-153.219100,740.205942,13249.686362
2596.488559,1149.143247,666.185348,10214.842000
2596.488888,-1915.238745,3552.988522,8216.285956
2596.489217,2451.505594,-1332.370696,9918.759623
2596.489546,4979.620737,1850.514855,9548.656652
2596.489876,4749.792088,3997.112087,4071.132681
2596.490205,5132.839837,-0.000000,6143.709319
2596.490534,3370.820191,-74.020594,4071.132681
2596.490863,4673.182538,1554.432478,7031.956449
2596.491192,842.705048,-148.041188,6513.812290
2596.491521,-1302.362347,296.082377,8438.347739
2596.491850,-2451.505594,-4589.276840,12657.521608
2596.492179,-842.705048,-592.164754,9030.512492
2596.492508,-2987.772442,-592.164754,9548.656652
2596.492837,-3983.696590,-2368.659014,10658.965565
2596.493167,-2068.457845,-1110.308913,11251.130318
2596.493496,-1225.752797,-1702.473667,13619.789333
2596.493825,-229.828649,888.247130,8290.306550
2596.494154,0.000000,148.041188,9104.533087
2596.494483,-1302.362347,-1998.556043,11547.212695
2596.494812,1149.143247,740.205942,10288.862594
2596.495141,766.095498,2886.803174,4959.379811
2596.495470,3983.696590,1332.370696,8142.265362
2596.495799,2068.457845,1702.473667,5107.421000
2596.496128,2681.334243,1554.432478,7698.141797
2596.496457,-689.485948,-814.226536,8068.244768
2596.496787,-1378.971896,-2590.720797,8364.327145
2596.497116,-766.095498,-2886.803174,11547.212695
2596.497445,-1762.019645,222.061783,9400.615463
2596.497774,-2221.676944,-1036.288319,9696.697840
2596.498103,-2374.896044,-666.185348,10362.883188
2596.498432,-153.219100,370.102971,10362.883188
2596.498761,-1072.533697,444.123565,9770.718434
2596.499090,0.000000,-0.000000,9696.697840
2596.499419,-229.828649,1258.350101,8216.285956
2596.499748,1378.971896,-222.061783,9622.677246
2596.500077,536.266849,1702.473667,7254.018232
2596.500406,306.438199,-222.061783,8512.368333
2596.500735,842.705048,-1110.308913,8364.327145
2596.501064,995.924147,-148.041188,7846.182985
2596.501394,306.438199,-1258.350101,9030.512492
2596.501723,-153.219100,-2590.720797,8882.471304
2596.502052,306.438199,-2146.597232,9548.656652
2596.502381,306.438199,-1258.350101,10510.924376
2596.502710,995.924147,370.102971,9326.594869
2596.503039,0.000000,444.123565,9104.533087
2596.503368,1072.533697,1628.453072,9548.656652
2596.503697,1378.971896,1998.556043,9474.636058
2596.504026,1072.533697,1184.329507,9030.512492
2596.504355,1455.581446,814.226536,8660.409521
2596.504684,2068.457845,592.164754,9400.615463
2596.505013,1149.143247,-0.000000,8660.409521
2596.505342,842.705048,-518.144159,9178.553681
2596.505671,383.047749,-888.247130,10140.821405
2596.506001,766.095498,-2368.659014,9548.656652
2596.506330,766.095498,-1184.329507,9178.553681
2596.506659,919.314598,-1184.329507,9104.533087
2596.506988,842.705048,-518.144159,8808.450710
2596.507317,1072.533697,740.205942,9474.636058
2596.507646,1302.362347,592.164754,9474.636058
2596.507975,1149.143247,370.102971,9474.636058
2596.508304,2451.505594,592.164754,9696.697840
2596.508633,2068.457845,1332.370696,8290.306550
2596.508962,1532.190996,1554.432478,8290.306550
2596.509291,2068.457845,740.205942,8586.388927
2596.509620,2451.505594,148.041188,8216.285956
2596.509949,2374.896044,-296.082377,8882.471304
2596.510278,1072.533697,-1110.308913,8586.388927
2596.510608,-229.828649,-1850.514855,8956.491898
2596.510937,-1378.971896,-962.267725,8512.368333
2596.511266,-1072.533697,-444.123565,8808.450710
2596.511595,-842.705048,-444.123565,9104.533087
2596.511924,-842.705048,-518.144159,8808.450710
2596.512253,-689.485948,-444.123565,9400.615463
2596.512582,-1149.143247,296.082377,9178.553681
2596.512911,-842.705048,518.144159,8956.491898
2596.513240,-1455.581446,-74.020594,9474.636058
2596.513569,-842.705048,-444.123565,9992.780217
2596.513898,-612.876398,-962.267725,9474.636058
2596.514227,-689.485948,-962.267725,9178.553681
2596.514556,-1072.533697,-962.267725,9104.533087
2596.514885,-766.095498,-444.123565,8956.491898
2596.515215,-612.876398,-0.000000,8586.388927
2596.515544,-383.047749,-222.061783,8734.430116
2596.515873,-536.266849,-592.164754,9030.512492
2596.516202,-459.657299,-518.144159,8882.471304
2596.516531,-612.876398,-370.102971,8882.471304
2596.516860,-76.609550,-0.000000,8364.327145
2596.517189,0.000000,666.185348,8586.388927
2596.517518,0.000000,518.144159,9178.553681
2596.517847,-229.828649,-1036.288319,8956.491898
2596.518176,-689.485948,-296.082377,8808.450710
2596.518505,-1072.533697,666.185348,9696.697840
2596.518834,-459.657299,-222.061783,9548.656652
2596.519163,-306.438199,888.247130,8956.491898
2596.519493,-612.876398,814.226536,8438.347739
2596.519822,0.000000,-0.000000,9918.759623
2596.520151,-383.047749,-1258.350101,9400.615463
2596.520480,0.000000,-0.000000,9104.533087
2596.520809,536.266849,-296.082377,8438.347739
2596.521138,306.438199,-0.000000,8068.244768
2596.521467,536.266849,-1110.308913,9474.636058
2596.521796,1302.362347,-1110.308913,9548.656652
2596.522125,2221.676944,-592.164754,8660.409521
2596.522454,2145.067394,370.102971,8660.409521
2596.522783,2374.896044,1110.308913,7994.224174
2596.523112,2298.286494,1184.329507,8512.368333
2596.523441,1532.190996,814.226536,8882.471304
2596.523770,1685.410096,-0.000000,9326.594869
2596.524100,842.705048,-296.082377,9548.656652
2596.524429,1225.752797,-0.000000,9400.615463
2596.524758,919.314598,-222.061783,8956.491898
2596.525087,766.095498,-814.226536,9178.553681
2596.525416,995.924147,-814.226536,9474.636058
2596.525745,1225.752797,-1184.329507,9400.615463
2596.526074,1608.800546,-1406.391290,9548.656652
2596.526403,2068.457845,-148.041188,9104.533087
2596.526732,1915.238745,592.164754,8216.285956
2596.527061,1302.362347,592.164754,8216.285956
2596.527390,919.314598,666.185348,8956.491898
2596.527719,536.266849,518.144159,9104.533087
2596.528048,612.876398,-0.000000,9474.636058
2596.528377,536.266849,-74.020594,8808.450710
2596.528707,612.876398,-444.123565,9178.553681
2596.529036,0.000000,-296.082377,8734.430116
2596.529365,-229.828649,-740.205942,9474.636058
2596.529694,0.000000,-1184.329507,9400.615463
2596.530023,0.000000,-1110.308913,9474.636058
2596.530352,0.000000,-740.205942,9400.615463
2596.530681,306.438199,-296.082377,8586.388927
2596.531010,0.000000,-0.000000,8512.368333
2596.531339,306.438199,592.164754,8586.388927
2596.531668,-76.609550,222.061783,9030.512492
2596.531997,0.000000,-0.000000,9326.594869
2596.532326,-383.047749,-0.000000,9030.512492
2596.532655,-383.047749,-0.000000,8882.471304
2596.532984,-689.485948,-0.000000,8808.450710
2596.533314,-1225.752797,-222.061783,9178.553681
2596.533643,-766.095498,-1332.370696,9400.615463
2596.533972,0.000000,-962.267725,9474.636058
2596.534301,-919.314598,-1036.288319,9400.615463
2596.534630,-1302.362347,-0.000000,8956.491898
2596.534959,-919.314598,-0.000000,8364.327145
2596.535288,-1149.143247,-0.000000,8586.388927
2596.535617,-842.705048,-444.123565,9252.574275
2596.535946,-766.095498,-222.061783,9400.615463
2596.536275,-1225.752797,-518.144159,9252.574275
2596.536604,-459.657299,-0.000000,8956.491898
2596.536933,-842.705048,-0.000000,8586.388927
2596.537262,-689.485948,-518.144159,9030.512492
2596.537591,0.000000,-1036.288319,9696.697840
2596.537921,-536.266849,-1702.473667,9992.780217
2596.538250,-383.047749,-814.226536,9918.759623
2596.538579,-306.438199,-518.144159,9770.718434
2596.538908,76.609550,-370.102971,9252.574275
2596.539237,459.657299,-0.000000,8734.430116
2596.539566,612.876398,-0.000000,9104.533087
2596.539895,536.266849,-518.144159,9548.656652
2596.540224,1455.581446,740.205942,9326.594869
2596.540553,1838.629195,888.247130,8808.450710
2596.540882,1532.190996,1036.288319,8290.306550
2596.541211,1302.362347,296.082377,8142.265362
2596.541540,1608.800546,-222.061783,9326.594869
2596.541869,1915.238745,-592.164754,9326.594869
2596.542198,1532.190996,-592.164754,9178.553681
2596.542528,1455.581446,-444.123565,8734.430116
2596.542857,1532.190996,222.061783,9326.594869
2596.543186,1532.190996,-148.041188,8660.409521
2596.543515,459.657299,-0.000000,9474.636058
2596.543844,459.657299,-518.144159,9548.656652
2596.544173,536.266849,-74.020594,9548.656652
2596.544502,1149.143247,222.061783,9178.553681
2596.544831,1532.190996,-0.000000,8586.388927
2596.545160,1608.800546,-0.000000,9030.512492
2596.545489,1685.410096,-148.041188,9326.594869
2596.545818,2374.896044,-222.061783,9252.574275
2596.546147,2528.115143,-74.020594,8512.368333
2596.546476,1991.848295,666.185348,8068.244768
2596.546805,2374.896044,740.205942,8512.368333
2596.547135,1838.629195,-0.000000,7550.100608
2596.547464,919.314598,-370.102971,9104.533087
2596.547793,536.266849,-740.205942,9622.677246
2596.548122,76.609550,-1406.391290,9400.615463
2596.548451,-229.828649,-740.205942,9474.636058
2596.548780,-612.876398,-740.205942,9326.594869
2596.549109,-229.828649,-592.164754,9104.533087
2596.549438,-459.657299,-1406.391290,9548.656652
2596.549767,229.828649,-1184.329507,9548.656652
2596.550096,76.609550,-1110.308913,9770.718434
2596.550425,536.266849,-0.000000,9400.615463
2596.550754,76.609550,666.185348,8438.347739
2596.551083,306.438199,962.267725,8512.368333
2596.551412,536.266849,888.247130,8808.450710
2596.551742,459.657299,740.205942,9104.533087
2596.552071,-459.657299,-222.061783,9844.739029
2596.552400,-459.657299,-592.164754,8808.450710
2596.552729,-612.876398,-518.144159,8808.450710
2596.553058,-766.095498,-296.082377,8734.430116
2596.553387,-919.314598,-740.205942,9030.512492
2596.553716,-689.485948,-1110.308913,9252.574275
2596.554045,-536.266849,-888.247130,9252.574275
2596.554374,-459.657299,-518.144159,9548.656652
2596.554703,-995.924147,-74.020594,8808.450710
2596.555032,-1072.533697,-0.000000,8586.388927
2596.555361,-766.095498,-296.082377,9104.533087
2596.555690,-536.266849,-74.020594,9104.533087
2596.556019,153.219100,-148.041188,9474.636058
2596.556349,-766.095498,-370.102971,9474.636058
2596.556678,-383.047749,-0.000000,9030.512492
2596.557007,-306.438199,-74.020594,8290.306550
2596.557336,-536.266849,-518.144159,8734.430116
2596.557665,-383.047749,-1110.308913,9400.615463
2596.557994,-383.047749,-814.226536,9326.594869
2596.558323,-536.266849,-962.267725,9548.656652
2596.558652,-459.657299,-592.164754,9178.553681
2596.558981,-1149.143247,-0.000000,9474.636058
2596.559310,-919.314598,-148.041188,9400.615463
2596.559639,-612.876398,-0.000000,9178.553681
2596.559968,-306.438199,222.061783,9474.636058
2596.560297,383.047749,296.082377,9844.739029
2596.560627,995.924147,666.185348,9104.533087
2596.560956,1225.752797,444.123565,8512.368333
2596.561285,2298.286494,-0.000000,8734.430116
2596.561614,2451.505594,-148.041188,8882.471304
2596.561943,2604.724693,-296.082377,9104.533087
2596.562272,2757.943793,-0.000000,8734.430116
2596.562601,2681.334243,666.185348,8364.327145
2596.562930,2374.896044,518.144159,8364.327145
2596.563259,2298.286494,518.144159,8512.368333
2596.563588,1302.362347,-222.061783,9400.615463
2596.563917,919.314598,-444.123565,9548.656652
2596.564246,459.657299,-370.102971,9770.718434
2596.564575,842.705048,-370.102971,9918.759623
2596.564904,612.876398,-0.000000,8956.491898
2596.565234,1072.533697,-444.123565,9474.636058
2596.565563,2068.457845,-370.102971,9104.533087
2596.565892,2681.334243,296.082377,8512.368333
2596.566221,2528.115143,222.061783,9104.533087
2596.566550,2145.067394,814.226536,8586.388927
2596.566879,1838.629195,1480.411884,8142.265362
2596.567208,1149.143247,962.267725,8290.306550
2596.567537,766.095498,-0.000000,8956.491898
2596.567866,76.609550,-370.102971,9992.780217
2596.568195,-536.266849,-518.144159,9992.780217
2596.568524,-459.657299,-296.082377,9548.656652
2596.568853,-1072.533697,-370.102971,9326.594869
2596.569182,-995.924147,-666.185348,9548.656652
2596.569511,-842.705048,-888.247130,9918.759623
2596.569841,0.000000,-1850.514855,9400.615463
2596.570170,0.000000,-666.185348,9104.533087
2596.570499,306.438199,-222.061783,9178.553681
2596.570828,459.657299,-0.000000,8586.388927
2596.571157,0.000000,666.185348,8586.388927
2596.571486,229.828649,814.226536,8808.450710
2596.571815,0.000000,-444.123565,8586.388927
2596.572144,-842.705048,-148.041188,9992.780217
2596.572473,-766.095498,-518.144159,9992.780217
2596.572802,-1455.581446,-740.205942,8512.368333
2596.573131,-1762.019645,-888.247130,9104.533087
2596.573460,-1378.971896,-814.226536,9474.636058
2596.573789,-1072.533697,-1702.473667,9474.636058
2596.574118,-1225.752797,-814.226536,9104.533087
2596.574448,-1455.581446,-0.000000,9326.594869
2596.574777,-1608.800546,222.061783,8808.450710
2596.575106,-995.924147,-74.020594,8734.430116
2596.575435,-1149.143247,222.061783,8808.450710
2596.575764,-153.219100,-518.144159,8882.471304
2596.576093,-612.876398,-444.123565,9400.615463
2596.576422,-612.876398,-444.123565,9178.553681
2596.576751,-459.657299,-0.000000,8660.409521
2596.577080,-306.438199,-370.102971,8808.450710
2596.577409,-153.219100,-888.247130,8956.491898
2596.577738,536.266849,-1332.370696,9548.656652
2596.578067,1532.190996,-0.000000,9400.615463
2596.578396,1455.581446,-148.041188,8512.368333
2596.578725,1608.800546,592.164754,8068.244768
2596.579055,1532.190996,962.267725,8142.265362
2596.579384,1762.019645,518.144159,8586.388927
2596.579713,1302.362347,222.061783,9178.553681
2596.580042,995.924147,-370.102971,9474.636058
2596.580371,459.657299,-888.247130,8660.409521
2596.580700,536.266849,-296.082377,9474.636058
2596.581029,76.609550,-740.205942,9400.615463
2596.581358,536.266849,-1110.308913,9252.574275
2596.581687,1149.143247,-1110.308913,9696.697840
2596.582016,1455.581446,-1184.329507,9474.636058
2596.582345,2528.115143,-592.164754,9770.718434
2596.582674,2451.505594,148.041188,9178.553681
2596.583003,2145.067394,-0.000000,8586.388927
2596.583332,1762.019645,962.267725,8956.491898
2596.583662,1532.190996,1184.329507,9474.636058
2596.583991,1455.581446,444.123565,9474.636058
2596.584320,995.924147,888.247130,9474.636058
2596.584649,842.705048,814.226536,9104.533087
2596.584978,0.000000,-0.000000,8808.450710
2596.585307,612.876398,-962.267725,9918.759623
2596.585636,612.876398,-1332.370696,9474.636058
2596.585965,536.266849,-888.247130,9326.594869
2596.586294,1302.362347,-1036.288319,9770.718434
2596.586623,842.705048,-0.000000,8808.450710
2596.586952,1455.581446,444.123565,8438.347739
2596.587281,1378.971896,666.185348,8364.327145
2596.587610,1378.971896,296.082377,9030.512492
2596.587939,995.924147,740.205942,9474.636058
2596.588269,1072.533697,296.082377,9178.553681
2596.588598,76.609550,222.061783,8956.491898
2596.588927,0.000000,-0.000000,8512.368333
2596.589256,0.000000,-0.000000,8956.491898
2596.589585,76.609550,-1406.391290,9104.533087
2596.589914,229.828649,-1184.329507,9326.594869
2596.590243,-153.219100,-1110.308913,9104.533087
2596.590572,-536.266849,-370.102971,9030.512492
2596.590901,-689.485948,-0.000000,8068.244768
2596.591230,-995.924147,370.102971,8586.388927
2596.591559,-995.924147,-148.041188,9400.615463
2596.591888,-1149.143247,-0.000000,9252.574275
2596.592217,-1302.362347,-296.082377,9400.615463
2596.592546,-919.314598,-222.061783,9696.697840
2596.592876,-995.924147,-222.061783,8956.491898
2596.593205,-1072.533697,-444.123565,8882.471304
2596.593534,-842.705048,-1184.329507,9622.677246
2596.593863,0.000000,-1332.370696,9548.656652
2596.594192,383.047749,-1332.370696,8956.491898
2596.594521,459.657299,-0.000000,8734.430116
2596.594850,-306.438199,592.164754,8808.450710
2596.595179,459.657299,518.144159,8512.368333
2596.595508,153.219100,444.123565,8586.388927
2596.595837,-612.876398,-148.041188,9252.574275
2596.596166,-383.047749,-666.185348,9474.636058
2596.596495,-766.095498,-148.041188,8956.491898
2596.596824,-1302.362347,-0.000000,8956.491898
2596.597154,-536.266849,-518.144159,8586.388927
2596.597483,-689.485948,-1184.329507,9474.636058
2596.597812,-536.266849,-1036.288319,9844.739029
2596.598141,0.000000,-1036.288319,9622.677246
2596.598470,0.000000,-222.061783,9104.533087
2596.598799,76.609550,222.061783,9030.512492
2596.599128,153.219100,740.205942,8290.306550
2596.599457,459.657299,666.185348,8660.409521
2596.599786,689.485948,-0.000000,8882.471304
2596.600115,919.314598,-0.000000,9178.553681
2596.600444,689.485948,-0.000000,9252.574275
2596.600773,1302.362347,-0.000000,8512.368333
2596.601102,1608.800546,-666.185348,8808.450710
2596.601431,1302.362347,-1258.350101,9326.594869
2596.601760,1915.238745,-888.247130,8882.471304
2596.602089,2145.067394,-1036.288319,8882.471304
2596.602418,2374.896044,-0.000000,8586.388927
2596.602747,2221.676944,296.082377,8438.347739
2596.603076,2145.067394,-0.000000,8438.347739
2596.603405,1838.629195,296.082377,8734.430116
2596.603734,1838.629195,-148.041188,8808.450710
2596.604063,1302.362347,-148.041188,9474.636058
2596.604392,1225.752797,-0.000000,9400.615463
2596.604721,1302.362347,-296.082377,8956.491898
2596.605050,1225.752797,-0.000000,8882.471304
2596.605379,1685.410096,-592.164754,9326.594869
2596.605708,1455.581446,-518.144159,9400.615463
2596.606037,1838.629195,-1258.350101,9178.553681
2596.606366,1455.581446,-518.144159,8586.388927
2596.606695,766.095498,-0.000000,8808.450710
2596.607024,229.828649,592.164754,8438.347739
2596.607353,536.266849,-0.000000,9178.553681
2596.607682,229.828649,518.144159,9548.656652
2596.608011,0.000000,-222.061783,9474.636058
2596.608340,153.219100,-148.041188,8808.450710
2596.608669,-306.438199,-0.000000,9252.574275
2596.608998,-383.047749,-0.000000,9030.512492
2596.609327,-229.828649,-518.144159,9030.512492
2596.609656,0.000000,-740.205942,8956.491898
2596.609985,229.828649,-1258.350101,9104.533087
2596.610314,536.266849,-370.102971,8438.347739
2596.610643,0.000000,518.144159,8068.244768
2596.610972,459.657299,814.226536,7772.162391
2596.611301,153.219100,962.267725,8142.265362
2596.611630,-612.876398,-0.000000,9030.512492
2596.611959,-689.485948,-148.041188,9326.594869
2596.612288,-919.314598,-592.164754,9548.656652
2596.612618,-1608.800546,-0.000000,9474.636058
2596.612947,-1149.143247,-518.144159,9104.533087
2596.613276,-1532.190996,-370.102971,9326.594869
2596.613605,-689.485948,-1036.288319,9474.636058
2596.613934,-689.485948,-1036.288319,9622.677246
2596.614263,-1225.752797,-740.205942,9548.656652
2596.614592,-842.705048,-666.185348,9770.718434
2596.614921,-306.438199,-222.061783,9548.656652
2596.615250,-383.047749,-0.000000,8882.471304
2596.615579,0.000000,-74.020594,9104.533087
2596.615908,0.000000,-0.000000,8734.430116
2596.616237,-229.828649,222.061783,8882.471304
2596.616566,0.000000,296.082377,8882.471304
2596.616895,0.000000,370.102971,9104.533087
2596.617224,-1225.752797,-592.164754,9030.512492
2596.617553,229.828649,-1184.329507,9548.656652
2596.617882,153.219100,-1258.350101,9474.636058
2596.618211,0.000000,-666.185348,9548.656652
2596.618540,306.438199,-148.041188,9400.615463
2596.618869,536.266849,296.082377,8882.471304
2596.619198,306.438199,444.123565,8808.450710
2596.619527,919.314598,222.061783,9030.512492
2596.619856,1608.800546,-222.061783,8808.450710
2596.620185,689.485948,-148.041188,9104.533087
2596.620514,995.924147,666.185348,9104.533087
2596.620843,1455.581446,-0.000000,8586.388927
2596.621172,1072.533697,592.164754,7846.182985
2596.621501,2451.505594,-222.061783,8882.471304
2596.621830,2068.457845,-296.082377,8956.491898
2596.622159,1685.410096,-444.123565,8956.491898
2596.622488,1225.752797,-0.000000,9030.512492
2596.622817,919.314598,-0.000000,8660.409521
2596.623146,536.266849,-222.061783,9178.553681
2596.623475,536.266849,-0.000000,9104.533087
2596.623804,0.000000,-222.061783,9696.697840
2596.624133,153.219100,-444.123565,9474.636058
2596.624462,536.266849,-0.000000,9400.615463
2596.624791,612.876398,-0.000000,8882.471304
2596.625120,383.047749,-296.082377,9252.574275
2596.625449,842.705048,-666.185348,9104.533087
2596.625778,1532.190996,-592.164754,9030.512492
2596.626107,1991.848295,-592.164754,9252.574275
2596.626436,1838.629195,-222.061783,9104.533087
2596.626765,2221.676944,-0.000000,8660.409521
2596.627094,1685.410096,296.082377,8364.327145
2596.627423,1455.581446,740.205942,8216.285956
2596.627752,919.314598,-0.000000,9104.533087
2596.628081,383.047749,-222.061783,9474.636058
2596.628410,-229.828649,-518.144159,9918.759623
2596.628739,0.000000,-962.267725,9474.636058
2596.629068,-306.438199,-1258.350101,9104.533087
2596.629397,-383.047749,-1332.370696,9400.615463
2596.629727,-153.219100,-1406.391290,9474.636058
2596.630056,-306.438199,-1554.432478,9548.656652
2596.630385,0.000000,-444.123565,9252.574275
2596.630714,229.828649,-222.061783,8142.265362
2596.631043,383.047749,740.205942,8364.327145
2596.631372,76.609550,444.123565,8364.327145
2596.631701,0.000000,740.205942,9030.512492
2596.632030,-229.828649,-0.000000,9104.533087
2596.632359,-919.314598,962.267725,9400.615463
2596.632688,-842.705048,-0.000000,9030.512492
2596.633017,-536.266849,-0.000000,9400.615463
2596.633346,-536.266849,-592.164754,9104.533087
2596.633675,-842.705048,-666.185348,9326.594869
2596.634004,-689.485948,-740.205942,8586.388927
2596.634333,-536.266849,-888.247130,9844.739029
2596.634662,-1072.533697,-444.123565,8734.430116
2596.634991,-1455.581446,-370.102971,8956.491898
2596.635320,-842.705048,-1110.308913,9622.677246
2596.635649,-1455.581446,-0.000000,9474.636058
2596.635978,-766.095498,-296.082377,9252.574275
2596.636307,229.828649,296.082377,9770.718434
2596.636636,-229.828649,-0.000000,9104.533087
2596.636965,76.609550,592.164754,9030.512492
2596.637294,612.876398,-444.123565,9104.533087
2596.637623,995.924147,-666.185348,8882.471304
2596.637952,689.485948,-1036.288319,8808.450710
2596.638281,1608.800546,-0.000000,9474.636058
2596.638610,842.705048,518.144159,8660.409521
2596.638939,536.266849,1110.308913,8290.306550
2596.639268,0.000000,296.082377,8808.450710
2596.639597,-459.657299,-222.061783,9326.594869
2596.639926,-689.485948,-666.185348,9548.656652
2596.640255,-153.219100,-740.205942,9918.759623
2596.640584,-766.095498,-222.061783,9696.697840
2596.640913,-459.657299,-518.144159,9696.697840
2596.641242,0.000000,-740.205942,9696.697840
2596.641571,536.266849,-592.164754,9696.697840
2596.641900,1685.410096,-296.082377,9104.533087
2596.642229,2145.067394,-148.041188,9252.574275
2596.642558,2834.553343,1036.288319,8808.450710
2596.642887,3064.381992,740.205942,7846.182985
2596.643216,1838.629195,1036.288319,7772.162391
2596.643545,2681.334243,518.144159,8364.327145
2596.643874,2068.457845,222.061783,8734.430116
2596.644203,1532.190996,296.082377,8734.430116
2596.644532,1838.629195,370.102971,8882.471304
2596.644861,689.485948,-518.144159,9104.533087
2596.645190,229.828649,-444.123565,9104.533087
2596.645519,995.924147,-1110.308913,9770.718434
2596.645848,919.314598,-1110.308913,9474.636058
2596.646177,1378.971896,-740.205942,9400.615463
2596.646506,1455.581446,-74.020594,8808.450710
2596.646836,1149.143247,148.041188,8660.409521
2596.647165,1378.971896,296.082377,8734.430116
2596.647494,1378.971896,370.102971,9104.533087
2596.647823,459.657299,666.185348,9326.594869
2596.648152,76.609550,-148.041188,9548.656652
2596.648481,0.000000,-0.000000,9252.574275
2596.648810,-153.219100,-444.123565,9030.512492
2596.649139,-383.047749,-666.185348,9178.553681
2596.649468,0.000000,-1628.453072,9622.677246
2596.649797,76.609550,-1554.432478,9770.718434
2596.650126,-306.438199,-666.185348,9622.677246
2596.650455,229.828649,-296.082377,9178.553681
2596.650784,0.000000,-0.000000,8364.327145
2596.651113,459.657299,666.185348,8364.327145
2596.651442,153.219100,296.082377,8882.471304
2596.651771,536.266849,-222.061783,9104.533087
2596.652100,0.000000,-74.020594,9474.636058
2596.652429,0.000000,-0.000000,9178.553681
2596.652758,-536.266849,222.061783,8364.327145
2596.653087,-1225.752797,-148.041188,9030.512492
2596.653416,-766.095498,-888.247130,9178.553681
2596.653745,-766.095498,-1332.370696,9400.615463
2596.654074,-689.485948,-1480.411884,9548.656652
2596.654403,-1302.362347,-962.267725,9178.553681
2596.654732,-1455.581446,296.082377,8956.491898
2596.655061,-842.705048,296.082377,8512.368333
2596.655390,-1149.143247,444.123565,8512.368333
2596.655719,-995.924147,222.061783,9104.533087
2596.656048,-459.657299,-444.123565,9104.533087
2596.656377,-536.266849,296.082377,9252.574275
2596.656706,-536.266849,-0.000000,9030.512492
2596.657035,-612.876398,-814.226536,9104.533087
2596.657364,-612.876398,-666.185348,9474.636058
2596.657693,0.000000,-1036.288319,9252.574275
2596.658022,536.266849,-666.185348,9252.574275
2596.658351,842.705048,-296.082377,9104.533087
2596.658680,1149.143247,518.144159,9030.512492
2596.659009,1225.752797,-0.000000,8290.306550
2596.659338,919.314598,-0.000000,8808.450710
2596.659667,842.705048,-0.000000,9400.615463
2596.659996,919.314598,-370.102971,9548.656652
2596.660325,459.657299,-0.000000,9622.677246
2596.660654,689.485948,-0.000000,9326.594869
2596.660983,919.314598,-0.000000,8808.450710
2596.661312,536.266849,-592.164754,9178.553681
2596.661641,2068.457845,-518.144159,9474.636058
2596.661970,1838.629195,-444.123565,9400.615463
2596.662299,1991.848295,-74.020594,9252.574275
2596.662628,1762.019645,444.123565,8586.388927
2596.662957,1838.629195,666.185348,8512.368333
2596.663286,1455.581446,1036.288319,8956.491898
2596.663615,1685.410096,-0.000000,9104.533087
2596.663945,919.314598,-444.123565,9400.615463
2596.664274,689.485948,148.041188,9474.636058
2596.664603,612.876398,148.041188,9030.512492
2596.664932,383.047749,-0.000000,8586.388927
2596.665261,536.266849,-518.144159,9030.512492
2596.665590,1302.362347,-1110.308913,9252.574275
2596.665919,1378.971896,-1184.329507,9474.636058
2596.666248,1762.019645,-518.144159,8956.491898
2596.666577,1532.190996,370.102971,8512.368333
2596.666906,1455.581446,740.205942,8290.306550
2596.667235,1149.143247,740.205942,8290.306550
2596.667564,842.705048,-0.000000,9252.574275
2596.667893,383.047749,-0.000000,9474.636058
2596.668222,1149.143247,148.041188,9104.533087
2596.668551,229.828649,-0.000000,9178.553681
2596.668880,76.609550,-0.000000,9326.594869
2596.669209,0.000000,-222.061783,9252.574275
2596.669538,0.000000,-740.205942,9474.636058
2596.669867,306.438199,-1258.350101,9474.636058
2596.670196,536.266849,-1110.308913,9474.636058
2596.670525,229.828649,-222.061783,8586.388927
2596.670854,459.657299,-0.000000,8290.306550
2596.671183,383.047749,370.102971,7994.224174
2596.671512,0.000000,444.123565,8660.409521
2596.671841,-536.266849,148.041188,9474.636058
2596.672170,-383.047749,-0.000000,9400.615463
2596.672499,-1225.752797,222.061783,9326.594869
2596.672828,0.000000,-888.247130,9400.615463
2596.673157,-1149.143247,-962.267725,9400.615463
2596.673486,-1149.143247,-1406.391290,10140.821405
2596.673815,-919.314598,-1184.329507,9696.697840
2596.674144,-995.924147,-814.226536,9548.656652
2596.674473,-766.095498,-74.020594,9474.636058
2596.674802,229.828649,370.102971,8364.327145
2596.675131,0.000000,740.205942,8734.430116
2596.675460,0.000000,296.082377,8882.471304
2596.675789,-229.828649,296.082377,9474.636058
2596.676118,-536.266849,-0.000000,9030.512492
2596.676447,-383.047749,222.061783,9178.553681
2596.676776,-536.266849,296.082377,8660.409521
2596.677105,-612.876398,-518.144159,9030.512492
2596.677434,-689.485948,-1110.308913,9474.636058
2596.677763,0.000000,-1406.391290,9696.697840
2596.678092,229.828649,-1110.308913,9252.574275
2596.678421,0.000000,-148.041188,9030.512492
2596.678750,0.000000,444.123565,8734.430116
2596.679079,153.219100,1036.288319,8438.347739
2596.679408,229.828649,296.082377,8512.368333
2596.679737,0.000000,-0.000000,8734.430116
2596.680066,306.438199,-222.061783,9622.677246
2596.680395,0.000000,-444.123565,9030.512492
2596.680724,0.000000,-296.082377,9252.574275
2596.681054,0.000000,-370.102971,8956.491898
2596.681383,383.047749,-592.164754,9326.594869
2596.681712,766.095498,-888.247130,9548.656652
2596.682041,1685.410096,-1110.308913,9696.697840
2596.682370,2068.457845,-296.082377,9178.553681
2596.682699,1378.971896,296.082377,8734.430116
2596.683028,1685.410096,518.144159,8808.450710
2596.683357,1608.800546,518.144159,9178.553681
2596.683686,1762.019645,666.185348,9326.594869
2596.684015,1991.848295,222.061783,9326.594869
2596.684344,1455.581446,740.205942,9696.697840
2596.684673,1302.362347,148.041188,9104.533087
2596.685002,1225.752797,148.041188,8808.450710
2596.685331,1225.752797,-666.185348,9252.574275
2596.685660,1532.190996,-1110.308913,9326.594869
2596.685989,1455.581446,-962.267725,8882.471304
2596.686318,1302.362347,-296.082377,9030.512492
2596.686647,1532.190996,-74.020594,8882.471304
2596.686976,1532.190996,444.123565,8808.450710
2596.687305,1225.752797,1036.288319,8586.388927
2596.687634,919.314598,222.061783,9326.594869
2596.687963,536.266849,-148.041188,9696.697840
2596.688292,383.047749,148.041188,9178.553681
2596.688621,383.047749,-296.082377,9030.512492
2596.688950,0.000000,-222.061783,8882.471304
2596.689279,-536.266849,-444.123565,9178.553681
2596.689608,612.876398,-1184.329507,9918.759623
2596.689937,383.047749,-1258.350101,8734.430116
2596.690266,76.609550,-666.185348,8882.471304
2596.690595,306.438199,-888.247130,8734.430116
2596.690924,-229.828649,-0.000000,8142.265362
2596.691253,76.609550,-0.000000,8808.450710
2596.691582,0.000000,-0.000000,8882.471304
2596.691911,-229.828649,222.061783,9178.553681
2596.692240,-383.047749,-0.000000,9400.615463
2596.692569,-306.438199,518.144159,8734.430116
2596.692898,-995.924147,-222.061783,8956.491898
2596.693227,-459.657299,-518.144159,9474.636058
2596.693556,-689.485948,-888.247130,10510.924376
2596.693885,-536.266849,-74.020594,10214.842000
2596.694214,-919.314598,-814.226536,8734.430116
2596.694543,-1072.533697,370.102971,9474.636058
2596.694872,-536.266849,666.185348,9326.594869
2596.695201,-919.314598,148.041188,7550.100608
2596.695530,-1302.362347,-0.000000,7624.121203
2596.695859,-1149.143247,-296.082377,9400.615463
2596.696188,-995.924147,-518.144159,9326.594869
2596.696517,-1149.143247,-148.041188,8808.450710
2596.696846,-1302.362347,-518.144159,8586.388927
2596.697175,-1378.971896,-222.061783,9030.512492
2596.697504,-612.876398,-1258.350101,9548.656652
2596.697833,-306.438199,-1554.432478,9474.636058
2596.698163,-383.047749,-740.205942,9474.636058
2596.698492,76.609550,148.041188,9178.553681
2596.698821,306.438199,370.102971,8290.306550
2596.699150,536.266849,666.185348,8586.388927
2596.699479,995.924147,518.144159,8808.450710
2596.699808,689.485948,592.164754,9030.512492
2596.700137,1225.752797,740.205942,9548.656652
2596.700466,459.657299,666.185348,9178.553681
2596.700795,1608.800546,814.226536,8586.388927
2596.701124,1072.533697,-0.000000,8882.471304
2596.701453,1225.752797,-814.226536,9474.636058
2596.701783,1225.752797,-1258.350101,9326.594869
2596.702112,1072.533697,-814.226536,9178.553681
2596.702441,1762.019645,-370.102971,8956.491898
2596.702770,1455.581446,-148.041188,8586.388927
2596.703099,1302.362347,370.102971,8586.388927
2596.703428,1149.143247,592.164754,9178.553681
2596.703758,689.485948,-0.000000,9474.636058
2596.704087,842.705048,-0.000000,9696.697840
2596.704416,842.705048,-0.000000,9400.615463
2596.704745,995.924147,-148.041188,9474.636058
2596.705074,1072.533697,-74.020594,9400.615463
2596.705403,1455.581446,-296.082377,9474.636058
2596.705733,1762.019645,-518.144159,9622.677246
2596.706062,2068.457845,-0.000000,8808.450710
2596.706391,1991.848295,222.061783,8882.471304
2596.706720,1608.800546,1184.329507,7920.203579
2596.707049,1532.190996,222.061783,8734.430116
2596.707378,1302.362347,-148.041188,8660.409521
2596.707708,0.000000,-222.061783,9474.636058
2596.708037,0.000000,-1036.288319,9696.697840
2596.708366,-153.219100,-666.185348,9326.594869
2596.708695,0.000000,-74.020594,9400.615463
2596.709024,-459.657299,-296.082377,8512.368333
2596.709353,536.266849,-296.082377,9696.697840
2596.709683,306.438199,-962.267725,9844.739029
2596.710012,1149.143247,-296.082377,8882.471304
2596.710341,842.705048,148.041188,8512.368333
2596.710670,766.095498,518.144159,7994.224174
2596.710999,306.438199,1184.329507,7624.121203
2596.711328,229.828649,592.164754,8512.368333
2596.711658,0.000000,-222.061783,8882.471304
2596.711987,-612.876398,-518.144159,9030.512492
2596.712316,-766.095498,-814.226536,8734.430116
2596.712645,-1302.362347,-296.082377,8882.471304
2596.712974,-1378.971896,-444.123565,8586.388927
2596.713304,-1608.800546,-1332.370696,9474.636058
2596.713633,-1302.362347,-1184.329507,9992.780217
2596.713962,-459.657299,-1258.350101,9548.656652
2596.714291,-842.705048,-370.102971,9252.574275
2596.714620,-306.438199,444.123565,8956.491898
2596.714949,0.000000,-148.041188,8068.244768
2596.715279,-383.047749,444.123565,8660.409521
2596.715608,-306.438199,-74.020594,9030.512492
2596.715937,-459.657299,-74.020594,9326.594869
2596.716266,-919.314598,-74.020594,9474.636058
2596.716595,-995.924147,-296.082377,9252.574275
2596.716924,-1149.143247,-444.123565,9474.636058
2596.717254,-1685.410096,-962.267725,9770.718434
2596.717583,-689.485948,-1184.329507,9770.718434
2596.717912,-459.657299,-1110.308913,9918.759623
2596.718241,0.000000,-444.123565,9622.677246
2596.718570,536.266849,222.061783,8882.471304
2596.718899,383.047749,592.164754,8586.388927
2596.719229,766.095498,1036.288319,8364.327145
2596.719558,1149.143247,814.226536,8882.471304
2596.719887,689.485948,370.102971,9548.656652
2596.720216,689.485948,-0.000000,9178.553681
2596.720545,842.705048,-0.000000,8882.471304
2596.720874,919.314598,-222.061783,8882.471304
2596.721204,536.266849,222.061783,9030.512492
2596.721533,995.924147,-1184.329507,9918.759623
2596.721862,1685.410096,-740.205942,9326.594869
2596.722191,2298.286494,-444.123565,9104.533087
2596.722520,2298.286494,370.102971,8660.409521
2596.722849,2145.067394,370.102971,7994.224174
2596.723179,1991.848295,740.205942,8882.471304
2596.723508,1532.190996,592.164754,9030.512492
2596.723837,1302.362347,296.082377,9622.677246
2596.724166,1532.190996,-0.000000,9696.697840
2596.724495,1225.752797,148.041188,9030.512492
2596.724824,842.705048,-148.041188,8956.491898
2596.725154,919.314598,-962.267725,9252.574275
2596.725483,612.876398,-1036.288319,9622.677246
2596.725812,1225.752797,-1036.288319,9770.718434
2596.726141,1378.971896,-666.185348,9326.594869
2596.726470,1455.581446,-74.020594,8512.368333
2596.726799,1455.581446,444.123565,8068.244768
2596.727129,1455.581446,518.144159,8142.265362
2596.727458,1225.752797,296.082377,8882.471304
2596.727787,995.924147,148.041188,8734.430116
2596.728116,536.266849,444.123565,9548.656652
2596.728445,0.000000,-0.000000,9474.636058
2596.728774,-536.266849,-74.020594,9178.553681
2596.729104,-536.266849,-518.144159,9178.553681
2596.729433,-383.047749,-962.267725,9696.697840
2596.729762,-153.219100,-1110.308913,9696.697840
2596.730091,0.000000,-2072.576638,9696.697840
2596.730420,0.000000,-666.185348,9474.636058
2596.730749,229.828649,-0.000000,8512.368333
2596.731079,306.438199,-0.000000,8068.244768
2596.731408,0.000000,370.102971,8364.327145
2596.731737,0.000000,370.102971,8882.471304
2596.732066,0.000000,296.082377,8808.450710
2596.732395,0.000000,-0.000000,9030.512492
2596.732724,-306.438199,296.082377,8512.368333
2596.733054,-459.657299,-518.144159,8734.430116
2596.733383,-919.314598,-888.247130,9400.615463
2596.733712,-766.095498,-888.247130,9326.594869
2596.734041,-689.485948,-666.185348,9474.636058
2596.734370,-842.705048,-74.020594,9178.553681
2596.734699,-766.095498,-74.020594,8808.450710
2596.735029,-919.314598,296.082377,8586.388927
2596.735358,-995.924147,222.061783,9030.512492
2596.735687,-689.485948,-370.102971,9030.512492
2596.736016,-1225.752797,-222.061783,9474.636058
2596.736345,-1378.971896,-370.102971,9474.636058
2596.736674,-1302.362347,-370.102971,9474.636058
2596.737004,-689.485948,-888.247130,9178.553681
2596.737333,-459.657299,-1406.391290,9474.636058
2596.737662,-689.485948,-1702.473667,9474.636058
2596.737991,0.000000,-1184.329507,10214.842000
2596.738320,612.876398,-962.267725,8882.471304
2596.738649,306.438199,592.164754,8512.368333
2596.738979,1072.533697,518.144159,8808.450710
2596.739308,612.876398,1036.288319,9030.512492
2596.739637,689.485948,666.185348,9474.636058
2596.739966,995.924147,-74.020594,9844.739029
2596.740295,919.314598,-0.000000,9400.615463
2596.740624,842.705048,592.164754,9104.533087
2596.740954,842.705048,444.123565,8660.409521
2596.741283,459.657299,-148.041188,9252.574275
2596.741612,1302.362347,-1036.288319,9178.553681
2596.741941,1991.848295,-814.226536,8512.368333
2596.742270,2145.067394,-962.267725,8956.491898
2596.742599,2221.676944,-0.000000,8438.347739
2596.742929,1838.629195,444.123565,8512.368333
2596.743258,1378.971896,296.082377,8882.471304
2596.743587,1225.752797,666.185348,9252.574275
2596.743916,1378.971896,296.082377,9844.739029
2596.744245,1072.533697,-0.000000,9992.780217
2596.744574,1378.971896,296.082377,9622.677246
2596.744904,842.705048,-0.000000,8956.491898
2596.745233,1532.190996,-0.000000,9400.615463
2596.745562,1608.800546,-666.185348,9548.656652
2596.745891,2221.676944,-592.164754,8956.491898
2596.746220,2298.286494,-962.267725,8512.368333
2596.746549,2374.896044,-0.000000,8290.306550
2596.746879,1302.362347,-0.000000,6809.894666
2596.747208,1762.019645,-518.144159,8660.409521
2596.747537,1149.143247,370.102971,7994.224174
2596.747866,229.828649,-518.144159,9030.512492
2596.748195,-229.828649,-888.247130,9770.718434
2596.748524,0.000000,222.061783,10362.883188
2596.748854,-919.314598,-962.267725,9326.594869
2596.749183,-1532.190996,-666.185348,9918.759623
2596.749512,-766.095498,-1998.556043,10288.862594
2596.749841,-383.047749,-1036.288319,9696.697840
2596.750170,306.438199,-1036.288319,9474.636058
2596.750499,306.438199,148.041188,8438.347739
2596.750829,459.657299,444.123565,7846.182985
2596.751158,459.657299,1036.288319,8142.265362
2596.751487,459.657299,148.041188,7476.080014
2596.751816,383.047749,296.082377,9030.512492
2596.752145,-383.047749,-0.000000,8956.491898
2596.752474,-1225.752797,-0.000000,8512.368333
2596.752804,-1608.800546,-296.082377,8660.409521
2596.753133,-1762.019645,-518.144159,9178.553681
2596.753462,-995.924147,-962.267725,9252.574275
2596.753791,-689.485948,-1554.432478,9474.636058
2596.754120,-1225.752797,-666.185348,9474.636058
2596.754449,-766.095498,-74.020594,9326.594869
2596.754779,-689.485948,592.164754,8586.388927
2596.755108,-459.657299,370.102971,8660.409521
2596.755437,-536.266849,592.164754,9030.512492
2596.755766,0.000000,-0.000000,9326.594869
2596.756095,153.219100,-444.123565,9548.656652
2596.756425,0.000000,-0.000000,8808.450710
2596.756754,0.000000,-0.000000,8438.347739
2596.757083,-153.219100,-296.082377,8660.409521
2596.757412,-459.657299,-814.226536,9252.574275
2596.757741,459.657299,-1110.308913,9622.677246
2596.758070,536.266849,-592.164754,9178.553681
2596.758400,0.000000,-296.082377,8882.471304
2596.758729,229.828649,222.061783,9104.533087
2596.759058,0.000000,296.082377,8956.491898
2596.759387,76.609550,518.144159,9326.594869
2596.759716,0.000000,-0.000000,9770.718434
2596.760045,-459.657299,-0.000000,10066.800811
2596.760375,0.000000,-222.061783,9992.780217
2596.760704,0.000000,-0.000000,8956.491898
2596.761033,153.219100,-370.102971,9696.697840
2596.761362,766.095498,-1036.288319,9622.677246
2596.761691,1225.752797,-518.144159,9696.697840
2596.762020,1991.848295,-1110.308913,9252.574275
2596.762350,2374.896044,-0.000000,8216.285956
2596.762679,2911.162892,962.267725,8438.347739
2596.763008,2451.505594,1110.308913,8068.244768
2596.763337,2221.676944,1406.391290,8660.409521
2596.763666,1532.190996,296.082377,9326.594869
2596.763995,1072.533697,222.061783,8956.491898
2596.764325,842.705048,-222.061783,9474.636058
2596.764654,459.657299,-444.123565,9326.594869
2596.764983,-536.266849,-222.061783,9178.553681
2596.765312,842.705048,-1480.411884,9770.718434
2596.765641,995.924147,-1702.473667,9474.636058
2596.765970,766.095498,-1184.329507,9030.512492
2596.766300,1685.410096,-518.144159,8660.409521
2596.766629,1915.238745,296.082377,7698.141797
2596.766958,1608.800546,962.267725,7476.080014
2596.767287,1991.848295,814.226536,7772.162391
2596.767616,1455.581446,962.267725,8734.430116
2596.767945,995.924147,-0.000000,8808.450710
2596.768275,536.266849,-0.000000,9178.553681
2596.768604,-306.438199,-0.000000,8956.491898
2596.768933,-842.705048,-518.144159,9030.512492
2596.769262,-689.485948,-1110.308913,9474.636058
2596.769591,-459.657299,-1776.494261,9992.780217
2596.769920,-153.219100,-1776.494261,9104.533087
2596.770250,0.000000,-666.185348,9548.656652
2596.770579,229.828649,-0.000000,8734.430116
2596.770908,536.266849,296.082377,8512.368333
2596.771237,842.705048,888.247130,8734.430116
2596.771566,459.657299,666.185348,9030.512492
2596.771895,-153.219100,370.102971,9400.615463
2596.772225,0.000000,-74.020594,9474.636058
2596.772554,-229.828649,-74.020594,9178.553681
2596.772883,-842.705048,-0.000000,8734.430116
2596.773212,-1072.533697,-740.205942,9326.594869
2596.773541,-1149.143247,-1110.308913,9992.780217
2596.773870,-689.485948,-1258.350101,10066.800811
2596.774200,-766.095498,-444.123565,9474.636058
2596.774529,-1149.143247,-222.061783,9622.677246
2596.774858,-1532.190996,370.102971,8882.471304
2596.775187,-1455.581446,814.226536,8956.491898
2596.775516,-995.924147,-0.000000,9326.594869
2596.775845,-995.924147,-148.041188,9178.553681
2596.776175,-689.485948,-148.041188,9622.677246
2596.776504,-383.047749,-74.020594,9252.574275
2596.776833,-766.095498,-74.020594,8956.491898
2596.777162,-536.266849,-444.123565,9178.553681
2596.777491,0.000000,-592.164754,9474.636058
2596.777820,459.657299,-740.205942,9252.574275
2596.778150,459.657299,-888.247130,8956.491898
2596.778479,842.705048,370.102971,8586.388927
2596.778808,995.924147,592.164754,8512.368333
2596.779137,1149.143247,1110.308913,8586.388927
2596.779466,229.828649,-0.000000,8882.471304
2596.779795,612.876398,-148.041188,9326.594869
2596.780125,612.876398,-0.000000,9548.656652
2596.780454,536.266849,-148.041188,9252.574275
2596.780783,459.657299,-148.041188,8808.450710
2596.781112,459.657299,-518.144159,9400.615463
2596.781441,766.095498,-888.247130,9474.636058
2596.781770,1762.019645,-962.267725,9252.574275
2596.782100,1838.629195,-296.082377,9178.553681
2596.782429,1762.019645,-0.000000,8882.471304
2596.782758,1838.629195,740.205942,8364.327145
2596.783087,1378.971896,666.185348,8290.306550
2596.783416,1608.800546,-0.000000,9252.574275
2596.783745,995.924147,-0.000000,9400.615463
2596.784075,995.924147,-518.144159,9992.780217
2596.784404,612.876398,-666.185348,9770.718434
2596.784733,612.876398,-444.123565,9104.533087
2596.785062,919.314598,-296.082377,8734.430116
2596.785391,919.314598,-740.205942,9622.677246
2596.785720,2068.457845,-1184.329507,9474.636058
2596.786050,2221.676944,-814.226536,8808.450710
2596.786379,1991.848295,-0.000000,8586.388927
2596.786708,2834.553343,1036.288319,7772.162391
2596.787037,2451.505594,1036.288319,7624.121203
2596.787366,1532.190996,1036.288319,8142.265362
2596.787695,1455.581446,222.061783,9326.594869
2596.788025,0.000000,-518.144159,9252.574275
2596.788354,306.438199,-74.020594,9474.636058
2596.788683,0.000000,-518.144159,9252.574275
2596.789012,-1225.752797,-370.102971,9030.512492
2596.789341,-612.876398,-962.267725,9844.739029
2596.789670,0.000000,-1258.350101,9696.697840
2596.790000,0.000000,-888.247130,9030.512492
2596.790329,306.438199,-444.123565,9548.656652
2596.790658,153.219100,-0.000000,8734.430116
2596.790987,383.047749,148.041188,8142.265362
2596.791316,153.219100,592.164754,8660.409521
2596.791645,0.000000,444.123565,8808.450710
2596.791975,-612.876398,-74.020594,9400.615463
2596.792304,-536.266849,222.061783,9178.553681
2596.792633,-306.438199,-74.020594,8808.450710
2596.792962,-1302.362347,-666.185348,8882.471304
2596.793291,-1455.581446,-1184.329507,9696.697840
2596.793620,-1225.752797,-1406.391290,9992.780217
2596.793950,-995.924147,-1480.411884,9548.656652
2596.794279,-612.876398,-814.226536,9548.656652
2596.794608,-383.047749,-222.061783,9104.533087
2596.794937,0.000000,592.164754,8364.327145
2596.795266,0.000000,296.082377,8734.430116
2596.795595,-536.266849,370.102971,9030.512492
2596.795925,-306.438199,222.061783,9326.594869
2596.796254,-383.047749,-148.041188,9622.677246
2596.796583,-842.705048,-0.000000,9178.553681
2596.796912,-1302.362347,-0.000000,8734.430116
2596.797241,-1302.362347,-740.205942,9474.636058
2596.797571,-689.485948,-1184.329507,9622.677246
2596.797900,-153.219100,-888.247130,9326.594869
2596.798229,-306.438199,-222.061783,9030.512492
2596.798558,-306.438199,-0.000000,8734.430116
2596.798887,0.000000,814.226536,8512.368333
2596.799216,76.609550,1184.329507,8216.285956
2596.799545,612.876398,370.102971,9770.718434
2596.799875,0.000000,-962.267725,9770.718434
2596.800204,-229.828649,-0.000000,10288.862594
2596.800533,1149.143247,-148.041188,9104.533087
2596.800862,306.438199,-148.041188,7105.977043
2596.801191,1072.533697,-74.020594,9030.512492
2596.801520,1378.971896,-814.226536,9696.697840
2596.801849,1455.581446,-1628.453072,8882.471304
2596.802179,3064.381992,-592.164754,9474.636058
2596.802508,2298.286494,-0.000000,8808.450710
2596.802837,2145.067394,888.247130,7698.141797
2596.803166,2451.505594,666.185348,8882.471304
2596.803495,1838.629195,296.082377,8956.491898
2596.803824,1762.019645,-370.102971,9474.636058
2596.804153,1608.800546,-518.144159,9548.656652
2596.804483,1149.143247,-0.000000,8512.368333
2596.804812,1378.971896,-0.000000,9400.615463
2596.805141,1149.143247,-444.123565,9178.553681
2596.805470,1455.581446,-1036.288319,9400.615463
2596.805799,1685.410096,-1184.329507,9326.594869
2596.806128,1915.238745,-592.164754,8956.491898
2596.806458,1991.848295,-74.020594,8586.388927
2596.806787,1838.629195,666.185348,8512.368333
2596.807116,1378.971896,518.144159,7846.182985
2596.807445,995.924147,-0.000000,8512.368333
2596.807774,536.266849,-148.041188,9178.553681
2596.808103,76.609550,-592.164754,9474.636058
2596.808432,76.609550,-296.082377,9400.615463
2596.808762,153.219100,-740.205942,9030.512492
2596.809091,0.000000,-888.247130,9252.574275
2596.809420,0.000000,-962.267725,9696.697840
2596.809749,0.000000,-814.226536,9326.594869
2596.810078,689.485948,-296.082377,9104.533087
2596.810407,842.705048,222.061783,8364.327145
2596.810736,919.314598,814.226536,7698.141797
2596.811066,1225.752797,1406.391290,8068.244768
2596.811395,383.047749,666.185348,8290.306550
2596.811724,0.000000,-0.000000,9178.553681
2596.812053,-766.095498,-444.123565,9770.718434
2596.812382,-1302.362347,-148.041188,9474.636058
2596.812711,-1762.019645,-74.020594,9104.533087
2596.813040,-1915.238745,-592.164754,9104.533087
2596.813370,-1915.238745,-740.205942,8882.471304
2596.813699,-689.485948,-1406.391290,10214.842000
2596.814028,-1378.971896,-1776.494261,9770.718434
2596.814357,-1608.800546,-592.164754,9770.718434
2596.814686,-842.705048,-222.061783,9548.656652
2596.815015,-766.095498,740.205942,7698.141797
2596.815344,-536.266849,888.247130,8364.327145
2596.815674,-612.876398,518.144159,9474.636058
2596.816003,-766.095498,-370.102971,9992.780217
2596.816332,-842.705048,-148.041188,9622.677246
2596.816661,-766.095498,-0.000000,8808.450710
2596.816990,-1455.581446,-370.102971,9030.512492
2596.817319,-1072.533697,-1110.308913,9844.739029
2596.817648,-995.924147,-1406.391290,9770.718434
2596.817978,0.000000,-1332.370696,9844.739029
2596.818307,306.438199,-592.164754,9178.553681
2596.818636,383.047749,-74.020594,8364.327145
2596.818965,995.924147,814.226536,8438.347739
2596.819294,842.705048,666.185348,8364.327145
2596.819623,766.095498,148.041188,9178.553681
2596.819952,536.266849,-0.000000,9548.656652
2596.820282,766.095498,-0.000000,9474.636058
2596.820611,1225.752797,740.205942,8734.430116
2596.820940,1149.143247,148.041188,8512.368333
2596.821269,1149.143247,-74.020594,8956.491898
2596.821598,1455.581446,-222.061783,9104.533087
2596.821927,2145.067394,-592.164754,8512.368333
2596.822256,2298.286494,-148.041188,8364.327145
2596.822586,2145.067394,-0.000000,8142.265362
2596.822915,1838.629195,-0.000000,8142.265362
2596.823244,995.924147,296.082377,8364.327145
2596.823573,919.314598,-74.020594,9178.553681
2596.823902,306.438199,-444.123565,9696.697840
2596.824231,536.266849,-222.061783,9918.759623
2596.824561,306.438199,-0.000000,9622.677246
2596.824890,0.000000,-814.226536,9400.615463
2596.825219,612.876398,-888.247130,9622.677246
2596.825548,2068.457845,-1480.411884,9622.677246
2596.825877,2068.457845,-1110.308913,9178.553681
2596.826206,2145.067394,-444.123565,9104.533087
2596.826535,2374.896044,518.144159,8512.368333
2596.826865,2145.067394,1036.288319,7698.141797
2596.827194,1991.848295,1110.308913,8068.244768
2596.827523,2145.067394,-0.000000,8512.368333
2596.827852,1838.629195,-962.267725,9104.533087
2596.828181,229.828649,-1036.288319,9770.718434
2596.828510,76.609550,-666.185348,9474.636058
2596.828839,-459.657299,-1036.288319,9252.574275
2596.829169,-459.657299,-1184.329507,9622.677246
2596.829498,-612.876398,-962.267725,9918.759623
2596.829827,536.266849,-1332.370696,10140.821405
2596.830156,0.000000,-888.247130,9622.677246
2596.830485,842.705048,592.164754,9474.636058
2596.830814,689.485948,1110.308913,8438.347739
2596.831143,536.266849,1554.432478,7846.182985
2596.831473,0.000000,1184.329507,8364.327145
2596.831802,-612.876398,148.041188,9030.512492
2596.832131,-612.876398,-592.164754,9474.636058
2596.832460,-842.705048,-0.000000,9030.512492
2596.832789,-1455.581446,-0.000000,8734.430116
2596.833118,-2451.505594,-666.185348,9844.739029
2596.833447,-1455.581446,-1554.432478,9400.615463
2596.833777,-1532.190996,-1406.391290,9622.677246
2596.834106,-1302.362347,-888.247130,9696.697840
2596.834435,-612.876398,-370.102971,9400.615463
2596.834764,-459.657299,592.164754,8438.347739
2596.835093,0.000000,1110.308913,7402.059420
2596.835422,0.000000,740.205942,8882.471304
2596.835751,0.000000,-0.000000,9252.574275
2596.836081,229.828649,-148.041188,9400.615463
2596.836410,0.000000,-0.000000,8882.471304
2596.836739,-459.657299,222.061783,8216.285956
2596.837068,-536.266849,-814.226536,8808.450710
2596.837397,-766.095498,-1036.288319,9178.553681
2596.837726,-383.047749,-2294.638420,9696.697840
2596.838055,0.000000,-1924.535449,9770.718434
2596.838385,-459.657299,-592.164754,9030.512492
2596.838714,-229.828649,592.164754,8882.471304
2596.839043,-612.876398,518.144159,8586.388927
2596.839372,-612.876398,592.164754,9326.594869
2596.839701,0.000000,-0.000000,9770.718434
2596.840030,0.000000,-74.020594,10140.821405
2596.840360,76.609550,148.041188,9474.636058
2596.840689,229.828649,-222.061783,8660.409521
2596.841018,383.047749,-74.020594,8882.471304
2596.841347,919.314598,-370.102971,9104.533087
2596.841676,1685.410096,-814.226536,8882.471304
2596.842005,2757.943793,-666.185348,9474.636058
2596.842334,2451.505594,-0.000000,8512.368333
2596.842664,2298.286494,740.205942,7772.162391
2596.842993,2221.676944,740.205942,7698.141797
2596.843322,2221.676944,740.205942,8512.368333
2596.843651,1838.629195,296.082377,9400.615463
2596.843980,1608.800546,-0.000000,9178.553681
2596.844309,1302.362347,-444.123565,9548.656652
2596.844638,229.828649,-0.000000,9548.656652
2596.844968,1455.581446,-222.061783,9252.574275
2596.845297,612.876398,-296.082377,9326.594869
2596.845626,1608.800546,-1110.308913,9548.656652
2596.845955,1915.238745,-444.123565,9326.594869
2596.846284,1762.019645,-222.061783,8734.430116
2596.846613,1915.238745,-148.041188,8734.430116
2596.846942,1762.019645,296.082377,7846.182985
2596.847272,1225.752797,592.164754,8216.285956
2596.847601,689.485948,148.041188,9178.553681
2596.847930,153.219100,-666.185348,9326.594869
2596.848259,76.609550,-518.144159,9548.656652
2596.848588,0.000000,-518.144159,9326.594869
2596.848917,0.000000,-740.205942,8808.450710
2596.849246,0.000000,-1184.329507,9918.759623
2596.849576,689.485948,-1184.329507,9548.656652
2596.849905,153.219100,-370.102971,9844.739029
2596.850234,229.828649,-370.102971,9622.677246
2596.850563,536.266849,740.205942,8808.450710
2596.850892,919.314598,1480.411884,8512.368333
2596.851221,612.876398,1184.329507,7994.224174
2596.851550,306.438199,444.123565,9178.553681
2596.851880,689.485948,-74.020594,9400.615463
2596.852209,-153.219100,-0.000000,8660.409521
2596.852538,-459.657299,-74.020594,9104.533087
2596.852867,-1072.533697,-370.102971,8290.306550
2596.853196,-1225.752797,-518.144159,9326.594869
2596.853525,-995.924147,-1332.370696,9548.656652
2596.853854,153.219100,-1776.494261,9548.656652
2596.854184,-536.266849,-1406.391290,9474.636058
2596.854513,-536.266849,148.041188,8734.430116
2596.854842,-536.266849,1184.329507,7846.182985
2596.855171,-766.095498,888.247130,8216.285956
2596.855500,-689.485948,592.164754,8808.450710
2596.855829,-766.095498,-0.000000,9400.615463
2596.856159,-1302.362347,-296.082377,9918.759623
2596.856488,-766.095498,-1184.329507,8808.450710
2596.856817,-995.924147,-444.123565,8364.327145
2596.857146,-1149.143247,-814.226536,9030.512492
2596.857475,-842.705048,-1184.329507,9474.636058
2596.857804,-383.047749,-1480.411884,9548.656652
2596.858133,306.438199,-888.247130,9326.594869
2596.858463,689.485948,-518.144159,9104.533087
2596.858792,842.705048,-0.000000,8438.347739
2596.859121,842.705048,592.164754,8438.347739
2596.859450,919.314598,-0.000000,9252.574275
2596.859779,766.095498,-0.000000,9474.636058
2596.860108,612.876398,-0.000000,9844.739029
2596.860437,842.705048,-0.000000,9622.677246
2596.860767,459.657299,-0.000000,9178.553681
2596.861096,383.047749,-296.082377,9178.553681
2596.861425,459.657299,-592.164754,8734.430116
2596.861754,1532.190996,-1258.350101,9992.780217
2596.862083,1378.971896,-1110.308913,8882.471304
2596.862412,1302.362347,-0.000000,8734.430116
2596.862741,1608.800546,-0.000000,8882.471304
2596.863071,1378.971896,1184.329507,7624.121203
2596.863400,383.047749,592.164754,8512.368333
2596.863729,766.095498,296.082377,9770.718434
2596.864058,612.876398,-444.123565,10140.821405
2596.864387,612.876398,-0.000000,10066.800811
2596.864716,536.266849,-222.061783,9400.615463
2596.865045,383.047749,-296.082377,9178.553681
2596.865375,612.876398,-74.020594,9548.656652
2596.865704,1915.238745,-666.185348,9770.718434
2596.866033,2528.115143,-444.123565,9178.553681
2596.866362,2681.334243,666.185348,8290.306550
2596.866691,2451.505594,814.226536,7698.141797
2596.867020,2374.896044,1332.370696,7772.162391
2596.867349,1991.848295,740.205942,7772.162391
2596.867679,995.924147,-0.000000,9252.574275
2596.868008,76.609550,-370.102971,9548.656652
2596.868337,0.000000,-962.267725,9326.594869
2596.868666,-306.438199,-370.102971,9400.615463
2596.868995,-536.266849,-814.226536,9474.636058
2596.869324,-536.266849,-1184.329507,9474.636058
2596.869653,0.000000,-1406.391290,9696.697840
2596.869983,536.266849,-1406.391290,9770.718434
2596.870312,306.438199,74.020594,9252.574275
2596.870641,459.657299,444.123565,8364.327145
2596.870970,766.095498,1036.288319,7846.182985
2596.871299,459.657299,1110.308913,8142.265362
2596.871628,0.000000,222.061783,9030.512492
2596.871957,-153.219100,-296.082377,9252.574275
2596.872287,-766.095498,-518.144159,9178.553681
2596.872616,-766.095498,-296.082377,9030.512492
2596.872945,-1838.629195,-444.123565,9252.574275
2596.873274,-1915.238745,-1406.391290,9474.636058
2596.873603,-1838.629195,-1850.514855,9992.780217
2596.873932,-1532.190996,-1406.391290,9252.574275
2596.874262,-1455.581446,-1036.288319,9622.677246
2596.874591,-995.924147,-0.000000,9252.574275
2596.874920,-383.047749,592.164754,8142.265362
2596.875249,0.000000,296.082377,8512.368333
2596.875578,0.000000,222.061783,8882.471304
2596.875907,0.000000,222.061783,9400.615463
2596.876236,0.000000,-0.000000,9030.512492
2596.876566,0.000000,296.082377,8586.388927
2596.876895,-306.438199,370.102971,8808.450710
2596.877224,-689.485948,-370.102971,8660.409521
2596.877553,-229.828649,-1110.308913,9400.615463
2596.877882,0.000000,-1628.453072,9474.636058
2596.878211,76.609550,-1332.370696,9030.512492
2596.878540,0.000000,-444.123565,8512.368333
2596.878870,0.000000,296.082377,8216.285956
2596.879199,-306.438199,740.205942,8512.368333
2596.879528,-306.438199,-0.000000,9326.594869
2596.879857,229.828649,-222.061783,9548.656652
2596.880186,76.609550,-0.000000,9770.718434
2596.880515,-229.828649,-370.102971,10140.821405
2596.880844,383.047749,-444.123565,9178.553681
2596.881174,76.609550,-444.123565,9178.553681
2596.881503,459.657299,-888.247130,9474.636058
2596.881832,1532.190996,-1036.288319,9474.636058
2596.882161,2145.067394,-518.144159,9030.512492
2596.882490,2911.162892,592.164754,8956.491898
2596.882819,3294.210641,814.226536,7920.203579
2596.883148,2298.286494,740.205942,8438.347739
2596.883478,1915.238745,962.267725,8808.450710
2596.883807,1838.629195,-0.000000,9918.759623
2596.884136,1149.143247,-0.000000,9844.739029
2596.884465,1685.410096,-0.000000,9696.697840
2596.884794,1302.362347,-444.123565,9252.574275
2596.885123,919.314598,-518.144159,8882.471304
2596.885452,1762.019645,-666.185348,9474.636058
2596.885782,1915.238745,-814.226536,9474.636058
2596.886111,1838.629195,-148.041188,9252.574275
2596.886440,2298.286494,-0.000000,8586.388927
2596.886769,2221.676944,1184.329507,7624.121203
2596.887098,919.314598,1554.432478,8290.306550
2596.887427,1149.143247,518.144159,9104.533087
2596.887756,842.705048,-0.000000,9030.512492
2596.888086,229.828649,-0.000000,9474.636058
2596.888415,76.609550,-222.061783,9474.636058
2596.888744,-536.266849,-1184.329507,9104.533087
2596.889073,-995.924147,-814.226536,9474.636058
2596.889402,-306.438199,-1110.308913,9178.553681
2596.889731,0.000000,-1184.329507,9696.697840
2596.890061,459.657299,-740.205942,9178.553681
2596.890390,383.047749,-0.000000,8660.409521
2596.890719,306.438199,296.082377,8290.306550
2596.891048,612.876398,666.185348,7698.141797
2596.891377,306.438199,-222.061783,8512.368333
2596.891706,-229.828649,-592.164754,9474.636058
2596.892035,-383.047749,-1036.288319,8808.450710
2596.892365,-919.314598,-592.164754,9474.636058
2596.892694,-1149.143247,-740.205942,9326.594869
2596.893023,-1225.752797,-444.123565,8734.430116
2596.893352,-1225.752797,-814.226536,9104.533087
2596.893681,-612.876398,-1258.350101,9474.636058
2596.894010,-383.047749,-888.247130,9474.636058
2596.894339,0.000000,-444.123565,9030.512492
2596.894669,0.000000,518.144159,7994.224174
2596.894998,-306.438199,814.226536,8290.306550
2596.895327,-766.095498,740.205942,8438.347739
2596.895656,-995.924147,-148.041188,9104.533087
2596.895985,-1072.533697,-148.041188,9622.677246
2596.896314,-1072.533697,-814.226536,9252.574275
2596.896643,-919.314598,-814.226536,9400.615463
2596.896973,-1378.971896,-888.247130,8882.471304
2596.897302,-1302.362347,-666.185348,9252.574275
2596.897631,-995.924147,-1332.370696,9548.656652
2596.897960,-383.047749,-1036.288319,9400.615463
2596.898289,76.609550,-148.041188,9326.594869
2596.898618,536.266849,1036.288319,8512.368333
2596.898947,536.266849,962.267725,8438.347739
2596.899276,536.266849,740.205942,8882.471304
2596.899605,536.266849,444.123565,9252.574275
2596.899934,612.876398,-74.020594,9844.739029
2596.900263,612.876398,-0.000000,9474.636058
2596.900592,0.000000,-296.082377,9622.677246
2596.900921,1149.143247,-0.000000,8512.368333
2596.901250,1378.971896,-444.123565,8956.491898
2596.901579,995.924147,-592.164754,9696.697840
2596.901908,1762.019645,-888.247130,10214.842000
2596.902237,2221.676944,-370.102971,8956.491898
2596.902566,2068.457845,592.164754,7031.956449
2596.902895,2604.724693,1258.350101,7846.182985
2596.903224,1915.238745,-0.000000,8512.368333
2596.903553,2451.505594,962.267725,9030.512492
2596.903882,1378.971896,-370.102971,9844.739029
2596.904211,459.657299,-370.102971,9696.697840
2596.904540,153.219100,-740.205942,9622.677246
2596.904869,306.438199,-888.247130,9474.636058
2596.905198,76.609550,-1258.350101,9474.636058
2596.905527,1378.971896,-1110.308913,9918.759623
2596.905856,1455.581446,-814.226536,9844.739029
2596.906185,1991.848295,-518.144159,8808.450710
2596.906514,2221.676944,592.164754,7920.203579
2596.906843,2451.505594,1110.308913,7772.162391
2596.907172,2068.457845,1332.370696,7402.059420
2596.907501,1991.848295,592.164754,8068.244768
2596.907830,1915.238745,296.082377,8956.491898
2596.908159,459.657299,-444.123565,9696.697840
2596.908489,0.000000,-592.164754,9696.697840
2596.908818,-612.876398,-592.164754,9474.636058
2596.909147,-766.095498,-1110.308913,9400.615463
2596.909476,-612.876398,-1184.329507,9474.636058
2596.909805,0.000000,-1258.350101,9770.718434
2596.910134,766.095498,-740.205942,9178.553681
2596.910463,383.047749,296.082377,8290.306550
2596.910792,766.095498,1184.329507,7550.100608
2596.911121,766.095498,1480.411884,7550.100608
2596.911450,536.266849,1036.288319,8216.285956
2596.911779,0.000000,444.123565,8290.306550
2596.912108,-383.047749,-518.144159,9030.512492
2596.912437,-766.095498,-0.000000,8586.388927
2596.912766,-689.485948,-296.082377,9178.553681
2596.913095,-1762.019645,-962.267725,9252.574275
2596.913424,-1991.848295,-1776.494261,9770.718434
2596.913753,-1608.800546,-1554.432478,10140.821405
2596.914082,-2068.457845,-1258.350101,9844.739029
2596.914411,-612.876398,-518.144159,10288.862594
2596.914740,-842.705048,-222.061783,8660.409521
2596.915069,-459.657299,888.247130,9252.574275
2596.915398,-153.219100,-0.000000,9548.656652
2596.915727,0.000000,296.082377,9326.594869
2596.916056,-383.047749,148.041188,9918.759623
2596.916385,0.000000,666.185348,9548.656652
2596.916714,-766.095498,-296.082377,9474.636058
2596.917043,0.000000,296.082377,9104.533087
2596.917372,76.609550,-962.267725,9400.615463
2596.917701,0.000000,-296.082377,9400.615463
2596.918030,0.000000,-1110.308913,9400.615463
2596.918359,0.000000,-666.185348,9030.512492
2596.918688,0.000000,-0.000000,8734.430116
2596.919017,229.828649,444.123565,8586.388927
2596.919346,-842.705048,370.102971,8586.388927
2596.919675,-229.828649,-222.061783,9622.677246
2596.920004,-229.828649,-222.061783,9622.677246
2596.920333,306.438199,-296.082377,9548.656652
2596.920662,153.219100,-148.041188,9252.574275
2596.920991,459.657299,370.102971,8808.450710
2596.921320,612.876398,-370.102971,9178.553681
2596.921649,536.266849,-666.185348,9104.533087
2596.921978,2451.505594,-444.123565,8438.347739
2596.922308,2145.067394,-0.000000,8438.347739
2596.922637,2145.067394,370.102971,8142.265362
2596.922966,2298.286494,888.247130,7550.100608
2596.923295,1915.238745,592.164754,7846.182985
2596.923624,1991.848295,-74.020594,9104.533087
2596.923953,1532.190996,-888.247130,9474.636058
2596.924282,766.095498,-592.164754,9548.656652
2596.924611,1072.533697,-444.123565,9252.574275
2596.924940,995.924147,-370.102971,8882.471304
2596.925269,1149.143247,-888.247130,9400.615463
2596.925598,1532.190996,-814.226536,9400.615463
2596.925927,2298.286494,-1036.288319,9474.636058
2596.926256,2298.286494,-222.061783,8956.491898
2596.926585,1838.629195,370.102971,8068.244768
2596.926914,1838.629195,962.267725,8216.285956
2596.927243,1532.190996,962.267725,8216.285956
2596.927572,919.314598,518.144159,8882.471304
2596.927901,153.219100,-222.061783,9326.594869
2596.928230,0.000000,-370.102971,10510.924376
2596.928559,-153.219100,-1110.308913,9178.553681
2596.928888,-536.266849,-814.226536,9400.615463
2596.929217,-1915.238745,-1110.308913,9844.739029
2596.929546,0.000000,-1406.391290,10214.842000
2596.929875,0.000000,-962.267725,9474.636058
2596.930204,76.609550,-296.082377,9400.615463
2596.930533,1225.752797,-0.000000,8956.491898
2596.930862,842.705048,1628.453072,8068.244768
2596.931191,1149.143247,1554.432478,8364.327145
2596.931520,842.705048,666.185348,8364.327145
2596.931849,306.438199,444.123565,9400.615463
2596.932178,0.000000,518.144159,9104.533087
2596.932507,-306.438199,-0.000000,8882.471304
2596.932836,-766.095498,370.102971,8438.347739
2596.933165,-2068.457845,-1036.288319,9104.533087
2596.933494,-995.924147,-1184.329507,10140.821405
2596.933823,-995.924147,-1480.411884,9474.636058
2596.934152,-995.924147,-666.185348,9474.636058
2596.934481,-1455.581446,-222.061783,9178.553681
2596.934810,-842.705048,666.185348,8290.306550
2596.935139,-1302.362347,1110.308913,8512.368333
2596.935468,-536.266849,296.082377,9178.553681
2596.935797,-842.705048,444.123565,9252.574275
2596.936127,-229.828649,-296.082377,9844.739029
2596.936456,-689.485948,-0.000000,9252.574275
2596.936785,-689.485948,-370.102971,9104.533087
2596.937114,-612.876398,-296.082377,9252.574275
2596.937443,-612.876398,-1110.308913,9030.512492
2596.937772,153.219100,-2220.617826,9474.636058
2596.938101,-383.047749,-1036.288319,9104.533087
2596.938430,459.657299,-444.123565,9178.553681
2596.938759,229.828649,-0.000000,8882.471304
2596.939088,153.219100,518.144159,8364.327145
2596.939417,536.266849,-0.000000,9104.533087
2596.939746,459.657299,-0.000000,9548.656652
2596.940075,0.000000,-518.144159,9918.759623
2596.940404,459.657299,-1036.288319,9548.656652
2596.940733,229.828649,148.041188,9030.512492
2596.941062,459.657299,-74.020594,9252.574275
2596.941391,919.314598,-666.185348,8956.491898
2596.941720,1302.362347,-740.205942,9178.553681
2596.942049,1685.410096,-888.247130,8956.491898
2596.942378,2298.286494,-0.000000,8808.450710
2596.942707,1532.190996,666.185348,8068.244768
2596.943036,1762.019645,888.247130,7698.141797
2596.943365,1608.800546,666.185348,8142.265362
2596.943694,1149.143247,148.041188,9178.553681
2596.944023,995.924147,-74.020594,9474.636058
2596.944352,1072.533697,-592.164754,9252.574275
2596.944681,842.705048,-592.164754,9400.615463
2596.945010,766.095498,-814.226536,8882.471304
2596.945339,459.657299,-592.164754,9548.656652
2596.945668,1225.752797,-888.247130,9474.636058
2596.945997,1532.190996,-592.164754,8956.491898
2596.946326,2145.067394,-0.000000,9030.512492
2596.946655,2528.115143,-0.000000,7920.203579
2596.946984,1838.629195,888.247130,7698.141797
2596.947313,2374.896044,-148.041188,8660.409521
2596.947642,1149.143247,-444.123565,8586.388927
2596.947971,1225.752797,-0.000000,9400.615463
2596.948300,689.485948,-1036.288319,9400.615463
2596.948629,229.828649,-518.144159,8956.491898
2596.948958,-229.828649,-740.205942,9400.615463
2596.949287,-229.828649,-666.185348,9474.636058
2596.949616,0.000000,-888.247130,10362.883188
2596.949945,76.609550,-814.226536,9844.739029
2596.950275,76.609550,-74.020594,9474.636058
2596.950604,383.047749,888.247130,9178.553681
2596.950933,0.000000,1036.288319,7920.203579
2596.951262,536.266849,962.267725,8882.471304
2596.951591,-153.219100,444.123565,9104.533087
2596.951920,-153.219100,296.082377,9474.636058
2596.952249,-229.828649,-74.020594,9178.553681
2596.952578,-995.924147,-74.020594,9326.594869
2596.952907,-1149.143247,-74.020594,9104.533087
2596.953236,-1302.362347,-814.226536,9104.533087
2596.953565,-536.266849,-1554.432478,9622.677246
2596.953894,0.000000,-1628.453072,9474.636058
2596.954223,-229.828649,-370.102971,9474.636058
2596.954552,-689.485948,-74.020594,8882.471304
2596.954881,-306.438199,1110.308913,8216.285956
2596.955210,76.609550,1110.308913,8290.306550
2596.955539,-306.438199,740.205942,8956.491898
2596.955868,-612.876398,148.041188,9474.636058
2596.956197,-919.314598,-518.144159,9548.656652
2596.956526,-1532.190996,-444.123565,9474.636058
2596.956855,-1685.410096,-518.144159,9400.615463
2596.957184,-1225.752797,-1406.391290,9400.615463
2596.957513,-995.924147,-1406.391290,9326.594869
2596.957842,-229.828649,-1702.473667,9400.615463
2596.958171,229.828649,-1184.329507,8882.471304
2596.958500,689.485948,-0.000000,8364.327145
2596.958829,689.485948,444.123565,8068.244768
2596.959158,995.924147,518.144159,8216.285956
2596.959487,536.266849,-0.000000,8734.430116
2596.959816,0.000000,-0.000000,9178.553681
2596.960145,0.000000,-222.061783,10140.821405
2596.960474,153.219100,-296.082377,9548.656652
2596.960803,0.000000,-1036.288319,9622.677246
2596.961132,0.000000,-814.226536,9548.656652
2596.961461,229.828649,-592.164754,10140.821405
2596.961790,842.705048,-1110.308913,9474.636058
2596.962119,1225.752797,-370.102971,8808.450710
2596.962448,2145.067394,-0.000000,8808.450710
2596.962777,1991.848295,-0.000000,7772.162391
2596.963106,2068.457845,370.102971,8216.285956
2596.963435,2528.115143,-148.041188,9104.533087
2596.963764,2145.067394,-0.000000,8438.347739
2596.964094,2221.676944,592.164754,9400.615463
2596.964423,2068.457845,-0.000000,9104.533087
2596.964752,2068.457845,296.082377,9030.512492
2596.965081,1762.019645,370.102971,9252.574275
2596.965410,1991.848295,-148.041188,9252.574275
2596.965739,1685.410096,-1258.350101,10066.800811
2596.966068,2145.067394,-370.102971,9326.594869
2596.966397,1838.629195,148.041188,9326.594869
2596.966726,1302.362347,222.061783,8364.327145
2596.967055,1149.143247,740.205942,8142.265362
2596.967384,689.485948,814.226536,8512.368333
2596.967713,766.095498,-148.041188,9474.636058
2596.968042,459.657299,-666.185348,9548.656652
2596.968371,306.438199,-1184.329507,9770.718434
2596.968700,-229.828649,-592.164754,9474.636058
2596.969029,-76.609550,-666.185348,9178.553681
2596.969358,153.219100,-592.164754,9326.594869
2596.969687,536.266849,-666.185348,9770.718434
2596.970016,995.924147,-0.000000,9474.636058
2596.970345,1225.752797,592.164754,8512.368333
2596.970674,1532.190996,592.164754,8438.347739
2596.971003,1455.581446,1258.350101,8216.285956
2596.971332,1072.533697,1110.308913,8364.327145
2596.971661,0.000000,222.061783,9252.574275
2596.971990,-612.876398,-0.000000,9474.636058
2596.972319,-153.219100,-1110.308913,9252.574275
2596.972648,-1378.971896,-888.247130,9326.594869
2596.972977,-1685.410096,-962.267725,9400.615463
2596.973306,-2068.457845,-1924.535449,9474.636058
2596.973635,-1915.238745,-1332.370696,9992.780217
2596.973964,-842.705048,-1184.329507,9400.615463
2596.974293,-1302.362347,-518.144159,9178.553681
2596.974622,-1302.362347,148.041188,8956.491898
2596.974951,-459.657299,888.247130,8438.347739
2596.975280,-689.485948,370.102971,8290.306550
2596.975609,-995.924147,740.205942,8586.388927
2596.975938,-612.876398,-74.020594,9252.574275
2596.976267,-919.314598,-0.000000,9178.553681
2596.976596,-842.705048,370.102971,8512.368333
2596.976925,-689.485948,-148.041188,8882.471304
2596.977254,-1532.190996,-296.082377,8956.491898
2596.977583,-536.266849,-1406.391290,9548.656652
2596.977913,-612.876398,-2072.576638,9178.553681
2596.978242,-383.047749,-1406.391290,9104.533087
2596.978571,76.609550,-592.164754,8956.491898
2596.978900,383.047749,-0.000000,8364.327145
2596.979229,383.047749,666.185348,8290.306550
2596.979558,612.876398,222.061783,9178.553681
2596.979887,1149.143247,-296.082377,9030.512492
2596.980216,1072.533697,-0.000000,9770.718434
2596.980545,1455.581446,-0.000000,9030.512492
2596.980874,459.657299,222.061783,8882.471304
2596.981203,536.266849,-592.164754,9178.553681
2596.981532,1302.362347,-888.247130,9104.533087
2596.981861,383.047749,-1110.308913,9696.697840
2596.982190,1225.752797,-814.226536,9030.512492
2596.982519,1532.190996,-0.000000,8956.491898
2596.982848,1149.143247,444.123565,8216.285956
2596.983177,1608.800546,518.144159,8660.409521
2596.983506,1072.533697,-0.000000,8882.471304
2596.983835,612.876398,-296.082377,10066.800811
2596.984164,383.047749,-0.000000,10362.883188
2596.984493,1302.362347,-0.000000,9400.615463
2596.984822,1149.143247,-222.061783,9178.553681
2596.985151,842.705048,-296.082377,9326.594869
2596.985480,1302.362347,-370.102971,9770.718434
2596.985809,2068.457845,-148.041188,9178.553681
2596.986138,2604.724693,-74.020594,9178.553681
2596.986467,2604.724693,814.226536,8216.285956
2596.986796,2528.115143,1406.391290,8142.265362
2596.987125,1991.848295,1480.411884,8068.244768
2596.987454,1685.410096,592.164754,8808.450710
2596.987783,842.705048,-0.000000,9474.636058
2596.988112,0.000000,-370.102971,10066.800811
2596.988441,0.000000,-740.205942,9696.697840
2596.988770,-153.219100,-666.185348,9178.553681
2596.989099,-612.876398,-0.000000,9992.780217
2596.989428,-766.095498,-888.247130,9770.718434
2596.989757,306.438199,-1110.308913,9474.636058
2596.990086,459.657299,-370.102971,8882.471304
2596.990415,766.095498,518.144159,8438.347739
2596.990744,919.314598,740.205942,8290.306550
2596.991073,612.876398,1554.432478,8290.306550
2596.991402,536.266849,518.144159,8142.265362
2596.991732,-383.047749,-0.000000,8956.491898
2596.992061,-1302.362347,-666.185348,9030.512492
2596.992390,-919.314598,-296.082377,9474.636058
2596.992719,-1762.019645,-740.205942,8808.450710
2596.993048,-2451.505594,-1184.329507,9252.574275
2596.993377,-995.924147,-2294.638420,9696.697840
2596.993706,-1302.362347,-2294.638420,9696.697840
2596.994035,-919.314598,-1554.432478,9548.656652
2596.994364,-383.047749,-370.102971,8808.450710
2596.994693,229.828649,666.185348,8512.368333
2596.995022,459.657299,1406.391290,8216.285956
2596.995351,0.000000,814.226536,8438.347739
2596.995680,536.266849,370.102971,9474.636058
2596.996009,0.000000,-444.123565,9400.615463
2596.996338,0.000000,-0.000000,8882.471304
2596.996667,-459.657299,-148.041188,8586.388927
2596.996996,-1072.533697,-74.020594,8882.471304
2596.997325,-919.314598,-1110.308913,9696.697840
2596.997654,-306.438199,-1480.411884,9474.636058
2596.997983,-459.657299,-1258.350101,9474.636058
2596.998312,153.219100,-296.082377,8808.450710
2596.998641,383.047749,-148.041188,8290.306550
2596.998970,0.000000,1184.329507,8290.306550
2596.999299,536.266849,962.267725,8586.388927
2596.999628,459.657299,444.123565,9400.615463
2596.999957,153.219100,-222.061783,9770.718434
2597.000286,76.609550,-0.000000,9548.656652
2597.000615,536.266849,370.102971,8660.409521
2597.000944,-536.266849,-666.185348,9326.594869
2597.001273,459.657299,-1406.391290,10140.821405
2597.001603,1455.581446,-518.144159,9104.533087
2597.001932,1838.629195,-1628.453072,8438.347739
2597.002261,2451.505594,-0.000000,7920.203579
2597.002590,2911.162892,444.123565,9400.615463
2597.002919,2604.724693,740.205942,8512.368333
2597.003248,2528.115143,1036.288319,8290.306550
2597.003577,2145.067394,-0.000000,9400.615463
2597.003906,1532.190996,296.082377,9104.533087
2597.004235,1455.581446,-222.061783,9770.718434
2597.004564,842.705048,-444.123565,9548.656652
2597.004893,229.828649,-74.020594,9474.636058
2597.005222,229.828649,-1036.288319,10066.800811
2597.005551,383.047749,-1998.556043,9252.574275
2597.005881,1455.581446,-1036.288319,9548.656652
2597.006210,1915.238745,-666.185348,9400.615463
2597.006539,1608.800546,296.082377,8142.265362
2597.006868,1685.410096,592.164754,7994.224174
2597.007197,1685.410096,962.267725,7846.182985
2597.007526,919.314598,1036.288319,8438.347739
2597.007855,383.047749,-148.041188,9178.553681
2597.008184,229.828649,-148.041188,9400.615463
2597.008513,153.219100,-370.102971,9252.574275
2597.008842,-383.047749,-518.144159,8660.409521
2597.009171,-689.485948,-814.226536,9104.533087
2597.009500,-383.047749,-1406.391290,9696.697840
2597.009829,0.000000,-1258.350101,9400.615463
2597.010158,306.438199,-518.144159,9178.553681
2597.010488,383.047749,-0.000000,8290.306550
2597.010817,153.219100,962.267725,8438.347739
2597.011146,612.876398,888.247130,7328.038826
2597.011475,536.266849,592.164754,8438.347739
2597.011804,0.000000,-0.000000,8956.491898
2597.012133,0.000000,-370.102971,8882.471304
2597.012462,-766.095498,222.061783,9252.574275
2597.012791,-1915.238745,-592.164754,9104.533087
2597.013120,-1225.752797,-1110.308913,9104.533087
2597.013449,-1455.581446,-1702.473667,9844.739029
2597.013778,-995.924147,-962.267725,9770.718434
2597.014107,-1302.362347,-1110.308913,9178.553681
2597.014436,-919.314598,-0.000000,9474.636058
2597.014766,-536.266849,222.061783,8586.388927
2597.015095,-459.657299,1258.350101,9400.615463
2597.015424,-995.924147,-74.020594,8956.491898
2597.015753,-1072.533697,-148.041188,9474.636058
2597.016082,-842.705048,222.061783,10658.965565
2597.016411,-1149.143247,-148.041188,9474.636058
2597.016740,-995.924147,-296.082377,9474.636058
2597.017069,-1225.752797,-666.185348,9770.718434
2597.017398,-1225.752797,-444.123565,9844.739029
2597.017727,-229.828649,-888.247130,9548.656652
2597.018056,383.047749,-1332.370696,9326.594869
2597.018385,459.657299,-0.000000,8808.450710
2597.018714,995.924147,518.144159,8808.450710
2597.019043,842.705048,222.061783,8586.388927
2597.019373,1608.800546,222.061783,9104.533087
2597.019702,995.924147,-74.020594,9548.656652
2597.020031,842.705048,444.123565,9400.615463
2597.020360,995.924147,-0.000000,9178.553681
2597.020689,1149.143247,-0.000000,9104.533087
2597.021018,1149.143247,148.041188,8586.388927
2597.021347,1532.190996,-444.123565,9400.615463
2597.021676,919.314598,-962.267725,9178.553681
2597.022005,2298.286494,-518.144159,8808.450710
2597.022334,2145.067394,370.102971,8216.285956
2597.022663,1838.629195,222.061783,7920.203579
2597.022992,1762.019645,518.144159,7994.224174
2597.023321,1455.581446,296.082377,8290.306550
2597.023650,0.000000,-0.000000,9104.533087
2597.023980,689.485948,-814.226536,9696.697840
2597.024309,0.000000,222.061783,9548.656652
2597.024638,0.000000,-0.000000,9474.636058
2597.024967,306.438199,-518.144159,9548.656652
2597.025296,536.266849,-740.205942,9622.677246
2597.025625,1455.581446,-962.267725,9770.718434
2597.025954,2298.286494,-1036.288319,9252.574275
2597.026283,2528.115143,-0.000000,8660.409521
2597.026612,2834.553343,962.267725,8290.306550
2597.026941,2528.115143,1776.494261,7624.121203
2597.027270,1762.019645,1036.288319,7624.121203
2597.027599,1455.581446,370.102971,8660.409521
2597.027928,919.314598,-296.082377,8882.471304
2597.028258,229.828649,-518.144159,9474.636058
2597.028587,-459.657299,-740.205942,9474.636058
2597.028916,-995.924147,-1036.288319,9400.615463
2597.029245,-1455.581446,-1480.411884,9992.780217
2597.029574,-766.095498,-1184.329507,10362.883188
2597.029903,-689.485948,-1702.473667,10140.821405
2597.030232,0.000000,-518.144159,9474.636058
2597.030561,306.438199,-0.000000,9030.512492
2597.030890,306.438199,1036.288319,9030.512492
2597.031219,76.609550,962.267725,8142.265362
2597.031548,-383.047749,962.267725,8882.471304
2597.031877,-153.219100,518.144159,9030.512492
2597.032206,-766.095498,222.061783,9030.512492
2597.032535,-689.485948,296.082377,8882.471304
2597.032865,-1072.533697,-222.061783,8882.471304
2597.033194,-1608.800546,-444.123565,9548.656652
2597.033523,-1915.238745,-1554.432478,9918.759623
2597.033852,-1608.800546,-1406.391290,9918.759623
2597.034181,-1225.752797,-592.164754,9252.574275
2597.034510,-919.314598,-222.061783,9104.533087
2597.034839,-995.924147,296.082377,8660.409521
2597.035168,-612.876398,222.061783,8882.471304
2597.035497,-306.438199,-0.000000,9400.615463
2597.035826,0.000000,-222.061783,9918.759623
2597.036155,-383.047749,518.144159,9474.636058
2597.036484,-153.219100,740.205942,9030.512492
2597.036813,0.000000,592.164754,8808.450710
2597.037143,76.609550,-444.123565,8956.491898
2597.037472,0.000000,-1036.288319,9770.718434
2597.037801,229.828649,-1480.411884,9474.636058
2597.038130,306.438199,-1332.370696,8660.409521
2597.038459,76.609550,-740.205942,8956.491898
2597.038788,-459.657299,-0.000000,8512.368333
2597.039117,-459.657299,296.082377,8660.409521
2597.039446,-689.485948,-296.082377,9178.553681
2597.039775,-612.876398,-518.144159,9992.780217
2597.040104,-1149.143247,-814.226536,9696.697840
2597.040433,0.000000,-296.082377,9548.656652
2597.040762,536.266849,-222.061783,8660.409521
2597.041091,229.828649,-0.000000,8882.471304
2597.041420,842.705048,-148.041188,9474.636058
2597.041750,2068.457845,-296.082377,8956.491898
2597.042079,2451.505594,-666.185348,8734.430116
2597.042408,2451.505594,740.205942,7920.203579
2597.042737,2451.505594,666.185348,8142.265362
2597.043066,2374.896044,814.226536,8364.327145
2597.043395,2451.505594,592.164754,8808.450710
2597.043724,1915.238745,-74.020594,9178.553681
2597.044053,1532.190996,-518.144159,9622.677246
2597.044382,1532.190996,-0.000000,9400.615463
2597.044711,1455.581446,-148.041188,8734.430116
2597.045040,1378.971896,222.061783,9474.636058
2597.045369,995.924147,-814.226536,9770.718434
2597.045698,1608.800546,-222.061783,9474.636058
2597.046027,2298.286494,-444.123565,8956.491898
2597.046357,1991.848295,-0.000000,8290.306550
2597.046686,1915.238745,148.041188,8512.368333
2597.047015,2068.457845,444.123565,8882.471304
2597.047344,1302.362347,296.082377,8956.491898
2597.047673,1378.971896,-148.041188,9474.636058
2597.048002,76.609550,-296.082377,9474.636058
2597.048331,0.000000,-74.020594,9548.656652
2597.048660,-383.047749,-518.144159,9326.594869
2597.048989,0.000000,-1184.329507,9326.594869
2597.049318,229.828649,-1110.308913,9770.718434
2597.049647,459.657299,-1258.350101,9696.697840
2597.049976,536.266849,-740.205942,9622.677246
2597.050305,76.609550,-0.000000,8956.491898
2597.050635,612.876398,666.185348,8290.306550
2597.050964,459.657299,888.247130,8216.285956
2597.051293,766.095498,740.205942,8512.368333
2597.051622,536.266849,-0.000000,9178.553681
2597.051951,0.000000,-222.061783,9326.594869
2597.052280,-383.047749,-74.020594,9548.656652
2597.052609,-1149.143247,-74.020594,8956.491898
2597.052938,-1532.190996,-222.061783,9104.533087
2597.053267,-1991.848295,-444.123565,9104.533087
2597.053596,-1915.238745,-666.185348,9030.512492
2597.053925,-2145.067394,-1036.288319,9178.553681
2597.054254,-2757.943793,-666.185348,8660.409521
2597.054583,-3140.991542,-0.000000,8586.388927
2597.054912,-3600.648841,370.102971,8290.306550
2597.055242,-4060.306139,296.082377,8512.368333
2597.055571,-3983.696590,740.205942,8808.450710
2597.055900,-4213.525239,296.082377,9030.512492
2597.056229,-3753.867940,-222.061783,8956.491898
2597.056558,-3983.696590,-592.164754,9178.553681
2597.056887,-4596.572988,-1332.370696,9992.780217
2597.057216,-5132.839837,-2072.576638,9918.759623
2597.057545,-4903.011187,-1924.535449,10066.800811
2597.057874,-4213.525239,-1554.432478,9918.759623
2597.058203,-3064.381992,-1332.370696,9622.677246
2597.058532,-2834.553343,-296.082377,9548.656652
2597.058861,-2604.724693,-296.082377,8290.306550
2597.059190,-2451.505594,-0.000000,8290.306550
2597.059520,-2528.115143,740.205942,8808.450710
2597.059849,-2451.505594,1036.288319,8512.368333
2597.060178,-2757.943793,370.102971,9252.574275
2597.060507,-2374.896044,296.082377,9622.677246
2597.060836,-1608.800546,-740.205942,8956.491898
2597.061165,-1608.800546,-1036.288319,9326.594869
2597.061494,-1991.848295,-666.185348,9548.656652
2597.061823,-1225.752797,-0.000000,9400.615463
2597.062152,-995.924147,-0.000000,9400.615463
2597.062481,0.000000,296.082377,8438.347739
2597.062810,689.485948,296.082377,7846.182985
2597.063139,306.438199,666.185348,7846.182985
2597.063468,383.047749,592.164754,7328.038826
2597.063797,-153.219100,518.144159,8216.285956
2597.064127,-1685.410096,592.164754,8734.430116
2597.064456,-2834.553343,222.061783,8808.450710
2597.064785,-3753.867940,-0.000000,10288.862594
2597.065114,-4060.306139,-444.123565,9178.553681
2597.065443,-3217.601092,-148.041188,9326.594869
2597.065772,-3753.867940,-1776.494261,9918.759623
2597.066101,-4136.915689,-2442.679609,11325.150913
2597.066430,-3294.210641,-2590.720797,11399.171507
2597.066759,-2298.286494,-2368.659014,10510.924376
2597.067088,-995.924147,-1554.432478,9474.636058
2597.067417,-1302.362347,592.164754,8068.244768
2597.067746,-689.485948,-296.082377,10658.965565
2597.068075,1608.800546,962.267725,8586.388927
2597.068404,3600.648841,3627.009116,5477.523971
2597.068734,3217.601092,2886.803174,5773.606348
2597.069063,536.266849,3108.864956,5107.421000
2597.069392,-306.438199,1332.370696,9326.594869
2597.069721,-4136.915689,-74.020594,8216.285956
2597.070050,-3830.477490,-2738.761985,10807.006753
2597.070379,-5209.449386,-1850.514855,10362.883188
2597.070708,-6741.640382,-1184.329507,8660.409521
2597.071037,-8733.488677,-4219.173869,13175.665768
2597.071366,-9576.193725,-2368.659014,11103.089130
2597.071695,-6281.983084,-2812.782580,12287.418637
2597.072024,-5515.887586,-2368.659014,10436.903782
2597.072353,-1608.800546,296.082377,9474.636058
2597.072682,-995.924147,222.061783,8586.388927
2597.073012,-1532.190996,1332.370696,5403.503377
2597.073341,459.657299,-0.000000,12287.418637
2597.073670,1532.190996,962.267725,6143.709319
2597.073999,3677.258390,2960.823768,5921.647536
2597.074328,995.924147,1554.432478,5699.585753
2597.074657,0.000000,2146.597232,6143.709319
2597.074986,-1225.752797,-888.247130,10140.821405
2597.075315,-3983.696590,-222.061783,8882.471304
2597.075644,-2145.067394,-444.123565,10584.944971
2597.075973,-4903.011187,-0.000000,7179.997637
2597.076302,-6358.592633,-1110.308913,9104.533087
2597.076631,-8963.317327,-2886.803174,12065.356855
2597.076960,-7660.954980,-2072.576638,10881.027347
2597.077289,-6588.421283,-4441.235652,10658.965565
2597.077619,-6052.154434,-3404.947333,9696.697840
2597.077948,-4443.353888,-1036.288319,10658.965565
2597.078277,-3983.696590,-1480.411884,8512.368333
2597.078606,-2145.067394,-740.205942,8734.430116
2597.078935,-995.924147,1628.453072,8364.327145
2597.079264,0.000000,1480.411884,7772.162391
2597.079593,-1302.362347,1036.288319,9844.739029
2597.079922,-1685.410096,1258.350101,9474.636058
2597.080251,-2221.676944,1554.432478,9030.512492
2597.080580,-2451.505594,592.164754,7550.100608
2597.080909,-1762.019645,1554.432478,8882.471304
2597.081238,-1608.800546,1184.329507,8586.388927
2597.081567,-1915.238745,1184.329507,7920.203579
2597.081897,-1608.800546,962.267725,8142.265362
2597.082226,-1838.629195,-0.000000,7698.141797
2597.082555,-2298.286494,-0.000000,8290.306550
2597.082884,-2681.334243,-296.082377,8586.388927
2597.083213,-2528.115143,-0.000000,9030.512492
2597.083542,-2451.505594,-148.041188,9622.677246
2597.083871,-2681.334243,1110.308913,9474.636058
2597.084200,-2987.772442,1924.535449,9844.739029
2597.084529,-3064.381992,666.185348,10140.821405
2597.084858,-2298.286494,1924.535449,9770.718434
2597.085187,-2221.676944,1480.411884,9696.697840
2597.085516,-2451.505594,962.267725,11103.089130
2597.085845,-2145.067394,592.164754,11029.068536
2597.086174,-1608.800546,1332.370696,9474.636058
2597.086504,-536.266849,666.185348,8882.471304
2597.086833,-229.828649,888.247130,8142.265362
2597.087162,-689.485948,-592.164754,11029.068536
2597.087491,995.924147,1480.411884,9696.697840
2597.087820,2451.505594,2812.782580,6809.894666
2597.088149,3677.258390,3701.029710,6957.935855
2597.088478,3524.039291,4441.235652,5921.647536
2597.088807,3524.039291,4737.318029,7698.141797
2597.089136,2451.505594,4811.338623,7254.018232
2597.089465,2681.334243,4515.256246,8216.285956
2597.089794,919.314598,2368.659014,9252.574275
2597.090123,-459.657299,3182.885551,9844.739029
2597.090452,-1532.190996,1702.473667,10881.027347
2597.090782,-1991.848295,1184.329507,9918.759623
2597.091111,-919.314598,1258.350101,11177.109724
2597.091440,-1225.752797,1258.350101,10066.800811
2597.091769,-459.657299,2738.761985,9178.553681
2597.092098,-306.438199,2516.700203,8586.388927
2597.092427,612.876398,2516.700203,8512.368333
2597.092756,1762.019645,4441.235652,7476.080014
2597.093085,1072.533697,4293.194464,7105.977043
2597.093414,1225.752797,3627.009116,7994.224174
2597.093743,0.000000,4145.153275,8512.368333
2597.094072,-1302.362347,3034.844362,9326.594869
2597.094401,-2221.676944,2294.638420,9696.697840
2597.094730,-2604.724693,1036.288319,10584.944971
2597.095059,-3294.210641,1184.329507,10658.965565
2597.095389,-2681.334243,3256.906145,9474.636058
2597.095718,-3447.429741,2368.659014,10288.862594
2597.096047,-3524.039291,2442.679609,10510.924376
2597.096376,-2451.505594,2516.700203,10881.027347
2597.096705,-1991.848295,1924.535449,10436.903782
2597.097034,-1225.752797,1924.535449,9252.574275
2597.097363,-766.095498,2812.782580,8438.347739
2597.097692,-536.266849,3478.967927,9178.553681
2597.098021,-919.314598,3330.926739,10362.883188
2597.098350,536.266849,2368.659014,10955.047942
2597.098679,2374.896044,4293.194464,7105.977043
2597.099008,3370.820191,4885.359217,6957.935855
2597.099337,2681.334243,4885.359217,6217.729913
2597.099666,2221.676944,6291.750507,6661.853478
2597.099996,2681.334243,5995.668130,8586.388927
2597.100325,306.438199,5551.544565,8512.368333
2597.100654,612.876398,5403.503377,7624.121203
2597.100983,536.266849,4293.194464,8734.430116
2597.101312,0.000000,3256.906145,8956.491898
2597.101641,-919.314598,370.102971,12657.521608
2597.101970,-842.705048,148.041188,9992.780217
2597.102299,-229.828649,962.267725,11399.171507
2597.102628,-1378.971896,444.123565,11399.171507
2597.102957,0.000000,3034.844362,8586.388927
2597.103286,1838.629195,2590.720797,9326.594869
2597.103615,2145.067394,4367.215058,7846.182985
2597.103944,3677.258390,5477.523971,7550.100608
2597.104274,3830.477490,4885.359217,7105.977043
2597.104603,2681.334243,5033.400406,7402.059420
2597.104932,1762.019645,4811.338623,8290.306550
2597.105261,0.000000,2294.638420,8290.306550
2597.105590,-1378.971896,-74.020594,11843.295072
2597.105919,-1915.238745,-0.000000,11325.150913
2597.106248,-2068.457845,-222.061783,12139.377449
2597.106577,-2451.505594,444.123565,9844.739029
2597.106906,-1072.533697,1776.494261,10140.821405
2597.107235,-689.485948,1998.556043,9992.780217
2597.107564,-612.876398,2368.659014,9548.656652
2597.107893,2374.896044,2368.659014,10658.965565
2597.108223,2987.772442,3627.009116,6291.750507
2597.108552,4519.963438,2590.720797,8512.368333
2597.108881,2987.772442,4145.153275,6735.874072
2597.109210,4136.915689,5255.462188,6069.688724
2597.109539,2911.162892,3330.926739,7846.182985
2597.109868,2145.067394,4145.153275,6439.791695
2597.110197,2451.505594,4367.215058,7328.038826
2597.110526,0.000000,2368.659014,9178.553681
2597.110855,-3677.258390,-2368.659014,12953.603985
2597.111184,-3677.258390,-2368.659014,12361.439231
2597.111513,-2374.896044,-0.000000,11547.212695
2597.111842,-3447.429741,-2516.700203,11991.336260
2597.112171,-4060.306139,1332.370696,10362.883188
2597.112501,-1225.752797,1702.473667,9548.656652
2597.112830,-459.657299,3256.906145,8808.450710
2597.113159,383.047749,4441.235652,7476.080014
2597.113488,766.095498,1924.535449,9992.780217
2597.113817,3677.258390,1332.370696,9474.636058
2597.114146,3064.381992,5033.400406,2960.823768
2597.114475,3140.991542,1258.350101,8216.285956
2597.114804,2911.162892,3701.029710,5551.544565
2597.115133,4979.620737,3034.844362,8438.347739
2597.115462,2528.115143,3404.947333,6217.729913
2597.115791,766.095498,3849.070898,6365.771101
2597.116120,-2451.505594,-3404.947333,13471.748144
2597.116449,-4366.744339,518.144159,10362.883188
2597.116779,-3524.039291,-518.144159,12879.583391
2597.117108,-5669.106685,-1184.329507,10362.883188
2597.117437,-3217.601092,-1628.453072,12509.480420
2597.117766,-2987.772442,-2664.741391,10510.924376
2597.118095,-1072.533697,518.144159,11695.253884
2597.118424,-2221.676944,814.226536,7920.203579
2597.118753,-612.876398,-518.144159,8882.471304
2597.119082,2451.505594,1628.453072,13841.851115
2597.119411,1302.362347,6217.729913,3108.864956
2597.119740,6511.811733,1258.350101,9104.533087
2597.120069,3753.867940,2738.761985,3552.988522
2597.120398,6741.640382,5255.462188,4885.359217
2597.120728,1302.362347,3034.844362,6291.750507
2597.121057,0.000000,3997.112087,6143.709319
2597.121386,-842.705048,-444.123565,11991.336260
2597.121715,-3370.820191,-1554.432478,12361.439231
2597.122044,-2987.772442,888.247130,10732.986159
2597.122373,-2834.553343,-4145.153275,9770.718434
2597.122702,-1149.143247,-1258.350101,9918.759623
2597.123031,-2834.553343,-222.061783,12213.398043
2597.123360,-229.828649,-0.000000,9178.553681
2597.123689,-2221.676944,-518.144159,10288.862594
2597.124018,2068.457845,-5107.421000,13767.830521
2597.124347,2987.772442,3923.091493,5329.482782
2597.124676,4596.572988,3627.009116,7550.100608
2597.125006,4136.915689,1554.432478,4219.173869
2597.125335,3830.477490,3849.070898,7254.018232
2597.125664,2757.943793,3404.947333,8956.491898
2597.125993,1149.143247,3627.009116,6143.709319
2597.126322,995.924147,148.041188,10807.006753
2597.126651,-1302.362347,-1776.494261,10510.924376
2597.126980,-2451.505594,-1628.453072,11177.109724
2597.127309,-3753.867940,-2368.659014,12065.356855
2597.127638,-2757.943793,-3404.947333,10584.944971
2597.127967,-1149.143247,-2442.679609,12361.439231
2597.128296,1455.581446,-1776.494261,10066.800811
2597.128625,1532.190996,1628.453072,6883.915261
2597.128954,3600.648841,-1480.411884,7328.038826
2597.129284,4136.915689,2294.638420,5921.647536
2597.129613,3830.477490,3997.112087,7105.977043
2597.129942,2604.724693,2886.803174,7698.141797
2597.130271,2451.505594,1776.494261,7772.162391
2597.130600,1838.629195,296.082377,9992.780217
2597.130929,689.485948,-666.185348,8216.285956
2597.131258,-1685.410096,-1480.411884,10510.924376
2597.131587,-3064.381992,-3034.844362,11843.295072
2597.131916,-1991.848295,-2368.659014,11695.253884
2597.132245,-1762.019645,-2220.617826,10807.006753
2597.132574,-1149.143247,-2812.782580,10881.027347
2597.132903,-1225.752797,-592.164754,9178.553681
2597.133233,919.314598,-0.000000,7476.080014
2597.133562,2681.334243,1554.432478,6217.729913
2597.133891,3217.601092,1702.473667,5847.626942
2597.134220,2834.553343,740.205942,7328.038826
2597.134549,1991.848295,-0.000000,8216.285956
2597.134878,1149.143247,-1110.308913,9104.533087
2597.135207,76.609550,-2590.720797,9252.574275
2597.135536,-459.657299,-1776.494261,9992.780217
2597.135865,-1532.190996,-1998.556043,10732.986159
2597.136194,-1838.629195,-2516.700203,11547.212695
2597.136523,-1532.190996,-1184.329507,10066.800811
2597.136852,-1838.629195,-1184.329507,10140.821405
2597.137181,-1838.629195,296.082377,9844.739029
2597.137511,-995.924147,-148.041188,9326.594869
2597.137840,383.047749,-74.020594,9178.553681
2597.138169,1378.971896,1184.329507,7772.162391
2597.138498,1838.629195,-0.000000,7402.059420
2597.138827,1608.800546,-0.000000,7846.182985
2597.139156,1532.190996,-0.000000,7402.059420
2597.139485,1762.019645,-444.123565,7328.038826
2597.139814,1149.143247,-592.164754,8512.368333
2597.140143,459.657299,-2072.576638,10066.800811
2597.140472,229.828649,-2294.638420,10658.965565
2597.140801,-229.828649,-1036.288319,10362.883188
2597.141130,-612.876398,-222.061783,10066.800811
2597.141459,-1532.190996,740.205942,9992.780217
2597.141789,-1302.362347,1554.432478,10066.800811
2597.142118,-842.705048,1036.288319,10214.842000
2597.142447,536.266849,296.082377,9474.636058
2597.142776,306.438199,-370.102971,8734.430116
2597.143105,0.000000,-148.041188,7772.162391
2597.143434,459.657299,296.082377,7772.162391
2597.143763,1302.362347,-0.000000,7254.018232
2597.144092,1915.238745,-518.144159,7402.059420
2597.144421,1455.581446,-518.144159,7846.182985
2597.144750,1302.362347,-1110.308913,8808.450710
2597.145079,612.876398,-1332.370696,8364.327145
2597.145408,-383.047749,370.102971,9400.615463
2597.145738,-383.047749,74.020594,9474.636058
2597.146067,-689.485948,222.061783,10362.883188
2597.146396,-383.047749,-0.000000,11103.089130
2597.146725,-229.828649,444.123565,9844.739029
2597.147054,-229.828649,740.205942,9622.677246
2597.147383,0.000000,222.061783,9400.615463
2597.147712,842.705048,-444.123565,8068.244768
2597.148041,1302.362347,-666.185348,8512.368333
2597.148370,1455.581446,-1332.370696,8142.265362
2597.148699,842.705048,-962.267725,7328.038826
2597.149028,306.438199,-74.020594,7328.038826
2597.149357,229.828649,370.102971,8142.265362
2597.149686,153.219100,-0.000000,8438.347739
2597.150016,-842.705048,-222.061783,9474.636058
2597.150345,0.000000,-222.061783,10066.800811
2597.150674,76.609550,222.061783,10510.924376
2597.151003,0.000000,444.123565,10140.821405
2597.151332,0.000000,1036.288319,9696.697840
2597.151661,766.095498,1184.329507,10214.842000
2597.151990,1838.629195,518.144159,9474.636058
2597.152319,1915.238745,592.164754,9030.512492
2597.152648,1532.190996,370.102971,9030.512492
2597.152977,995.924147,1258.350101,7550.100608
2597.153306,612.876398,1480.411884,7920.203579
2597.153635,76.609550,666.185348,8290.306550
2597.153965,153.219100,-666.185348,9252.574275
2597.154294,0.000000,-814.226536,9474.636058
2597.154623,-153.219100,-2072.576638,9400.615463
2597.154952,0.000000,-1110.308913,9474.636058
2597.155281,0.000000,-444.123565,9474.636058
2597.155610,1072.533697,-222.061783,9252.574275
2597.155939,1455.581446,-148.041188,9474.636058
2597.156268,1378.971896,222.061783,9696.697840
2597.156597,2068.457845,-0.000000,8882.471304
2597.156926,1915.238745,814.226536,8142.265362
2597.157255,842.705048,1702.473667,7772.162391
2597.157584,536.266849,1258.350101,8882.471304
2597.157913,-229.828649,-148.041188,9400.615463
2597.158243,-842.705048,-1480.411884,9326.594869
2597.158572,-689.485948,-2442.679609,9992.780217
2597.158901,-1608.800546,-2294.638420,8512.368333
2597.159230,-1762.019645,-2664.741391,8882.471304
2597.159559,-1225.752797,-2146.597232,9326.594869
2597.159888,-536.266849,-2516.700203,9030.512492
2597.160217,383.047749,-2220.617826,9622.677246
2597.160546,459.657299,-1110.308913,8808.450710
2597.160875,689.485948,222.061783,8068.244768
2597.161204,842.705048,1480.411884,8512.368333
2597.161533,689.485948,1480.411884,8512.368333
2597.161862,0.000000,962.267725,9548.656652
2597.162191,-306.438199,296.082377,9548.656652
2597.162521,0.000000,-740.205942,9400.615463
2597.162850,-383.047749,-666.185348,9030.512492
2597.163179,-919.314598,-1184.329507,8734.430116
2597.163508,-1149.143247,-1554.432478,9474.636058
2597.163837,-919.314598,-2738.761985,9178.553681
2597.164166,0.000000,-2442.679609,8586.388927
2597.164495,306.438199,-1184.329507,8142.265362
2597.164824,459.657299,-370.102971,8068.244768
2597.165153,306.438199,814.226536,7920.203579
2597.165482,766.095498,1110.308913,8364.327145
2597.165811,1149.143247,814.226536,9252.574275
2597.166140,1149.143247,-0.000000,9326.594869
2597.166470,766.095498,-0.000000,9770.718434
2597.166799,612.876398,-0.000000,9474.636058
2597.167128,612.876398,444.123565,9104.533087
2597.167457,919.314598,296.082377,8660.409521
2597.167786,612.876398,-148.041188,9326.594869
2597.168115,1225.752797,-296.082377,8956.491898
2597.168444,1455.581446,-444.123565,8586.388927
2597.168773,1455.581446,-370.102971,8068.244768
2597.169102,536.266849,370.102971,8068.244768
2597.169431,0.000000,370.102971,8660.409521
2597.169760,-383.047749,-74.020594,9178.553681
2597.170089,-306.438199,-296.082377,9622.677246
2597.170418,459.657299,-518.144159,10066.800811
2597.170748,153.219100,-592.164754,10066.800811
2597.171077,0.000000,740.205942,9696.697840
2597.171406,612.876398,444.123565,9696.697840
2597.171735,1149.143247,370.102971,9474.636058
2597.172064,1608.800546,592.164754,9622.677246
2597.172393,1915.238745,-222.061783,9474.636058
2597.172722,1378.971896,518.144159,8216.285956
2597.173051,1302.362347,740.205942,8068.244768
2597.173380,229.828649,1110.308913,8734.430116
2597.173709,-229.828649,148.041188,9104.533087
2597.174038,-459.657299,-592.164754,10066.800811
2597.174367,-612.876398,-1184.329507,9770.718434
2597.174696,-766.095498,-1110.308913,9770.718434
2597.175026,-995.924147,-888.247130,10066.800811
2597.175355,-383.047749,-1110.308913,9770.718434
2597.175684,306.438199,-1110.308913,9104.533087
2597.176013,919.314598,-0.000000,8808.450710
2597.176342,1608.800546,296.082377,8882.471304
2597.176671,2068.457845,814.226536,8734.430116
2597.177000,2221.676944,2072.576638,7328.038826
2597.177329,919.314598,2072.576638,7698.141797
2597.177658,689.485948,1480.411884,8586.388927
2597.177987,383.047749,-0.000000,8956.491898
2597.178316,-229.828649,-666.185348,9992.780217
2597.178645,-383.047749,-1036.288319,9326.594869
2597.178975,-1225.752797,-1702.473667,9104.533087
2597.179304,-1762.019645,-1406.391290,9326.594869
2597.179633,-1225.752797,-1628.453072,9474.636058
2597.179962,-612.876398,-1628.453072,9104.533087
2597.180291,459.657299,-1332.370696,9030.512492
2597.180620,919.314598,-1258.350101,8660.409521
2597.180949,842.705048,370.102971,8808.450710
2597.181278,766.095498,1554.432478,7624.121203
2597.181607,1149.143247,962.267725,8586.388927
2597.181936,536.266849,740.205942,9178.553681
2597.182265,842.705048,-0.000000,9918.759623
2597.182594,536.266849,-222.061783,9770.718434
2597.182923,-536.266849,-0.000000,9474.636058
2597.183253,-766.095498,-592.164754,9178.553681
2597.183582,-229.828649,-1258.350101,9474.636058
2597.183911,153.219100,-1776.494261,9548.656652
2597.184240,459.657299,-1924.535449,8956.491898
2597.184569,459.657299,-1110.308913,8882.471304
2597.184898,842.705048,-0.000000,8660.409521
2597.185227,153.219100,-0.000000,8142.265362
2597.185556,76.609550,962.267725,8956.491898
2597.185885,0.000000,592.164754,9474.636058
2597.186214,153.219100,-0.000000,9844.739029
2597.186543,76.609550,-0.000000,9474.636058
2597.186872,0.000000,-0.000000,9326.594869
2597.187201,383.047749,-888.247130,9474.636058
2597.187531,459.657299,-740.205942,9622.677246
2597.187860,766.095498,-1036.288319,9400.615463
2597.188189,1225.752797,-888.247130,9178.553681
2597.188518,1149.143247,-592.164754,8882.471304
2597.188847,919.314598,-296.082377,8216.285956
2597.189176,536.266849,444.123565,7698.141797
2597.189505,0.000000,1036.288319,8808.450710
2597.189834,0.000000,-0.000000,9474.636058
2597.190163,0.000000,-370.102971,10066.800811
2597.190492,76.609550,-740.205942,9696.697840
2597.190821,229.828649,-814.226536,9104.533087
2597.191150,0.000000,-0.000000,9030.512492
2597.191480,1072.533697,-74.020594,9178.553681
2597.191809,1532.190996,-0.000000,8882.471304
2597.192138,2298.286494,370.102971,9326.594869
2597.192467,2374.896044,-0.000000,8808.450710
2597.192796,1838.629195,962.267725,8068.244768
2597.193125,1072.533697,1924.535449,8068.244768
2597.193454,689.485948,1332.370696,8438.347739
2597.193783,0.000000,592.164754,9326.594869
2597.194112,-536.266849,-444.123565,10066.800811
2597.194441,-536.266849,-1406.391290,10658.965565
2597.194770,-459.657299,-1406.391290,9474.636058
2597.195099,-1225.752797,-1554.432478,9474.636058
2597.195428,-1149.143247,-518.144159,9622.677246
2597.195758,0.000000,-296.082377,9622.677246
2597.196087,689.485948,-740.205942,9178.553681
2597.196416,1608.800546,296.082377,9178.553681
2597.196745,1378.971896,370.102971,8586.388927
2597.197074,1378.971896,1184.329507,7624.121203
2597.197403,995.924147,1554.432478,8364.327145
2597.197732,612.876398,518.144159,9400.615463
2597.198061,-229.828649,-444.123565,9622.677246
2597.198390,-229.828649,-1184.329507,10362.883188
2597.198719,-612.876398,-592.164754,9474.636058
2597.199048,-1072.533697,-518.144159,9178.553681
2597.199377,-689.485948,-1036.288319,9178.553681
2597.199706,-383.047749,-592.164754,9104.533087
2597.200036,76.609550,-444.123565,9770.718434
2597.200365,306.438199,-296.082377,8882.471304
2597.200694,1149.143247,-0.000000,8216.285956
2597.201023,1225.752797,1406.391290,7846.182985
2597.201352,153.219100,1554.432478,8068.244768
2597.201681,536.266849,962.267725,9252.574275
2597.202010,0.000000,592.164754,9326.594869
2597.202339,306.438199,-0.000000,9252.574275
2597.202668,-229.828649,-0.000000,9400.615463
2597.202997,-842.705048,-74.020594,9178.553681
2597.203326,-919.314598,-888.247130,9918.759623
2597.203655,-383.047749,-1702.473667,9326.594869
2597.203984,0.000000,-1776.494261,10066.800811
2597.204314,306.438199,-1110.308913,9474.636058
2597.204643,536.266849,-296.082377,8660.409521
2597.204972,1072.533697,814.226536,8512.368333
2597.205301,995.924147,1258.350101,8364.327145
2597.205630,536.266849,1554.432478,8660.409521
2597.205959,842.705048,814.226536,9622.677246
2597.206288,842.705048,148.041188,9548.656652
2597.206617,459.657299,-444.123565,9252.574275
2597.206946,229.828649,-740.205942,9400.615463
2597.207275,306.438199,-1036.288319,9400.615463
2597.207604,229.828649,-888.247130,9326.594869
2597.207933,919.314598,-1036.288319,9548.656652
2597.208262,536.266849,-444.123565,9178.553681
2597.208591,995.924147,-296.082377,8808.450710
2597.208920,1072.533697,-0.000000,8290.306550
2597.209249,689.485948,444.123565,8142.265362
2597.209578,76.609550,370.102971,8956.491898
2597.209907,0.000000,-518.144159,9326.594869
2597.210236,0.000000,-1184.329507,9918.759623
2597.210566,383.047749,-1332.370696,9474.636058
2597.210895,229.828649,-518.144159,8808.450710
2597.211224,0.000000,-592.164754,8734.430116
2597.211553,383.047749,-296.082377,8586.388927
2597.211882,1149.143247,-0.000000,8660.409521
2597.212211,1455.581446,-370.102971,8734.430116
2597.212540,1608.800546,-222.061783,8808.450710
2597.212869,919.314598,-74.020594,8364.327145
2597.213198,1225.752797,740.205942,8364.327145
2597.213527,229.828649,888.247130,8808.450710
2597.213856,0.000000,-222.061783,9844.739029
2597.214185,-229.828649,-740.205942,10140.821405
2597.214514,-229.828649,-814.226536,9992.780217
2597.214843,0.000000,-666.185348,9474.636058
2597.215172,-459.657299,-74.020594,8882.471304
2597.215501,153.219100,-518.144159,9252.574275
2597.215830,612.876398,-592.164754,9178.553681
2597.216159,1072.533697,-518.144159,9104.533087
2597.216488,1378.971896,-222.061783,9178.553681
2597.216818,1225.752797,370.102971,8216.285956
2597.217147,995.924147,962.267725,8364.327145
2597.217476,612.876398,888.247130,9030.512492
2597.217805,76.609550,222.061783,9030.512492
2597.218134,-153.219100,-296.082377,10066.800811
2597.218463,-383.047749,-592.164754,9696.697840
2597.218792,-306.438199,-222.061783,9178.553681
2597.219121,-842.705048,-148.041188,9104.533087
2597.219450,-612.876398,-1110.308913,9696.697840
2597.219779,-383.047749,-1480.411884,9548.656652
2597.220108,0.000000,-1480.411884,9474.636058
2597.220437,536.266849,-1110.308913,9178.553681
2597.220766,153.219100,-370.102971,8512.368333
2597.221095,229.828649,592.164754,7624.121203
2597.221424,-153.219100,666.185348,8290.306550
2597.221753,-306.438199,-370.102971,9104.533087
2597.222082,-689.485948,-962.267725,9474.636058
2597.222411,-229.828649,-888.247130,9104.533087
2597.222740,-689.485948,-1258.350101,8586.388927
2597.223070,-766.095498,-222.061783,9104.533087
2597.223399,-383.047749,-814.226536,9400.615463
2597.223728,459.657299,-888.247130,8882.471304
2597.224057,612.876398,-74.020594,8882.471304
2597.224386,1608.800546,-148.041188,8290.306550
2597.224715,1378.971896,592.164754,8512.368333
2597.225044,995.924147,888.247130,7920.203579
2597.225373,689.485948,1036.288319,8216.285956
2597.225702,0.000000,888.247130,9400.615463
2597.226031,-383.047749,-148.041188,9918.759623
2597.226360,0.000000,-740.205942,9548.656652
2597.226689,0.000000,-296.082377,9622.677246
2597.227018,0.000000,-444.123565,9252.574275
2597.227347,0.000000,-74.020594,9474.636058
2597.227676,383.047749,-0.000000,9400.615463
2597.228005,1378.971896,222.061783,9400.615463
2597.228334,1838.629195,370.102971,8808.450710
2597.228663,1762.019645,222.061783,8512.368333
2597.228992,1455.581446,666.185348,8068.244768
2597.229322,1455.581446,1924.535449,8586.388927
2597.229651,689.485948,740.205942,9474.636058
2597.229980,76.609550,-222.061783,9992.780217
2597.230309,229.828649,-222.061783,10362.883188
2597.230638,0.000000,-592.164754,9622.677246
2597.230967,-153.219100,-518.144159,9326.594869
2597.231296,0.000000,-370.102971,9326.594869
2597.231625,689.485948,-666.185348,9400.615463
2597.231954,1685.410096,-814.226536,8882.471304
2597.232283,1608.800546,-518.144159,8808.450710
2597.232612,2451.505594,-74.020594,8290.306550
2597.232941,2068.457845,1850.514855,7994.224174
2597.233270,1532.190996,1258.350101,8512.368333
2597.233599,842.705048,962.267725,8290.306550
2597.233928,383.047749,-0.000000,9326.594869
2597.234257,0.000000,-444.123565,9770.718434
2597.234586,-459.657299,-1110.308913,9622.677246
2597.234915,-1149.143247,-1332.370696,9770.718434
2597.235244,-1225.752797,-1702.473667,9252.574275
2597.235574,-919.314598,-1184.329507,9992.780217
2597.235903,-536.266849,-1850.514855,9770.718434
2597.236232,306.438199,-1554.432478,8882.471304
2597.236561,536.266849,-222.061783,8808.450710
2597.236890,536.266849,592.164754,8068.244768
2597.237219,689.485948,814.226536,7772.162391
2597.237548,459.657299,1480.411884,8734.430116
2597.237877,306.438199,370.102971,9326.594869
2597.238206,0.000000,-0.000000,9622.677246
2597.238535,0.000000,-1184.329507,9844.739029
2597.238864,-536.266849,-1480.411884,9696.697840
2597.239193,-536.266849,-1406.391290,9622.677246
2597.239522,0.000000,-1036.288319,8956.491898
2597.239851,612.876398,-444.123565,9326.594869
2597.240180,995.924147,-0.000000,9474.636058
2597.240509,1455.581446,-0.000000,8364.327145
2597.240838,919.314598,814.226536,8216.285956
2597.241167,842.705048,1406.391290,8068.244768
2597.241496,536.266849,962.267725,8438.347739
2597.241826,76.609550,-0.000000,9400.615463
2597.242155,-459.657299,-666.185348,9992.780217
2597.242484,306.438199,-1110.308913,9326.594869
2597.242813,-536.266849,-592.164754,9030.512492
2597.243142,-995.924147,-370.102971,8808.450710
2597.243471,-766.095498,-888.247130,9030.512492
2597.243800,-229.828649,-740.205942,9104.533087
2597.244129,842.705048,-1258.350101,8734.430116
2597.244458,153.219100,-888.247130,8364.327145
2597.244787,612.876398,-1036.288319,8512.368333
2597.245116,459.657299,-222.061783,8216.285956
2597.245445,229.828649,-444.123565,8364.327145
2597.245774,0.000000,-370.102971,9252.574275
2597.246103,0.000000,-666.185348,9474.636058
2597.246432,0.000000,-666.185348,9474.636058
2597.246761,-459.657299,-222.061783,8956.491898
2597.247090,306.438199,-518.144159,8956.491898
2597.247419,153.219100,-296.082377,8882.471304
2597.247748,919.314598,-814.226536,9326.594869
2597.248078,1302.362347,-888.247130,9030.512492
2597.248407,1685.410096,-888.247130,8438.347739
2597.248736,1685.410096,-518.144159,9252.574275
2597.249065,1762.019645,518.144159,8142.265362
2597.249394,1378.971896,1110.308913,8438.347739
2597.249723,1072.533697,814.226536,8660.409521
2597.250052,536.266849,592.164754,9474.636058
2597.250381,536.266849,-0.000000,9992.780217
2597.250710,306.438199,-222.061783,9104.533087
2597.251039,-306.438199,222.061783,9400.615463
2597.251368,306.438199,-74.020594,9548.656652
2597.251697,536.266849,-296.082377,9474.636058
2597.252026,766.095498,-592.164754,9548.656652
2597.252355,1302.362347,-148.041188,9400.615463
2597.252684,1302.362347,296.082377,8660.409521
2597.253013,919.314598,1332.370696,8216.285956
2597.253342,459.657299,1998.556043,8438.347739
2597.253671,-459.657299,1258.350101,9252.574275
2597.254000,76.609550,666.185348,9622.677246
2597.254330,76.609550,-0.000000,9548.656652
2597.254659,0.000000,-444.123565,9548.656652
2597.254988,-229.828649,-222.061783,9326.594869
2597.255317,0.000000,-296.082377,9474.636058
2597.255646,383.047749,-888.247130,9622.677246
2597.255975,919.314598,-370.102971,9104.533087
2597.256304,1455.581446,-148.041188,9252.574275
2597.256633,1149.143247,296.082377,8438.347739
2597.256962,1149.143247,740.205942,8216.285956
2597.257291,766.095498,962.267725,8290.306550
2597.257620,459.657299,592.164754,8290.306550
2597.257949,76.609550,-518.144159,9548.656652
2597.258278,-536.266849,-1332.370696,10288.862594
2597.258607,0.000000,-1554.432478,9400.615463
2597.258936,-842.705048,-814.226536,9400.615463
2597.259265,-995.924147,-1184.329507,9548.656652
2597.259594,-459.657299,-1110.308913,9326.594869
2597.259923,0.000000,-1924.535449,9104.533087
2597.260252,76.609550,-1036.288319,8734.430116
2597.260582,919.314598,-1184.329507,8660.409521
