#time,accel_x,accel_y,accel_z
2558.773456,229.828649,-296.082377,9030.512492
2558.773785,383.047749,-296.082377,9178.553681
2558.774114,153.219100,-296.082377,8882.471304
2558.774442,-383.047749,-74.020594,9104.533087
2558.774771,459.657299,-222.061783,8808.450710
2558.775100,536.266849,-74.020594,8882.471304
2558.775429,536.266849,-0.000000,9474.636058
2558.775758,383.047749,-0.000000,8882.471304
2558.776087,229.828649,-0.000000,8808.450710
2558.776416,383.047749,-0.000000,9030.512492
2558.776745,153.219100,-518.144159,8956.491898
2558.777074,153.219100,-444.123565,9326.594869
2558.777403,612.876398,-444.123565,9326.594869
2558.777732,76.609550,-592.164754,9030.512492
2558.778061,306.438199,-148.041188,9252.574275
2558.778390,229.828649,-296.082377,9178.553681
2558.778719,383.047749,-222.061783,9252.574275
2558.779048,612.876398,-148.041188,9400.615463
2558.779377,842.705048,-148.041188,9030.512492
2558.779706,612.876398,370.102971,9622.677246
2558.780035,229.828649,-222.061783,9474.636058
2558.780364,459.657299,-148.041188,9104.533087
2558.780693,536.266849,-74.020594,9178.553681
2558.781022,459.657299,-148.041188,9178.553681
2558.781351,229.828649,-296.082377,9104.533087
2558.781680,536.266849,-370.102971,9400.615463
2558.782009,459.657299,-0.000000,9474.636058
2558.782338,842.705048,-222.061783,9474.636058
2558.782667,229.828649,-222.061783,8956.491898
2558.782996,383.047749,-0.000000,9030.512492
2558.783325,306.438199,-0.000000,8882.471304
2558.783654,459.657299,-518.144159,9104.533087
2558.783983,459.657299,-296.082377,8956.491898
2558.784311,842.705048,-518.144159,8956.491898
2558.784640,76.609550,-222.061783,8882.471304
2558.784969,229.828649,-148.041188,9030.512492
2558.785298,153.219100,-74.020594,8882.471304
2558.785627,153.219100,-148.041188,9030.512492
2558.785956,229.828649,-222.061783,9252.574275
2558.786285,919.314598,-296.082377,8586.388927
2558.786614,459.657299,-370.102971,8882.471304
2558.786943,76.609550,296.082377,9326.594869
2558.787272,306.438199,-0.000000,9104.533087
2558.787601,153.219100,-74.020594,8882.471304
2558.787930,229.828649,-0.000000,9030.512492
2558.788259,306.438199,-74.020594,8956.491898
2558.788588,229.828649,-222.061783,8808.450710
2558.788917,306.438199,-0.000000,9474.636058
2558.789246,842.705048,-592.164754,9400.615463
2558.789575,229.828649,-296.082377,9104.533087
2558.789904,306.438199,-148.041188,9104.533087
2558.790233,306.438199,-148.041188,9400.615463
2558.790562,536.266849,-0.000000,9030.512492
2558.790891,842.705048,-444.123565,9252.574275
2558.791220,842.705048,-444.123565,9178.553681
2558.791549,383.047749,-370.102971,9178.553681
2558.791878,383.047749,-222.061783,9104.533087
2558.792207,229.828649,-0.000000,9326.594869
2558.792536,306.438199,-222.061783,9104.533087
2558.792865,766.095498,-148.041188,9474.636058
2558.793194,842.705048,-296.082377,9030.512492
2558.793523,229.828649,-74.020594,9104.533087
2558.793851,153.219100,-0.000000,9178.553681
2558.794180,383.047749,-0.000000,9178.553681
2558.794509,229.828649,-0.000000,9104.533087
2558.794838,229.828649,-0.000000,8882.471304
2558.795167,536.266849,-0.000000,8882.471304
2558.795496,306.438199,-0.000000,9252.574275
2558.795825,536.266849,-444.123565,8808.450710
2558.796154,306.438199,-222.061783,9030.512492
2558.796483,536.266849,-0.000000,8956.491898
2558.796812,306.438199,-74.020594,8882.471304
2558.797141,76.609550,-148.041188,8956.491898
2558.797470,0.000000,-222.061783,8882.471304
2558.797799,76.609550,-0.000000,9326.594869
2558.798128,0.000000,-296.082377,9326.594869
2558.798457,229.828649,-148.041188,9030.512492
2558.798786,383.047749,-296.082377,8956.491898
2558.799115,383.047749,-0.000000,9178.553681
2558.799444,766.095498,-74.020594,9030.512492
2558.799773,153.219100,-0.000000,9030.512492
2558.800102,459.657299,-74.020594,9104.533087
2558.800431,306.438199,-0.000000,9252.574275
2558.800760,459.657299,-1036.288319,9770.718434
2558.801089,1532.190996,-1110.308913,9622.677246
2558.801418,1378.971896,-1110.308913,9548.656652
2558.801747,1532.190996,-444.123565,9622.677246
2558.802076,2145.067394,-296.082377,9104.533087
2558.802405,2528.115143,-0.000000,8956.491898
2558.802734,3370.820191,-0.000000,9252.574275
2558.803063,4519.963438,-0.000000,9326.594869
2558.803391,2298.286494,592.164754,8808.450710
2558.803720,3370.820191,666.185348,8734.430116
2558.804049,2911.162892,-0.000000,8808.450710
2558.804378,3217.601092,-74.020594,9326.594869
2558.804707,2681.334243,-370.102971,9030.512492
2558.805036,1455.581446,-518.144159,9622.677246
2558.805365,1915.238745,-1998.556043,10066.800811
2558.805694,2528.115143,-1258.350101,9326.594869
2558.806023,2374.896044,592.164754,9474.636058
2558.806352,2911.162892,-1036.288319,9696.697840
2558.806681,3140.991542,-0.000000,8882.471304
2558.807010,4290.134789,888.247130,9400.615463
2558.807339,5209.449386,666.185348,7179.997637
2558.807668,4596.572988,1110.308913,8586.388927
2558.807997,5132.839837,1036.288319,9104.533087
2558.808326,4596.572988,1184.329507,7402.059420
2558.808655,3830.477490,740.205942,8808.450710
2558.808984,3600.648841,-0.000000,8660.409521
2558.809313,2681.334243,222.061783,8734.430116
2558.809642,1762.019645,-592.164754,9622.677246
2558.809971,1455.581446,-740.205942,9400.615463
2558.810300,2145.067394,-1406.391290,9918.759623
2558.810629,766.095498,-1480.411884,9770.718434
2558.810958,1685.410096,-518.144159,9548.656652
2558.811287,1991.848295,-592.164754,10140.821405
2558.811616,2987.772442,444.123565,7994.224174
2558.811945,3677.258390,-0.000000,9622.677246
2558.812274,4366.744339,1184.329507,8512.368333
2558.812603,4366.744339,444.123565,8364.327145
2558.812932,5132.839837,1110.308913,8142.265362
2558.813260,4519.963438,740.205942,8808.450710
2558.813589,3907.087040,-148.041188,8882.471304
2558.813918,3064.381992,-962.267725,9474.636058
2558.814247,2834.553343,-1184.329507,9548.656652
2558.814576,2451.505594,-1998.556043,10066.800811
2558.814905,2221.676944,-1998.556043,9770.718434
2558.815234,2757.943793,-1258.350101,10584.944971
2558.815563,2757.943793,-740.205942,9622.677246
2558.815892,2911.162892,-0.000000,9252.574275
2558.816221,3600.648841,666.185348,8438.347739
2558.816550,4060.306139,1628.453072,8586.388927
2558.816879,4366.744339,1924.535449,7994.224174
2558.817208,5439.278036,2442.679609,7105.977043
2558.817537,4749.792088,2146.597232,7624.121203
2558.817866,3907.087040,1850.514855,7846.182985
2558.818195,3294.210641,666.185348,8142.265362
2558.818524,2451.505594,-666.185348,9252.574275
2558.818853,2221.676944,-1850.514855,9696.697840
2558.819182,1532.190996,-3182.885551,10362.883188
2558.819511,1915.238745,-2664.741391,10658.965565
2558.819840,2451.505594,-3034.844362,10658.965565
2558.820169,3370.820191,-1702.473667,10436.903782
2558.820498,4519.963438,-222.061783,9622.677246
2558.820827,5362.668486,962.267725,9030.512492
2558.821156,5975.544884,2294.638420,8142.265362
2558.821485,5822.325785,2886.803174,7772.162391
2558.821814,5132.839837,3701.029710,7328.038826
2558.822143,4290.134789,3997.112087,6661.853478
2558.822472,4443.353888,2220.617826,7328.038826
2558.822800,1915.238745,-0.000000,8290.306550
2558.823129,842.705048,-2442.679609,10362.883188
2558.823458,-612.876398,-3627.009116,10510.924376
2558.823787,-995.924147,-5255.462188,11843.295072
2558.824116,-689.485948,-4589.276840,11177.109724
2558.824445,0.000000,-2220.617826,11029.068536
2558.824774,536.266849,-962.267725,10955.047942
2558.825103,1072.533697,-0.000000,10510.924376
2558.825432,4213.525239,444.123565,10510.924376
2558.825761,6205.373534,1776.494261,8068.244768
2558.826090,7507.735880,1332.370696,8216.285956
2558.826419,5439.278036,1554.432478,7105.977043
2558.826748,5745.716235,2072.576638,6883.915261
2558.827077,5515.887586,3182.885551,6957.935855
2558.827406,4903.011187,2294.638420,6069.688724
2558.827735,4060.306139,3923.091493,5329.482782
2558.828064,4060.306139,2738.761985,5625.565159
2558.828393,2451.505594,-1184.329507,8512.368333
2558.828722,-1455.581446,-4811.338623,11177.109724
2558.829051,-1532.190996,-6809.894666,11769.274478
2558.829380,-2451.505594,-4145.153275,11769.274478
2558.829709,-2528.115143,-6069.688724,12287.418637
2558.830038,-3370.820191,-1554.432478,9918.759623
2558.830367,-689.485948,-666.185348,11177.109724
2558.830696,-766.095498,2146.597232,10140.821405
2558.831025,1532.190996,2294.638420,8734.430116
2558.831354,2145.067394,1850.514855,8364.327145
2558.831683,2451.505594,962.267725,11177.109724
2558.832012,3907.087040,1036.288319,8216.285956
2558.832340,4673.182538,1036.288319,5477.523971
2558.832669,5439.278036,1110.308913,5773.606348
2558.832998,5822.325785,2738.761985,4811.338623
2558.833327,5132.839837,1480.411884,7772.162391
2558.833656,1455.581446,1036.288319,7105.977043
2558.833985,306.438199,-2664.741391,8364.327145
2558.834314,-2145.067394,-3923.091493,11251.130318
2558.834643,-3064.381992,-2516.700203,9474.636058
2558.834972,-3753.867940,-2738.761985,10658.965565
2558.835301,-3447.429741,-1998.556043,11325.150913
2558.835630,-3140.991542,-518.144159,11547.212695
2558.835959,-2451.505594,-666.185348,12879.583391
2558.836288,-2145.067394,518.144159,11473.192101
2558.836617,0.000000,-0.000000,10436.903782
2558.836946,842.705048,518.144159,9474.636058
2558.837275,-306.438199,2442.679609,8808.450710
2558.837604,1532.190996,-0.000000,12213.398043
2558.837933,4443.353888,1850.514855,6365.771101
2558.838262,7584.345430,2664.741391,5551.544565
2558.838591,5515.887586,1554.432478,2886.803174
2558.838920,4673.182538,2146.597232,5329.482782
2558.839249,1302.362347,-222.061783,8660.409521
2558.839578,-919.314598,-1332.370696,8660.409521
2558.839907,-2221.676944,-2516.700203,11547.212695
2558.840236,-2911.162892,-1628.453072,9474.636058
2558.840565,-3600.648841,-814.226536,8660.409521
2558.840894,-5286.058936,-2294.638420,12287.418637
2558.841223,-5056.230287,-1184.329507,11029.068536
2558.841552,-2604.724693,-2146.597232,13027.624579
2558.841880,-1302.362347,-1776.494261,11991.336260
2558.842209,459.657299,370.102971,9770.718434
2558.842538,0.000000,814.226536,7698.141797
2558.842867,153.219100,1406.391290,8734.430116
2558.843196,3830.477490,814.226536,10214.842000
2558.843525,6665.030833,3775.050304,3404.947333
2558.843854,7890.783629,1258.350101,5477.523971
2558.844183,4673.182538,1850.514855,2812.782580
2558.844512,3217.601092,1998.556043,6291.750507
2558.844841,-1302.362347,-1554.432478,8734.430116
2558.845170,-2451.505594,-3182.885551,10140.821405
2558.845499,-2145.067394,-2812.782580,12953.603985
2558.845828,-4060.306139,888.247130,5329.482782
2558.846157,-4596.572988,-2442.679609,12953.603985
2558.846486,-6588.421283,-2590.720797,12213.398043
2558.846815,-1915.238745,-1554.432478,13101.645173
2558.847144,-1072.533697,-1776.494261,12509.480420
2558.847473,1378.971896,1110.308913,7476.080014
2558.847802,-229.828649,2368.659014,8512.368333
2558.848132,1302.362347,-1110.308913,13027.624579
2558.848461,3140.991542,2590.720797,5847.626942
2558.848790,6358.592633,1628.453072,5921.647536
2558.849119,6052.154434,518.144159,3182.885551
2558.849448,4519.963438,2294.638420,4367.215058
2558.849777,1685.410096,740.205942,9918.759623
2558.850107,-1685.410096,-444.123565,7698.141797
2558.850436,-995.924147,-5033.400406,12287.418637
2558.850765,-1915.238745,-1258.350101,10066.800811
2558.851094,-1762.019645,1184.329507,8068.244768
2558.851423,-3600.648841,-2960.823768,13101.645173
2558.851752,-2834.553343,-962.267725,11695.253884
2558.852081,76.609550,-666.185348,13323.706956
2558.852411,-459.657299,-0.000000,10066.800811
2558.852740,1225.752797,2738.761985,7179.997637
2558.853069,995.924147,-1702.473667,13471.748144
2558.853398,3830.477490,592.164754,7031.956449
2558.853727,5286.058936,3404.947333,4663.297435
2558.854056,5898.935335,-148.041188,6069.688724
2558.854385,4826.401637,1998.556043,3478.967927
2558.854715,3064.381992,1332.370696,8512.368333
2558.855044,-766.095498,444.123565,7550.100608
2558.855373,-1915.238745,-4145.153275,10584.944971
2558.855702,-1532.190996,-4071.132681,11325.150913
2558.856031,-2681.334243,2072.576638,6809.894666
2558.856360,-4290.134789,-2146.597232,13841.851115
2558.856690,-4519.963438,-2368.659014,11843.295072
2558.857019,-842.705048,-1628.453072,13989.892304
2558.857348,153.219100,-0.000000,11399.171507
2558.857677,842.705048,2220.617826,6661.853478
2558.858006,0.000000,-444.123565,10510.924376
2558.858335,3524.039291,-0.000000,10584.944971
2558.858664,4443.353888,4219.173869,4071.132681
2558.858994,6052.154434,370.102971,7031.956449
2558.859323,3600.648841,444.123565,2812.782580
2558.859652,2987.772442,1702.473667,7402.059420
2558.859981,-1149.143247,888.247130,7994.224174
2558.860310,-1532.190996,-2812.782580,8956.491898
2558.860639,-919.314598,-4367.215058,11251.130318
2558.860969,-3064.381992,2368.659014,6365.771101
2558.861298,-4596.572988,-2220.617826,13915.871710
2558.861627,-6205.373534,-2516.700203,11843.295072
2558.861956,-842.705048,-1406.391290,13545.768739
2558.862285,-383.047749,-222.061783,11843.295072
2558.862614,995.924147,1776.494261,7105.977043
2558.862943,-612.876398,1184.329507,8512.368333
2558.863273,2451.505594,-592.164754,12213.398043
2558.863602,4596.572988,3552.988522,4515.256246
2558.863931,6435.202183,2442.679609,6069.688724
2558.864260,4443.353888,-1258.350101,4145.153275
2558.864589,2068.457845,1628.453072,6809.894666
2558.864918,-1072.533697,592.164754,9030.512492
2558.865247,-2757.943793,-2738.761985,9474.636058
2558.865577,-612.876398,-4441.235652,9474.636058
2558.865906,-2911.162892,1776.494261,7105.977043
2558.866235,-4443.353888,-1480.411884,12657.521608
2558.866564,-7201.297681,-3775.050304,13027.624579
2558.866893,-2911.162892,-2294.638420,14508.036463
2558.867222,-1302.362347,-1110.308913,11917.315666
2558.867552,919.314598,740.205942,8216.285956
2558.867881,-383.047749,2960.823768,7328.038826
2558.868210,1532.190996,-0.000000,11769.274478
2558.868539,4136.915689,1406.391290,6661.853478
2558.868868,6741.640382,4071.132681,4959.379811
2558.869197,5592.497135,-1332.370696,4589.276840
2558.869526,2068.457845,1480.411884,4885.359217
2558.869856,689.485948,740.205942,9548.656652
2558.870185,-2451.505594,-2072.576638,8290.306550
2558.870514,0.000000,-5107.421000,11843.295072
2558.870843,-2145.067394,814.226536,7920.203579
2558.871172,-2987.772442,444.123565,11473.192101
2558.871501,-6511.811733,-3108.864956,12435.459826
2558.871831,-1991.848295,-1036.288319,11917.315666
2558.872160,-689.485948,-518.144159,11843.295072
2558.872489,229.828649,444.123565,8956.491898
2558.872818,1149.143247,2442.679609,7328.038826
2558.873147,3370.820191,962.267725,12731.542202
2558.873476,4290.134789,1850.514855,4145.153275
2558.873805,8503.660028,4219.173869,6587.832884
2558.874135,5898.935335,-1110.308913,3256.906145
2558.874464,4136.915689,2516.700203,4959.379811
2558.874793,919.314598,-370.102971,9474.636058
2558.875122,-2145.067394,-444.123565,6957.935855
2558.875451,-766.095498,-6661.853478,13545.768739
2558.875780,-2911.162892,-74.020594,7402.059420
2558.876110,-4060.306139,-888.247130,11177.109724
2558.876439,-6281.983084,-3330.926739,14063.912898
2558.876768,-2681.334243,-444.123565,11991.336260
2558.877097,-612.876398,-1406.391290,14137.933492
2558.877426,995.924147,518.144159,8290.306550
2558.877755,612.876398,2590.720797,7476.080014
2558.878084,3064.381992,-740.205942,13841.851115
2558.878414,4979.620737,4071.132681,1850.514855
2558.878743,9193.145976,3108.864956,7846.182985
2558.879072,6128.763984,740.205942,2368.659014
2558.879401,5439.278036,1480.411884,4959.379811
2558.879730,536.266849,-962.267725,9844.739029
2558.880059,-1915.238745,-74.020594,7179.997637
2558.880388,-842.705048,-7920.203579,13915.871710
2558.880718,-2987.772442,-1258.350101,8068.244768
2558.881047,-4366.744339,-962.267725,12287.418637
2558.881376,-7584.345430,-3478.967927,13471.748144
2558.881705,-2834.553343,-666.185348,12361.439231
2558.882034,-1378.971896,-962.267725,13915.871710
2558.882363,689.485948,962.267725,9104.533087
2558.882693,536.266849,3701.029710,6587.832884
2558.883022,3524.039291,-1110.308913,13471.748144
2558.883351,4596.572988,3552.988522,3034.844362
2558.883680,8120.612279,3849.070898,6217.729913
2558.884009,6971.469032,-296.082377,3034.844362
2558.884338,4290.134789,1850.514855,3478.967927
2558.884667,612.876398,-888.247130,9400.615463
2558.884997,-2374.896044,-962.267725,8142.265362
2558.885326,-919.314598,-5995.668130,12435.459826
2558.885655,-3907.087040,-1628.453072,8290.306550
2558.885984,-5056.230287,-370.102971,11991.336260
2558.886313,-8503.660028,-3775.050304,13323.706956
2558.886642,-4443.353888,-1332.370696,12805.562797
2558.886972,-2298.286494,-1258.350101,13841.851115
2558.887301,0.000000,-0.000000,9622.677246
2558.887630,306.438199,4145.153275,6957.935855
2558.887959,689.485948,-0.000000,10140.821405
2558.888288,4903.011187,1332.370696,7994.224174
2558.888617,7048.078582,4885.359217,2886.803174
2558.888946,7967.393179,-0.000000,4885.359217
2558.889276,3983.696590,888.247130,2590.720797
2558.889605,3294.210641,-296.082377,9474.636058
2558.889934,-1608.800546,-962.267725,7994.224174
2558.890263,-1149.143247,-5773.606348,10955.047942
2558.890592,-1991.848295,-3997.112087,11843.295072
2558.890921,-4213.525239,1258.350101,8586.388927
2558.891251,-5592.497135,-3775.050304,15544.324782
2558.891580,-6588.421283,-962.267725,12435.459826
2558.891909,-1532.190996,-888.247130,14063.912898
2558.892238,-919.314598,-0.000000,10955.047942
2558.892567,1838.629195,3182.885551,7328.038826
2558.892896,76.609550,1480.411884,9548.656652
2558.893225,4443.353888,666.185348,9992.780217
2558.893555,5669.106685,4515.256246,2294.638420
2558.893884,7124.688131,740.205942,6217.729913
2558.894213,4060.306139,-0.000000,3108.864956
2558.894542,2911.162892,444.123565,8142.265362
2558.894871,-919.314598,-222.061783,7772.162391
2558.895200,-2221.676944,-3849.070898,9030.512492
2558.895529,-1685.410096,-5329.482782,12435.459826
2558.895859,-3983.696590,1702.473667,7476.080014
2558.896188,-4979.620737,-2738.761985,13841.851115
2558.896517,-6818.249932,-1776.494261,12361.439231
2558.896846,-1302.362347,-1036.288319,13249.686362
2558.897175,-536.266849,-74.020594,11621.233289
2558.897504,842.705048,2368.659014,7105.977043
2558.897834,842.705048,2516.700203,8512.368333
2558.898163,4290.134789,222.061783,11399.171507
2558.898492,5362.668486,4145.153275,2368.659014
2558.898821,7201.297681,1702.473667,6217.729913
2558.899150,5132.839837,-740.205942,3404.947333
2558.899479,4060.306139,222.061783,6957.935855
2558.899808,76.609550,-1110.308913,8364.327145
2558.900138,-1915.238745,-3552.988522,8364.327145
2558.900467,-689.485948,-6365.771101,14137.933492
2558.900796,-2528.115143,1184.329507,7031.956449
2558.901125,-3217.601092,-1332.370696,12435.459826
2558.901454,-5209.449386,-2368.659014,12287.418637
2558.901783,-459.657299,-148.041188,11547.212695
2558.902113,-306.438199,370.102971,12657.521608
2558.902442,1149.143247,2368.659014,8216.285956
2558.902771,76.609550,2664.741391,9252.574275
2558.903100,3294.210641,-0.000000,11547.212695
2558.903429,4519.963438,4071.132681,2960.823768
2558.903758,6128.763984,1924.535449,6661.853478
2558.904087,4826.401637,-518.144159,4071.132681
2558.904417,3140.991542,-74.020594,6217.729913
2558.904746,842.705048,-888.247130,9030.512492
2558.905075,-1762.019645,-2146.597232,7402.059420
2558.905404,-612.876398,-6513.812290,13249.686362
2558.905733,-2834.553343,592.164754,6513.812290
2558.906062,-3064.381992,-296.082377,12657.521608
2558.906391,-5898.935335,-1628.453072,11547.212695
2558.906721,-1608.800546,-222.061783,12213.398043
2558.907050,-689.485948,-222.061783,13249.686362
2558.907379,459.657299,1406.391290,8734.430116
2558.907708,-306.438199,2738.761985,7624.121203
2558.908037,76.609550,-0.000000,10732.986159
2558.908366,2757.943793,1554.432478,8512.368333
2558.908696,4596.572988,3108.864956,4959.379811
2558.909025,6281.983084,-740.205942,6513.812290
2558.909354,3294.210641,-444.123565,3627.009116
2558.909683,3064.381992,666.185348,7105.977043
2558.910012,-919.314598,-1184.329507,7254.018232
2558.910341,-612.876398,-4663.297435,10288.862594
2558.910670,-689.485948,-2516.700203,12509.480420
2558.911000,-1915.238745,1480.411884,6735.874072
2558.911329,-2221.676944,-1924.535449,11325.150913
2558.911658,-2757.943793,-1184.329507,12065.356855
2558.911987,0.000000,814.226536,12361.439231
2558.912316,-612.876398,888.247130,11769.274478
2558.912645,689.485948,2516.700203,7550.100608
2558.912975,-383.047749,1480.411884,8882.471304
2558.913304,842.705048,-740.205942,11177.109724
2558.913633,2145.067394,962.267725,7105.977043
2558.913962,3064.381992,-296.082377,7105.977043
2558.914291,3064.381992,-2220.617826,5773.606348
2558.914620,1915.238745,-0.000000,6143.709319
2558.914949,153.219100,-222.061783,8216.285956
2558.915279,-1455.581446,-1998.556043,8068.244768
2558.915608,0.000000,-3108.864956,10881.027347
2558.915937,-383.047749,1406.391290,8512.368333
2558.916266,-689.485948,444.123565,9696.697840
2558.916595,-2451.505594,-888.247130,11177.109724
2558.916924,-766.095498,148.041188,11399.171507
2558.917254,0.000000,444.123565,11621.233289
2558.917583,0.000000,1480.411884,8586.388927
2558.917912,0.000000,1776.494261,9326.594869
2558.918241,-153.219100,148.041188,10066.800811
2558.918570,689.485948,-0.000000,8882.471304
2558.918899,1302.362347,-148.041188,8438.347739
2558.919228,1685.410096,-1332.370696,6069.688724
2558.919558,1685.410096,-1184.329507,6735.874072
2558.919887,383.047749,-0.000000,6957.935855
2558.920216,76.609550,-1332.370696,7994.224174
2558.920545,-1225.752797,-3404.947333,10881.027347
2558.920874,-153.219100,-888.247130,9178.553681
2558.921203,-689.485948,814.226536,8660.409521
2558.921532,-995.924147,-0.000000,10066.800811
2558.921862,-229.828649,518.144159,10807.006753
2558.922191,0.000000,962.267725,11473.192101
2558.922520,0.000000,888.247130,10658.965565
2558.922849,-919.314598,740.205942,10436.903782
2558.923178,1762.019645,814.226536,9992.780217
2558.923507,2757.943793,1480.411884,7179.997637
2558.923837,3064.381992,592.164754,7476.080014
2558.924166,2221.676944,-296.082377,6809.894666
2558.924495,1455.581446,-222.061783,7328.038826
2558.924824,153.219100,-666.185348,7698.141797
2558.925153,-919.314598,-2220.617826,8808.450710
2558.925482,-1072.533697,-3182.885551,10436.903782
2558.925811,-1532.190996,-1332.370696,8808.450710
2558.926141,-1838.629195,148.041188,10362.883188
2558.926470,-2221.676944,-814.226536,10658.965565
2558.926799,-536.266849,-74.020594,11399.171507
2558.927128,536.266849,592.164754,12139.377449
2558.927457,0.000000,1184.329507,9400.615463
2558.927786,-459.657299,962.267725,9474.636058
2558.928116,0.000000,-222.061783,11103.089130
2558.928445,2834.553343,1184.329507,7846.182985
2558.928774,4213.525239,2442.679609,5625.565159
2558.929103,5132.839837,370.102971,5699.585753
2558.929432,4060.306139,370.102971,4737.318029
2558.929761,2298.286494,888.247130,6809.894666
2558.930090,0.000000,-740.205942,6883.915261
2558.930420,-536.266849,-3108.864956,9326.594869
2558.930749,-689.485948,-2220.617826,11251.130318
2558.931078,-1685.410096,888.247130,7698.141797
2558.931407,-2374.896044,-1406.391290,12287.418637
2558.931736,-3217.601092,-1480.411884,11251.130318
2558.932065,153.219100,-0.000000,12583.501014
2558.932395,0.000000,370.102971,11621.233289
2558.932724,0.000000,2072.576638,7846.182985
2558.933053,919.314598,-518.144159,11621.233289
2558.933382,1608.800546,-0.000000,9548.656652
2558.933711,2374.896044,2886.803174,5699.585753
2558.934040,5286.058936,-296.082377,7179.997637
2558.934369,3753.867940,-0.000000,3404.947333
2558.934699,2604.724693,1258.350101,6587.832884
2558.935028,766.095498,-592.164754,8734.430116
2558.935357,-2221.676944,-2664.741391,8808.450710
2558.935686,-383.047749,-2812.782580,11473.192101
2558.936015,-1608.800546,962.267725,6513.812290
2558.936344,-3600.648841,-888.247130,12213.398043
2558.936673,-5056.230287,-2368.659014,12287.418637
2558.937003,-1762.019645,-962.267725,13101.645173
2558.937332,-1378.971896,-1406.391290,12805.562797
2558.937661,842.705048,888.247130,8882.471304
2558.937990,229.828649,518.144159,8512.368333
2558.938319,689.485948,-222.061783,10955.047942
2558.938648,2911.162892,1628.453072,7328.038826
2558.938978,4443.353888,2368.659014,5329.482782
2558.939307,4826.401637,-222.061783,5329.482782
2558.939636,2528.115143,1850.514855,5255.462188
2558.939965,1532.190996,-74.020594,8660.409521
2558.940294,-2451.505594,-1702.473667,7624.121203
2558.940623,-1915.238745,-4071.132681,11917.315666
2558.940952,-2145.067394,-666.185348,10362.883188
2558.941282,-2911.162892,814.226536,8808.450710
2558.941611,-3600.648841,-2812.782580,13323.706956
2558.941940,-2911.162892,-1110.308913,10955.047942
2558.942269,-459.657299,-74.020594,11621.233289
2558.942598,-383.047749,666.185348,9474.636058
2558.942927,689.485948,1924.535449,7994.224174
2558.943257,3524.039291,962.267725,11843.295072
2558.943586,4060.306139,2960.823768,1998.556043
2558.943915,6281.983084,2220.617826,6883.915261
2558.944244,3370.820191,-0.000000,4589.276840
2558.944573,4060.306139,296.082377,6217.729913
2558.944902,-919.314598,-0.000000,9030.512492
2558.945231,-2221.676944,-1480.411884,8364.327145
2558.945561,-2604.724693,-5255.462188,13027.624579
2558.945890,-4060.306139,-1110.308913,7328.038826
2558.946219,-4366.744339,-1480.411884,12731.542202
2558.946548,-6281.983084,-3182.885551,12805.562797
2558.946877,-2221.676944,-1554.432478,12435.459826
2558.947206,-766.095498,-222.061783,12879.583391
2558.947535,459.657299,1258.350101,8438.347739
2558.947864,0.000000,1850.514855,7328.038826
2558.948193,5132.839837,-444.123565,11695.253884
2558.948522,4519.963438,4441.235652,74.020594
2558.948851,8733.488677,3108.864956,7550.100608
2558.949181,5439.278036,1110.308913,2886.803174
2558.949510,4673.182538,1184.329507,5699.585753
2558.949839,612.876398,814.226536,9548.656652
2558.950168,-919.314598,-1406.391290,6513.812290
2558.950497,-2145.067394,-6735.874072,14508.036463
2558.950826,-2221.676944,-1110.308913,8586.388927
2558.951155,-3447.429741,-1036.288319,11103.089130
2558.951484,-6281.983084,-3034.844362,13841.851115
2558.951813,-1838.629195,-1850.514855,11843.295072
2558.952142,-153.219100,-444.123565,12731.542202
2558.952471,0.000000,1332.370696,9104.533087
2558.952800,1225.752797,2072.576638,6957.935855
2558.953130,5056.230287,-1258.350101,13471.748144
2558.953459,4596.572988,5403.503377,-740.205942
2558.953788,8580.269578,2590.720797,8438.347739
2558.954117,5745.716235,1036.288319,3182.885551
2558.954446,5898.935335,1702.473667,4737.318029
2558.954775,1302.362347,1406.391290,8364.327145
2558.955104,-995.924147,-518.144159,7105.977043
2558.955433,-2451.505594,-6587.832884,14211.954086
2558.955762,-2681.334243,-2738.761985,9918.759623
2558.956091,-4903.011187,-296.082377,10214.842000
2558.956420,-7354.516781,-3923.091493,14285.974681
2558.956750,-4136.915689,-1702.473667,12139.377449
2558.957079,-1532.190996,-666.185348,14211.954086
2558.957408,229.828649,1110.308913,8882.471304
2558.957737,1149.143247,3627.009116,5033.400406
2558.958066,2757.943793,-2516.700203,14285.974681
2558.958395,4060.306139,3923.091493,4441.235652
2558.958724,8273.831378,3552.988522,6957.935855
2558.959053,5669.106685,1332.370696,2960.823768
2558.959382,4903.011187,1110.308913,4663.297435
2558.959711,919.314598,592.164754,9548.656652
2558.960040,-2145.067394,-888.247130,8142.265362
2558.960369,-1608.800546,-6069.688724,13175.665768
2558.960699,-3294.210641,-3108.864956,11547.212695
2558.961028,-4979.620737,444.123565,9696.697840
2558.961357,-6358.592633,-3849.070898,15026.180623
2558.961686,-4903.011187,-1406.391290,12139.377449
2558.962015,-1838.629195,-1554.432478,13175.665768
2558.962344,76.609550,814.226536,9770.718434
2558.962673,1762.019645,3849.070898,6069.688724
2558.963002,842.705048,-814.226536,9992.780217
2558.963331,5286.058936,2368.659014,7698.141797
2558.963660,6205.373534,4293.194464,3256.906145
2558.963989,6128.763984,962.267725,4589.276840
2558.964318,3294.210641,-222.061783,4071.132681
2558.964648,2451.505594,-0.000000,10214.842000
2558.964977,-2221.676944,-592.164754,8068.244768
2558.965306,-1455.581446,-5107.421000,10881.027347
2558.965635,-3447.429741,-4071.132681,10881.027347
2558.965964,-3830.477490,1850.514855,9474.636058
2558.966293,-6128.763984,-2294.638420,13545.768739
2558.966622,-5822.325785,-1110.308913,12805.562797
2558.966951,-1608.800546,-1776.494261,12509.480420
2558.967280,-306.438199,592.164754,10807.006753
2558.967609,536.266849,2368.659014,6217.729913
2558.967938,0.000000,1184.329507,8956.491898
2558.968268,4213.525239,-592.164754,11325.150913
2558.968597,4519.963438,4885.359217,1628.453072
2558.968926,7354.516781,1036.288319,6513.812290
2558.969255,3677.258390,-740.205942,3034.844362
2558.969584,4213.525239,814.226536,7402.059420
2558.969913,229.828649,-0.000000,8438.347739
2558.970242,-1378.971896,-3552.988522,8216.285956
2558.970571,-1378.971896,-5255.462188,14434.015869
2558.970900,-2221.676944,1776.494261,8290.306550
2558.971229,-3217.601092,-1184.329507,12287.418637
2558.971558,-5286.058936,-1776.494261,12657.521608
2558.971887,-766.095498,-518.144159,12213.398043
2558.972217,536.266849,592.164754,12509.480420
2558.972546,1072.533697,2220.617826,7994.224174
2558.972875,-229.828649,2072.576638,7402.059420
2558.973204,2451.505594,-1776.494261,13101.645173
2558.973533,3140.991542,2442.679609,4737.318029
2558.973862,6665.030833,1036.288319,5921.647536
2558.974191,4290.134789,-1480.411884,3997.112087
2558.974520,4136.915689,814.226536,6217.729913
2558.974849,995.924147,222.061783,8734.430116
2558.975178,-1455.581446,-1406.391290,7698.141797
2558.975507,-1149.143247,-4441.235652,11917.315666
2558.975836,-1762.019645,-444.123565,9770.718434
2558.976166,-2987.772442,888.247130,8956.491898
2558.976495,-3983.696590,-1406.391290,13249.686362
2558.976824,-1762.019645,-592.164754,11251.130318
2558.977153,0.000000,-666.185348,12435.459826
2558.977482,0.000000,592.164754,10288.862594
2558.977811,153.219100,2590.720797,6291.750507
2558.978140,919.314598,-2294.638420,12139.377449
2558.978469,2911.162892,962.267725,6513.812290
2558.978798,5132.839837,2368.659014,5107.421000
2558.979127,4596.572988,-1036.288319,6143.709319
2558.979456,3677.258390,-814.226536,5181.441594
2558.979786,1608.800546,-0.000000,9696.697840
2558.980115,-919.314598,-814.226536,7476.080014
2558.980444,-1149.143247,-3627.009116,9622.677246
2558.980773,-1608.800546,-2812.782580,12583.501014
2558.981102,-2528.115143,1850.514855,7624.121203
2558.981431,-3524.039291,-1184.329507,13545.768739
2558.981760,-2681.334243,-444.123565,11325.150913
2558.982089,919.314598,-74.020594,11843.295072
2558.982418,459.657299,1258.350101,10732.986159
2558.982747,0.000000,3034.844362,6661.853478
2558.983076,153.219100,-1036.288319,11621.233289
2558.983405,2298.286494,-0.000000,7698.141797
2558.983735,4749.792088,2886.803174,4515.256246
2558.984064,3600.648841,-1258.350101,5921.647536
2558.984393,2374.896044,-1184.329507,5773.606348
2558.984722,766.095498,-370.102971,9252.574275
2558.985051,-995.924147,-666.185348,7772.162391
2558.985380,-1378.971896,-3034.844362,9770.718434
2558.985709,-1149.143247,-2886.803174,11103.089130
2558.986038,-1838.629195,1924.535449,7994.224174
2558.986367,-2374.896044,-0.000000,12065.356855
2558.986696,-3140.991542,-814.226536,11103.089130
2558.987025,0.000000,-444.123565,12509.480420
2558.987354,229.828649,888.247130,10584.944971
2558.987684,229.828649,2812.782580,6735.874072
2558.988013,-536.266849,-148.041188,9622.677246
2558.988342,3140.991542,-1036.288319,10881.027347
2558.988671,3677.258390,2368.659014,4589.276840
2558.989000,4673.182538,370.102971,7179.997637
2558.989329,2911.162892,-1184.329507,4737.318029
2558.989658,2451.505594,518.144159,7698.141797
2558.989987,0.000000,296.082377,8290.306550
2558.990316,-1762.019645,-2146.597232,7772.162391
2558.990645,-1302.362347,-3775.050304,12731.542202
2558.990974,-2221.676944,740.205942,9030.512492
2558.991304,-1762.019645,-148.041188,10732.986159
2558.991633,-3294.210641,-962.267725,12287.418637
2558.991962,-612.876398,-592.164754,11473.192101
2558.992291,612.876398,444.123565,12139.377449
2558.992620,-459.657299,2812.782580,8586.388927
2558.992949,76.609550,1702.473667,9844.739029
2558.993278,2451.505594,-1702.473667,12213.398043
2558.993607,2834.553343,2368.659014,4589.276840
2558.993936,4213.525239,1184.329507,7105.977043
2558.994265,3370.820191,-1850.514855,5033.400406
2558.994594,2298.286494,370.102971,6291.750507
2558.994923,229.828649,-222.061783,8586.388927
2558.995253,-842.705048,-1406.391290,7994.224174
2558.995582,-1378.971896,-4367.215058,12065.356855
2558.995911,-2145.067394,370.102971,9030.512492
2558.996240,-2681.334243,666.185348,10288.862594
2558.996569,-4443.353888,-1702.473667,12435.459826
2558.996898,-2221.676944,-1036.288319,11695.253884
2558.997227,-229.828649,-592.164754,13027.624579
2558.997556,0.000000,1184.329507,9474.636058
2558.997885,-153.219100,1628.453072,6883.915261
2558.998214,1302.362347,-1850.514855,12435.459826
2558.998543,2987.772442,1480.411884,6217.729913
2558.998872,5286.058936,2590.720797,5477.523971
2558.999202,4290.134789,-296.082377,5033.400406
2558.999531,2911.162892,-370.102971,5329.482782
2558.999860,995.924147,-0.000000,10140.821405
2559.000189,-1302.362347,-1850.514855,7846.182985
2559.000518,-1762.019645,-4145.153275,9770.718434
2559.000847,-2068.457845,-2442.679609,12657.521608
2559.001176,-2145.067394,666.185348,8956.491898
2559.001505,-3064.381992,-1110.308913,12731.542202
2559.001834,-1915.238745,-1850.514855,11547.212695
2559.002163,383.047749,-444.123565,11251.130318
2559.002492,919.314598,1554.432478,10436.903782
2559.002822,153.219100,962.267725,8882.471304
2559.003151,3447.429741,-0.000000,10881.027347
2559.003480,4903.011187,2442.679609,2886.803174
2559.003809,6435.202183,3552.988522,5625.565159
2559.004138,4443.353888,-296.082377,4737.318029
2559.004467,4366.744339,1110.308913,7179.997637
2559.004796,0.000000,-74.020594,8438.347739
2559.005125,-842.705048,-1036.288319,8216.285956
2559.005454,-2604.724693,-5329.482782,13175.665768
2559.005783,-3064.381992,-1628.453072,9474.636058
2559.006112,-3370.820191,-370.102971,11325.150913
2559.006441,-5132.839837,-1258.350101,12213.398043
2559.006771,-2221.676944,-1776.494261,11251.130318
2559.007100,-612.876398,-814.226536,13027.624579
2559.007429,459.657299,2220.617826,9104.533087
2559.007758,612.876398,1702.473667,7179.997637
2559.008087,4136.915689,-1110.308913,12953.603985
2559.008416,4290.134789,4737.318029,444.123565
2559.008745,8733.488677,2960.823768,7031.956449
2559.009074,5362.668486,1998.556043,2960.823768
2559.009403,4903.011187,740.205942,5181.441594
2559.009732,995.924147,-370.102971,8660.409521
2559.010061,-1532.190996,-1110.308913,7402.059420
2559.010391,-2834.553343,-6439.791695,13175.665768
2559.010720,-2911.162892,-2368.659014,10436.903782
2559.011049,-4443.353888,-0.000000,9992.780217
2559.011378,-6205.373534,-2368.659014,13323.706956
2559.011707,-2451.505594,-2368.659014,12213.398043
2559.012036,-842.705048,-1036.288319,13471.748144
2559.012365,76.609550,1924.535449,8438.347739
2559.012694,153.219100,3404.947333,6513.812290
2559.013023,3064.381992,-2368.659014,14582.057057
2559.013352,4213.525239,4219.173869,2368.659014
2559.013681,8350.440928,3552.988522,7179.997637
2559.014010,5515.887586,1110.308913,3256.906145
2559.014340,5592.497135,1554.432478,4145.153275
2559.014669,612.876398,222.061783,9104.533087
2559.014998,-1762.019645,-444.123565,7994.224174
2559.015327,-2911.162892,-6069.688724,12583.501014
2559.015656,-3217.601092,-2738.761985,10658.965565
2559.015985,-5056.230287,370.102971,9178.553681
2559.016314,-7354.516781,-2368.659014,14211.954086
2559.016643,-4903.011187,-2146.597232,12065.356855
2559.016972,-2528.115143,-1258.350101,14211.954086
2559.017301,-306.438199,296.082377,10732.986159
2559.017630,536.266849,3997.112087,4959.379811
2559.017959,0.000000,-1332.370696,9252.574275
2559.018289,4519.963438,2072.576638,9030.512492
2559.018618,4290.134789,4811.338623,1184.329507
2559.018947,6205.373534,1702.473667,7031.956449
2559.019276,3294.210641,-222.061783,3330.926739
2559.019605,4213.525239,1628.453072,7550.100608
2559.019934,-2068.457845,-370.102971,8364.327145
2559.020263,-1991.848295,-4071.132681,9400.615463
2559.020592,-2451.505594,-5403.503377,13545.768739
2559.020921,-3370.820191,2220.617826,7772.162391
2559.021250,-4060.306139,-1924.535449,12657.521608
2559.021579,-5975.544884,-2220.617826,13027.624579
2559.021909,-612.876398,-1258.350101,11843.295072
2559.022238,459.657299,666.185348,11325.150913
2559.022567,76.609550,2738.761985,6365.771101
2559.022896,536.266849,-0.000000,10362.883188
2559.023225,4826.401637,-592.164754,8660.409521
2559.023554,5362.668486,4293.194464,2516.700203
2559.023883,5439.278036,1332.370696,5773.606348
2559.024212,3524.039291,-1110.308913,4071.132681
2559.024541,3294.210641,296.082377,9030.512492
2559.024870,-536.266849,-0.000000,7698.141797
2559.025199,-2221.676944,-3552.988522,9548.656652
2559.025528,-2834.553343,-5107.421000,14434.015869
2559.025858,-2834.553343,1184.329507,8142.265362
2559.026187,-4136.915689,-1036.288319,13471.748144
2559.026516,-4903.011187,-444.123565,11917.315666
2559.026845,0.000000,-1110.308913,12361.439231
2559.027174,0.000000,592.164754,11917.315666
2559.027503,689.485948,2664.741391,7031.956449
2559.027832,0.000000,-74.020594,9252.574275
2559.028161,3217.601092,-1332.370696,11251.130318
2559.028490,4366.744339,4293.194464,2368.659014
2559.028819,6052.154434,1406.391290,6217.729913
2559.029148,4979.620737,-370.102971,4071.132681
2559.029477,4596.572988,888.247130,6809.894666
2559.029807,1302.362347,518.144159,7920.203579
2559.030136,-536.266849,-1628.453072,7031.956449
2559.030465,-1149.143247,-4885.359217,13027.624579
2559.030794,-1532.190996,-74.020594,10807.006753
2559.031123,-2987.772442,592.164754,10288.862594
2559.031452,-3600.648841,-962.267725,12287.418637
2559.031781,-612.876398,-962.267725,11029.068536
2559.032110,1072.533697,1036.288319,11843.295072
2559.032439,0.000000,2072.576638,8882.471304
2559.032768,0.000000,592.164754,8882.471304
2559.033097,2604.724693,-1406.391290,11769.274478
2559.033427,4060.306139,3330.926739,3849.070898
2559.033756,5132.839837,1850.514855,5921.647536
2559.034085,3677.258390,-888.247130,4959.379811
2559.034414,3677.258390,-148.041188,6883.915261
2559.034743,842.705048,-148.041188,8734.430116
2559.035072,-2145.067394,-1332.370696,8956.491898
2559.035401,-2298.286494,-4737.318029,12435.459826
2559.035730,-2221.676944,-1406.391290,11399.171507
2559.036059,-3600.648841,1554.432478,9178.553681
2559.036388,-4596.572988,-592.164754,12435.459826
2559.036717,-2987.772442,-1776.494261,11843.295072
2559.037046,0.000000,-444.123565,12805.562797
2559.037376,0.000000,1702.473667,9770.718434
2559.037705,0.000000,2072.576638,7031.956449
2559.038034,-229.828649,-2516.700203,11177.109724
2559.038363,2528.115143,1702.473667,7550.100608
2559.038692,4749.792088,2664.741391,4367.215058
2559.039021,3907.087040,-0.000000,5995.668130
2559.039350,2681.334243,-814.226536,4737.318029
2559.039679,2374.896044,518.144159,8956.491898
2559.040008,-1149.143247,-888.247130,7846.182985
2559.040337,-1302.362347,-2812.782580,9178.553681
2559.040666,-1915.238745,-2812.782580,12287.418637
2559.040995,-2451.505594,2146.597232,7846.182985
2559.041325,-3217.601092,-666.185348,12509.480420
2559.041654,-3447.429741,-1850.514855,11547.212695
2559.041983,76.609550,-962.267725,11251.130318
2559.042312,229.828649,814.226536,10362.883188
2559.042641,0.000000,2146.597232,7328.038826
2559.042970,0.000000,-814.226536,10288.862594
2559.043299,2834.553343,296.082377,8438.347739
2559.043628,4136.915689,3552.988522,4071.132681
2559.043957,4596.572988,-444.123565,5625.565159
2559.044286,2834.553343,-1702.473667,5255.462188
2559.044615,1608.800546,-222.061783,9326.594869
2559.044945,-842.705048,-888.247130,8512.368333
2559.045274,-2221.676944,-2886.803174,9252.574275
2559.045603,-1838.629195,-3627.009116,11695.253884
2559.045932,-2834.553343,1184.329507,7846.182985
2559.046261,-3447.429741,-666.185348,13545.768739
2559.046590,-4060.306139,-962.267725,11843.295072
2559.046919,-612.876398,-1258.350101,12731.542202
2559.047248,-153.219100,-0.000000,11695.253884
2559.047577,306.438199,1924.535449,6661.853478
2559.047906,-536.266849,-222.061783,9548.656652
2559.048236,2451.505594,-666.185348,11029.068536
2559.048565,4290.134789,3627.009116,4071.132681
2559.048894,5362.668486,1110.308913,7105.977043
2559.049223,3677.258390,-1110.308913,4589.276840
2559.049553,3217.601092,1036.288319,7328.038826
2559.049882,0.000000,-0.000000,8142.265362
2559.050211,-1532.190996,-1776.494261,8512.368333
2559.050540,-919.314598,-4885.359217,13693.809927
2559.050869,-1455.581446,370.102971,8586.388927
2559.051199,-2145.067394,-740.205942,11547.212695
2559.051528,-3753.867940,-1924.535449,12583.501014
2559.051857,-229.828649,-666.185348,11695.253884
2559.052186,383.047749,222.061783,12065.356855
2559.052516,1225.752797,2294.638420,7550.100608
2559.052845,766.095498,1184.329507,9400.615463
2559.053174,3370.820191,-518.144159,10732.986159
2559.053503,4826.401637,3627.009116,2590.720797
2559.053832,6205.373534,1628.453072,6883.915261
2559.054162,4903.011187,-0.000000,3552.988522
2559.054491,4596.572988,592.164754,7031.956449
2559.054820,536.266849,-444.123565,8290.306550
2559.055149,-919.314598,-1110.308913,7846.182985
2559.055478,-1915.238745,-5625.565159,14211.954086
2559.055808,-2374.896044,-518.144159,9030.512492
2559.056137,-3830.477490,370.102971,11103.089130
2559.056466,-4903.011187,-1702.473667,11991.336260
2559.056795,-1838.629195,-1036.288319,11695.253884
2559.057125,-306.438199,-592.164754,13249.686362
2559.057454,76.609550,1480.411884,8512.368333
2559.057783,76.609550,1184.329507,6957.935855
2559.058112,2298.286494,-2368.659014,13101.645173
2559.058441,3064.381992,2812.782580,4367.215058
2559.058771,5362.668486,2368.659014,6809.894666
2559.059100,4290.134789,-0.000000,4663.297435
2559.059429,3524.039291,-0.000000,5625.565159
2559.059758,842.705048,-592.164754,9696.697840
2559.060088,-1838.629195,-1406.391290,7328.038826
2559.060417,-1532.190996,-5921.647536,12657.521608
2559.060746,-3064.381992,-1702.473667,11177.109724
2559.061075,-2757.943793,740.205942,9770.718434
2559.061404,-4060.306139,-1628.453072,12435.459826
2559.061734,-2068.457845,-370.102971,11769.274478
2559.062063,76.609550,222.061783,12287.418637
2559.062392,-383.047749,2294.638420,9622.677246
2559.062721,919.314598,2812.782580,8142.265362
2559.063051,2298.286494,-1850.514855,12139.377449
2559.063380,3600.648841,2368.659014,4737.318029
2559.063709,6435.202183,3108.864956,5699.585753
2559.064038,4903.011187,-0.000000,4145.153275
2559.064367,3907.087040,296.082377,5773.606348
2559.064697,1608.800546,-296.082377,9696.697840
2559.065026,-995.924147,-1628.453072,8290.306550
2559.065355,-2451.505594,-5033.400406,11991.336260
2559.065684,-2221.676944,-2220.617826,10362.883188
2559.066014,-3983.696590,962.267725,9252.574275
2559.066343,-5132.839837,-1924.535449,14211.954086
2559.066672,-3907.087040,-518.144159,11547.212695
2559.067001,-153.219100,-962.267725,12879.583391
2559.067330,76.609550,666.185348,10140.821405
2559.067660,0.000000,2960.823768,6143.709319
2559.067989,459.657299,-1702.473667,12657.521608
2559.068318,3677.258390,1776.494261,6143.709319
2559.068647,6128.763984,3997.112087,5181.441594
2559.068976,4903.011187,444.123565,4589.276840
2559.069306,3447.429741,-296.082377,4663.297435
2559.069635,1685.410096,-222.061783,9696.697840
2559.069964,-1915.238745,-1110.308913,7254.018232
2559.070293,-1838.629195,-5181.441594,11769.274478
2559.070623,-2681.334243,-4071.132681,11843.295072
2559.070952,-3064.381992,1554.432478,9104.533087
2559.071281,-4596.572988,-2738.761985,13619.789333
2559.071610,-4596.572988,-1332.370696,11843.295072
2559.071939,-689.485948,-2072.576638,13027.624579
2559.072269,0.000000,740.205942,10510.924376
2559.072598,1302.362347,3404.947333,6143.709319
2559.072927,842.705048,-888.247130,11251.130318
2559.073256,4060.306139,1258.350101,7105.977043
2559.073586,6281.983084,4737.318029,3478.967927
2559.073915,6588.421283,1480.411884,4219.173869
2559.074244,4290.134789,-444.123565,3701.029710
2559.074573,2911.162892,-296.082377,9178.553681
2559.074902,-1455.581446,-592.164754,7624.121203
2559.075232,-2221.676944,-4367.215058,10066.800811
2559.075561,-2298.286494,-4737.318029,12731.542202
2559.075890,-3447.429741,1702.473667,7402.059420
2559.076219,-4366.744339,-2368.659014,14211.954086
2559.076549,-5132.839837,-1628.453072,12065.356855
2559.076878,0.000000,-1850.514855,12879.583391
2559.077207,0.000000,592.164754,11251.130318
2559.077536,1302.362347,2960.823768,6513.812290
2559.077865,0.000000,-814.226536,10510.924376
2559.078195,3830.477490,-0.000000,9400.615463
2559.078524,6052.154434,5181.441594,2664.741391
2559.078853,6741.640382,1110.308913,5625.565159
2559.079182,4213.525239,-0.000000,3108.864956
2559.079512,4136.915689,148.041188,8512.368333
2559.079841,0.000000,-74.020594,8216.285956
2559.080170,-1991.848295,-3256.906145,8290.306550
2559.080499,-2068.457845,-6143.709319,14952.160028
2559.080828,-2987.772442,1184.329507,8364.327145
2559.081158,-3447.429741,-1776.494261,13397.727550
2559.081487,-4903.011187,-1184.329507,12065.356855
2559.081816,-229.828649,-1554.432478,11917.315666
2559.082145,0.000000,666.185348,12509.480420
2559.082475,919.314598,3404.947333,7328.038826
2559.082804,0.000000,888.247130,9178.553681
2559.083133,4060.306139,-1258.350101,12213.398043
2559.083462,4596.572988,4589.276840,1776.494261
2559.083791,6588.421283,1406.391290,6439.791695
2559.084121,4213.525239,-0.000000,3627.009116
2559.084450,4366.744339,888.247130,6513.812290
2559.084779,383.047749,-296.082377,8290.306550
2559.085108,-2221.676944,-1406.391290,7994.224174
2559.085437,-1455.581446,-5921.647536,14434.015869
2559.085767,-2681.334243,518.144159,7772.162391
2559.086096,-3447.429741,296.082377,11325.150913
2559.086425,-5056.230287,-1110.308913,12361.439231
2559.086754,-1532.190996,-370.102971,11399.171507
2559.087084,-766.095498,-222.061783,13027.624579
2559.087413,0.000000,1850.514855,8512.368333
2559.087742,0.000000,1628.453072,6809.894666
2559.088071,-306.438199,-1924.535449,10362.883188
2559.088400,2374.896044,962.267725,8512.368333
2559.088730,2834.553343,2294.638420,4885.359217
2559.089059,5515.887586,-814.226536,7772.162391
2559.089388,2528.115143,-1480.411884,4145.153275
2559.089717,2221.676944,1628.453072,8734.430116
2559.090047,-383.047749,-1480.411884,8142.265362
2559.090376,-2604.724693,-3330.926739,8512.368333
2559.090705,-612.876398,-2146.597232,13175.665768
2559.091034,-1991.848295,2294.638420,8586.388927
2559.091363,-2604.724693,-518.144159,10807.006753
2559.091693,-2987.772442,-1332.370696,12435.459826
2559.092022,536.266849,-148.041188,10214.842000
2559.092351,536.266849,888.247130,10584.944971
2559.092680,0.000000,1406.391290,7698.141797
2559.093010,0.000000,296.082377,10140.821405
2559.093339,1838.629195,-1480.411884,10510.924376
2559.093668,2681.334243,2294.638420,4367.215058
2559.093997,3294.210641,-740.205942,7179.997637
2559.094326,2451.505594,-1924.535449,5847.626942
2559.094656,2834.553343,592.164754,7624.121203
2559.094985,0.000000,-592.164754,8956.491898
2559.095314,-1915.238745,-1998.556043,8734.430116
2559.095643,-766.095498,-3182.885551,12361.439231
2559.095973,-1608.800546,1258.350101,9104.533087
2559.096302,-2221.676944,962.267725,10362.883188
2559.096631,-2221.676944,-962.267725,11325.150913
2559.096960,306.438199,222.061783,10584.944971
2559.097289,459.657299,592.164754,11621.233289
2559.097619,0.000000,1480.411884,8068.244768
2559.097948,0.000000,-444.123565,9178.553681
2559.098277,1378.971896,-1332.370696,9770.718434
2559.098606,2987.772442,2146.597232,5255.462188
2559.098936,3370.820191,518.144159,7031.956449
2559.099265,2298.286494,-444.123565,6365.771101
2559.099594,1915.238745,-0.000000,8290.306550
2559.099923,229.828649,-0.000000,8068.244768
2559.100252,-1378.971896,-1406.391290,8216.285956
2559.100582,-1378.971896,-3701.029710,12065.356855
2559.100911,-1378.971896,-0.000000,10732.986159
2559.101240,-1685.410096,888.247130,10510.924376
2559.101569,-1532.190996,-1036.288319,11103.089130
2559.101898,229.828649,-666.185348,10881.027347
2559.102228,689.485948,888.247130,10732.986159
2559.102557,0.000000,1332.370696,9252.574275
2559.102886,1225.752797,-1554.432478,10807.006753
2559.103215,2834.553343,-518.144159,6883.915261
2559.103545,5515.887586,2886.803174,5329.482782
2559.103874,4596.572988,1110.308913,4737.318029
2559.104203,3600.648841,-0.000000,6587.832884
2559.104532,2374.896044,-444.123565,8438.347739
2559.104861,612.876398,-74.020594,7920.203579
2559.105191,-1302.362347,-1850.514855,9770.718434
2559.105520,-2221.676944,-3997.112087,12361.439231
2559.105849,-2528.115143,-370.102971,9548.656652
2559.106178,-2451.505594,666.185348,11547.212695
2559.106508,-2604.724693,-592.164754,10807.006753
2559.106837,-1225.752797,-222.061783,11325.150913
2559.107166,76.609550,370.102971,12287.418637
2559.107495,306.438199,2294.638420,8438.347739
2559.107824,-153.219100,-814.226536,9400.615463
2559.108154,1838.629195,-1554.432478,11917.315666
2559.108483,3140.991542,3108.864956,3997.112087
2559.108812,5898.935335,2294.638420,7105.977043
2559.109141,4060.306139,518.144159,4071.132681
2559.109471,3677.258390,962.267725,6957.935855
2559.109800,919.314598,-592.164754,9252.574275
2559.110129,-459.657299,-666.185348,7698.141797
2559.110458,-1838.629195,-3997.112087,12287.418637
2559.110787,-2221.676944,-962.267725,10881.027347
2559.111117,-3217.601092,1184.329507,9474.636058
2559.111446,-4290.134789,-1480.411884,12657.521608
2559.111775,-2068.457845,-1628.453072,11621.233289
2559.112104,-459.657299,-740.205942,11695.253884
2559.112434,919.314598,1036.288319,9696.697840
2559.112763,-306.438199,888.247130,6661.853478
2559.113092,459.657299,-2886.803174,12213.398043
2559.113421,2604.724693,1258.350101,6587.832884
2559.113750,4213.525239,2812.782580,4811.338623
2559.114080,4060.306139,-592.164754,5773.606348
2559.114409,2987.772442,-444.123565,4885.359217
2559.114738,2068.457845,74.020594,9400.615463
2559.115067,-1149.143247,-444.123565,7920.203579
2559.115397,-1991.848295,-3034.844362,10066.800811
2559.115726,-1685.410096,-2072.576638,11843.295072
2559.116055,-2757.943793,2146.597232,7402.059420
2559.116384,-3677.258390,-888.247130,13249.686362
2559.116713,-3217.601092,-1628.453072,10881.027347
2559.117043,0.000000,-1110.308913,11917.315666
2559.117372,-153.219100,222.061783,10362.883188
2559.117701,0.000000,1554.432478,6513.812290
2559.118030,-919.314598,-1110.308913,9474.636058
2559.118359,1685.410096,-666.185348,10732.986159
2559.118689,2757.943793,2590.720797,4885.359217
2559.119018,4290.134789,-0.000000,7105.977043
2559.119347,2451.505594,-296.082377,5033.400406
2559.119676,2451.505594,1332.370696,7254.018232
2559.120006,0.000000,222.061783,8068.244768
2559.120335,-1838.629195,-1480.411884,8734.430116
2559.120664,-1608.800546,-3034.844362,12509.480420
2559.120993,-2221.676944,666.185348,10140.821405
2559.121322,-1608.800546,-296.082377,10362.883188
2559.121652,-2604.724693,-888.247130,12213.398043
2559.121981,-612.876398,-518.144159,11029.068536
2559.122310,306.438199,1332.370696,10807.006753
2559.122639,-229.828649,1184.329507,8512.368333
2559.122969,1685.410096,-1110.308913,11251.130318
2559.123298,2528.115143,-296.082377,7846.182985
2559.123627,5286.058936,2886.803174,5847.626942
2559.123956,3524.039291,296.082377,4959.379811
2559.124285,3294.210641,-296.082377,6735.874072
2559.124615,2145.067394,-0.000000,9104.533087
2559.124944,-459.657299,-0.000000,8364.327145
2559.125273,-1608.800546,-2442.679609,9992.780217
2559.125602,-2451.505594,-3478.967927,12805.562797
2559.125932,-2681.334243,-74.020594,9696.697840
2559.126261,-2681.334243,-740.205942,12139.377449
2559.126590,-2451.505594,-1184.329507,11177.109724
2559.126919,-229.828649,-518.144159,11695.253884
2559.127248,459.657299,888.247130,11325.150913
2559.127578,-229.828649,2146.597232,7254.018232
2559.127907,2451.505594,-2368.659014,13767.830521
2559.128236,3753.867940,444.123565,5255.462188
2559.128565,7660.954980,4071.132681,5255.462188
2559.128895,6128.763984,1332.370696,4515.256246
2559.129224,5439.278036,1850.514855,4959.379811
2559.129553,2757.943793,-0.000000,8808.450710
2559.129882,229.828649,296.082377,6957.935855
2559.130211,-1378.971896,-2738.761985,9474.636058
2559.130541,-2834.553343,-4663.297435,13397.727550
2559.130870,-3294.210641,-1184.329507,8882.471304
2559.131199,-4366.744339,-0.000000,12731.542202
2559.131528,-3830.477490,-2072.576638,11621.233289
2559.131857,-2068.457845,-1184.329507,11695.253884
2559.132187,0.000000,-0.000000,12657.521608
2559.132516,383.047749,2368.659014,6735.874072
2559.132845,1225.752797,-2442.679609,10140.821405
2559.133174,3524.039291,-0.000000,8882.471304
2559.133504,6052.154434,4663.297435,2960.823768
2559.133833,6741.640382,2590.720797,6069.688724
2559.134162,4519.963438,1184.329507,3256.906145
2559.134491,4673.182538,592.164754,7772.162391
2559.134820,-536.266849,962.267725,7846.182985
2559.135150,-1149.143247,-2072.576638,8438.347739
2559.135479,-4060.306139,-5921.647536,14730.098246
2559.135808,-4060.306139,-444.123565,9474.636058
2559.136137,-5132.839837,-666.185348,12287.418637
2559.136467,-6894.859482,-3034.844362,13323.706956
2559.136796,-3677.258390,-2590.720797,12065.356855
2559.137125,-1149.143247,-1036.288319,13545.768739
2559.137454,153.219100,1184.329507,7994.224174
2559.137783,0.000000,370.102971,7254.018232
2559.138113,4213.525239,-1702.473667,14211.954086
2559.138442,3830.477490,5403.503377,148.041188
2559.138771,7967.393179,2664.741391,7550.100608
2559.139100,4979.620737,1480.411884,3330.926739
2559.139430,5822.325785,1258.350101,5255.462188
2559.139759,766.095498,666.185348,9622.677246
2559.140088,-1915.238745,-814.226536,7254.018232
2559.140417,-3064.381992,-5625.565159,13841.851115
2559.140746,-3217.601092,-1628.453072,11547.212695
2559.141076,-5132.839837,592.164754,9178.553681
2559.141405,-6511.811733,-3034.844362,14063.912898
2559.141734,-3983.696590,-2146.597232,11695.253884
2559.142063,-612.876398,-814.226536,12509.480420
2559.142393,0.000000,962.267725,9178.553681
2559.142722,-229.828649,2368.659014,5329.482782
2559.143051,2757.943793,-3034.844362,14359.995275
2559.143380,3294.210641,3182.885551,3182.885551
2559.143709,7201.297681,3108.864956,6217.729913
2559.144039,5745.716235,888.247130,3849.070898
2559.144368,5132.839837,518.144159,5181.441594
2559.144697,2068.457845,666.185348,9622.677246
2559.145026,-1838.629195,-518.144159,7328.038826
2559.145356,-2298.286494,-4663.297435,11621.233289
2559.145685,-2374.896044,-3108.864956,12879.583391
2559.146014,-3677.258390,1850.514855,7550.100608
2559.146343,-4213.525239,-2442.679609,13915.871710
2559.146672,-3677.258390,-1776.494261,11251.130318
2559.147002,-689.485948,-814.226536,12361.439231
2559.147331,-229.828649,296.082377,11399.171507
2559.147660,0.000000,2590.720797,6365.771101
2559.147990,-153.219100,-1776.494261,10362.883188
2559.148319,2298.286494,-370.102971,10658.965565
2559.148648,3600.648841,3330.926739,4071.132681
2559.148978,6128.763984,-0.000000,8290.306550
2559.149307,4443.353888,-518.144159,4145.153275
2559.149636,4519.963438,2294.638420,7179.997637
2559.149966,1149.143247,1110.308913,7105.977043
2559.150295,-919.314598,-1406.391290,8290.306550
2559.150624,-1149.143247,-3923.091493,12731.542202
2559.150953,-1762.019645,1110.308913,10510.924376
2559.151283,-2681.334243,-592.164754,9770.718434
2559.151612,-2911.162892,-2072.576638,12287.418637
2559.151941,-383.047749,-1036.288319,11029.068536
2559.152271,153.219100,666.185348,11473.192101
2559.152600,0.000000,2146.597232,8734.430116
2559.152929,0.000000,-222.061783,9178.553681
2559.153259,2374.896044,-1110.308913,10362.883188
2559.153588,4366.744339,2886.803174,4737.318029
2559.153917,3983.696590,518.144159,6587.832884
2559.154247,3064.381992,-1184.329507,5847.626942
2559.154576,3830.477490,74.020594,7254.018232
2559.154905,1072.533697,-222.061783,7550.100608
2559.155235,-153.219100,-1184.329507,7994.224174
2559.155564,-1762.019645,-2886.803174,11103.089130
2559.155893,-1685.410096,-740.205942,11621.233289
2559.156222,-2834.553343,1258.350101,10066.800811
2559.156552,-1455.581446,-444.123565,11917.315666
2559.156881,-612.876398,-1036.288319,10732.986159
2559.157210,153.219100,1036.288319,10510.924376
2559.157540,-459.657299,1110.308913,9622.677246
2559.157869,76.609550,-1110.308913,10362.883188
2559.158198,1991.848295,-814.226536,6883.915261
2559.158528,5132.839837,1924.535449,6217.729913
2559.158857,4136.915689,296.082377,4663.297435
2559.159186,3217.601092,-222.061783,6883.915261
2559.159516,1838.629195,-888.247130,8734.430116
2559.159845,536.266849,-518.144159,7624.121203
2559.160174,-1225.752797,-2294.638420,9104.533087
2559.160503,-2681.334243,-3034.844362,11251.130318
2559.160833,-2681.334243,-1406.391290,10732.986159
2559.161162,-2987.772442,-0.000000,11399.171507
2559.161491,-2221.676944,-148.041188,11103.089130
2559.161821,-1302.362347,-222.061783,10658.965565
2559.162150,0.000000,1036.288319,11399.171507
2559.162479,-383.047749,2220.617826,7402.059420
2559.162809,-306.438199,-444.123565,9178.553681
2559.163138,1225.752797,-1554.432478,10955.047942
2559.163467,3294.210641,1776.494261,4737.318029
2559.163797,5132.839837,962.267725,6439.791695
2559.164126,3447.429741,-148.041188,4219.173869
2559.164455,3524.039291,-518.144159,6365.771101
2559.164784,536.266849,-148.041188,8734.430116
2559.165114,-689.485948,-1036.288319,7846.182985
2559.165443,-1532.190996,-2960.823768,11621.233289
2559.165772,-1838.629195,-740.205942,11251.130318
2559.166102,-2604.724693,1924.535449,8882.471304
2559.166431,-3294.210641,-444.123565,12731.542202
2559.166760,-2528.115143,-888.247130,11547.212695
2559.167090,-536.266849,-0.000000,12287.418637
2559.167419,-306.438199,1110.308913,10362.883188
2559.167748,-536.266849,962.267725,7698.141797
2559.168078,0.000000,-2220.617826,11029.068536
2559.168407,1762.019645,222.061783,8882.471304
2559.168736,3447.429741,2368.659014,4367.215058
2559.169065,4290.134789,-222.061783,7105.977043
2559.169395,3600.648841,-222.061783,4515.256246
2559.169724,2604.724693,1406.391290,9104.533087
2559.170053,-1378.971896,-814.226536,8512.368333
2559.170383,-1302.362347,-1850.514855,9696.697840
2559.170712,-1608.800546,-2368.659014,12953.603985
2559.171041,-1685.410096,1184.329507,9918.759623
2559.171371,-2528.115143,444.123565,11029.068536
2559.171700,-2681.334243,-1998.556043,12953.603985
2559.172029,-536.266849,-296.082377,10955.047942
2559.172359,383.047749,592.164754,11399.171507
2559.172688,-919.314598,1110.308913,7476.080014
2559.173017,306.438199,-1184.329507,10140.821405
2559.173347,1915.238745,-740.205942,9696.697840
2559.173676,3217.601092,2738.761985,3849.070898
2559.174005,4596.572988,-0.000000,6513.812290
2559.174334,3600.648841,-1036.288319,4959.379811
2559.174664,3064.381992,962.267725,6883.915261
2559.174993,995.924147,-0.000000,8290.306550
2559.175322,-842.705048,-1628.453072,8438.347739
2559.175652,-1685.410096,-2516.700203,12065.356855
2559.175981,-1532.190996,-0.000000,9696.697840
2559.176310,-2451.505594,962.267725,10510.924376
2559.176640,-2834.553343,-1776.494261,11695.253884
2559.176969,-536.266849,-888.247130,11177.109724
2559.177298,76.609550,444.123565,11473.192101
2559.177628,-689.485948,1628.453072,8290.306550
2559.177957,383.047749,-962.267725,9918.759623
2559.178286,2451.505594,-1110.308913,8882.471304
2559.178615,4366.744339,2812.782580,3701.029710
2559.178945,4826.401637,74.020594,6809.894666
2559.179274,3370.820191,-148.041188,4959.379811
2559.179603,3140.991542,296.082377,7994.224174
2559.179933,153.219100,-148.041188,7624.121203
2559.180262,-1149.143247,-1702.473667,8512.368333
2559.180591,-2451.505594,-3256.906145,12509.480420
2559.180921,-2374.896044,-962.267725,11251.130318
2559.181250,-2987.772442,-0.000000,10881.027347
2559.181579,-2451.505594,-1406.391290,12139.377449
2559.181909,-919.314598,-592.164754,10807.006753
2559.182238,612.876398,1036.288319,10881.027347
2559.182567,-536.266849,2368.659014,8734.430116
2559.182896,1302.362347,-1184.329507,11547.212695
2559.183226,3217.601092,-0.000000,6513.812290
2559.183555,6358.592633,3256.906145,5181.441594
2559.183884,4903.011187,888.247130,4515.256246
2559.184214,3983.696590,-444.123565,6291.750507
2559.184543,2451.505594,-888.247130,8586.388927
2559.184872,-612.876398,-518.144159,8068.244768
2559.185202,-1991.848295,-2738.761985,10807.006753
2559.185531,-2757.943793,-3108.864956,13027.624579
2559.185860,-3524.039291,-740.205942,8290.306550
2559.186190,-3294.210641,-148.041188,13841.851115
2559.186519,-3753.867940,-814.226536,10881.027347
2559.186848,-995.924147,-1258.350101,11769.274478
2559.187177,-306.438199,814.226536,11621.233289
2559.187507,-229.828649,3034.844362,6439.791695
2559.187836,0.000000,-2220.617826,10732.986159
2559.188165,3907.087040,-74.020594,8660.409521
2559.188495,5439.278036,3256.906145,2146.597232
2559.188824,6435.202183,1258.350101,6809.894666
2559.189153,4060.306139,518.144159,2960.823768
2559.189483,4366.744339,-0.000000,8882.471304
2559.189812,-229.828649,370.102971,7920.203579
2559.190141,-1608.800546,-1924.535449,8142.265362
2559.190471,-2757.943793,-5847.626942,14508.036463
2559.190800,-2834.553343,222.061783,9474.636058
2559.191129,-3217.601092,-74.020594,11991.336260
2559.191459,-4979.620737,-1850.514855,12805.562797
2559.191788,-2374.896044,-1702.473667,11843.295072
2559.192117,-689.485948,222.061783,12509.480420
2559.192446,-306.438199,2886.803174,6809.894666
2559.192776,-153.219100,-444.123565,8586.388927
2559.193105,3140.991542,-1628.453072,12287.418637
2559.193434,3830.477490,5181.441594,1110.308913
2559.193764,6281.983084,1480.411884,7920.203579
2559.194093,3600.648841,740.205942,3775.050304
2559.194422,4443.353888,518.144159,6661.853478
2559.194752,76.609550,222.061783,8660.409521
2559.195081,-2145.067394,-1036.288319,7846.182985
2559.195410,-2374.896044,-5699.585753,14063.912898
2559.195740,-3140.991542,-370.102971,9696.697840
2559.196069,-4443.353888,518.144159,10732.986159
2559.196398,-5592.497135,-2072.576638,13323.706956
2559.196727,-2911.162892,-1924.535449,11251.130318
2559.197057,-1072.533697,-666.185348,12879.583391
2559.197386,229.828649,1776.494261,7550.100608
2559.197715,0.000000,962.267725,6883.915261
2559.198045,2757.943793,-3775.050304,14211.954086
2559.198374,4290.134789,4071.132681,1332.370696
2559.198703,7584.345430,3034.844362,6291.750507
2559.199033,5286.058936,518.144159,3034.844362
2559.199362,5898.935335,1554.432478,5625.565159
2559.199691,1991.848295,296.082377,9696.697840
2559.200021,-1149.143247,-518.144159,7846.182985
2559.200350,-2068.457845,-5773.606348,13027.624579
2559.200679,-2298.286494,-2368.659014,12805.562797
2559.201008,-3677.258390,1850.514855,8734.430116
2559.201338,-4596.572988,-2368.659014,14359.995275
2559.201667,-3217.601092,-1776.494261,11547.212695
2559.201996,229.828649,-814.226536,12509.480420
2559.202326,689.485948,1406.391290,8660.409521
2559.202655,-689.485948,1110.308913,6809.894666
2559.202984,1685.410096,-4293.194464,13323.706956
2559.203314,3753.867940,3330.926739,4367.215058
2559.203643,6741.640382,3330.926739,5995.668130
2559.203972,4903.011187,-0.000000,3849.070898
2559.204302,5209.449386,222.061783,5847.626942
2559.204631,2987.772442,666.185348,9178.553681
2559.204960,0.000000,296.082377,7772.162391
2559.205289,-1608.800546,-4219.173869,11843.295072
2559.205619,-2298.286494,-3478.967927,12583.501014
2559.205948,-3294.210641,1480.411884,9030.512492
2559.206277,-3753.867940,-1036.288319,13249.686362
2559.206607,-2451.505594,-1332.370696,10881.027347
2559.206936,-383.047749,-814.226536,12287.418637
2559.207265,229.828649,1332.370696,10362.883188
2559.207595,-459.657299,1924.535449,6809.894666
2559.207924,0.000000,-3404.947333,12065.356855
2559.208253,3140.991542,962.267725,7031.956449
2559.208583,5439.278036,4145.153275,3997.112087
2559.208912,5822.325785,592.164754,5921.647536
2559.209241,4903.011187,148.041188,4663.297435
2559.209571,5056.230287,1258.350101,9400.615463
2559.209900,1378.971896,1184.329507,6069.688724
2559.210229,-612.876398,-2072.576638,8734.430116
2559.210558,-2451.505594,-3923.091493,13175.665768
2559.210888,-2221.676944,518.144159,10510.924376
2559.211217,-2987.772442,-74.020594,11103.089130
2559.211546,-3447.429741,-2220.617826,11399.171507
2559.211876,-1149.143247,-2146.597232,11695.253884
2559.212205,153.219100,1554.432478,11917.315666
2559.212534,-995.924147,2516.700203,7920.203579
2559.212864,-689.485948,-1406.391290,9770.718434
2559.213193,919.314598,-1776.494261,10955.047942
2559.213522,2834.553343,2960.823768,5181.441594
2559.213852,4290.134789,-0.000000,6439.791695
2559.214181,3217.601092,-1628.453072,5995.668130
2559.214510,2221.676944,1258.350101,6957.935855
2559.214839,1608.800546,296.082377,9104.533087
2559.215169,-1685.410096,-1258.350101,8364.327145
2559.215498,-1838.629195,-2516.700203,11695.253884
2559.215827,-2221.676944,-1702.473667,10955.047942
2559.216157,-2528.115143,1776.494261,9178.553681
2559.216486,-3830.477490,-1332.370696,11917.315666
2559.216815,-2374.896044,-740.205942,12287.418637
2559.217145,0.000000,-0.000000,12213.398043
2559.217474,-153.219100,2072.576638,7994.224174
2559.217803,-612.876398,518.144159,7402.059420
2559.218133,-383.047749,-2590.720797,10807.006753
2559.218462,2604.724693,888.247130,7105.977043
2559.218791,3907.087040,2442.679609,5107.421000
2559.219120,3140.991542,-1184.329507,6069.688724
2559.219450,2911.162892,-0.000000,5329.482782
2559.219779,2145.067394,518.144159,8586.388927
2559.220108,-536.266849,-0.000000,7105.977043
2559.220438,-1532.190996,-2294.638420,10066.800811
2559.220767,-1378.971896,-2368.659014,12953.603985
2559.221096,-2221.676944,888.247130,9770.718434
2559.221426,-2145.067394,-222.061783,12065.356855
2559.221755,-2221.676944,-1480.411884,11177.109724
2559.222084,0.000000,-518.144159,10732.986159
2559.222414,-383.047749,1702.473667,9548.656652
2559.222743,-612.876398,296.082377,8216.285956
2559.223072,1072.533697,-2812.782580,10436.903782
2559.223401,3140.991542,296.082377,6809.894666
2559.223731,4443.353888,2294.638420,5033.400406
2559.224060,3447.429741,-518.144159,5773.606348
2559.224389,2834.553343,-74.020594,6143.709319
2559.224719,1991.848295,222.061783,8512.368333
2559.225048,0.000000,-148.041188,8142.265362
2559.225377,-1455.581446,-2960.823768,10214.842000
2559.225707,-2068.457845,-3552.988522,12879.583391
2559.226036,-2221.676944,-148.041188,9844.739029
2559.226365,-2451.505594,-0.000000,11991.336260
2559.226695,-2145.067394,-1628.453072,11177.109724
2559.227024,0.000000,-666.185348,11621.233289
2559.227353,229.828649,1480.411884,10362.883188
2559.227683,-459.657299,518.144159,8882.471304
2559.228012,1072.533697,-2368.659014,11547.212695
2559.228341,3983.696590,1554.432478,5551.544565
2559.228670,7431.126331,3701.029710,5329.482782
2559.229000,5132.839837,1036.288319,4441.235652
2559.229329,5132.839837,1110.308913,5995.668130
2559.229658,2528.115143,1036.288319,8290.306550
2559.229988,766.095498,740.205942,7772.162391
2559.230317,-919.314598,-2294.638420,10288.862594
2559.230646,-2911.162892,-3182.885551,13101.645173
2559.230976,-2221.676944,-518.144159,10732.986159
2559.231305,-2681.334243,-0.000000,11399.171507
2559.231634,-2298.286494,-1628.453072,11695.253884
2559.231964,-1685.410096,-592.164754,11177.109724
2559.232293,459.657299,740.205942,11769.274478
2559.232622,-1225.752797,1258.350101,6883.915261
2559.232951,153.219100,-2072.576638,10362.883188
2559.233281,2757.943793,-1406.391290,9696.697840
2559.233610,3830.477490,3627.009116,2664.741391
2559.233939,5592.497135,962.267725,7772.162391
2559.234269,3294.210641,444.123565,4589.276840
2559.234598,4673.182538,1332.370696,7179.997637
2559.234927,612.876398,740.205942,8068.244768
2559.235257,-536.266849,-666.185348,7846.182985
2559.235586,-2068.457845,-3923.091493,13027.624579
2559.235915,-2757.943793,-370.102971,10881.027347
2559.236245,-3140.991542,518.144159,10140.821405
2559.236574,-3983.696590,-1850.514855,11843.295072
2559.236903,-1915.238745,-1998.556043,11325.150913
2559.237232,-842.705048,-0.000000,11621.233289
2559.237562,0.000000,1332.370696,8882.471304
2559.237891,-842.705048,-222.061783,7254.018232
2559.238220,383.047749,-3108.864956,11325.150913
2559.238550,2298.286494,1702.473667,5773.606348
2559.238879,3294.210641,2146.597232,5477.523971
2559.239208,3370.820191,-518.144159,6069.688724
2559.239538,2681.334243,370.102971,5625.565159
2559.239867,2451.505594,962.267725,9474.636058
2559.240196,-919.314598,-0.000000,8364.327145
2559.240526,-1915.238745,-2368.659014,10510.924376
2559.240855,-2145.067394,-1776.494261,12731.542202
2559.241184,-2528.115143,1184.329507,9326.594869
2559.241513,-2451.505594,-518.144159,11695.253884
2559.241843,-2298.286494,-1702.473667,10881.027347
2559.242172,306.438199,-666.185348,10066.800811
2559.242501,-306.438199,2664.741391,9030.512492
2559.242831,-306.438199,-296.082377,9104.533087
2559.243160,1915.238745,-1850.514855,8438.347739
2559.243489,3983.696590,2368.659014,5255.462188
2559.243819,4060.306139,3034.844362,5107.421000
2559.244148,2681.334243,-296.082377,6217.729913
2559.244477,2451.505594,-592.164754,8512.368333
2559.244807,229.828649,-444.123565,8364.327145
2559.245136,-1302.362347,-962.267725,9474.636058
2559.245465,-3370.820191,-3775.050304,12435.459826
2559.245795,-3140.991542,-2590.720797,11547.212695
2559.246124,-2757.943793,222.061783,11177.109724
2559.246453,-3140.991542,-0.000000,11325.150913
2559.246782,-1378.971896,-1702.473667,10881.027347
2559.247112,-766.095498,-370.102971,11769.274478
2559.247441,0.000000,1776.494261,8734.430116
2559.247770,383.047749,-1406.391290,9992.780217
2559.248100,2987.772442,-1776.494261,7994.224174
2559.248429,5515.887586,3404.947333,4145.153275
2559.248754,5515.887586,2812.782580,4811.338623
2559.249083,4060.306139,962.267725,4885.359217
2559.249412,3294.210641,-0.000000,8290.306550
2559.249742,306.438199,222.061783,8734.430116
2559.250071,-842.705048,-814.226536,8882.471304
2559.250400,-3217.601092,-3997.112087,13027.624579
2559.250729,-2911.162892,-2442.679609,11251.130318
2559.251058,-3600.648841,-0.000000,11399.171507
2559.251387,-3294.210641,-1258.350101,12583.501014
2559.251717,-2681.334243,-1850.514855,10881.027347
2559.252046,0.000000,-222.061783,12657.521608
2559.252375,383.047749,2146.597232,7254.018232
2559.252704,229.828649,-296.082377,7994.224174
2559.253033,3524.039291,-1924.535449,10362.883188
2559.253362,4979.620737,4737.318029,1184.329507
2559.253692,7201.297681,2368.659014,6809.894666
2559.254021,4366.744339,1406.391290,3923.091493
2559.254350,5439.278036,518.144159,7476.080014
2559.254679,1455.581446,-0.000000,8068.244768
2559.255008,-229.828649,-0.000000,7179.997637
2559.255337,-2911.162892,-4663.297435,13027.624579
2559.255667,-3217.601092,-2590.720797,13027.624579
2559.255996,-4213.525239,148.041188,9696.697840
2559.256325,-4673.182538,-1258.350101,13471.748144
2559.256654,-3064.381992,-2442.679609,10881.027347
2559.256983,-689.485948,-370.102971,11843.295072
2559.257312,-306.438199,2146.597232,9474.636058
2559.257641,-689.485948,740.205942,7328.038826
2559.257971,2987.772442,-3404.947333,12657.521608
2559.258300,4290.134789,4145.153275,3478.967927
2559.258629,6741.640382,2516.700203,6143.709319
2559.258958,4673.182538,666.185348,4663.297435
2559.259287,4903.011187,1036.288319,5551.544565
2559.259616,2068.457845,666.185348,8734.430116
2559.259946,-306.438199,444.123565,8290.306550
2559.260275,-2145.067394,-3478.967927,11769.274478
2559.260604,-2911.162892,-3775.050304,14063.912898
2559.260933,-3447.429741,222.061783,9992.780217
2559.261262,-4213.525239,-592.164754,12361.439231
2559.261591,-3294.210641,-2590.720797,11843.295072
2559.261921,-1455.581446,-666.185348,11547.212695
2559.262250,-229.828649,1406.391290,10288.862594
2559.262579,-919.314598,1110.308913,6735.874072
2559.262908,612.876398,-3478.967927,9622.677246
2559.263237,3524.039291,962.267725,7772.162391
2559.263566,4673.182538,3552.988522,2960.823768
2559.263895,5362.668486,518.144159,6365.771101
2559.264225,3907.087040,370.102971,4959.379811
2559.264554,4519.963438,1110.308913,8142.265362
2559.264883,536.266849,740.205942,7698.141797
2559.265212,-1762.019645,-1332.370696,9252.574275
2559.265541,-2834.553343,-4219.173869,13841.851115
2559.265870,-2145.067394,444.123565,11473.192101
2559.266200,-3907.087040,1258.350101,9696.697840
2559.266529,-3600.648841,-1628.453072,12361.439231
2559.266858,-1838.629195,-1554.432478,9992.780217
2559.267187,153.219100,666.185348,11029.068536
2559.267516,-1149.143247,814.226536,7105.977043
2559.267845,-1225.752797,-1036.288319,8142.265362
2559.268175,0.000000,-2368.659014,11991.336260
2559.268504,1838.629195,1850.514855,5921.647536
2559.268833,3447.429741,740.205942,6513.812290
2559.269162,3447.429741,-666.185348,6365.771101
2559.269491,3600.648841,814.226536,5773.606348
2559.269820,2528.115143,814.226536,9474.636058
2559.270149,-383.047749,296.082377,7698.141797
2559.270479,-995.924147,-1998.556043,10658.965565
2559.270808,-2681.334243,-2146.597232,13249.686362
2559.271137,-2757.943793,962.267725,10362.883188
2559.271466,-2451.505594,-1628.453072,11473.192101
2559.271795,-1991.848295,-1924.535449,11177.109724
2559.272124,-536.266849,-592.164754,10214.842000
2559.272454,-536.266849,1406.391290,9622.677246
2559.272783,76.609550,-0.000000,8438.347739
2559.273112,1838.629195,-1332.370696,10510.924376
2559.273441,2757.943793,1036.288319,6291.750507
2559.273770,4366.744339,1628.453072,5625.565159
2559.274099,2757.943793,-0.000000,6069.688724
2559.274429,3600.648841,-148.041188,7328.038826
2559.274758,1838.629195,148.041188,7105.977043
2559.275087,306.438199,370.102971,9326.594869
2559.275416,-1915.238745,-1776.494261,10807.006753
2559.275745,-2374.896044,-1184.329507,12213.398043
2559.276074,-2604.724693,-444.123565,11547.212695
2559.276404,-2451.505594,518.144159,10510.924376
2559.276733,-1455.581446,-888.247130,10510.924376
2559.277062,0.000000,-1406.391290,11177.109724
2559.277391,-459.657299,1480.411884,9474.636058
2559.277720,306.438199,-888.247130,10066.800811
2559.278049,2145.067394,-1776.494261,7624.121203
2559.278378,4903.011187,1924.535449,5329.482782
2559.278708,4826.401637,2664.741391,5255.462188
2559.279037,3753.867940,962.267725,5847.626942
2559.279366,3753.867940,148.041188,8216.285956
2559.279695,2145.067394,-0.000000,7698.141797
2559.280024,306.438199,-370.102971,8734.430116
2559.280353,-2068.457845,-2590.720797,11029.068536
2559.280683,-2834.553343,-2516.700203,12213.398043
2559.281012,-2911.162892,-814.226536,12287.418637
2559.281341,-2451.505594,-0.000000,10955.047942
2559.281670,-2068.457845,-888.247130,10807.006753
2559.281999,-766.095498,-370.102971,11473.192101
2559.282328,0.000000,1998.556043,9474.636058
2559.282658,76.609550,-0.000000,9844.739029
2559.282987,2374.896044,-2072.576638,9400.615463
2559.283316,4290.134789,2368.659014,4737.318029
2559.283645,5439.278036,2220.617826,5921.647536
2559.283974,4366.744339,1184.329507,5181.441594
2559.284303,4749.792088,740.205942,6809.894666
2559.284632,2298.286494,444.123565,7402.059420
2559.284962,919.314598,-74.020594,7698.141797
2559.285291,-1378.971896,-1776.494261,11103.089130
2559.285620,-3907.087040,-2072.576638,11917.315666
2559.285949,-2528.115143,-1332.370696,11177.109724
2559.286278,-3600.648841,296.082377,10436.903782
2559.286607,-2451.505594,-1850.514855,11177.109724
2559.286937,-2451.505594,-1480.411884,11399.171507
2559.287266,-459.657299,222.061783,10436.903782
2559.287595,-995.924147,666.185348,7402.059420
2559.287924,153.219100,-1998.556043,8586.388927
2559.288253,1762.019645,-666.185348,10584.944971
2559.288582,2221.676944,2072.576638,3849.070898
2559.288912,4826.401637,666.185348,6735.874072
2559.289241,3064.381992,148.041188,5255.462188
2559.289570,4136.915689,1480.411884,7328.038826
2559.289899,612.876398,-0.000000,9400.615463
2559.290228,-1149.143247,-666.185348,8808.450710
2559.290557,-2068.457845,-1998.556043,11473.192101
2559.290887,-2528.115143,-740.205942,12657.521608
2559.291216,-3370.820191,740.205942,9474.636058
2559.291545,-2834.553343,-1480.411884,12953.603985
2559.291874,-1685.410096,-1924.535449,11547.212695
2559.292203,-459.657299,-0.000000,10140.821405
2559.292532,0.000000,-0.000000,9474.636058
2559.292861,-1608.800546,-0.000000,7772.162391
2559.293191,536.266849,-2886.803174,11251.130318
2559.293520,2221.676944,1258.350101,6735.874072
2559.293849,3294.210641,1332.370696,5477.523971
2559.294178,4213.525239,-1036.288319,7772.162391
2559.294507,3524.039291,1628.453072,5847.626942
2559.294836,2681.334243,1184.329507,8956.491898
2559.295166,536.266849,888.247130,8068.244768
2559.295495,-612.876398,-370.102971,9474.636058
2559.295824,-2374.896044,-1184.329507,12435.459826
2559.296153,-1762.019645,-0.000000,11029.068536
2559.296482,-2987.772442,814.226536,9992.780217
2559.296811,-1991.848295,-2146.597232,11769.274478
2559.297141,-1149.143247,-740.205942,10436.903782
2559.297470,-536.266849,296.082377,9844.739029
2559.297799,-995.924147,666.185348,8142.265362
2559.298128,229.828649,-1628.453072,10362.883188
2559.298457,2528.115143,-1110.308913,7550.100608
2559.298786,3983.696590,2442.679609,5625.565159
2559.299115,3294.210641,-0.000000,6587.832884
2559.299445,1838.629195,-0.000000,6883.915261
2559.299774,2604.724693,518.144159,8586.388927
2559.300103,459.657299,222.061783,8660.409521
2559.300432,-766.095498,-1184.329507,9844.739029
2559.300761,-2221.676944,-1480.411884,11547.212695
2559.301090,-1991.848295,-1406.391290,12287.418637
2559.301420,-2834.553343,-296.082377,11029.068536
2559.301749,-1762.019645,-814.226536,11103.089130
2559.302078,-536.266849,-1406.391290,10140.821405
2559.302407,-306.438199,444.123565,9178.553681
2559.302736,1378.971896,-0.000000,11029.068536
2559.303065,2834.553343,-962.267725,5847.626942
2559.303395,6281.983084,814.226536,6883.915261
2559.303724,4903.011187,2516.700203,4811.338623
2559.304053,5056.230287,1258.350101,5773.606348
2559.304382,2987.772442,222.061783,8512.368333
2559.304711,1915.238745,148.041188,7772.162391
2559.305040,306.438199,-814.226536,9622.677246
2559.305369,-2681.334243,-1998.556043,11621.233289
2559.305699,-3217.601092,-2812.782580,12583.501014
2559.306028,-4213.525239,-2072.576638,11843.295072
2559.306357,-2681.334243,-0.000000,10955.047942
2559.306686,-2528.115143,-666.185348,10214.842000
2559.307015,-1378.971896,-444.123565,11177.109724
2559.307344,-995.924147,1110.308913,9030.512492
2559.307674,229.828649,-370.102971,9104.533087
2559.308003,3370.820191,-962.267725,8142.265362
2559.308332,4366.744339,1702.473667,3627.009116
2559.308661,6205.373534,2590.720797,5625.565159
2559.308990,4366.744339,1998.556043,5033.400406
2559.309319,4596.572988,1258.350101,7105.977043
2559.309649,1762.019645,370.102971,7846.182985
2559.309978,229.828649,-0.000000,7920.203579
2559.310307,-2528.115143,-2960.823768,11843.295072
2559.310636,-3140.991542,-2886.803174,12657.521608
2559.310965,-4443.353888,-1184.329507,10732.986159
2559.311294,-4903.011187,-666.185348,12287.418637
2559.311624,-3907.087040,-2442.679609,11325.150913
2559.311953,-2834.553343,-1110.308913,11473.192101
2559.312282,-1149.143247,-296.082377,10732.986159
2559.312611,-153.219100,-0.000000,7624.121203
2559.312940,1762.019645,-2664.741391,9548.656652
2559.313269,3524.039291,296.082377,7920.203579
2559.313598,5286.058936,2590.720797,3775.050304
2559.313928,6205.373534,1258.350101,5847.626942
2559.314257,4749.792088,1776.494261,5033.400406
2559.314586,4826.401637,1406.391290,8216.285956
2559.314915,1302.362347,1702.473667,8068.244768
2559.315244,229.828649,-148.041188,8734.430116
2559.315573,-2604.724693,-3108.864956,12879.583391
2559.315903,-3217.601092,-666.185348,12509.480420
2559.316232,-3983.696590,-518.144159,10658.965565
2559.316561,-4443.353888,-1628.453072,12435.459826
2559.316890,-2834.553343,-2886.803174,10732.986159
2559.317219,-1685.410096,-0.000000,10140.821405
2559.317548,-1072.533697,296.082377,9696.697840
2559.317878,-689.485948,-296.082377,7105.977043
2559.318207,1838.629195,-1628.453072,11251.130318
2559.318536,2451.505594,2072.576638,6661.853478
2559.318865,4136.915689,1332.370696,5255.462188
2559.319194,4366.744339,444.123565,6809.894666
2559.319523,4060.306139,1110.308913,5699.585753
2559.319852,1762.019645,1702.473667,9696.697840
2559.320182,-536.266849,666.185348,8882.471304
2559.320511,-1532.190996,-1036.288319,10214.842000
2559.320840,-2911.162892,-1850.514855,13323.706956
2559.321169,-2911.162892,666.185348,9474.636058
2559.321498,-3524.039291,-1184.329507,10881.027347
2559.321827,-2757.943793,-2368.659014,11325.150913
2559.322157,-612.876398,-1702.473667,9770.718434
2559.322486,-612.876398,-148.041188,9696.697840
2559.322815,-536.266849,-0.000000,7105.977043
2559.323144,766.095498,-2368.659014,10362.883188
2559.323473,2451.505594,-518.144159,7550.100608
2559.323802,3753.867940,2368.659014,4885.359217
2559.324132,4213.525239,-592.164754,7402.059420
2559.324461,3447.429741,592.164754,6291.750507
2559.324790,3753.867940,296.082377,8882.471304
2559.325119,689.485948,1184.329507,8512.368333
2559.325448,-459.657299,-592.164754,9474.636058
2559.325777,-2145.067394,-1924.535449,12139.377449
2559.326107,-2374.896044,-444.123565,11769.274478
2559.326436,-2681.334243,-222.061783,11325.150913
2559.326765,-1532.190996,-814.226536,11029.068536
2559.327094,-459.657299,-1850.514855,9696.697840
2559.327423,-459.657299,-0.000000,9030.512492
2559.327752,-383.047749,148.041188,9252.574275
2559.328081,1608.800546,-1702.473667,9400.615463
2559.328411,3753.867940,296.082377,4811.338623
2559.328740,4826.401637,1924.535449,6661.853478
2559.329069,3600.648841,666.185348,5551.544565
2559.329398,4060.306139,370.102971,8142.265362
2559.329727,2451.505594,444.123565,8068.244768
2559.330056,1378.971896,1036.288319,7624.121203
2559.330386,-1072.533697,-1110.308913,10288.862594
2559.330715,-2451.505594,-1480.411884,10955.047942
2559.331044,-2145.067394,-1628.453072,12139.377449
2559.331373,-2987.772442,-0.000000,9992.780217
2559.331702,-1532.190996,-1258.350101,10214.842000
2559.332031,-995.924147,-1258.350101,10436.903782
2559.332361,-229.828649,888.247130,9474.636058
2559.332690,-919.314598,-0.000000,8808.450710
2559.333019,1532.190996,-2516.700203,10807.006753
2559.333348,3140.991542,518.144159,5625.565159
2559.333677,5898.935335,1850.514855,6957.935855
2559.334006,4826.401637,1332.370696,5255.462188
2559.334335,4519.963438,1332.370696,7328.038826
2559.334665,3677.258390,1110.308913,8068.244768
2559.334994,1455.581446,1702.473667,7254.018232
2559.335323,0.000000,-518.144159,10658.965565
2559.335652,-2834.553343,-740.205942,10510.924376
2559.335981,-3370.820191,-2294.638420,13175.665768
2559.336310,-3907.087040,-518.144159,11029.068536
2559.336640,-2298.286494,-1480.411884,10955.047942
2559.336969,-2145.067394,-2220.617826,11621.233289
2559.337298,-995.924147,148.041188,9844.739029
2559.337627,-842.705048,1480.411884,9474.636058
2559.337956,-1378.971896,-1628.453072,9326.594869
2559.338285,1762.019645,-1184.329507,10436.903782
2559.338615,2451.505594,1258.350101,6735.874072
2559.338944,4136.915689,888.247130,6957.935855
2559.339273,2757.943793,222.061783,6069.688724
2559.339602,3447.429741,1406.391290,7328.038826
2559.339931,1532.190996,1110.308913,8364.327145
2559.340260,0.000000,1110.308913,8512.368333
2559.340590,-1302.362347,-592.164754,10066.800811
2559.340919,-3447.429741,-1480.411884,12139.377449
2559.341248,-2911.162892,-1184.329507,10510.924376
2559.341577,-3600.648841,-592.164754,9918.759623
2559.341906,-1915.238745,-2738.761985,10881.027347
2559.342235,-2221.676944,-1628.453072,10140.821405
2559.342564,0.000000,-74.020594,10214.842000
2559.342894,-1149.143247,-0.000000,7698.141797
2559.343223,1149.143247,-1998.556043,10584.944971
2559.343552,2068.457845,-148.041188,8512.368333
2559.343881,3677.258390,2886.803174,4811.338623
2559.344210,4826.401637,-222.061783,8068.244768
2559.344539,3524.039291,1406.391290,5773.606348
2559.344869,4443.353888,1924.535449,7994.224174
2559.345198,1608.800546,1258.350101,7994.224174
2559.345527,-842.705048,444.123565,8216.285956
2559.345856,-1608.800546,-1110.308913,10955.047942
2559.346185,-2451.505594,-1110.308913,11621.233289
2559.346514,-2681.334243,-962.267725,10066.800811
2559.346844,-2374.896044,-2368.659014,10510.924376
2559.347173,-1608.800546,-2590.720797,10658.965565
2559.347502,-1072.533697,-1036.288319,10288.862594
2559.347831,-766.095498,148.041188,8586.388927
2559.348160,-995.924147,-1628.453072,9622.677246
2559.348489,1915.238745,-2220.617826,9992.780217
2559.348818,2987.772442,2294.638420,5921.647536
2559.349148,3830.477490,1036.288319,7402.059420
2559.349477,3370.820191,666.185348,7105.977043
2559.349806,3600.648841,1776.494261,7920.203579
2559.350135,2068.457845,1332.370696,8512.368333
2559.350464,-536.266849,592.164754,8364.327145
2559.350793,-1532.190996,-740.205942,10732.986159
2559.351123,-2221.676944,-1480.411884,11621.233289
2559.351452,-2528.115143,-1110.308913,10140.821405
2559.351781,-2528.115143,-1332.370696,10584.944971
2559.352110,-1685.410096,-2960.823768,10732.986159
2559.352440,-536.266849,-1332.370696,10288.862594
2559.352769,-459.657299,370.102971,9178.553681
2559.353098,76.609550,-1776.494261,9992.780217
2559.353427,2834.553343,-1554.432478,8586.388927
2559.353756,4979.620737,1850.514855,5995.668130
2559.354086,5132.839837,1850.514855,6291.750507
2559.354415,4060.306139,1110.308913,6439.791695
2559.354744,4903.011187,1924.535449,7772.162391
2559.355073,2757.943793,2368.659014,7105.977043
2559.355402,919.314598,1406.391290,7698.141797
2559.355732,-1378.971896,-1036.288319,10584.944971
2559.356061,-2374.896044,-1776.494261,10732.986159
2559.356390,-2374.896044,-1776.494261,12213.398043
2559.356719,-3294.210641,-1628.453072,9400.615463
2559.357049,-2221.676944,-3775.050304,12361.439231
2559.357378,-2834.553343,-1998.556043,11103.089130
2559.357707,-459.657299,592.164754,9992.780217
2559.358036,-1608.800546,666.185348,7920.203579
2559.358365,1455.581446,-1924.535449,11473.192101
2559.358695,2834.553343,1184.329507,7328.038826
2559.359024,5975.544884,2072.576638,6883.915261
2559.359353,4213.525239,962.267725,5699.585753
2559.359682,2451.505594,1702.473667,6439.791695
2559.360011,2757.943793,962.267725,9474.636058
2559.360341,-995.924147,1554.432478,7402.059420
2559.360670,-1378.971896,-814.226536,10066.800811
2559.360999,-2834.553343,-1924.535449,12361.439231
2559.361328,-3753.867940,-2220.617826,9548.656652
2559.361657,-3677.258390,-1184.329507,11843.295072
2559.361987,-2911.162892,-2812.782580,10288.862594
2559.362316,-1915.238745,-1924.535449,11029.068536
2559.362645,-995.924147,-0.000000,9844.739029
2559.362974,-383.047749,2146.597232,7920.203579
2559.363304,3064.381992,-2590.720797,11399.171507
2559.363633,3907.087040,1924.535449,3997.112087
2559.363962,7124.688131,3404.947333,6735.874072
2559.364291,4136.915689,1406.391290,5403.503377
2559.364620,5056.230287,2146.597232,6291.750507
2559.364950,2221.676944,2072.576638,7772.162391
2559.365279,0.000000,1850.514855,7031.956449
2559.365608,-2068.457845,-1258.350101,10807.006753
2559.365937,-3064.381992,-2886.803174,10732.986159
2559.366266,-3600.648841,-2072.576638,10955.047942
2559.366596,-4903.011187,-1110.308913,11103.089130
2559.366925,-3830.477490,-3034.844362,11547.212695
2559.367254,-3677.258390,-2738.761985,12139.377449
2559.367583,-1149.143247,-0.000000,11325.150913
2559.367913,-995.924147,1702.473667,7031.956449
2559.368242,1149.143247,-2664.741391,9178.553681
2559.368571,4366.744339,370.102971,8512.368333
2559.368900,5132.839837,3775.050304,3849.070898
2559.369229,5822.325785,1110.308913,7328.038826
2559.369559,2604.724693,1850.514855,5181.441594
2559.369888,4519.963438,1628.453072,9030.512492
2559.370217,-153.219100,1924.535449,7994.224174
2559.370546,-689.485948,-296.082377,8808.450710
2559.370875,-3217.601092,-4293.194464,13693.809927
2559.371205,-3983.696590,-1480.411884,9992.780217
2559.371534,-4366.744339,-1850.514855,11547.212695
2559.371863,-5209.449386,-3627.009116,13027.624579
2559.372192,-3600.648841,-3478.967927,11251.130318
2559.372521,-1685.410096,-888.247130,11991.336260
2559.372851,-306.438199,740.205942,8364.327145
2559.373180,995.924147,-1258.350101,7772.162391
2559.373509,5362.668486,-1628.453072,10140.821405
2559.373838,5822.325785,5107.421000,2294.638420
2559.374168,7048.078582,1850.514855,6365.771101
2559.374497,4519.963438,1702.473667,4737.318029
2559.374826,5592.497135,2294.638420,7105.977043
2559.375155,1991.848295,2664.741391,7328.038826
2559.375484,-229.828649,1184.329507,7179.997637
2559.375814,-2757.943793,-3627.009116,11843.295072
2559.376143,-3524.039291,-1850.514855,11621.233289
2559.376472,-4443.353888,-1480.411884,11177.109724
2559.376801,-4979.620737,-3997.112087,12879.583391
2559.377130,-3370.820191,-4367.215058,11251.130318
2559.377460,-2145.067394,-1036.288319,11769.274478
2559.377789,-1302.362347,370.102971,9474.636058
2559.378118,536.266849,-740.205942,8512.368333
2559.378447,5056.230287,-962.267725,8364.327145
2559.378777,7354.516781,4367.215058,3923.091493
2559.379106,6894.859482,2368.659014,5255.462188
2559.379435,4290.134789,1628.453072,5625.565159
2559.379764,5286.058936,1702.473667,7402.059420
2559.380093,1915.238745,2146.597232,7328.038826
2559.380423,-536.266849,666.185348,8068.244768
2559.380752,-3064.381992,-3034.844362,11325.150913
2559.381081,-3447.429741,-2590.720797,11917.315666
2559.381410,-4749.792088,-1036.288319,11843.295072
2559.381739,-4903.011187,-3923.091493,13175.665768
2559.382069,-4366.744339,-3997.112087,13027.624579
2559.382398,-1838.629195,-1258.350101,12139.377449
2559.382727,-1225.752797,592.164754,9474.636058
2559.383056,919.314598,-444.123565,8956.491898
2559.383385,5439.278036,-518.144159,8660.409521
2559.383715,7201.297681,3627.009116,3775.050304
2559.384044,7737.564530,2664.741391,4589.276840
2559.384373,4903.011187,1850.514855,4959.379811
2559.384702,5515.887586,2738.761985,7105.977043
2559.385032,2221.676944,4145.153275,6291.750507
2559.385361,1532.190996,1850.514855,6957.935855
2559.385690,-2451.505594,-1406.391290,11251.130318
2559.386019,-3370.820191,-4737.318029,13619.789333
2559.386348,-5286.058936,-518.144159,10066.800811
2559.386678,-5286.058936,-5551.544565,15396.283594
2559.387007,-5898.935335,-4441.235652,10732.986159
2559.387336,-3294.210641,-1702.473667,12509.480420
2559.387665,-2221.676944,518.144159,10066.800811
2559.387994,-1378.971896,518.144159,7328.038826
2559.388324,2757.943793,-1702.473667,10066.800811
2559.388653,5745.716235,2368.659014,7105.977043
2559.388982,6741.640382,3108.864956,3997.112087
2559.389311,6052.154434,962.267725,4737.318029
2559.389641,3600.648841,1184.329507,5477.523971
2559.389970,3370.820191,1850.514855,8512.368333
2559.390299,-383.047749,888.247130,7772.162391
2559.390628,-2298.286494,-888.247130,9696.697840
2559.390957,-2987.772442,-4367.215058,14434.015869
2559.391287,-4749.792088,-666.185348,9104.533087
2559.391616,-4979.620737,-3627.009116,13471.748144
2559.391945,-5362.668486,-4145.153275,12361.439231
2559.392274,-2451.505594,-2220.617826,11547.212695
2559.392603,-1838.629195,-0.000000,10807.006753
2559.392933,-383.047749,1036.288319,9030.512492
2559.393262,1532.190996,-1184.329507,9474.636058
2559.393591,5132.839837,666.185348,7846.182985
2559.393920,6588.421283,3404.947333,4737.318029
2559.394249,5898.935335,2146.597232,4145.153275
2559.394579,4596.572988,2146.597232,5625.565159
2559.394908,3600.648841,2368.659014,7550.100608
2559.395237,995.924147,2146.597232,7254.018232
2559.395566,-1532.190996,-1184.329507,8734.430116
2559.395896,-3217.601092,-3256.906145,11991.336260
2559.396225,-2987.772442,-1776.494261,11029.068536
2559.396554,-4366.744339,-592.164754,10288.862594
2559.396883,-4060.306139,-3034.844362,13249.686362
2559.397212,-3830.477490,-3034.844362,11547.212695
2559.397542,-1455.581446,592.164754,10807.006753
2559.397871,-919.314598,-0.000000,8808.450710
2559.398200,0.000000,-666.185348,6587.832884
2559.398529,3983.696590,-888.247130,11103.089130
2559.398858,4290.134789,3701.029710,2960.823768
2559.399188,6205.373534,1258.350101,6513.812290
2559.399517,3907.087040,592.164754,5329.482782
2559.399846,4749.792088,1776.494261,6365.771101
2559.400175,1302.362347,1480.411884,8438.347739
2559.400505,-306.438199,-0.000000,7994.224174
2559.400834,-2451.505594,-2812.782580,10881.027347
2559.401163,-2834.553343,-2812.782580,13545.768739
2559.401492,-3447.429741,-888.247130,9548.656652
2559.401821,-3370.820191,-3478.967927,12953.603985
2559.402151,-2145.067394,-3034.844362,11843.295072
2559.402480,-383.047749,-0.000000,11103.089130
2559.402809,-919.314598,1480.411884,10066.800811
2559.403138,536.266849,-370.102971,9696.697840
2559.403467,4136.915689,-1924.535449,8808.450710
2559.403797,6052.154434,2812.782580,4663.297435
2559.404126,5592.497135,2442.679609,4737.318029
2559.404455,4366.744339,370.102971,6143.709319
2559.404784,4826.401637,1702.473667,7550.100608
2559.405113,2451.505594,2294.638420,7031.956449
2559.405443,76.609550,222.061783,8142.265362
2559.405772,-1991.848295,-2516.700203,11325.150913
2559.406101,-2604.724693,-2590.720797,12287.418637
2559.406430,-3064.381992,-814.226536,11251.130318
2559.406760,-3524.039291,-1480.411884,12287.418637
2559.407089,-2757.943793,-3478.967927,11843.295072
2559.407418,-1685.410096,-444.123565,11177.109724
2559.407747,-1225.752797,1554.432478,9770.718434
2559.408076,-229.828649,-222.061783,7846.182985
2559.408406,3600.648841,-1036.288319,9622.677246
2559.408735,4596.572988,3627.009116,3923.091493
2559.409064,5898.935335,1628.453072,5847.626942
2559.409393,3983.696590,1480.411884,4885.359217
2559.409722,3677.258390,1332.370696,7105.977043
2559.410052,1915.238745,666.185348,8364.327145
2559.410381,-995.924147,666.185348,8068.244768
2559.410710,-1991.848295,-2220.617826,10807.006753
2559.411039,-2451.505594,-2812.782580,13027.624579
2559.411369,-4136.915689,-74.020594,9400.615463
2559.411698,-4060.306139,-2590.720797,13915.871710
2559.412027,-3217.601092,-2812.782580,11547.212695
2559.412356,-1532.190996,-888.247130,11621.233289
2559.412685,-2068.457845,370.102971,10732.986159
2559.413015,-153.219100,1258.350101,7994.224174
2559.413344,2834.553343,-2442.679609,10807.006753
2559.413673,4060.306139,2664.741391,3775.050304
2559.414002,5975.544884,2664.741391,5699.585753
2559.414331,4443.353888,888.247130,5551.544565
2559.414661,5209.449386,1850.514855,5255.462188
2559.414990,2528.115143,1406.391290,7698.141797
2559.415319,76.609550,-0.000000,7624.121203
2559.415648,-1302.362347,-1776.494261,10362.883188
2559.415977,-3217.601092,-3849.070898,13545.768739
2559.416307,-3677.258390,-888.247130,10807.006753
2559.416636,-4749.792088,-1554.432478,11621.233289
2559.416965,-4136.915689,-4367.215058,13841.851115
2559.417294,-2987.772442,-1776.494261,11547.212695
2559.417624,-919.314598,814.226536,11695.253884
2559.417953,-842.705048,1998.556043,7031.956449
2559.418282,1225.752797,-1036.288319,9696.697840
2559.418611,3524.039291,518.144159,8438.347739
2559.418940,4519.963438,4441.235652,2294.638420
2559.419270,5669.106685,740.205942,6735.874072
2559.419599,3217.601092,962.267725,4293.194464
2559.419928,3753.867940,1332.370696,7994.224174
2559.420257,-459.657299,-0.000000,8216.285956
2559.420586,-1991.848295,-666.185348,8364.327145
2559.420916,-2911.162892,-4885.359217,14211.954086
2559.421245,-4060.306139,-518.144159,9178.553681
2559.421574,-4366.744339,-1406.391290,12657.521608
2559.421903,-4903.011187,-3182.885551,13841.851115
2559.422233,-2451.505594,-2664.741391,11769.274478
2559.422562,-842.705048,370.102971,12065.356855
2559.422891,0.000000,2368.659014,6809.894666
2559.423220,2911.162892,-814.226536,11695.253884
2559.423549,3217.601092,444.123565,5033.400406
2559.423879,7814.174080,3923.091493,5625.565159
2559.424208,5822.325785,1184.329507,5329.482782
2559.424537,5362.668486,1628.453072,4811.338623
2559.424866,3294.210641,370.102971,7328.038826
2559.425195,995.924147,1110.308913,7254.018232
2559.425525,-842.705048,-1776.494261,9400.615463
2559.425854,-2757.943793,-3552.988522,13101.645173
2559.426183,-3907.087040,-2072.576638,12139.377449
2559.426512,-4903.011187,-740.205942,12065.356855
2559.426841,-3370.820191,-2442.679609,13619.789333
2559.427171,-3217.601092,-2590.720797,11991.336260
2559.427500,-536.266849,740.205942,11991.336260
2559.427829,-306.438199,3552.988522,7105.977043
2559.428158,2604.724693,-1184.329507,10807.006753
2559.428488,4749.792088,1110.308913,5329.482782
2559.428817,7354.516781,3923.091493,4959.379811
2559.429146,5975.544884,1110.308913,4959.379811
2559.429475,4519.963438,1924.535449,4737.318029
2559.429804,3447.429741,740.205942,7179.997637
2559.430134,1455.581446,1332.370696,6661.853478
2559.430463,-766.095498,-962.267725,9548.656652
2559.430792,-2834.553343,-4145.153275,12435.459826
2559.431121,-3524.039291,-1850.514855,11547.212695
2559.431450,-4673.182538,-1628.453072,11917.315666
2559.431780,-4290.134789,-2590.720797,13841.851115
2559.432109,-3064.381992,-2516.700203,11695.253884
2559.432438,-766.095498,-0.000000,11547.212695
2559.432767,-229.828649,3330.926739,7550.100608
2559.433097,3217.601092,-1332.370696,10140.821405
2559.433426,4903.011187,962.267725,4145.153275
2559.433755,7890.783629,4367.215058,5625.565159
2559.434084,5975.544884,1406.391290,4885.359217
2559.434413,4979.620737,2368.659014,4737.318029
2559.434743,3524.039291,444.123565,7031.956449
2559.435072,1072.533697,1110.308913,7105.977043
2559.435401,-1149.143247,-1036.288319,10140.821405
2559.435730,-3447.429741,-5107.421000,11991.336260
2559.436059,-4213.525239,-2072.576638,10732.986159
2559.436389,-6052.154434,-2738.761985,14211.954086
2559.436718,-6358.592633,-2812.782580,12879.583391
2559.437047,-4826.401637,-3034.844362,13471.748144
2559.437376,-2145.067394,-0.000000,11473.192101
2559.437705,-766.095498,2590.720797,8364.327145
2559.438035,1378.971896,296.082377,6809.894666
2559.438364,4519.963438,-0.000000,9474.636058
2559.438693,5745.716235,4071.132681,2220.617826
2559.439022,7354.516781,1406.391290,5699.585753
2559.439352,2987.772442,962.267725,4663.297435
2559.439681,4826.401637,1554.432478,6513.812290
2559.440010,1915.238745,370.102971,8142.265362
2559.440339,-1838.629195,444.123565,8290.306550
2559.440668,-2681.334243,-4737.318029,12361.439231
2559.440998,-2834.553343,-1332.370696,12065.356855
2559.441327,-4903.011187,-814.226536,10288.862594
2559.441656,-5286.058936,-3923.091493,15100.201217
2559.441985,-4060.306139,-2516.700203,11769.274478
2559.442314,-1762.019645,-518.144159,11251.130318
2559.442644,-689.485948,2294.638420,8882.471304
2559.442973,153.219100,1184.329507,6365.771101
2559.443302,4673.182538,-1628.453072,10881.027347
2559.443631,6588.421283,4293.194464,1258.350101
2559.443961,6894.859482,1480.411884,5477.523971
2559.444290,4290.134789,370.102971,5181.441594
2559.444619,5286.058936,1850.514855,5847.626942
2559.444948,2298.286494,888.247130,8068.244768
2559.445277,-995.924147,888.247130,7624.121203
2559.445607,-2451.505594,-4367.215058,12583.501014
2559.445936,-3294.210641,-2220.617826,13471.748144
2559.446265,-4979.620737,-592.164754,10732.986159
2559.446594,-6052.154434,-3775.050304,14656.077652
2559.446923,-4673.182538,-2886.803174,12065.356855
2559.447253,-2298.286494,-518.144159,11917.315666
2559.447582,-1378.971896,1110.308913,10066.800811
2559.447911,-306.438199,1776.494261,6513.812290
2559.448240,3677.258390,-1702.473667,11399.171507
2559.448569,4903.011187,2960.823768,4367.215058
2559.448899,6741.640382,2442.679609,4811.338623
2559.449228,5439.278036,592.164754,5181.441594
2559.449557,4979.620737,1776.494261,4737.318029
2559.449886,2681.334243,1184.329507,8364.327145
2559.450216,-459.657299,814.226536,8512.368333
2559.450545,-1762.019645,-2368.659014,11251.130318
2559.450874,-3830.477490,-3775.050304,14878.139434
2559.451203,-4749.792088,-0.000000,10584.944971
2559.451532,-4979.620737,-3256.906145,14063.912898
2559.451862,-4213.525239,-2664.741391,12509.480420
2559.452191,-1455.581446,-888.247130,11399.171507
2559.452520,-919.314598,1332.370696,10584.944971
2559.452849,0.000000,2146.597232,6513.812290
2559.453178,4443.353888,-1702.473667,10288.862594
2559.453508,4826.401637,2368.659014,2590.720797
2559.453837,7124.688131,2886.803174,5477.523971
2559.454166,5132.839837,592.164754,4885.359217
2559.454495,5745.716235,1776.494261,5403.503377
2559.454824,3830.477490,444.123565,7550.100608
2559.455153,766.095498,1184.329507,7105.977043
2559.455483,-1685.410096,-2664.741391,11473.192101
2559.455812,-3370.820191,-3256.906145,13397.727550
2559.456141,-3907.087040,-518.144159,11473.192101
2559.456470,-4979.620737,-1406.391290,11917.315666
2559.456799,-3983.696590,-2590.720797,12879.583391
2559.457129,-2757.943793,-2072.576638,11695.253884
2559.457458,-689.485948,814.226536,10658.965565
2559.457787,-229.828649,1850.514855,6661.853478
2559.458116,2451.505594,-1998.556043,9474.636058
2559.458445,4290.134789,1036.288319,5921.647536
2559.458774,6128.763984,3256.906145,4663.297435
2559.459104,5515.887586,296.082377,4367.215058
2559.459433,4136.915689,666.185348,5699.585753
2559.459762,3600.648841,-0.000000,8068.244768
2559.460091,0.000000,1480.411884,8068.244768
2559.460420,-1149.143247,-1702.473667,10066.800811
2559.460750,-3370.820191,-4145.153275,14359.995275
2559.461079,-3064.381992,-592.164754,11547.212695
2559.461408,-3370.820191,-814.226536,11843.295072
2559.461737,-2987.772442,-1036.288319,11473.192101
2559.462066,-1685.410096,-1850.514855,12287.418637
2559.462395,-689.485948,1406.391290,10140.821405
2559.462725,-229.828649,2960.823768,7254.018232
2559.463054,306.438199,-2072.576638,10066.800811
2559.463383,3370.820191,-888.247130,7254.018232
2559.463712,4673.182538,3404.947333,3034.844362
2559.464041,4673.182538,296.082377,5847.626942
2559.464371,3753.867940,-0.000000,5847.626942
2559.464700,4136.915689,296.082377,8216.285956
2559.465029,1072.533697,370.102971,7476.080014
2559.465358,-1149.143247,-0.000000,8882.471304
2559.465687,-2987.772442,-3256.906145,13397.727550
2559.466016,-3447.429741,-222.061783,11769.274478
2559.466346,-2834.553343,592.164754,11843.295072
2559.466675,-3677.258390,-740.205942,11843.295072
2559.467004,-2834.553343,-2072.576638,12065.356855
2559.467333,-842.705048,-74.020594,11621.233289
2559.467662,-306.438199,2072.576638,7846.182985
2559.467992,-995.924147,-0.000000,7476.080014
2559.468321,1378.971896,-3034.844362,11917.315666
2559.468650,3370.820191,2442.679609,4367.215058
2559.468979,5362.668486,1480.411884,6809.894666
2559.469308,3753.867940,-444.123565,4737.318029
2559.469637,4366.744339,518.144159,6513.812290
2559.469967,1608.800546,592.164754,9030.512492
2559.470296,-536.266849,1406.391290,8216.285956
2559.470625,-1302.362347,-2664.741391,11769.274478
2559.470954,-2604.724693,-2146.597232,13323.706956
2559.471283,-2834.553343,222.061783,10881.027347
2559.471613,-2604.724693,-1258.350101,12583.501014
2559.471942,-2068.457845,-1776.494261,10510.924376
2559.472271,-919.314598,-444.123565,11177.109724
2559.472600,-536.266849,1628.453072,9622.677246
2559.472929,-766.095498,666.185348,8216.285956
2559.473258,2068.457845,-3108.864956,10288.862594
2559.473588,3524.039291,1702.473667,3701.029710
2559.473917,4903.011187,2368.659014,6217.729913
2559.474246,3983.696590,-444.123565,5033.400406
2559.474575,4366.744339,740.205942,5995.668130
2559.474904,2528.115143,444.123565,7402.059420
2559.475234,612.876398,1110.308913,7105.977043
2559.475563,-1225.752797,-1850.514855,10584.944971
2559.475892,-2451.505594,-3182.885551,13027.624579
2559.476221,-3677.258390,-814.226536,12139.377449
2559.476550,-3600.648841,-888.247130,12139.377449
2559.476879,-2834.553343,-1850.514855,10881.027347
2559.477209,-1991.848295,-962.267725,11473.192101
2559.477538,-612.876398,1776.494261,10066.800811
2559.477867,-689.485948,1924.535449,7698.141797
2559.478196,3370.820191,-3108.864956,11177.109724
2559.478525,3524.039291,1184.329507,4071.132681
2559.478855,6205.373534,2590.720797,5995.668130
2559.479184,4290.134789,814.226536,4293.194464
2559.479513,4826.401637,814.226536,6439.791695
2559.479842,2987.772442,1036.288319,7624.121203
2559.480171,842.705048,592.164754,7105.977043
2559.480500,-842.705048,-2368.659014,11695.253884
2559.480830,-3524.039291,-3478.967927,12583.501014
2559.481159,-2987.772442,-1776.494261,13175.665768
2559.481488,-4060.306139,-666.185348,11325.150913
2559.481817,-2451.505594,-1628.453072,12139.377449
2559.482146,-2221.676944,-1850.514855,11991.336260
2559.482476,-153.219100,2516.700203,9844.739029
2559.482805,-842.705048,1776.494261,8512.368333
2559.483134,2987.772442,-2368.659014,10584.944971
2559.483463,4826.401637,1406.391290,4367.215058
2559.483792,6128.763984,3108.864956,5625.565159
2559.484121,4136.915689,814.226536,4441.235652
2559.484451,4673.182538,1184.329507,6143.709319
2559.484780,3064.381992,1110.308913,7328.038826
2559.485109,1149.143247,666.185348,7105.977043
2559.485438,-1225.752797,-1998.556043,11843.295072
2559.485767,-2911.162892,-2738.761985,11843.295072
2559.486097,-3524.039291,-2590.720797,12435.459826
2559.486426,-4903.011187,814.226536,11399.171507
2559.486755,-3447.429741,-1110.308913,12435.459826
2559.487084,-2834.553343,-1480.411884,12287.418637
2559.487413,-229.828649,2072.576638,10584.944971
2559.487742,-689.485948,3034.844362,5625.565159
2559.488072,1838.629195,-2664.741391,10881.027347
2559.488401,3370.820191,-518.144159,6513.812290
2559.488730,5592.497135,3108.864956,3849.070898
2559.489059,4749.792088,814.226536,4811.338623
2559.489388,3370.820191,-0.000000,5181.441594
2559.489718,3600.648841,444.123565,8290.306550
2559.490047,-306.438199,1480.411884,7105.977043
2559.490376,0.000000,-1850.514855,9548.656652
2559.490705,-3447.429741,-3552.988522,13323.706956
2559.491034,-3217.601092,-1850.514855,12287.418637
2559.491363,-4903.011187,-592.164754,11695.253884
2559.491693,-4366.744339,-1184.329507,13323.706956
2559.492022,-2757.943793,-2664.741391,12213.398043
2559.492351,-612.876398,222.061783,10807.006753
2559.492680,-842.705048,3330.926739,7179.997637
2559.493009,1149.143247,-2294.638420,10436.903782
2559.493339,3064.381992,-1850.514855,7254.018232
2559.493668,5822.325785,4367.215058,3404.947333
2559.493997,5745.716235,1924.535449,3923.091493
2559.494326,3907.087040,592.164754,4959.379811
2559.494655,4136.915689,518.144159,7772.162391
2559.494984,1149.143247,1776.494261,6957.935855
2559.495314,-229.828649,-1258.350101,9474.636058
2559.495643,-3447.429741,-4071.132681,12213.398043
2559.495972,-3294.210641,-2072.576638,12509.480420
2559.496301,-5056.230287,-296.082377,11769.274478
2559.496630,-5209.449386,-1110.308913,14137.933492
2559.496959,-3753.867940,-2886.803174,12139.377449
2559.497289,-1532.190996,-370.102971,11325.150913
2559.497618,-689.485948,2738.761985,7698.141797
2559.497947,-995.924147,-0.000000,6957.935855
2559.498276,4136.915689,-2812.782580,11547.212695
2559.498605,3524.039291,4515.256246,1184.329507
2559.498935,6665.030833,1480.411884,6365.771101
2559.499264,3217.601092,962.267725,3997.112087
2559.499593,5515.887586,1184.329507,5847.626942
2559.499922,2221.676944,444.123565,8364.327145
2559.500251,-842.705048,148.041188,8216.285956
2559.500580,-2528.115143,-3849.070898,12435.459826
2559.500910,-3370.820191,-2664.741391,13249.686362
2559.501239,-4290.134789,-222.061783,11473.192101
2559.501568,-4979.620737,-1998.556043,13915.871710
2559.501897,-2451.505594,-2738.761985,12435.459826
2559.502226,-1149.143247,-1406.391290,11473.192101
2559.502556,-612.876398,1998.556043,8290.306550
2559.502885,459.657299,222.061783,9770.718434
2559.503214,4136.915689,-3108.864956,7846.182985
2559.503543,6052.154434,3330.926739,4145.153275
2559.503872,5362.668486,2664.741391,3923.091493
2559.504201,5439.278036,-0.000000,5403.503377
2559.504531,4749.792088,814.226536,7402.059420
2559.504860,3370.820191,1258.350101,7105.977043
2559.505189,1302.362347,222.061783,7624.121203
2559.505518,-2221.676944,-3256.906145,12361.439231
2559.505847,-3447.429741,-2812.782580,12139.377449
2559.506177,-3370.820191,-1184.329507,13249.686362
2559.506506,-4596.572988,814.226536,10955.047942
2559.506835,-2451.505594,-2960.823768,12953.603985
2559.507164,-1532.190996,-962.267725,11103.089130
2559.507493,153.219100,2664.741391,9474.636058
2559.507822,-612.876398,962.267725,7105.977043
2559.508152,4136.915689,-2368.659014,9992.780217
2559.508481,4213.525239,2960.823768,3256.906145
2559.508810,6665.030833,2590.720797,5107.421000
2559.509139,3447.429741,666.185348,4293.194464
2559.509468,4826.401637,-0.000000,6809.894666
2559.509798,2068.457845,1036.288319,7105.977043
2559.510127,0.000000,962.267725,7476.080014
2559.510456,-1991.848295,-3256.906145,12065.356855
2559.510785,-3830.477490,-2294.638420,12879.583391
2559.511114,-4060.306139,-1406.391290,12583.501014
2559.511443,-4903.011187,-74.020594,12213.398043
2559.511773,-4290.134789,-2368.659014,11917.315666
2559.512102,-2145.067394,-2072.576638,12065.356855
2559.512431,-536.266849,1554.432478,10140.821405
2559.512760,-766.095498,1480.411884,7994.224174
2559.513089,3753.867940,-2960.823768,9770.718434
2559.513419,4749.792088,2368.659014,2664.741391
2559.513748,6205.373534,3404.947333,4515.256246
2559.514077,4749.792088,740.205942,5551.544565
2559.514406,4673.182538,518.144159,6143.709319
2559.514735,2374.896044,222.061783,7550.100608
2559.515064,-229.828649,222.061783,8142.265362
2559.515394,-2757.943793,-3478.967927,12065.356855
2559.515723,-3907.087040,-3182.885551,13841.851115
2559.516052,-3983.696590,-962.267725,11843.295072
2559.516381,-5669.106685,-0.000000,13101.645173
2559.516710,-4903.011187,-3182.885551,12435.459826
2559.517040,-3064.381992,-1406.391290,11991.336260
2559.517369,-689.485948,740.205942,10510.924376
2559.517698,-612.876398,1924.535449,6217.729913
2559.518027,2681.334243,-2072.576638,10214.842000
2559.518356,3830.477490,1628.453072,5847.626942
2559.518685,6818.249932,4145.153275,3775.050304
2559.519015,5669.106685,2072.576638,3775.050304
2559.519344,4060.306139,1554.432478,4293.194464
2559.519673,3524.039291,148.041188,7772.162391
2559.520002,-766.095498,962.267725,7550.100608
2559.520331,-2374.896044,-2516.700203,11251.130318
2559.520661,-4060.306139,-4441.235652,14359.995275
2559.520990,-4826.401637,-814.226536,11029.068536
2559.521319,-5056.230287,-1480.411884,13841.851115
2559.521648,-6281.983084,-2590.720797,12583.501014
2559.521977,-3064.381992,-2072.576638,12731.542202
2559.522306,-919.314598,-0.000000,10510.924376
2559.522636,-306.438199,2146.597232,7105.977043
2559.522965,1685.410096,-1998.556043,9696.697840
2559.523294,4443.353888,-0.000000,7476.080014
2559.523623,6205.373534,4663.297435,3108.864956
2559.523952,6665.030833,962.267725,3404.947333
2559.524282,5669.106685,962.267725,4885.359217
2559.524611,4749.792088,814.226536,7698.141797
2559.524940,1455.581446,1258.350101,7698.141797
2559.525269,-842.705048,-1406.391290,9992.780217
2559.525598,-3677.258390,-5181.441594,14359.995275
2559.525927,-3753.867940,-1480.411884,11843.295072
2559.526257,-4213.525239,-740.205942,11177.109724
2559.526586,-4749.792088,-2220.617826,13471.748144
2559.526915,-2528.115143,-1924.535449,12361.439231
2559.527244,-306.438199,-0.000000,11177.109724
2559.527573,-536.266849,1628.453072,7846.182985
2559.527903,76.609550,-518.144159,7624.121203
2559.528232,4673.182538,-1850.514855,10362.883188
2559.528561,4213.525239,4071.132681,1480.411884
2559.528890,5975.544884,962.267725,6217.729913
2559.529219,3524.039291,370.102971,5255.462188
2559.529548,4826.401637,814.226536,6957.935855
2559.529878,2681.334243,2368.659014,6735.874072
2559.530207,1455.581446,1998.556043,6587.832884
2559.530536,-842.705048,-3330.926739,12731.542202
2559.530865,-2834.553343,-2590.720797,12805.562797
2559.531194,-2911.162892,-370.102971,12731.542202
2559.531524,-3830.477490,-2220.617826,11695.253884
2559.531853,-1838.629195,-2960.823768,12657.521608
2559.532182,-1302.362347,-740.205942,10881.027347
2559.532511,0.000000,1850.514855,9252.574275
2559.532840,-383.047749,666.185348,8290.306550
2559.533169,3447.429741,-2072.576638,9030.512492
2559.533499,4519.963438,2220.617826,3923.091493
2559.533828,5056.230287,2368.659014,5403.503377
2559.534157,4213.525239,-740.205942,5255.462188
2559.534486,4596.572988,-296.082377,6587.832884
2559.534815,3217.601092,1258.350101,6661.853478
2559.535145,1762.019645,296.082377,7328.038826
2559.535474,-995.924147,-1924.535449,11917.315666
2559.535803,-2987.772442,-1702.473667,12139.377449
2559.536132,-2987.772442,-2146.597232,14656.077652
2559.536461,-5056.230287,-0.000000,11177.109724
2559.536790,-3140.991542,-2072.576638,13027.624579
2559.537120,-2604.724693,-1554.432478,11843.295072
2559.537449,-919.314598,1850.514855,9622.677246
2559.537778,-995.924147,2368.659014,7328.038826
2559.538107,2068.457845,-1998.556043,10214.842000
2559.538436,3140.991542,1036.288319,5403.503377
2559.538766,5132.839837,2516.700203,5107.421000
2559.539095,3907.087040,518.144159,3997.112087
2559.539424,3524.039291,-0.000000,5699.585753
2559.539753,2374.896044,222.061783,7698.141797
2559.540082,-459.657299,-148.041188,8438.347739
2559.540411,-1608.800546,-2442.679609,10955.047942
2559.540741,-3217.601092,-2368.659014,12953.603985
2559.541070,-3983.696590,-1184.329507,11769.274478
2559.541399,-4366.744339,-0.000000,11917.315666
2559.541728,-3294.210641,-666.185348,12435.459826
2559.542057,-1608.800546,-1480.411884,11547.212695
2559.542387,0.000000,962.267725,10362.883188
2559.542716,-153.219100,2368.659014,7105.977043
2559.543045,1608.800546,-2072.576638,10658.965565
2559.543374,2911.162892,-0.000000,5625.565159
2559.543703,5362.668486,3330.926739,4071.132681
2559.544032,4596.572988,888.247130,3330.926739
2559.544362,4903.011187,-74.020594,5551.544565
2559.544691,2911.162892,-0.000000,7994.224174
2559.545020,0.000000,-0.000000,8438.347739
2559.545349,-919.314598,-2294.638420,11103.089130
2559.545678,-3983.696590,-2590.720797,12361.439231
2559.546008,-3600.648841,-1702.473667,12361.439231
2559.546337,-4749.792088,888.247130,12139.377449
2559.546666,-3600.648841,-740.205942,13471.748144
2559.546995,-2604.724693,-1702.473667,12361.439231
2559.547324,153.219100,296.082377,11103.089130
2559.547653,-919.314598,3256.906145,6809.894666
2559.547983,766.095498,-1998.556043,10510.924376
2559.548312,2757.943793,-962.267725,6809.894666
2559.548641,4979.620737,3701.029710,3849.070898
2559.548970,4826.401637,962.267725,3997.112087
2559.549299,3983.696590,666.185348,4885.359217
2559.549628,4136.915689,-148.041188,8512.368333
2559.549958,76.609550,444.123565,7328.038826
2559.550287,-383.047749,-1406.391290,9770.718434
2559.550616,-3830.477490,-2886.803174,12805.562797
2559.550945,-3447.429741,-1184.329507,13397.727550
2559.551274,-4443.353888,592.164754,12361.439231
2559.551604,-4213.525239,-592.164754,11325.150913
2559.551933,-2451.505594,-1110.308913,12509.480420
2559.552262,-1608.800546,592.164754,10881.027347
2559.552591,-766.095498,3182.885551,7179.997637
2559.552920,-1532.190996,-0.000000,6439.791695
2559.553249,842.705048,-1554.432478,8882.471304
2559.553578,766.095498,2812.782580,3552.988522
2559.553907,2604.724693,962.267725,5477.523971
2559.554236,383.047749,-1628.453072,4589.276840
2559.554566,995.924147,-1480.411884,7254.018232
2559.554895,-1838.629195,-1332.370696,8808.450710
2559.555224,-3753.867940,-1628.453072,8882.471304
2559.555553,-3983.696590,-3404.947333,12657.521608
2559.555882,-4979.620737,-814.226536,9992.780217
2559.556211,-6205.373534,592.164754,11917.315666
2559.556540,-7048.078582,-666.185348,13471.748144
2559.556869,-5209.449386,-370.102971,11473.192101
2559.557199,-3677.258390,-222.061783,11325.150913
2559.557528,-1225.752797,1332.370696,8438.347739
2559.557857,76.609550,1406.391290,6291.750507
2559.558186,-536.266849,-1406.391290,7624.121203
2559.558515,1838.629195,-0.000000,7994.224174
2559.558844,2068.457845,2812.782580,2812.782580
2559.559173,3983.696590,592.164754,6143.709319
2559.559502,1072.533697,888.247130,4737.318029
2559.559832,842.705048,370.102971,8512.368333
2559.560161,-2757.943793,-222.061783,9104.533087
2559.560490,-4290.134789,-1924.535449,9696.697840
2559.560819,-4673.182538,-2442.679609,13323.706956
2559.561148,-7737.564530,2294.638420,8364.327145
2559.561477,-9116.536426,-2516.700203,14211.954086
2559.561806,-11184.994271,-2738.761985,13915.871710
2559.562135,-7354.516781,-1924.535449,12213.398043
2559.562465,-6665.030833,-1998.556043,11399.171507
2559.562794,-4136.915689,-74.020594,8364.327145
2559.563123,-2451.505594,-0.000000,8216.285956
2559.563452,-919.314598,814.226536,5699.585753
2559.563781,-1072.533697,3108.864956,4885.359217
2559.564110,842.705048,-1480.411884,10510.924376
2559.564439,1838.629195,-222.061783,4737.318029
2559.564768,3907.087040,1332.370696,6957.935855
2559.565097,1302.362347,1332.370696,5477.523971
2559.565427,306.438199,740.205942,7994.224174
2559.565756,-1991.848295,-1110.308913,11991.336260
2559.566085,-3140.991542,1850.514855,10584.944971
2559.566414,-2681.334243,-0.000000,12509.480420
2559.566743,-4060.306139,444.123565,9400.615463
2559.567072,-4213.525239,296.082377,9992.780217
2559.567401,-5669.106685,-148.041188,10732.986159
2559.567730,-4903.011187,-74.020594,9474.636058
2559.568060,-4136.915689,-1406.391290,8882.471304
2559.568389,-3753.867940,-888.247130,8734.430116
2559.568718,-3600.648841,-444.123565,7698.141797
2559.569047,-3524.039291,-3330.926739,7624.121203
2559.569376,-3217.601092,-2738.761985,8734.430116
2559.569705,-2068.457845,-1998.556043,9104.533087
2559.570034,-1762.019645,-1184.329507,9474.636058
2559.570363,-2068.457845,-1258.350101,9696.697840
2559.570693,-2145.067394,-0.000000,10510.924376
2559.571022,-2834.553343,1332.370696,10658.965565
2559.571351,-2451.505594,1628.453072,9918.759623
2559.571680,-1915.238745,1480.411884,10362.883188
2559.572009,-1915.238745,2368.659014,9918.759623
2559.572338,-2757.943793,2294.638420,8882.471304
2559.572667,-1838.629195,1110.308913,7772.162391
2559.572996,-1762.019645,814.226536,7105.977043
2559.573326,-1608.800546,592.164754,7105.977043
2559.573655,-1302.362347,-592.164754,6365.771101
2559.573984,-1225.752797,-962.267725,6513.812290
2559.574313,-2068.457845,-2072.576638,8142.265362
2559.574642,-2834.553343,-962.267725,7846.182985
2559.574971,-2987.772442,-222.061783,8364.327145
2559.575300,-2911.162892,592.164754,8216.285956
2559.575629,-3064.381992,2368.659014,9326.594869
2559.575958,-2834.553343,2516.700203,10140.821405
2559.576288,-2911.162892,2960.823768,10066.800811
2559.576617,-3370.820191,3182.885551,9770.718434
2559.576946,-3600.648841,1776.494261,10658.965565
2559.577275,-3600.648841,740.205942,11029.068536
2559.577604,-2681.334243,-592.164754,10584.944971
2559.577933,-1915.238745,-1776.494261,10066.800811
2559.578262,-1302.362347,-222.061783,9326.594869
2559.578591,-842.705048,-0.000000,8438.347739
2559.578921,-919.314598,1406.391290,7994.224174
2559.579250,0.000000,370.102971,9844.739029
2559.579579,1455.581446,1184.329507,8660.409521
2559.579908,1685.410096,3775.050304,6291.750507
2559.580237,1838.629195,4737.318029,7402.059420
2559.580566,1838.629195,4959.379811,7624.121203
2559.580895,2068.457845,6069.688724,9326.594869
2559.581224,842.705048,4441.235652,9252.574275
2559.581554,612.876398,3478.967927,10658.965565
2559.581883,-842.705048,2220.617826,11251.130318
2559.582212,-919.314598,2368.659014,10214.842000
2559.582541,-1991.848295,1406.391290,11029.068536
2559.582870,-536.266849,1554.432478,10807.006753
2559.583199,766.095498,1258.350101,9400.615463
2559.583528,1378.971896,2146.597232,9030.512492
2559.583857,1608.800546,2960.823768,8068.244768
2559.584187,2911.162892,3404.947333,6661.853478
2559.584516,2987.772442,3627.009116,5921.647536
2559.584845,2528.115143,5551.544565,6735.874072
2559.585174,1685.410096,4959.379811,7105.977043
2559.585503,-153.219100,3849.070898,8586.388927
2559.585832,-1838.629195,3108.864956,9918.759623
2559.586161,-3294.210641,2664.741391,10140.821405
2559.586490,-3524.039291,518.144159,11769.274478
2559.586819,-3524.039291,1406.391290,9696.697840
2559.587149,-2987.772442,1702.473667,11325.150913
