#time,accel_x,accel_y,accel_z
2357.573408,3524.039291,1702.473667,8512.368333
2357.573737,2221.676944,592.164754,8216.285956
2357.574066,1685.410096,-888.247130,9178.553681
2357.574395,995.924147,-1480.411884,11251.130318
2357.574724,0.000000,370.102971,9696.697840
2357.575053,0.000000,518.144159,9992.780217
2357.575382,0.000000,-0.000000,9548.656652
2357.575711,1149.143247,740.205942,10436.903782
2357.576039,919.314598,666.185348,9696.697840
2357.576368,1455.581446,740.205942,8660.409521
2357.576697,2681.334243,592.164754,10140.821405
2357.577026,4290.134789,592.164754,8512.368333
2357.577355,3524.039291,370.102971,9030.512492
2357.577684,3677.258390,-666.185348,9770.718434
2357.578013,3830.477490,-296.082377,8068.244768
2357.578342,3907.087040,962.267725,8586.388927
2357.578671,4213.525239,888.247130,8068.244768
2357.578999,2987.772442,-0.000000,8512.368333
2357.579328,2604.724693,-444.123565,9696.697840
2357.579657,2451.505594,-1776.494261,8142.265362
2357.579986,995.924147,-962.267725,9252.574275
2357.580315,153.219100,-962.267725,9918.759623
2357.580644,306.438199,-1332.370696,8882.471304
2357.580973,0.000000,-1702.473667,10214.842000
2357.581302,-306.438199,-1554.432478,10140.821405
2357.581630,306.438199,-2368.659014,8290.306550
2357.581959,383.047749,-1406.391290,9326.594869
2357.582288,689.485948,-370.102971,9326.594869
2357.582617,766.095498,-740.205942,8438.347739
2357.582946,842.705048,-962.267725,9104.533087
2357.583275,1225.752797,-740.205942,8216.285956
2357.583604,2221.676944,-740.205942,7846.182985
2357.583933,2451.505594,-222.061783,7402.059420
2357.584262,1302.362347,-0.000000,7772.162391
2357.584590,2298.286494,592.164754,7920.203579
2357.584919,919.314598,962.267725,7402.059420
2357.585248,1072.533697,-592.164754,8438.347739
2357.585577,-459.657299,-370.102971,8808.450710
2357.585906,-306.438199,-888.247130,9770.718434
2357.586235,-1149.143247,-1850.514855,8956.491898
2357.586564,-612.876398,-1406.391290,9326.594869
2357.586893,-229.828649,-1850.514855,9844.739029
2357.587222,229.828649,-1480.411884,9400.615463
2357.587550,0.000000,-1480.411884,9474.636058
2357.587879,766.095498,-1554.432478,10658.965565
2357.588208,1149.143247,-592.164754,8512.368333
2357.588537,2374.896044,-74.020594,9622.677246
2357.588866,2987.772442,666.185348,8068.244768
2357.589195,2987.772442,1036.288319,8216.285956
2357.589524,2987.772442,1480.411884,8586.388927
2357.589853,2681.334243,962.267725,8068.244768
2357.590182,2298.286494,962.267725,8734.430116
2357.590510,1072.533697,-222.061783,9548.656652
2357.590839,383.047749,-592.164754,8956.491898
2357.591168,-1762.019645,-666.185348,10881.027347
2357.591497,-1072.533697,-1110.308913,10288.862594
2357.591826,-536.266849,-0.000000,9474.636058
2357.592155,-919.314598,-518.144159,9770.718434
2357.592484,459.657299,444.123565,9548.656652
2357.592813,-153.219100,370.102971,9252.574275
2357.593142,-689.485948,814.226536,9770.718434
2357.593470,-383.047749,666.185348,9178.553681
2357.593799,229.828649,1036.288319,9474.636058
2357.594128,-153.219100,1184.329507,9104.533087
2357.594457,842.705048,1628.453072,8734.430116
2357.594786,153.219100,1406.391290,8216.285956
2357.595115,459.657299,1110.308913,8290.306550
2357.595444,383.047749,1628.453072,8660.409521
2357.595773,0.000000,740.205942,8660.409521
2357.596102,-459.657299,1258.350101,8808.450710
2357.596430,-766.095498,-370.102971,8808.450710
2357.596759,-766.095498,-0.000000,9400.615463
2357.597088,-1149.143247,-814.226536,9474.636058
2357.597417,-229.828649,-518.144159,9474.636058
2357.597746,-689.485948,-518.144159,9622.677246
2357.598075,383.047749,-148.041188,10362.883188
2357.598404,-306.438199,-296.082377,9400.615463
2357.598733,536.266849,148.041188,9696.697840
2357.599062,0.000000,-0.000000,9104.533087
2357.599390,689.485948,-0.000000,10066.800811
2357.599719,-383.047749,-740.205942,9770.718434
2357.600048,1762.019645,-222.061783,9400.615463
2357.600377,1991.848295,370.102971,7994.224174
2357.600706,2374.896044,296.082377,7624.121203
2357.601035,2145.067394,592.164754,7846.182985
2357.601364,2145.067394,-74.020594,8068.244768
2357.601693,1378.971896,-0.000000,8290.306550
2357.602022,1532.190996,-592.164754,7920.203579
2357.602350,1149.143247,-814.226536,9918.759623
2357.602679,-229.828649,-1036.288319,9252.574275
2357.603008,306.438199,-1036.288319,10140.821405
2357.603337,0.000000,-1480.411884,9030.512492
2357.603666,842.705048,-888.247130,9696.697840
2357.603995,229.828649,-592.164754,8734.430116
2357.604324,842.705048,-0.000000,9400.615463
2357.604653,0.000000,-740.205942,8808.450710
2357.604982,306.438199,-592.164754,9104.533087
2357.605310,-766.095498,-1110.308913,8216.285956
2357.605639,0.000000,-962.267725,8808.450710
2357.605968,-842.705048,-1554.432478,8586.388927
2357.606297,-229.828649,-1554.432478,8808.450710
2357.606626,-229.828649,-1628.453072,8734.430116
2357.606955,-383.047749,-1702.473667,8956.491898
2357.607284,-459.657299,-1702.473667,9178.553681
2357.607613,-383.047749,-1258.350101,9326.594869
2357.607942,-536.266849,-888.247130,9474.636058
2357.608270,0.000000,-1110.308913,9104.533087
2357.608599,153.219100,-444.123565,9252.574275
2357.608928,766.095498,-962.267725,8512.368333
2357.609257,229.828649,296.082377,9474.636058
2357.609586,0.000000,-814.226536,9178.553681
2357.609915,612.876398,-222.061783,8882.471304
2357.610244,153.219100,-666.185348,8512.368333
2357.610573,995.924147,-222.061783,9104.533087
2357.610902,306.438199,-740.205942,7994.224174
2357.611230,1378.971896,-296.082377,8956.491898
2357.611559,689.485948,-74.020594,8068.244768
2357.611888,1532.190996,-0.000000,8956.491898
2357.612217,689.485948,444.123565,8438.347739
2357.612546,1532.190996,888.247130,8808.450710
2357.612875,842.705048,962.267725,8660.409521
2357.613204,766.095498,962.267725,8882.471304
2357.613533,919.314598,962.267725,9326.594869
2357.613862,919.314598,1110.308913,8734.430116
2357.614190,459.657299,1110.308913,9400.615463
2357.614519,306.438199,814.226536,8734.430116
2357.614848,0.000000,1110.308913,9474.636058
2357.615177,-383.047749,444.123565,8882.471304
2357.615506,-153.219100,518.144159,9474.636058
2357.615835,-766.095498,-148.041188,9104.533087
2357.616164,-153.219100,-0.000000,9770.718434
2357.616493,-766.095498,-518.144159,9326.594869
2357.616822,-229.828649,-0.000000,9844.739029
2357.617150,-689.485948,-370.102971,9622.677246
2357.617479,-153.219100,592.164754,10066.800811
2357.617808,-229.828649,-296.082377,9622.677246
2357.618137,153.219100,444.123565,10288.862594
2357.618466,0.000000,592.164754,9918.759623
2357.618795,995.924147,370.102971,9622.677246
2357.619124,0.000000,370.102971,9474.636058
2357.619453,689.485948,-0.000000,10066.800811
2357.619782,306.438199,296.082377,9326.594869
2357.620110,1455.581446,-0.000000,9400.615463
2357.620439,1608.800546,370.102971,8512.368333
2357.620768,1608.800546,592.164754,9178.553681
2357.621097,1915.238745,296.082377,8734.430116
2357.621426,1608.800546,-0.000000,7772.162391
2357.621755,1762.019645,148.041188,8808.450710
2357.622084,612.876398,-370.102971,7920.203579
2357.622413,1455.581446,-74.020594,9622.677246
2357.622742,229.828649,-888.247130,8438.347739
2357.623070,1072.533697,-370.102971,9326.594869
2357.623399,-306.438199,-1184.329507,8512.368333
2357.623728,689.485948,-370.102971,9326.594869
2357.624057,-229.828649,-1036.288319,8808.450710
2357.624386,383.047749,-444.123565,8808.450710
2357.624715,-383.047749,-1110.308913,8364.327145
2357.625044,536.266849,-740.205942,8512.368333
2357.625373,-153.219100,-1628.453072,8512.368333
2357.625702,0.000000,-1184.329507,8438.347739
2357.626030,-536.266849,-1258.350101,8586.388927
2357.626359,-459.657299,-1480.411884,8512.368333
2357.626688,-536.266849,-1480.411884,8586.388927
2357.627017,-536.266849,-1850.514855,8512.368333
2357.627346,0.000000,-1406.391290,9400.615463
2357.627675,-229.828649,-1406.391290,8882.471304
2357.628004,0.000000,-962.267725,9474.636058
2357.628333,-153.219100,-962.267725,9104.533087
2357.628662,229.828649,-740.205942,9326.594869
2357.628990,-229.828649,-962.267725,8586.388927
2357.629319,306.438199,-222.061783,9548.656652
2357.629648,76.609550,-444.123565,8512.368333
2357.629977,612.876398,-0.000000,9104.533087
2357.630306,383.047749,-296.082377,8956.491898
2357.630635,842.705048,-74.020594,8956.491898
2357.630964,153.219100,-222.061783,8512.368333
2357.631293,689.485948,-222.061783,8882.471304
2357.631622,229.828649,148.041188,8512.368333
2357.631950,612.876398,-0.000000,8956.491898
2357.632279,612.876398,296.082377,9474.636058
2357.632608,536.266849,-0.000000,8808.450710
2357.632937,612.876398,888.247130,9178.553681
2357.633266,612.876398,592.164754,9104.533087
2357.633595,612.876398,1406.391290,9326.594869
2357.633924,536.266849,740.205942,9104.533087
2357.634253,995.924147,1258.350101,9400.615463
2357.634582,459.657299,740.205942,9104.533087
2357.634910,919.314598,1110.308913,9770.718434
2357.635239,-306.438199,814.226536,9030.512492
2357.635568,459.657299,888.247130,9622.677246
2357.635897,-383.047749,370.102971,9252.574275
2357.636226,76.609550,666.185348,10140.821405
2357.636555,-842.705048,-0.000000,9844.739029
2357.636884,306.438199,222.061783,10140.821405
2357.637213,-536.266849,-0.000000,9992.780217
2357.637542,0.000000,-74.020594,10140.821405
2357.637870,0.000000,-74.020594,9918.759623
2357.638199,459.657299,444.123565,9918.759623
2357.638528,536.266849,444.123565,9770.718434
2357.638857,1149.143247,370.102971,9770.718434
2357.639186,919.314598,740.205942,9696.697840
2357.639515,1302.362347,-0.000000,9178.553681
2357.639844,1915.238745,592.164754,9178.553681
2357.640173,2068.457845,296.082377,8438.347739
2357.640502,2068.457845,592.164754,9178.553681
2357.640830,1532.190996,-74.020594,8216.285956
2357.641159,1838.629195,148.041188,9326.594869
2357.641488,919.314598,-222.061783,8216.285956
2357.641817,1915.238745,-74.020594,9104.533087
2357.642146,689.485948,-814.226536,8512.368333
2357.642475,1225.752797,-296.082377,9252.574275
2357.642804,306.438199,-814.226536,8364.327145
2357.643133,1149.143247,-74.020594,9030.512492
2357.643462,76.609550,-592.164754,8512.368333
2357.643790,1149.143247,-74.020594,8660.409521
2357.644119,229.828649,-740.205942,8290.306550
2357.644448,459.657299,-666.185348,8290.306550
2357.644777,-459.657299,-888.247130,8734.430116
2357.645106,-536.266849,-1110.308913,8290.306550
2357.645435,-536.266849,-1184.329507,8882.471304
2357.645764,-1532.190996,-1702.473667,8586.388927
2357.646093,-995.924147,-1628.453072,9178.553681
2357.646421,-842.705048,-2072.576638,8734.430116
2357.646750,-766.095498,-1554.432478,8734.430116
2357.647079,-1072.533697,-1850.514855,8956.491898
2357.647408,-383.047749,-1406.391290,9252.574275
2357.647737,-1072.533697,-1406.391290,9030.512492
2357.648066,-689.485948,-1110.308913,9992.780217
2357.648395,-459.657299,-1554.432478,9104.533087
2357.648724,0.000000,-740.205942,9696.697840
2357.649053,-459.657299,-814.226536,9252.574275
2357.649381,76.609550,-370.102971,9326.594869
2357.649710,-306.438199,-518.144159,9104.533087
2357.650039,459.657299,-296.082377,9104.533087
2357.650368,0.000000,-222.061783,8882.471304
2357.650697,459.657299,-296.082377,9104.533087
2357.651026,459.657299,-0.000000,9252.574275
2357.651355,689.485948,-0.000000,8882.471304
2357.651684,383.047749,222.061783,8956.491898
2357.652013,536.266849,-0.000000,8660.409521
2357.652341,459.657299,666.185348,8734.430116
2357.652670,229.828649,444.123565,8882.471304
2357.652999,919.314598,962.267725,9178.553681
2357.653328,919.314598,518.144159,8586.388927
2357.653657,842.705048,1332.370696,9252.574275
2357.653986,842.705048,1036.288319,8364.327145
2357.654315,1532.190996,1554.432478,9104.533087
2357.654644,536.266849,962.267725,8216.285956
2357.654973,1685.410096,1184.329507,9178.553681
2357.655301,76.609550,962.267725,8734.430116
2357.655630,229.828649,666.185348,9696.697840
2357.655959,0.000000,222.061783,9326.594869
2357.656288,76.609550,444.123565,9696.697840
2357.656617,-306.438199,-0.000000,9696.697840
2357.656946,153.219100,-74.020594,9844.739029
2357.657275,0.000000,-0.000000,10362.883188
2357.657604,0.000000,-0.000000,9992.780217
2357.657933,229.828649,-0.000000,10362.883188
2357.658261,766.095498,-296.082377,9992.780217
2357.658590,766.095498,-0.000000,9992.780217
2357.658919,459.657299,-370.102971,9696.697840
2357.659248,766.095498,-0.000000,10066.800811
2357.659577,995.924147,-444.123565,9474.636058
2357.659906,2068.457845,666.185348,9178.553681
2357.660235,1838.629195,-0.000000,8734.430116
2357.660564,2604.724693,444.123565,9104.533087
2357.660893,2068.457845,148.041188,8216.285956
2357.661221,2834.553343,888.247130,8512.368333
2357.661550,1532.190996,370.102971,7994.224174
2357.661879,1915.238745,370.102971,8882.471304
2357.662208,612.876398,-148.041188,8586.388927
2357.662537,766.095498,-74.020594,8734.430116
2357.662866,459.657299,-518.144159,9030.512492
2357.663195,919.314598,-518.144159,8808.450710
2357.663524,229.828649,-592.164754,8660.409521
2357.663853,153.219100,-222.061783,8586.388927
2357.664182,229.828649,-0.000000,8660.409521
2357.664511,0.000000,-888.247130,8142.265362
2357.664840,0.000000,-592.164754,8660.409521
2357.665169,-459.657299,-814.226536,7994.224174
2357.665498,229.828649,-1332.370696,8586.388927
2357.665827,-536.266849,-1776.494261,8216.285956
2357.666156,-459.657299,-1110.308913,8956.491898
2357.666485,-1149.143247,-1850.514855,8364.327145
2357.666813,-536.266849,-1184.329507,9252.574275
2357.667142,-1225.752797,-1702.473667,9030.512492
2357.667471,-689.485948,-1332.370696,9252.574275
2357.667800,-766.095498,-1776.494261,9178.553681
2357.668129,-842.705048,-1702.473667,9474.636058
2357.668458,-842.705048,-1554.432478,9252.574275
2357.668787,-459.657299,-1406.391290,9474.636058
2357.669116,-612.876398,-1258.350101,9474.636058
2357.669445,153.219100,-888.247130,9400.615463
2357.669774,306.438199,-666.185348,9400.615463
2357.670103,459.657299,-370.102971,8734.430116
2357.670432,153.219100,-518.144159,9844.739029
2357.670761,383.047749,-518.144159,8290.306550
2357.671090,229.828649,148.041188,8956.491898
2357.671419,0.000000,-74.020594,8734.430116
2357.671748,306.438199,444.123565,9178.553681
2357.672077,-229.828649,-74.020594,8882.471304
2357.672406,536.266849,666.185348,9252.574275
2357.672735,229.828649,-0.000000,8068.244768
2357.673064,536.266849,1036.288319,8956.491898
2357.673392,306.438199,814.226536,8734.430116
2357.673721,536.266849,1258.350101,8734.430116
2357.674050,459.657299,962.267725,8734.430116
2357.674379,842.705048,1554.432478,8808.450710
2357.674708,1225.752797,962.267725,8586.388927
2357.675037,1225.752797,1110.308913,8512.368333
2357.675366,0.000000,1332.370696,8364.327145
2357.675695,689.485948,962.267725,9104.533087
2357.676024,0.000000,888.247130,9326.594869
2357.676353,229.828649,370.102971,9474.636058
2357.676682,-76.609550,444.123565,9400.615463
2357.677011,0.000000,-148.041188,9326.594869
2357.677340,76.609550,-0.000000,10066.800811
2357.677669,0.000000,-444.123565,9474.636058
2357.677998,153.219100,518.144159,10288.862594
2357.678327,0.000000,-518.144159,9918.759623
2357.678656,536.266849,-0.000000,10066.800811
2357.678985,306.438199,-518.144159,9992.780217
2357.679314,-459.657299,222.061783,10584.944971
2357.679643,689.485948,-518.144159,9992.780217
2357.679972,1762.019645,370.102971,9696.697840
2357.680300,1991.848295,-148.041188,8808.450710
2357.680629,2681.334243,444.123565,9030.512492
2357.680958,2145.067394,370.102971,8068.244768
2357.681287,2834.553343,592.164754,8512.368333
2357.681616,2374.896044,296.082377,8734.430116
2357.681945,2604.724693,296.082377,8586.388927
2357.682274,1302.362347,-0.000000,9326.594869
2357.682603,1378.971896,-222.061783,8586.388927
2357.682932,459.657299,-296.082377,9326.594869
2357.683261,536.266849,-740.205942,8660.409521
2357.683590,229.828649,-518.144159,9326.594869
2357.683919,0.000000,-1036.288319,8512.368333
2357.684248,383.047749,-592.164754,8882.471304
2357.684577,-153.219100,-1110.308913,8290.306550
2357.684906,0.000000,-296.082377,8660.409521
2357.685235,-536.266849,-740.205942,8068.244768
2357.685564,-153.219100,-592.164754,8290.306550
2357.685893,-919.314598,-1184.329507,8512.368333
2357.686222,-459.657299,-1258.350101,8438.347739
2357.686551,-919.314598,-1776.494261,8216.285956
2357.686879,-612.876398,-1406.391290,9252.574275
2357.687208,-1072.533697,-1924.535449,8660.409521
2357.687537,-689.485948,-1628.453072,9030.512492
2357.687866,-1532.190996,-1776.494261,9252.574275
2357.688195,-536.266849,-1998.556043,9326.594869
2357.688524,-995.924147,-1554.432478,9548.656652
2357.688853,-612.876398,-1184.329507,9178.553681
2357.689182,-689.485948,-1110.308913,9474.636058
2357.689511,-689.485948,-1184.329507,8956.491898
2357.689840,-229.828649,-444.123565,9400.615463
2357.690169,0.000000,-518.144159,8882.471304
2357.690498,306.438199,-370.102971,9622.677246
2357.690827,-766.095498,-888.247130,9030.512492
2357.691156,612.876398,-222.061783,9400.615463
2357.691485,-153.219100,-0.000000,9400.615463
2357.691814,383.047749,296.082377,9400.615463
2357.692143,0.000000,-222.061783,8956.491898
2357.692472,459.657299,592.164754,9252.574275
2357.692801,306.438199,370.102971,8956.491898
2357.693130,459.657299,740.205942,9104.533087
2357.693459,76.609550,592.164754,8882.471304
2357.693787,0.000000,1184.329507,9474.636058
2357.694116,76.609550,1036.288319,8808.450710
2357.694445,459.657299,1184.329507,8956.491898
2357.694774,153.219100,1332.370696,8882.471304
2357.695103,229.828649,1776.494261,9030.512492
2357.695432,229.828649,1332.370696,8734.430116
2357.695761,459.657299,814.226536,8956.491898
2357.696090,459.657299,1184.329507,9252.574275
2357.696419,0.000000,370.102971,9178.553681
2357.696748,229.828649,518.144159,9622.677246
2357.697077,0.000000,-0.000000,9622.677246
2357.697406,536.266849,296.082377,10140.821405
2357.697735,0.000000,-666.185348,9992.780217
2357.698064,766.095498,-74.020594,10510.924376
2357.698393,689.485948,-74.020594,9992.780217
2357.698722,919.314598,370.102971,10510.924376
2357.699051,459.657299,-148.041188,9696.697840
2357.699380,2068.457845,518.144159,9622.677246
2357.699709,1685.410096,-0.000000,9178.553681
2357.700038,2528.115143,148.041188,9104.533087
2357.700366,2451.505594,-0.000000,9252.574275
2357.700695,2911.162892,-222.061783,9178.553681
2357.701024,2221.676944,-0.000000,8734.430116
2357.701353,2145.067394,-296.082377,8882.471304
2357.701682,1608.800546,-74.020594,9178.553681
2357.702011,1532.190996,-888.247130,8808.450710
2357.702340,1685.410096,-740.205942,9474.636058
2357.702669,1072.533697,-1110.308913,8734.430116
2357.702998,842.705048,-74.020594,9622.677246
2357.703327,383.047749,-592.164754,8438.347739
2357.703656,919.314598,-0.000000,9326.594869
2357.703985,153.219100,-518.144159,8142.265362
2357.704314,1149.143247,-0.000000,8734.430116
2357.704643,0.000000,-962.267725,7920.203579
2357.704972,459.657299,-666.185348,8512.368333
2357.705301,-306.438199,-740.205942,7920.203579
2357.705630,0.000000,-888.247130,8586.388927
2357.705959,-612.876398,-1184.329507,8142.265362
2357.706288,-153.219100,-1258.350101,8438.347739
2357.706617,-536.266849,-1924.535449,8364.327145
2357.706946,-536.266849,-1480.411884,8512.368333
2357.707274,-1378.971896,-1332.370696,8956.491898
2357.707603,-306.438199,-1406.391290,8734.430116
2357.707932,-1302.362347,-1554.432478,9178.553681
2357.708261,-1225.752797,-1480.411884,9030.512492
2357.708590,-919.314598,-1332.370696,9474.636058
2357.708919,-536.266849,-1406.391290,8142.265362
2357.709248,-229.828649,-888.247130,9474.636058
2357.709577,-766.095498,-1184.329507,8512.368333
2357.709906,536.266849,-444.123565,9030.512492
2357.710235,-459.657299,-740.205942,8364.327145
2357.710564,76.609550,-0.000000,8956.491898
2357.710893,0.000000,-296.082377,8364.327145
2357.711222,153.219100,-222.061783,9252.574275
2357.711551,-153.219100,-444.123565,8808.450710
2357.711880,459.657299,-296.082377,9178.553681
2357.712209,-689.485948,-0.000000,9474.636058
2357.712538,153.219100,222.061783,9474.636058
2357.712867,0.000000,740.205942,9326.594869
2357.713196,153.219100,740.205942,9326.594869
2357.713525,229.828649,1258.350101,9178.553681
2357.713854,612.876398,666.185348,9400.615463
2357.714182,383.047749,1036.288319,9178.553681
2357.714511,459.657299,814.226536,9400.615463
2357.714840,229.828649,1406.391290,9104.533087
2357.715169,459.657299,888.247130,8882.471304
2357.715498,383.047749,1332.370696,9252.574275
2357.715827,383.047749,814.226536,8882.471304
2357.716156,612.876398,1036.288319,9474.636058
2357.716485,229.828649,592.164754,9326.594869
2357.716814,612.876398,296.082377,9844.739029
2357.717143,0.000000,-0.000000,9474.636058
2357.717472,689.485948,444.123565,10066.800811
2357.717801,0.000000,-0.000000,9622.677246
2357.718130,919.314598,518.144159,10584.944971
2357.718459,383.047749,-370.102971,10066.800811
2357.718788,1378.971896,296.082377,9844.739029
2357.719117,1455.581446,296.082377,9548.656652
2357.719446,1762.019645,518.144159,9474.636058
2357.719775,1915.238745,370.102971,9252.574275
2357.720104,2145.067394,370.102971,8882.471304
2357.720433,2145.067394,370.102971,9548.656652
2357.720761,2374.896044,-518.144159,8808.450710
2357.721090,2298.286494,-0.000000,9400.615463
2357.721419,1915.238745,-740.205942,8660.409521
2357.721748,2145.067394,-0.000000,9252.574275
2357.722077,995.924147,-666.185348,8512.368333
2357.722406,1608.800546,-444.123565,9474.636058
2357.722735,919.314598,-1110.308913,8586.388927
2357.723064,1532.190996,-148.041188,9400.615463
2357.723393,536.266849,-740.205942,8216.285956
2357.723722,1225.752797,-74.020594,9178.553681
2357.724051,306.438199,-222.061783,8142.265362
2357.724380,766.095498,-74.020594,8586.388927
2357.724709,0.000000,-592.164754,8364.327145
2357.725038,0.000000,-814.226536,8586.388927
2357.725367,76.609550,-1332.370696,8364.327145
2357.725696,-383.047749,-1332.370696,8068.244768
2357.726025,-153.219100,-1184.329507,8512.368333
2357.726354,-306.438199,-1110.308913,8216.285956
2357.726683,-689.485948,-1258.350101,8438.347739
2357.727012,-919.314598,-1702.473667,8808.450710
2357.727341,-459.657299,-2146.597232,9104.533087
2357.727669,-1225.752797,-1998.556043,8586.388927
2357.727998,-766.095498,-1850.514855,9918.759623
2357.728327,-1838.629195,-1850.514855,9104.533087
2357.728656,-766.095498,-1258.350101,9696.697840
2357.728985,-1149.143247,-1258.350101,8808.450710
2357.729314,0.000000,-740.205942,9400.615463
2357.729643,-459.657299,-666.185348,9104.533087
2357.729972,459.657299,-222.061783,9178.553681
2357.730301,-306.438199,-444.123565,8142.265362
2357.730630,153.219100,-222.061783,8734.430116
2357.730959,-536.266849,-296.082377,8586.388927
2357.731288,76.609550,-0.000000,8808.450710
2357.731617,0.000000,-0.000000,8808.450710
2357.731946,153.219100,-0.000000,8882.471304
2357.732275,153.219100,-74.020594,9104.533087
2357.732604,153.219100,-74.020594,9030.512492
2357.732933,229.828649,592.164754,9252.574275
2357.733262,0.000000,888.247130,9104.533087
2357.733591,76.609550,1480.411884,9178.553681
2357.733920,0.000000,1110.308913,9326.594869
2357.734248,0.000000,1258.350101,9326.594869
2357.734577,153.219100,666.185348,9104.533087
2357.734906,0.000000,1332.370696,9326.594869
2357.735235,536.266849,814.226536,8808.450710
2357.735564,995.924147,1480.411884,9326.594869
2357.735893,383.047749,888.247130,8586.388927
2357.736222,689.485948,1480.411884,9400.615463
2357.736551,0.000000,666.185348,9104.533087
2357.736880,842.705048,296.082377,9918.759623
2357.737209,76.609550,-0.000000,9696.697840
2357.737538,842.705048,-0.000000,10584.944971
2357.737867,-306.438199,222.061783,10140.821405
2357.738196,153.219100,-0.000000,10214.842000
2357.738525,459.657299,148.041188,10288.862594
2357.738854,842.705048,444.123565,9844.739029
2357.739183,1685.410096,-0.000000,9992.780217
2357.739512,1608.800546,-0.000000,9178.553681
2357.739841,2221.676944,-0.000000,9622.677246
2357.740170,2221.676944,370.102971,8364.327145
2357.740499,2757.943793,888.247130,9030.512492
2357.740828,2374.896044,-0.000000,8216.285956
2357.741156,2911.162892,518.144159,8734.430116
2357.741485,1915.238745,-74.020594,8142.265362
2357.741814,2374.896044,-0.000000,8882.471304
2357.742143,1149.143247,-592.164754,8364.327145
2357.742472,1378.971896,-370.102971,9252.574275
2357.742801,229.828649,-814.226536,8956.491898
2357.743130,919.314598,-518.144159,9178.553681
2357.743459,0.000000,-1036.288319,8586.388927
2357.743788,612.876398,-962.267725,8956.491898
2357.744117,76.609550,-1036.288319,8882.471304
2357.744446,229.828649,-296.082377,8808.450710
2357.744775,-229.828649,-740.205942,9104.533087
2357.745104,76.609550,-888.247130,8438.347739
2357.745433,-229.828649,-1036.288319,8734.430116
2357.745762,-153.219100,-962.267725,8216.285956
2357.746091,-689.485948,-962.267725,8660.409521
2357.746420,-689.485948,-1406.391290,8512.368333
2357.746749,-459.657299,-1110.308913,8660.409521
2357.747078,-1378.971896,-1554.432478,8808.450710
2357.747407,-306.438199,-1184.329507,8660.409521
2357.747735,-995.924147,-1776.494261,8882.471304
2357.748064,-766.095498,-1184.329507,9400.615463
2357.748393,-995.924147,-1702.473667,8956.491898
2357.748722,-383.047749,-1184.329507,9400.615463
2357.749051,-1532.190996,-1406.391290,9326.594869
2357.749380,-229.828649,-888.247130,9474.636058
2357.749709,-689.485948,-814.226536,8956.491898
2357.750038,0.000000,-296.082377,9474.636058
2357.750367,-536.266849,-518.144159,9104.533087
2357.750696,0.000000,-370.102971,8956.491898
2357.751025,-306.438199,-0.000000,8660.409521
2357.751354,0.000000,-296.082377,8882.471304
2357.751683,153.219100,-0.000000,9104.533087
2357.752012,-153.219100,592.164754,8734.430116
2357.752341,306.438199,444.123565,9178.553681
2357.752670,-153.219100,-0.000000,8290.306550
2357.752999,76.609550,1036.288319,8808.450710
2357.753328,-306.438199,740.205942,8734.430116
2357.753657,459.657299,962.267725,9326.594869
2357.753986,0.000000,-0.000000,9104.533087
2357.754315,229.828649,814.226536,9104.533087
2357.754643,-229.828649,518.144159,8438.347739
2357.754972,229.828649,1258.350101,9474.636058
2357.755301,0.000000,814.226536,9252.574275
2357.755630,689.485948,1184.329507,9252.574275
2357.755959,229.828649,666.185348,9104.533087
2357.756288,842.705048,962.267725,9474.636058
2357.756617,459.657299,592.164754,9474.636058
2357.756946,536.266849,296.082377,9770.718434
2357.757275,229.828649,592.164754,9918.759623
2357.757604,612.876398,-0.000000,9696.697840
2357.757933,306.438199,296.082377,10140.821405
2357.758262,689.485948,-74.020594,9844.739029
2357.758591,1225.752797,518.144159,10436.903782
2357.758920,153.219100,-222.061783,9474.636058
2357.759249,1532.190996,296.082377,10362.883188
2357.759578,1149.143247,-0.000000,9400.615463
2357.759907,2298.286494,444.123565,9844.739029
2357.760236,1532.190996,-0.000000,8882.471304
2357.760565,2681.334243,-0.000000,9844.739029
2357.760894,1685.410096,-370.102971,8660.409521
2357.761222,2451.505594,-148.041188,9252.574275
2357.761551,1685.410096,-296.082377,8882.471304
2357.761880,2298.286494,-0.000000,8956.491898
2357.762209,1608.800546,-444.123565,8734.430116
2357.762538,2068.457845,-0.000000,8660.409521
2357.762867,1225.752797,-666.185348,8734.430116
2357.763196,1302.362347,-518.144159,8808.450710
2357.763525,459.657299,-370.102971,8882.471304
2357.763854,995.924147,-888.247130,8438.347739
2357.764183,536.266849,-666.185348,8660.409521
2357.764511,0.000000,-666.185348,8290.306550
2357.764840,0.000000,-592.164754,8808.450710
2357.765169,-689.485948,-1332.370696,7994.224174
2357.765498,-306.438199,-1406.391290,8956.491898
2357.765827,-1072.533697,-1776.494261,8216.285956
2357.766156,-766.095498,-1110.308913,8882.471304
2357.766485,-1225.752797,-1628.453072,8290.306550
2357.766814,-612.876398,-1406.391290,8734.430116
2357.767142,-1149.143247,-1924.535449,8586.388927
2357.767471,0.000000,-1850.514855,8882.471304
2357.767800,-1225.752797,-1702.473667,9104.533087
2357.768129,-536.266849,-1554.432478,9474.636058
2357.768458,-995.924147,-1776.494261,9030.512492
2357.768787,-689.485948,-1184.329507,9178.553681
2357.769116,-995.924147,-1036.288319,9178.553681
2357.769445,-459.657299,-740.205942,9030.512492
2357.769773,-383.047749,-592.164754,9178.553681
2357.770102,0.000000,-962.267725,8734.430116
2357.770431,383.047749,-518.144159,8290.306550
2357.770760,0.000000,-296.082377,8734.430116
2357.771089,76.609550,148.041188,9178.553681
2357.771418,0.000000,-296.082377,8512.368333
2357.771747,76.609550,370.102971,9030.512492
2357.772076,153.219100,-0.000000,8660.409521
2357.772404,689.485948,444.123565,8956.491898
2357.772733,0.000000,-0.000000,8734.430116
2357.773062,842.705048,962.267725,9400.615463
2357.773391,0.000000,666.185348,8808.450710
2357.773720,766.095498,1184.329507,9400.615463
2357.774049,612.876398,1110.308913,8586.388927
2357.774378,1455.581446,1702.473667,8512.368333
2357.774707,1225.752797,1406.391290,8290.306550
2357.775035,1455.581446,1480.411884,8808.450710
2357.775364,383.047749,1332.370696,8808.450710
2357.775693,0.000000,1036.288319,9252.574275
2357.776022,-153.219100,666.185348,9474.636058
2357.776351,-306.438199,-0.000000,9622.677246
2357.776680,-995.924147,222.061783,10066.800811
2357.777009,-383.047749,-592.164754,10066.800811
2357.777338,-383.047749,-370.102971,10288.862594
2357.777666,-459.657299,-592.164754,9918.759623
2357.777995,-153.219100,296.082377,10658.965565
2357.778324,76.609550,-74.020594,10436.903782
2357.778653,1225.752797,296.082377,10807.006753
2357.778982,1225.752797,-0.000000,9400.615463
2357.779311,2757.943793,814.226536,10288.862594
2357.779640,2374.896044,592.164754,8808.450710
2357.779969,3294.210641,1036.288319,9252.574275
2357.780297,2221.676944,740.205942,8734.430116
2357.780626,2834.553343,518.144159,8956.491898
2357.780955,2068.457845,-0.000000,8882.471304
2357.781284,2221.676944,-0.000000,9030.512492
2357.781613,1149.143247,-444.123565,9178.553681
2357.781942,1685.410096,-592.164754,9622.677246
2357.782271,1072.533697,-888.247130,9548.656652
2357.782600,766.095498,-814.226536,8734.430116
2357.782928,766.095498,-370.102971,9104.533087
2357.783257,459.657299,-370.102971,8216.285956
2357.783586,842.705048,-0.000000,8882.471304
2357.783915,689.485948,-148.041188,8068.244768
2357.784244,919.314598,-74.020594,8364.327145
2357.784573,383.047749,-592.164754,7624.121203
2357.784902,536.266849,-222.061783,8586.388927
2357.785231,-919.314598,-1258.350101,7476.080014
2357.785559,-306.438199,-1258.350101,8734.430116
2357.785888,-1302.362347,-1702.473667,8142.265362
2357.786217,-459.657299,-1480.411884,9030.512492
2357.786546,-1072.533697,-1998.556043,8364.327145
2357.786875,-612.876398,-1258.350101,8882.471304
2357.787204,-995.924147,-1332.370696,8734.430116
2357.787533,-766.095498,-1258.350101,8882.471304
2357.787862,-1072.533697,-1628.453072,8882.471304
2357.788190,-766.095498,-1480.411884,9030.512492
2357.788519,-995.924147,-1406.391290,9326.594869
2357.788848,-1225.752797,-1406.391290,9030.512492
2357.789177,0.000000,-888.247130,9474.636058
2357.789506,-383.047749,-1184.329507,8882.471304
2357.789835,-153.219100,-444.123565,9400.615463
2357.790164,-306.438199,-962.267725,8808.450710
2357.790493,0.000000,-222.061783,9474.636058
2357.790821,-306.438199,-444.123565,8734.430116
2357.791150,76.609550,-0.000000,9400.615463
2357.791479,-383.047749,-0.000000,8512.368333
2357.791808,76.609550,-74.020594,9474.636058
2357.792137,-306.438199,-0.000000,9104.533087
2357.792466,0.000000,518.144159,9400.615463
2357.792795,-229.828649,518.144159,8882.471304
2357.793124,306.438199,814.226536,9178.553681
2357.793452,229.828649,888.247130,9104.533087
2357.793781,612.876398,814.226536,9178.553681
2357.794110,536.266849,1258.350101,7920.203579
2357.794439,995.924147,1554.432478,8808.450710
2357.794768,612.876398,1850.514855,8512.368333
2357.795097,1149.143247,1110.308913,8290.306550
2357.795426,459.657299,1776.494261,8956.491898
2357.795755,383.047749,888.247130,9030.512492
2357.796083,842.705048,814.226536,9474.636058
2357.796412,0.000000,148.041188,9178.553681
2357.796741,0.000000,518.144159,10362.883188
2357.797070,-689.485948,-148.041188,9918.759623
2357.797399,76.609550,370.102971,10288.862594
2357.797728,-153.219100,-148.041188,9770.718434
2357.798057,766.095498,518.144159,10584.944971
2357.798386,536.266849,-296.082377,9400.615463
2357.798714,2221.676944,888.247130,10214.842000
2357.799043,2221.676944,222.061783,9030.512492
2357.799372,2681.334243,740.205942,9326.594869
2357.799701,2298.286494,592.164754,8882.471304
2357.800030,2987.772442,370.102971,8882.471304
2357.800359,2298.286494,222.061783,8882.471304
2357.800688,1685.410096,-74.020594,9178.553681
2357.801017,1608.800546,-296.082377,9548.656652
2357.801345,1685.410096,-666.185348,9104.533087
2357.801674,536.266849,-296.082377,9918.759623
2357.802003,766.095498,-962.267725,9178.553681
2357.802332,1149.143247,-518.144159,9622.677246
2357.802661,689.485948,-666.185348,8660.409521
2357.802990,1608.800546,-222.061783,9400.615463
2357.803319,766.095498,-518.144159,8142.265362
2357.803648,1225.752797,-0.000000,9178.553681
2357.803976,536.266849,-148.041188,7698.141797
2357.804305,1149.143247,-0.000000,8290.306550
2357.804634,0.000000,-666.185348,7624.121203
2357.804963,76.609550,-518.144159,8364.327145
2357.805292,-919.314598,-1628.453072,7994.224174
2357.805621,-306.438199,-1702.473667,9104.533087
2357.805950,-1225.752797,-1332.370696,8512.368333
2357.806279,-995.924147,-1332.370696,8438.347739
2357.806607,-1455.581446,-1332.370696,8438.347739
2357.806936,-919.314598,-1554.432478,8586.388927
2357.807265,-1302.362347,-1406.391290,8734.430116
2357.807594,-1532.190996,-1702.473667,8808.450710
2357.807923,-1838.629195,-1776.494261,9030.512492
2357.808252,-995.924147,-2220.617826,8808.450710
2357.808581,-1072.533697,-962.267725,9474.636058
2357.808910,-1149.143247,-1480.411884,8882.471304
2357.809238,-689.485948,-740.205942,9474.636058
2357.809567,-689.485948,-1036.288319,8586.388927
2357.809896,153.219100,-222.061783,9178.553681
2357.810225,0.000000,-592.164754,8512.368333
2357.810554,689.485948,-0.000000,9326.594869
2357.810883,-459.657299,-296.082377,8882.471304
2357.811212,-229.828649,-0.000000,9400.615463
2357.811541,-383.047749,-148.041188,9104.533087
2357.811869,0.000000,296.082377,9400.615463
2357.812198,-306.438199,148.041188,9252.574275
2357.812527,0.000000,814.226536,9400.615463
2357.812856,153.219100,518.144159,9400.615463
2357.813185,153.219100,592.164754,9326.594869
2357.813514,919.314598,1184.329507,9030.512492
2357.813843,1302.362347,1554.432478,8512.368333
2357.814172,1762.019645,2072.576638,8586.388927
2357.814500,1991.848295,1554.432478,7920.203579
2357.814829,1838.629195,2220.617826,9030.512492
2357.815158,1455.581446,1184.329507,8364.327145
2357.815487,919.314598,1480.411884,9400.615463
2357.815816,0.000000,370.102971,9326.594869
2357.816145,0.000000,666.185348,10214.842000
2357.816474,-919.314598,-296.082377,9918.759623
2357.816803,-383.047749,-0.000000,10584.944971
2357.817131,-306.438199,-518.144159,10436.903782
2357.817460,153.219100,444.123565,10584.944971
2357.817789,-383.047749,-0.000000,10214.842000
2357.818118,536.266849,370.102971,10362.883188
2357.818447,612.876398,-0.000000,10066.800811
2357.818776,1991.848295,666.185348,9474.636058
2357.819105,1991.848295,518.144159,9400.615463
2357.819434,2911.162892,370.102971,8216.285956
2357.819762,3140.991542,888.247130,9030.512492
2357.820091,2987.772442,518.144159,8586.388927
2357.820420,2834.553343,740.205942,8808.450710
2357.820749,2374.896044,-222.061783,8438.347739
2357.821078,1532.190996,222.061783,9622.677246
2357.821407,919.314598,-740.205942,8956.491898
2357.821736,842.705048,-666.185348,9696.697840
2357.822065,383.047749,-1406.391290,9104.533087
2357.822393,536.266849,-370.102971,9770.718434
2357.822722,-306.438199,-1258.350101,8734.430116
2357.823051,842.705048,-222.061783,9178.553681
2357.823380,536.266849,-740.205942,8142.265362
2357.823709,995.924147,-0.000000,8808.450710
2357.824038,0.000000,-592.164754,8364.327145
2357.824367,1225.752797,-370.102971,8512.368333
2357.824696,76.609550,-370.102971,8216.285956
2357.825024,229.828649,-962.267725,8364.327145
2357.825353,-842.705048,-1184.329507,8512.368333
2357.825682,-383.047749,-1628.453072,8438.347739
2357.826011,-1149.143247,-1480.411884,8734.430116
2357.826340,-229.828649,-1628.453072,8734.430116
2357.826669,-995.924147,-814.226536,8734.430116
2357.826998,-1149.143247,-1480.411884,8586.388927
2357.827327,-1072.533697,-1036.288319,8808.450710
2357.827655,-1149.143247,-1332.370696,8586.388927
2357.827984,-995.924147,-1184.329507,9326.594869
2357.828313,-1455.581446,-1702.473667,8808.450710
2357.828642,-612.876398,-1258.350101,9474.636058
2357.828971,-995.924147,-1480.411884,8438.347739
2357.829300,-766.095498,-1036.288319,9696.697840
2357.829629,-612.876398,-1036.288319,9030.512492
2357.829958,0.000000,-518.144159,9178.553681
2357.830286,-459.657299,-592.164754,8882.471304
2357.830615,306.438199,-592.164754,9104.533087
2357.830944,-306.438199,-296.082377,9104.533087
2357.831273,0.000000,-74.020594,9030.512492
2357.831602,-536.266849,222.061783,9104.533087
2357.831931,0.000000,-0.000000,9104.533087
2357.832260,153.219100,-0.000000,9030.512492
2357.832589,0.000000,-0.000000,8808.450710
2357.832917,0.000000,814.226536,8882.471304
2357.833246,229.828649,518.144159,8808.450710
2357.833575,919.314598,1036.288319,9252.574275
2357.833904,842.705048,814.226536,8364.327145
2357.834233,1762.019645,1554.432478,9178.553681
2357.834562,1378.971896,1184.329507,7698.141797
2357.834891,1532.190996,1628.453072,9474.636058
2357.835220,536.266849,814.226536,8512.368333
2357.835548,919.314598,1480.411884,9622.677246
2357.835877,-459.657299,444.123565,9326.594869
2357.836206,383.047749,444.123565,10288.862594
2357.836535,-689.485948,-0.000000,9844.739029
2357.836864,-229.828649,-0.000000,10362.883188
2357.837193,-383.047749,-0.000000,10288.862594
2357.837522,153.219100,444.123565,10140.821405
2357.837851,0.000000,-0.000000,10140.821405
2357.838179,1302.362347,666.185348,9696.697840
2357.838508,1072.533697,370.102971,9622.677246
2357.838837,2221.676944,888.247130,8882.471304
2357.839166,2451.505594,370.102971,9178.553681
2357.839495,2068.457845,518.144159,8734.430116
2357.839824,2757.943793,888.247130,9104.533087
2357.840153,2451.505594,222.061783,8364.327145
2357.840482,2834.553343,370.102971,9474.636058
2357.840810,1915.238745,-74.020594,8142.265362
2357.841139,1838.629195,148.041188,10066.800811
2357.841468,1072.533697,-592.164754,8734.430116
2357.841797,1685.410096,-296.082377,9326.594869
2357.842126,689.485948,-666.185348,8734.430116
2357.842455,1378.971896,-148.041188,9178.553681
2357.842784,842.705048,-518.144159,8438.347739
2357.843113,1455.581446,-296.082377,8512.368333
2357.843441,842.705048,-888.247130,8216.285956
2357.843770,1225.752797,-296.082377,8438.347739
2357.844099,76.609550,-814.226536,8364.327145
2357.844428,0.000000,-962.267725,8216.285956
2357.844757,-689.485948,-1036.288319,8586.388927
2357.845086,-612.876398,-1110.308913,8364.327145
2357.845415,-536.266849,-1480.411884,9104.533087
2357.845744,-842.705048,-1776.494261,8660.409521
2357.846072,-689.485948,-1554.432478,8512.368333
2357.846401,-1072.533697,-1406.391290,8438.347739
2357.846730,-919.314598,-1258.350101,9030.512492
2357.847059,-995.924147,-1702.473667,8660.409521
2357.847388,-919.314598,-1110.308913,9030.512492
2357.847717,-1225.752797,-1776.494261,8734.430116
2357.848046,-766.095498,-1628.453072,9178.553681
2357.848375,-919.314598,-1776.494261,9104.533087
2357.848703,-689.485948,-1036.288319,9400.615463
2357.849032,-1149.143247,-1110.308913,8956.491898
2357.849361,-459.657299,-740.205942,9474.636058
2357.849690,-842.705048,-888.247130,8808.450710
2357.850019,153.219100,-666.185348,9104.533087
2357.850348,-459.657299,-148.041188,9030.512492
2357.850677,229.828649,-740.205942,8882.471304
2357.851006,-306.438199,-0.000000,8808.450710
2357.851334,76.609550,-222.061783,8808.450710
2357.851663,76.609550,148.041188,8882.471304
2357.851992,76.609550,222.061783,8882.471304
2357.852321,0.000000,370.102971,8956.491898
2357.852650,-306.438199,296.082377,8586.388927
2357.852979,612.876398,888.247130,9326.594869
2357.853308,689.485948,592.164754,8512.368333
2357.853637,1455.581446,1480.411884,8734.430116
2357.853965,995.924147,1184.329507,7920.203579
2357.854294,1685.410096,1702.473667,8586.388927
2357.854623,995.924147,962.267725,8216.285956
2357.854952,1302.362347,1184.329507,9252.574275
2357.855281,153.219100,962.267725,8364.327145
2357.855610,612.876398,518.144159,9918.759623
2357.855939,-689.485948,518.144159,9696.697840
2357.856268,0.000000,-0.000000,10436.903782
2357.856596,-919.314598,-0.000000,9992.780217
2357.856925,-536.266849,-74.020594,10288.862594
2357.857254,-306.438199,222.061783,10436.903782
2357.857583,0.000000,-148.041188,10288.862594
2357.857912,229.828649,370.102971,10510.924376
2357.858241,766.095498,-0.000000,9696.697840
2357.858570,1532.190996,592.164754,9844.739029
2357.858899,1608.800546,518.144159,8956.491898
2357.859227,2681.334243,888.247130,9474.636058
2357.859556,2374.896044,-74.020594,8956.491898
2357.859885,3140.991542,888.247130,9622.677246
2357.860214,1991.848295,-0.000000,8142.265362
2357.860543,2528.115143,370.102971,9696.697840
2357.860872,1455.581446,-0.000000,8882.471304
2357.861201,2068.457845,-0.000000,9474.636058
2357.861530,919.314598,-666.185348,9030.512492
2357.861858,2145.067394,-962.267725,9252.574275
2357.862187,1225.752797,-518.144159,8734.430116
2357.862516,1915.238745,-74.020594,8734.430116
2357.862845,1072.533697,-74.020594,8438.347739
2357.863174,1225.752797,-0.000000,8142.265362
2357.863503,842.705048,-0.000000,8364.327145
2357.863832,536.266849,-222.061783,8142.265362
2357.864161,0.000000,-444.123565,8290.306550
2357.864489,0.000000,-888.247130,7846.182985
2357.864818,0.000000,-962.267725,8586.388927
2357.865147,-1225.752797,-1850.514855,8290.306550
2357.865476,-689.485948,-1332.370696,8808.450710
2357.865805,-995.924147,-1480.411884,8142.265362
2357.866134,-536.266849,-1258.350101,8586.388927
2357.866463,-1149.143247,-1850.514855,8438.347739
2357.866792,-766.095498,-1776.494261,8660.409521
2357.867121,-1455.581446,-1554.432478,8734.430116
2357.867450,-842.705048,-1480.411884,9178.553681
2357.867779,-1378.971896,-2072.576638,8956.491898
2357.868108,-1225.752797,-1554.432478,9474.636058
2357.868437,-1149.143247,-1776.494261,9474.636058
2357.868766,-536.266849,-1702.473667,8882.471304
2357.869095,-1378.971896,-1406.391290,9178.553681
2357.869424,-383.047749,-1332.370696,9326.594869
2357.869753,-153.219100,-0.000000,9844.739029
2357.870082,-229.828649,-666.185348,9178.553681
2357.870411,-229.828649,-74.020594,9400.615463
2357.870740,-229.828649,-444.123565,8438.347739
2357.871069,0.000000,148.041188,9326.594869
2357.871398,-383.047749,-0.000000,8882.471304
2357.871727,229.828649,444.123565,9178.553681
2357.872056,0.000000,222.061783,8956.491898
2357.872385,0.000000,296.082377,9400.615463
2357.872714,0.000000,370.102971,8956.491898
2357.873043,459.657299,888.247130,9104.533087
2357.873372,153.219100,666.185348,8808.450710
2357.873701,842.705048,962.267725,9178.553681
2357.874030,842.705048,518.144159,8882.471304
2357.874359,1455.581446,1776.494261,8660.409521
2357.874688,1225.752797,1554.432478,8438.347739
2357.875017,1532.190996,1554.432478,8734.430116
2357.875346,1149.143247,1850.514855,8882.471304
2357.875675,1302.362347,1628.453072,9178.553681
2357.876004,536.266849,1480.411884,9252.574275
2357.876333,383.047749,444.123565,9548.656652
2357.876663,0.000000,962.267725,10288.862594
2357.876992,0.000000,-814.226536,10066.800811
2357.877321,0.000000,-0.000000,10881.027347
2357.877650,-229.828649,-592.164754,9918.759623
2357.877979,383.047749,-0.000000,10807.006753
2357.878308,459.657299,-148.041188,9770.718434
2357.878637,2145.067394,-0.000000,10436.903782
2357.878966,1378.971896,-296.082377,9252.574275
2357.879295,2451.505594,666.185348,9548.656652
2357.879624,1991.848295,370.102971,8586.388927
2357.879953,2987.772442,962.267725,9622.677246
2357.880282,2145.067394,370.102971,8660.409521
2357.880611,2834.553343,592.164754,9474.636058
2357.880940,2145.067394,-0.000000,9178.553681
2357.881269,1762.019645,-0.000000,9474.636058
2357.881598,1225.752797,-518.144159,9178.553681
2357.881927,1302.362347,-296.082377,9178.553681
2357.882256,842.705048,-518.144159,9474.636058
2357.882585,842.705048,-370.102971,8660.409521
2357.882914,536.266849,-222.061783,8882.471304
2357.883243,536.266849,-0.000000,8142.265362
2357.883572,306.438199,-296.082377,8734.430116
2357.883901,229.828649,-296.082377,7772.162391
2357.884230,612.876398,148.041188,8364.327145
2357.884559,0.000000,-666.185348,7698.141797
2357.884888,-153.219100,-666.185348,8882.471304
2357.885217,-1149.143247,-1406.391290,8068.244768
2357.885546,-383.047749,-1480.411884,8956.491898
2357.885875,-995.924147,-1702.473667,8216.285956
2357.886204,-995.924147,-1184.329507,8660.409521
2357.886533,-1149.143247,-1628.453072,8512.368333
2357.886862,-766.095498,-1184.329507,8734.430116
2357.887191,-995.924147,-1480.411884,8734.430116
2357.887520,-919.314598,-1554.432478,8808.450710
2357.887849,-1149.143247,-1554.432478,8882.471304
2357.888178,-612.876398,-2146.597232,8956.491898
2357.888507,-536.266849,-1554.432478,9030.512492
2357.888836,-842.705048,-1628.453072,9104.533087
2357.889165,-689.485948,-962.267725,9178.553681
2357.889494,-612.876398,-1258.350101,8808.450710
2357.889823,-229.828649,-814.226536,9178.553681
2357.890152,0.000000,-592.164754,8586.388927
2357.890481,-383.047749,-444.123565,9326.594869
2357.890810,-229.828649,-1110.308913,8586.388927
2357.891139,0.000000,-74.020594,9474.636058
2357.891468,-153.219100,-370.102971,8882.471304
2357.891798,306.438199,222.061783,9474.636058
2357.892127,0.000000,-0.000000,9178.553681
2357.892456,383.047749,370.102971,9474.636058
2357.892785,-995.924147,592.164754,9178.553681
2357.893114,612.876398,888.247130,9400.615463
2357.893443,383.047749,888.247130,8734.430116
2357.893772,1378.971896,1332.370696,8882.471304
2357.894101,1532.190996,1776.494261,8142.265362
2357.894430,1762.019645,1776.494261,8290.306550
2357.894759,1225.752797,2294.638420,8068.244768
2357.895088,1072.533697,1480.411884,8068.244768
2357.895417,995.924147,1036.288319,8882.471304
2357.895746,383.047749,444.123565,9178.553681
2357.896075,-229.828649,740.205942,9918.759623
2357.896404,-689.485948,-222.061783,9770.718434
2357.896733,-229.828649,-0.000000,10510.924376
2357.897062,-1302.362347,-296.082377,10066.800811
2357.897391,306.438199,296.082377,10436.903782
2357.897720,0.000000,666.185348,10732.986159
2357.898049,536.266849,814.226536,10584.944971
2357.898378,153.219100,-0.000000,10140.821405
2357.898707,1225.752797,296.082377,10288.862594
2357.899036,1608.800546,296.082377,9326.594869
2357.899365,3217.601092,592.164754,9326.594869
2357.899694,2834.553343,666.185348,7920.203579
2357.900023,3370.820191,740.205942,9400.615463
2357.900352,2757.943793,444.123565,8512.368333
2357.900681,2604.724693,-0.000000,8956.491898
2357.901010,1991.848295,-0.000000,9252.574275
2357.901339,1685.410096,-370.102971,8956.491898
2357.901668,612.876398,-0.000000,10140.821405
2357.901997,612.876398,-1184.329507,9178.553681
2357.902326,766.095498,-666.185348,9770.718434
2357.902655,689.485948,-740.205942,8512.368333
2357.902984,1225.752797,-0.000000,9104.533087
2357.903313,459.657299,-296.082377,7994.224174
2357.903642,1302.362347,-0.000000,8956.491898
2357.903971,306.438199,-296.082377,7772.162391
2357.904300,995.924147,-222.061783,8586.388927
2357.904629,-689.485948,-1258.350101,7920.203579
2357.904958,-306.438199,-1036.288319,8512.368333
2357.905287,-1302.362347,-1776.494261,8142.265362
2357.905616,-612.876398,-1480.411884,8734.430116
2357.905945,-1072.533697,-1628.453072,8068.244768
2357.906274,-689.485948,-1628.453072,8438.347739
2357.906603,-1072.533697,-1776.494261,8364.327145
2357.906933,-1302.362347,-1258.350101,8438.347739
2357.907262,-995.924147,-1406.391290,8586.388927
2357.907591,-1149.143247,-1332.370696,8512.368333
2357.907920,-1225.752797,-1776.494261,9400.615463
2357.908249,-1378.971896,-1702.473667,8808.450710
2357.908578,-612.876398,-1776.494261,9400.615463
2357.908907,-919.314598,-1850.514855,8882.471304
2357.909236,-306.438199,-888.247130,9474.636058
2357.909565,-766.095498,-1332.370696,8438.347739
2357.909894,0.000000,-370.102971,9178.553681
2357.910223,-536.266849,-666.185348,8438.347739
2357.910552,0.000000,-370.102971,9474.636058
2357.910881,-536.266849,-74.020594,8808.450710
2357.911210,229.828649,-592.164754,9326.594869
2357.911539,-383.047749,-518.144159,9104.533087
2357.911868,76.609550,-0.000000,9400.615463
2357.912197,-459.657299,-0.000000,9474.636058
2357.912526,76.609550,370.102971,9326.594869
2357.912855,76.609550,592.164754,9252.574275
2357.913184,459.657299,370.102971,8956.491898
2357.913513,459.657299,888.247130,9474.636058
2357.913842,919.314598,444.123565,8882.471304
2357.914171,1532.190996,1554.432478,8586.388927
2357.914500,1762.019645,1628.453072,8290.306550
2357.914829,1838.629195,2220.617826,8734.430116
2357.915158,1302.362347,1184.329507,7994.224174
2357.915487,1302.362347,1628.453072,9474.636058
2357.915816,383.047749,666.185348,9252.574275
2357.916145,766.095498,1258.350101,10288.862594
2357.916474,-459.657299,-0.000000,9548.656652
2357.916803,306.438199,-0.000000,10732.986159
2357.917132,-229.828649,-592.164754,10066.800811
2357.917461,459.657299,296.082377,10584.944971
2357.917790,0.000000,-0.000000,10288.862594
2357.918119,1072.533697,370.102971,10214.842000
2357.918448,995.924147,370.102971,9696.697840
2357.918777,1991.848295,740.205942,9696.697840
2357.919106,2068.457845,1184.329507,9696.697840
2357.919435,2451.505594,222.061783,8882.471304
2357.919764,2451.505594,592.164754,8956.491898
2357.920093,2451.505594,370.102971,8512.368333
2357.920422,2374.896044,-0.000000,9104.533087
2357.920751,1455.581446,-74.020594,8956.491898
2357.921080,2221.676944,-444.123565,9622.677246
2357.921409,842.705048,-1184.329507,8364.327145
2357.921738,1608.800546,-370.102971,10066.800811
2357.922068,766.095498,-1036.288319,8956.491898
2357.922397,1149.143247,-370.102971,9548.656652
2357.922726,306.438199,-296.082377,8438.347739
2357.923055,1378.971896,-0.000000,9178.553681
2357.923384,229.828649,-74.020594,8142.265362
2357.923713,229.828649,148.041188,9178.553681
2357.924042,153.219100,-592.164754,8512.368333
2357.924371,76.609550,-0.000000,8364.327145
2357.924700,-766.095498,-888.247130,8216.285956
2357.925029,-383.047749,-1036.288319,8438.347739
2357.925358,-1072.533697,-1554.432478,8512.368333
2357.925687,-689.485948,-1702.473667,8808.450710
2357.926016,-536.266849,-1850.514855,8808.450710
2357.926345,-766.095498,-1258.350101,8586.388927
2357.926674,-995.924147,-1406.391290,8586.388927
2357.927003,-919.314598,-1332.370696,8586.388927
2357.927332,-689.485948,-1184.329507,8956.491898
2357.927661,-1149.143247,-1554.432478,8512.368333
2357.927990,-1149.143247,-1406.391290,9178.553681
2357.928319,-1762.019645,-1554.432478,9030.512492
2357.928648,-766.095498,-1036.288319,9326.594869
2357.928977,-995.924147,-1554.432478,8660.409521
2357.929306,-459.657299,-962.267725,9400.615463
2357.929635,-1072.533697,-888.247130,8808.450710
2357.929964,0.000000,-518.144159,8956.491898
2357.930293,-766.095498,-666.185348,8438.347739
2357.930622,229.828649,-592.164754,9104.533087
2357.930951,0.000000,-370.102971,8808.450710
2357.931280,153.219100,-0.000000,9104.533087
2357.931609,-383.047749,-0.000000,9030.512492
2357.931938,0.000000,-0.000000,8956.491898
2357.932267,-153.219100,370.102971,9104.533087
2357.932596,153.219100,-0.000000,9104.533087
2357.932925,612.876398,518.144159,8882.471304
2357.933254,1149.143247,1184.329507,8734.430116
2357.933583,1762.019645,1776.494261,8882.471304
2357.933912,1608.800546,1258.350101,7994.224174
2357.934241,1685.410096,2146.597232,8808.450710
2357.934570,842.705048,1332.370696,8290.306550
2357.934899,842.705048,1702.473667,9696.697840
2357.935228,0.000000,518.144159,8882.471304
2357.935557,306.438199,518.144159,10140.821405
2357.935886,-612.876398,-0.000000,9548.656652
2357.936215,-229.828649,518.144159,10510.924376
2357.936544,-689.485948,-74.020594,10214.842000
2357.936873,0.000000,444.123565,10288.862594
2357.937203,-536.266849,148.041188,10510.924376
2357.937532,229.828649,370.102971,10288.862594
2357.937861,0.000000,-0.000000,10658.965565
2357.938190,919.314598,444.123565,10288.862594
2357.938519,1378.971896,518.144159,9696.697840
2357.938848,1838.629195,740.205942,9474.636058
2357.939177,2145.067394,962.267725,9252.574275
2357.939506,2298.286494,518.144159,8364.327145
2357.939835,2757.943793,666.185348,8882.471304
2357.940164,2681.334243,-0.000000,8438.347739
2357.940493,2451.505594,888.247130,9474.636058
2357.940822,1455.581446,-148.041188,8290.306550
2357.941151,1991.848295,370.102971,9400.615463
2357.941480,919.314598,-814.226536,8734.430116
2357.941809,1378.971896,-370.102971,9622.677246
2357.942138,536.266849,-1258.350101,8660.409521
2357.942467,1608.800546,-296.082377,9326.594869
2357.942796,612.876398,-296.082377,8290.306550
2357.943125,1455.581446,-0.000000,8882.471304
2357.943454,536.266849,-370.102971,8364.327145
2357.943783,995.924147,-296.082377,8216.285956
2357.944112,919.314598,-962.267725,8216.285956
2357.944441,766.095498,-814.226536,8068.244768
2357.944770,0.000000,-740.205942,9030.512492
2357.945099,-536.266849,-1480.411884,8290.306550
2357.945428,-689.485948,-1480.411884,8660.409521
2357.945757,-995.924147,-1850.514855,8364.327145
2357.946086,-995.924147,-1184.329507,8882.471304
2357.946415,-536.266849,-1776.494261,8142.265362
2357.946744,-995.924147,-1258.350101,9030.512492
2357.947073,-1378.971896,-1702.473667,8586.388927
2357.947402,-1149.143247,-1258.350101,9400.615463
2357.947731,-1225.752797,-1776.494261,8586.388927
2357.948060,-842.705048,-1036.288319,9178.553681
2357.948389,-1302.362347,-1332.370696,9104.533087
2357.948718,-995.924147,-1258.350101,9474.636058
2357.949047,-995.924147,-1332.370696,9252.574275
2357.949376,76.609550,-888.247130,9622.677246
2357.949705,-995.924147,-962.267725,9030.512492
2357.950034,0.000000,-444.123565,9400.615463
2357.950363,-536.266849,-296.082377,8882.471304
2357.950692,0.000000,-222.061783,8882.471304
2357.951021,0.000000,148.041188,8808.450710
2357.951350,229.828649,-0.000000,8808.450710
2357.951679,-689.485948,370.102971,9252.574275
2357.952008,0.000000,-0.000000,8808.450710
2357.952338,153.219100,592.164754,9104.533087
2357.952667,0.000000,296.082377,8882.471304
2357.952996,229.828649,740.205942,9104.533087
2357.953325,76.609550,-0.000000,8956.491898
2357.953654,612.876398,1036.288319,9474.636058
2357.953983,459.657299,1036.288319,8882.471304
2357.954312,1378.971896,1628.453072,9178.553681
2357.954641,1149.143247,1554.432478,8290.306550
2357.954970,1762.019645,2072.576638,9104.533087
2357.955299,766.095498,1554.432478,8512.368333
2357.955628,1225.752797,1554.432478,9400.615463
2357.955957,306.438199,1332.370696,9400.615463
2357.956286,383.047749,592.164754,9918.759623
2357.956615,-383.047749,296.082377,10066.800811
2357.956944,-153.219100,-222.061783,10510.924376
2357.957273,-306.438199,-74.020594,10658.965565
2357.957602,0.000000,-222.061783,10362.883188
2357.957931,612.876398,-370.102971,10732.986159
2357.958260,689.485948,-0.000000,9992.780217
2357.958589,1532.190996,-0.000000,10140.821405
2357.958918,1532.190996,-0.000000,8956.491898
2357.959247,2451.505594,740.205942,9696.697840
2357.959576,2221.676944,370.102971,8660.409521
2357.959905,3217.601092,1110.308913,9178.553681
2357.960234,2604.724693,592.164754,8216.285956
2357.960563,2911.162892,962.267725,9252.574275
2357.960892,1608.800546,-0.000000,8734.430116
2357.961221,2068.457845,-148.041188,9252.574275
2357.961550,842.705048,-740.205942,9030.512492
2357.961879,1455.581446,-370.102971,9474.636058
2357.962208,306.438199,-814.226536,9178.553681
2357.962537,842.705048,-740.205942,9104.533087
2357.962866,306.438199,-518.144159,8882.471304
2357.963195,766.095498,-518.144159,8512.368333
2357.963524,612.876398,-444.123565,8512.368333
2357.963853,919.314598,-296.082377,7550.100608
2357.964182,995.924147,-0.000000,8438.347739
2357.964511,229.828649,-74.020594,7624.121203
2357.964840,383.047749,-222.061783,8512.368333
2357.965169,-536.266849,-666.185348,7550.100608
2357.965499,-459.657299,-1184.329507,8808.450710
2357.965828,-612.876398,-2072.576638,8364.327145
2357.966157,-536.266849,-1776.494261,8956.491898
2357.966486,-1455.581446,-2072.576638,8660.409521
2357.966815,-919.314598,-1628.453072,9104.533087
2357.967144,-1455.581446,-1850.514855,8734.430116
2357.967473,-1149.143247,-1628.453072,9252.574275
2357.967802,-1762.019645,-1628.453072,9400.615463
2357.968131,-1225.752797,-1628.453072,9548.656652
2357.968460,-1532.190996,-1628.453072,9474.636058
2357.968789,-995.924147,-1406.391290,9400.615463
2357.969118,-1302.362347,-1036.288319,8808.450710
2357.969448,-459.657299,-1184.329507,9178.553681
2357.969777,-383.047749,-592.164754,9104.533087
2357.970106,153.219100,-592.164754,8808.450710
2357.970435,153.219100,-444.123565,8882.471304
2357.970764,0.000000,-1036.288319,8216.285956
2357.971093,-306.438199,-0.000000,9400.615463
2357.971422,-383.047749,-296.082377,8956.491898
2357.971751,229.828649,296.082377,9104.533087
2357.972080,0.000000,-0.000000,8734.430116
2357.972409,229.828649,1036.288319,9474.636058
2357.972738,0.000000,740.205942,8882.471304
2357.973068,766.095498,740.205942,9104.533087
2357.973397,612.876398,888.247130,9104.533087
2357.973726,1225.752797,1480.411884,8882.471304
2357.974055,919.314598,1480.411884,8586.388927
2357.974384,1378.971896,1628.453072,8882.471304
2357.974713,766.095498,1776.494261,8290.306550
2357.975042,1915.238745,888.247130,9178.553681
2357.975371,1149.143247,1184.329507,8734.430116
2357.975700,919.314598,740.205942,9474.636058
2357.976029,76.609550,1110.308913,9326.594869
2357.976358,0.000000,-0.000000,9696.697840
2357.976688,0.000000,222.061783,10066.800811
2357.977017,-383.047749,-148.041188,9992.780217
2357.977346,383.047749,-0.000000,10955.047942
2357.977675,0.000000,-444.123565,9918.759623
2357.978004,383.047749,370.102971,10658.965565
2357.978333,459.657299,-74.020594,9918.759623
2357.978662,1762.019645,592.164754,10140.821405
2357.978991,1225.752797,148.041188,9252.574275
2357.979320,3294.210641,962.267725,9918.759623
2357.979649,2757.943793,-0.000000,9030.512492
2357.979978,3370.820191,-74.020594,9474.636058
2357.980308,1915.238745,-444.123565,9030.512492
2357.980637,2528.115143,-0.000000,9474.636058
2357.980966,1225.752797,-74.020594,8808.450710
2357.981295,1608.800546,-0.000000,9178.553681
2357.981624,919.314598,-518.144159,9104.533087
2357.981953,1302.362347,-518.144159,8956.491898
2357.982282,919.314598,-888.247130,9326.594869
2357.982611,689.485948,-518.144159,8216.285956
2357.982940,842.705048,-296.082377,8660.409521
2357.983269,995.924147,-222.061783,7846.182985
2357.983598,842.705048,222.061783,8512.368333
2357.983927,459.657299,-444.123565,7698.141797
2357.984257,919.314598,-148.041188,8216.285956
2357.984586,383.047749,-1036.288319,7846.182985
2357.984915,76.609550,-888.247130,8660.409521
2357.985244,-842.705048,-1554.432478,7920.203579
2357.985573,-229.828649,-1406.391290,8660.409521
2357.985902,-995.924147,-1554.432478,7994.224174
2357.986231,-612.876398,-1184.329507,8438.347739
2357.986560,-1225.752797,-1480.411884,8216.285956
2357.986889,0.000000,-1258.350101,8956.491898
2357.987218,-766.095498,-1776.494261,8734.430116
2357.987547,-766.095498,-1184.329507,8882.471304
2357.987877,-1149.143247,-1628.453072,8882.471304
2357.988206,-919.314598,-1702.473667,9252.574275
2357.988535,-995.924147,-1406.391290,9326.594869
2357.988864,-1072.533697,-1776.494261,9326.594869
2357.989193,-689.485948,-1184.329507,9696.697840
2357.989522,-536.266849,-1628.453072,9474.636058
2357.989851,0.000000,-592.164754,9400.615463
2357.990180,-689.485948,-888.247130,8956.491898
2357.990509,-306.438199,-296.082377,9474.636058
2357.990838,-689.485948,-518.144159,9030.512492
2357.991167,0.000000,296.082377,9252.574275
2357.991497,-383.047749,-518.144159,9104.533087
2357.991826,153.219100,444.123565,9622.677246
2357.992155,-306.438199,-0.000000,9030.512492
2357.992484,76.609550,666.185348,9548.656652
2357.992813,-306.438199,444.123565,9178.553681
2357.993142,383.047749,1184.329507,9400.615463
2357.993471,0.000000,962.267725,9178.553681
2357.993800,689.485948,1480.411884,9400.615463
2357.994129,383.047749,1406.391290,9178.553681
2357.994458,919.314598,1258.350101,8882.471304
2357.994787,1072.533697,1924.535449,8290.306550
2357.995117,1225.752797,1480.411884,8216.285956
2357.995446,1072.533697,1998.556043,8586.388927
2357.995775,306.438199,1110.308913,8734.430116
2357.996104,1149.143247,1110.308913,9400.615463
2357.996433,229.828649,592.164754,8956.491898
2357.996762,306.438199,740.205942,10214.842000
2357.997091,-536.266849,-444.123565,9622.677246
2357.997420,76.609550,-0.000000,10436.903782
2357.997749,-153.219100,-370.102971,9770.718434
2357.998078,995.924147,-74.020594,10584.944971
2357.998407,766.095498,-222.061783,9918.759623
2357.998737,1991.848295,962.267725,10066.800811
2357.999066,1838.629195,222.061783,9178.553681
2357.999395,2681.334243,666.185348,9400.615463
2357.999724,2221.676944,370.102971,8808.450710
2358.000053,2681.334243,444.123565,8956.491898
2358.000382,2298.286494,370.102971,8808.450710
2358.000711,2451.505594,-148.041188,9178.553681
2358.001040,2068.457845,-444.123565,9104.533087
2358.001369,1225.752797,-666.185348,9178.553681
2358.001698,766.095498,-370.102971,9918.759623
2358.002027,536.266849,-1110.308913,9030.512492
2358.002356,612.876398,-518.144159,9400.615463
2358.002686,459.657299,-592.164754,8882.471304
2358.003015,995.924147,-444.123565,9400.615463
2358.003344,306.438199,-740.205942,8216.285956
2358.003673,1072.533697,296.082377,9474.636058
2358.004002,306.438199,-592.164754,8068.244768
2358.004331,995.924147,-148.041188,8512.368333
2358.004660,0.000000,-518.144159,7624.121203
2358.004989,229.828649,-370.102971,8290.306550
2358.005318,-995.924147,-962.267725,7994.224174
2358.005647,-306.438199,-1110.308913,8734.430116
2358.005976,-1762.019645,-1776.494261,8734.430116
2358.006306,-919.314598,-2146.597232,8512.368333
2358.006635,-1455.581446,-1628.453072,8586.388927
2358.006964,-995.924147,-1702.473667,8734.430116
2358.007293,-1149.143247,-1258.350101,8882.471304
2358.007622,-1149.143247,-1628.453072,8734.430116
2358.007951,-1378.971896,-1258.350101,9326.594869
2358.008280,-1225.752797,-1554.432478,9326.594869
2358.008609,-689.485948,-1184.329507,9326.594869
2358.008938,-842.705048,-1332.370696,8956.491898
2358.009267,-536.266849,-592.164754,9474.636058
2358.009596,-689.485948,-1036.288319,8734.430116
2358.009926,-229.828649,-222.061783,9326.594869
2358.010255,-383.047749,-444.123565,8882.471304
2358.010584,-536.266849,-444.123565,9252.574275
2358.010913,-459.657299,-592.164754,9030.512492
2358.011242,0.000000,-74.020594,9400.615463
2358.011571,-306.438199,-222.061783,8808.450710
2358.011900,689.485948,-0.000000,9178.553681
2358.012229,383.047749,666.185348,8660.409521
2358.012558,766.095498,592.164754,8882.471304
2358.012887,1225.752797,1110.308913,8068.244768
2358.013216,2068.457845,1480.411884,8660.409521
2358.013546,1302.362347,1554.432478,8882.471304
2358.013875,919.314598,1036.288319,8660.409521
2358.014204,766.095498,1258.350101,9474.636058
2358.014533,76.609550,592.164754,8956.491898
2358.014862,612.876398,1258.350101,9622.677246
2358.015191,306.438199,-222.061783,8512.368333
2358.015520,0.000000,1258.350101,10066.800811
2358.015849,-383.047749,444.123565,9400.615463
2358.016178,229.828649,1184.329507,10214.842000
2358.016507,-383.047749,370.102971,9326.594869
2358.016836,383.047749,666.185348,10066.800811
2358.017165,76.609550,296.082377,9696.697840
2358.017495,1149.143247,222.061783,10436.903782
2358.017824,306.438199,-0.000000,9326.594869
2358.018153,1378.971896,518.144159,9770.718434
2358.018482,1149.143247,814.226536,9400.615463
2358.018811,2145.067394,592.164754,9474.636058
2358.019140,1762.019645,814.226536,9178.553681
2358.019469,2298.286494,444.123565,9252.574275
2358.019798,1149.143247,518.144159,9474.636058
2358.020127,1685.410096,-296.082377,8956.491898
2358.020456,1455.581446,222.061783,9770.718434
2358.020785,1149.143247,-444.123565,8586.388927
2358.021115,1455.581446,-74.020594,9548.656652
2358.021444,842.705048,-740.205942,8734.430116
2358.021773,1608.800546,-74.020594,9844.739029
2358.022102,612.876398,-888.247130,8734.430116
2358.022431,1608.800546,-740.205942,9400.615463
2358.022760,766.095498,-444.123565,8290.306550
2358.023089,1685.410096,-444.123565,9178.553681
2358.023418,766.095498,-296.082377,8068.244768
2358.023747,1455.581446,-74.020594,8586.388927
2358.024076,612.876398,-814.226536,7994.224174
2358.024405,995.924147,518.144159,8660.409521
2358.024735,0.000000,-740.205942,8364.327145
2358.025064,-153.219100,-814.226536,8364.327145
2358.025393,-1149.143247,-888.247130,8882.471304
2358.025722,-1455.581446,-1258.350101,8512.368333
2358.026051,-1608.800546,-1332.370696,8956.491898
2358.026380,-1378.971896,-1702.473667,8438.347739
2358.026709,-1455.581446,-1258.350101,9252.574275
2358.027038,-1302.362347,-2368.659014,8586.388927
2358.027367,-1225.752797,-1406.391290,9252.574275
2358.027696,-1532.190996,-1702.473667,8660.409521
2358.028025,-995.924147,-1258.350101,9474.636058
2358.028355,-1302.362347,-1332.370696,8734.430116
2358.028684,-229.828649,-740.205942,9252.574275
2358.029013,-1072.533697,-1332.370696,8586.388927
2358.029342,76.609550,-666.185348,9548.656652
2358.029671,-612.876398,-666.185348,8882.471304
2358.030000,0.000000,-296.082377,8956.491898
2358.030329,-536.266849,-296.082377,8882.471304
2358.030658,0.000000,-74.020594,8882.471304
2358.030987,306.438199,-74.020594,8808.450710
2358.031316,459.657299,-444.123565,8734.430116
2358.031645,612.876398,222.061783,8956.491898
2358.031975,995.924147,-148.041188,8512.368333
2358.032304,766.095498,592.164754,8956.491898
2358.032633,842.705048,444.123565,8438.347739
2358.032962,995.924147,962.267725,8956.491898
2358.033291,689.485948,814.226536,8808.450710
2358.033620,612.876398,1110.308913,9548.656652
2358.033949,1072.533697,222.061783,9252.574275
2358.034278,995.924147,1332.370696,9770.718434
2358.034607,536.266849,740.205942,9178.553681
2358.034936,1072.533697,1406.391290,9918.759623
2358.035265,76.609550,1036.288319,9030.512492
2358.035594,306.438199,1184.329507,10066.800811
2358.035924,306.438199,592.164754,9178.553681
2358.036253,1072.533697,1110.308913,9918.759623
2358.036582,-306.438199,740.205942,9474.636058
2358.036911,383.047749,518.144159,10066.800811
2358.037240,0.000000,-0.000000,9844.739029
2358.037569,612.876398,296.082377,9992.780217
2358.037898,766.095498,-74.020594,9844.739029
2358.038227,1302.362347,-0.000000,9622.677246
2358.038556,1762.019645,666.185348,9992.780217
2358.038885,1838.629195,222.061783,9326.594869
2358.039214,2298.286494,1036.288319,9548.656652
2358.039544,1762.019645,666.185348,8882.471304
2358.039873,2451.505594,962.267725,9474.636058
2358.040202,1532.190996,222.061783,8660.409521
2358.040531,2681.334243,296.082377,9622.677246
2358.040860,1302.362347,-370.102971,8142.265362
2358.041189,1915.238745,-148.041188,9400.615463
2358.041518,536.266849,-592.164754,8438.347739
2358.041847,919.314598,-592.164754,9474.636058
2358.042176,0.000000,-1184.329507,8512.368333
2358.042505,1072.533697,-740.205942,9474.636058
2358.042834,0.000000,-1258.350101,8660.409521
2358.043164,306.438199,-444.123565,8882.471304
2358.043493,153.219100,-962.267725,8364.327145
2358.043822,689.485948,-666.185348,8586.388927
2358.044151,76.609550,-0.000000,8142.265362
2358.044480,306.438199,-592.164754,7920.203579
2358.044809,0.000000,-518.144159,8438.347739
2358.045138,-153.219100,-740.205942,8142.265362
2358.045467,-766.095498,-888.247130,8290.306550
2358.045796,-1072.533697,-1554.432478,8512.368333
2358.046125,-995.924147,-1554.432478,9400.615463
2358.046454,-1838.629195,-2072.576638,8734.430116
2358.046784,-1378.971896,-1628.453072,8808.450710
2358.047113,-1762.019645,-2072.576638,8734.430116
2358.047442,-1378.971896,-1332.370696,9104.533087
2358.047771,-1991.848295,-1258.350101,9252.574275
2358.048100,-995.924147,-1480.411884,9844.739029
2358.048429,-995.924147,-1628.453072,9030.512492
2358.048758,-612.876398,-1184.329507,9474.636058
2358.049087,-1072.533697,-1110.308913,8808.450710
2358.049416,-459.657299,-814.226536,9474.636058
2358.049745,-766.095498,-518.144159,9104.533087
2358.050074,-383.047749,-592.164754,8956.491898
2358.050403,-153.219100,-518.144159,8882.471304
2358.050733,0.000000,-222.061783,9326.594869
2358.051062,306.438199,-0.000000,9178.553681
2358.051391,689.485948,-0.000000,8586.388927
2358.051720,1072.533697,1036.288319,8660.409521
2358.052049,1149.143247,666.185348,8142.265362
2358.052378,1915.238745,962.267725,8290.306550
2358.052707,1149.143247,666.185348,8438.347739
2358.053036,1378.971896,1110.308913,9252.574275
2358.053365,689.485948,518.144159,8734.430116
2358.053694,919.314598,1184.329507,9696.697840
2358.054023,0.000000,740.205942,9178.553681
2358.054353,766.095498,962.267725,9992.780217
2358.054682,229.828649,740.205942,9400.615463
2358.055011,995.924147,740.205942,10288.862594
2358.055340,383.047749,518.144159,9474.636058
2358.055669,842.705048,814.226536,9696.697840
2358.055998,306.438199,1036.288319,9474.636058
2358.056327,459.657299,962.267725,9474.636058
2358.056656,153.219100,592.164754,9548.656652
2358.056985,0.000000,222.061783,9696.697840
2358.057314,229.828649,-0.000000,10288.862594
2358.057643,536.266849,-148.041188,9992.780217
2358.057973,383.047749,-0.000000,9844.739029
2358.058302,459.657299,-222.061783,9770.718434
2358.058631,1302.362347,296.082377,10214.842000
2358.058960,766.095498,-148.041188,9104.533087
2358.059289,1532.190996,962.267725,10288.862594
2358.059618,1149.143247,-0.000000,9178.553681
2358.059947,2987.772442,592.164754,9548.656652
2358.060276,2298.286494,-0.000000,8438.347739
2358.060605,2528.115143,444.123565,9178.553681
2358.060934,1762.019645,370.102971,8290.306550
2358.061263,2374.896044,518.144159,9030.512492
2358.061593,842.705048,-296.082377,8068.244768
2358.061922,1532.190996,-740.205942,8808.450710
2358.062251,612.876398,-296.082377,8882.471304
2358.062580,766.095498,-666.185348,9104.533087
2358.062909,229.828649,-666.185348,8586.388927
2358.063238,0.000000,-888.247130,8290.306550
2358.063567,76.609550,-962.267725,8734.430116
2358.063896,0.000000,-1184.329507,7994.224174
2358.064225,459.657299,-444.123565,8660.409521
2358.064554,0.000000,-740.205942,7920.203579
2358.064883,383.047749,-814.226536,8586.388927
2358.065213,-383.047749,-1036.288319,7846.182985
2358.065542,-306.438199,-888.247130,8586.388927
2358.065871,-1149.143247,-1110.308913,8068.244768
2358.066200,-1378.971896,-1036.288319,9030.512492
2358.066529,-1762.019645,-1998.556043,8438.347739
2358.066858,-1072.533697,-1850.514855,9474.636058
2358.067187,-1685.410096,-1924.535449,9178.553681
2358.067516,-1072.533697,-1628.453072,9178.553681
2358.067845,-1762.019645,-1554.432478,9030.512492
2358.068174,-1149.143247,-1480.411884,9474.636058
2358.068503,-1225.752797,-1924.535449,9474.636058
2358.068832,-612.876398,-1702.473667,9474.636058
2358.069161,-1532.190996,-1110.308913,9474.636058
2358.069490,-689.485948,-1036.288319,9548.656652
2358.069819,-612.876398,-148.041188,9400.615463
2358.070148,-306.438199,-666.185348,9326.594869
2358.070477,0.000000,-0.000000,9474.636058
2358.070806,0.000000,-222.061783,9326.594869
2358.071135,919.314598,518.144159,8956.491898
2358.071464,459.657299,370.102971,8734.430116
2358.071793,1455.581446,814.226536,9104.533087
2358.072122,766.095498,518.144159,7920.203579
2358.072451,1838.629195,1036.288319,8882.471304
2358.072780,919.314598,962.267725,8142.265362
2358.073109,1762.019645,1406.391290,8956.491898
2358.073438,1149.143247,518.144159,7920.203579
2358.073767,1378.971896,962.267725,9400.615463
2358.074096,612.876398,296.082377,9104.533087
2358.074425,1072.533697,962.267725,9474.636058
2358.074754,459.657299,962.267725,9326.594869
2358.075083,766.095498,1184.329507,9400.615463
2358.075412,153.219100,740.205942,9548.656652
2358.075741,536.266849,888.247130,9252.574275
2358.076070,459.657299,888.247130,9696.697840
2358.076399,612.876398,666.185348,8956.491898
2358.076728,536.266849,814.226536,9992.780217
2358.077057,689.485948,-0.000000,9326.594869
2358.077386,995.924147,444.123565,9992.780217
2358.077715,842.705048,-74.020594,9178.553681
2358.078044,1685.410096,-74.020594,9992.780217
2358.078373,842.705048,-296.082377,9400.615463
2358.078702,1991.848295,370.102971,10214.842000
2358.079030,1149.143247,-222.061783,8956.491898
2358.079359,1915.238745,444.123565,9992.780217
2358.079688,1149.143247,-148.041188,9178.553681
2358.080017,2145.067394,-0.000000,9548.656652
2358.080346,766.095498,-370.102971,9030.512492
2358.080675,1685.410096,-296.082377,9696.697840
2358.081004,1455.581446,-740.205942,8956.491898
2358.081333,919.314598,-222.061783,9178.553681
2358.081662,842.705048,-222.061783,9030.512492
2358.081991,995.924147,-296.082377,8586.388927
2358.082320,536.266849,-444.123565,9030.512492
2358.082649,842.705048,-814.226536,8660.409521
2358.082978,612.876398,-592.164754,8956.491898
2358.083307,-306.438199,-592.164754,8364.327145
2358.083636,536.266849,-296.082377,8660.409521
2358.083965,0.000000,-592.164754,7772.162391
2358.084294,153.219100,-444.123565,8734.430116
2358.084623,-766.095498,-814.226536,7846.182985
2358.084952,76.609550,-666.185348,8808.450710
2358.085281,-1225.752797,-1110.308913,8142.265362
2358.085610,-919.314598,-1036.288319,8882.471304
2358.085939,-1685.410096,-1776.494261,7994.224174
2358.086268,-842.705048,-1184.329507,8586.388927
2358.086597,-1455.581446,-1480.411884,8290.306550
2358.086926,-995.924147,-1332.370696,8734.430116
2358.087255,-1149.143247,-1776.494261,9030.512492
2358.087584,-919.314598,-1628.453072,9030.512492
2358.087913,-1149.143247,-1776.494261,8956.491898
2358.088242,-1302.362347,-1850.514855,9400.615463
2358.088571,-1149.143247,-1184.329507,9326.594869
2358.088900,-919.314598,-1184.329507,9326.594869
2358.089229,-612.876398,-888.247130,9474.636058
2358.089558,-383.047749,-1184.329507,9178.553681
2358.089887,766.095498,-518.144159,9252.574275
2358.090216,-306.438199,-814.226536,8882.471304
2358.090545,0.000000,-296.082377,9030.512492
2358.090874,0.000000,-592.164754,9178.553681
2358.091203,306.438199,-74.020594,9400.615463
2358.091532,229.828649,-222.061783,8808.450710
2358.091861,1532.190996,592.164754,9104.533087
2358.092190,1762.019645,666.185348,8290.306550
2358.092519,1838.629195,1628.453072,8882.471304
2358.092848,1991.848295,1258.350101,8438.347739
2358.093177,2145.067394,1332.370696,8734.430116
2358.093506,1072.533697,1184.329507,8512.368333
2358.093835,1378.971896,1184.329507,9252.574275
2358.094164,383.047749,888.247130,9400.615463
2358.094493,689.485948,518.144159,9474.636058
2358.094822,153.219100,1036.288319,9548.656652
2358.095151,0.000000,518.144159,9030.512492
2358.095480,0.000000,888.247130,9548.656652
2358.095809,0.000000,666.185348,9030.512492
2358.096138,306.438199,1184.329507,9844.739029
2358.096467,536.266849,518.144159,9104.533087
2358.096796,1072.533697,296.082377,9844.739029
2358.097125,383.047749,296.082377,9178.553681
2358.097454,995.924147,740.205942,10066.800811
2358.097783,842.705048,-0.000000,9104.533087
2358.098112,1608.800546,592.164754,9918.759623
2358.098441,1072.533697,-0.000000,9474.636058
2358.098770,1608.800546,370.102971,10362.883188
2358.099099,919.314598,370.102971,9770.718434
2358.099428,2068.457845,148.041188,9992.780217
2358.099757,1378.971896,-0.000000,9252.574275
2358.100086,1991.848295,-0.000000,9400.615463
2358.100415,1225.752797,-0.000000,9474.636058
2358.100744,1532.190996,-222.061783,9326.594869
2358.101073,1302.362347,-370.102971,9252.574275
2358.101402,1455.581446,-518.144159,8882.471304
2358.101731,1378.971896,-0.000000,9474.636058
2358.102060,842.705048,-740.205942,8438.347739
2358.102389,1302.362347,-518.144159,9252.574275
2358.102718,536.266849,-518.144159,8142.265362
2358.103047,842.705048,-148.041188,9178.553681
2358.103376,0.000000,-666.185348,8142.265362
2358.103705,842.705048,-444.123565,9178.553681
2358.104034,76.609550,-888.247130,7994.224174
2358.104363,612.876398,-592.164754,8808.450710
2358.104692,-459.657299,-888.247130,8216.285956
2358.105021,-229.828649,-592.164754,8586.388927
2358.105350,-1302.362347,-1036.288319,8290.306550
2358.105679,-1225.752797,-1332.370696,8882.471304
2358.106008,-1455.581446,-1702.473667,8512.368333
2358.106336,-1225.752797,-1406.391290,8660.409521
2358.106665,-1302.362347,-1628.453072,8438.347739
2358.106994,-919.314598,-1332.370696,8290.306550
2358.107323,-995.924147,-1406.391290,8956.491898
2358.107652,-1149.143247,-1628.453072,8586.388927
2358.107981,-1378.971896,-1332.370696,9400.615463
2358.108310,-1225.752797,-1480.411884,9030.512492
2358.108639,-919.314598,-1110.308913,9326.594869
2358.108968,-1455.581446,-1332.370696,8808.450710
2358.109297,-536.266849,-666.185348,9474.636058
2358.109626,-766.095498,-888.247130,8808.450710
2358.109955,0.000000,-222.061783,9252.574275
2358.110284,-306.438199,-740.205942,9104.533087
2358.110613,0.000000,-222.061783,9548.656652
2358.110942,-995.924147,-296.082377,9030.512492
2358.111271,229.828649,-296.082377,9400.615463
2358.111600,0.000000,-148.041188,9104.533087
2358.111929,383.047749,-0.000000,9474.636058
2358.112258,612.876398,592.164754,8734.430116
2358.112587,1838.629195,1036.288319,8660.409521
2358.112916,1838.629195,1332.370696,8882.471304
2358.113245,2145.067394,962.267725,8364.327145
2358.113574,1762.019645,1776.494261,8956.491898
2358.113903,1608.800546,1480.411884,8512.368333
2358.114232,1532.190996,1702.473667,9104.533087
2358.114561,1072.533697,1184.329507,9030.512492
2358.114890,689.485948,1332.370696,9992.780217
2358.115219,76.609550,444.123565,9696.697840
2358.115548,0.000000,962.267725,10658.965565
2358.115877,0.000000,-0.000000,9474.636058
2358.116206,383.047749,814.226536,10214.842000
2358.116535,-383.047749,222.061783,9474.636058
2358.116864,306.438199,592.164754,10214.842000
2358.117193,153.219100,-74.020594,9474.636058
2358.117522,1302.362347,-0.000000,9844.739029
2358.117851,536.266849,-0.000000,9400.615463
2358.118180,1149.143247,814.226536,9992.780217
2358.118509,1225.752797,518.144159,9326.594869
2358.118838,1915.238745,592.164754,9400.615463
2358.119167,1532.190996,666.185348,9474.636058
2358.119496,1608.800546,222.061783,9178.553681
2358.119825,1378.971896,370.102971,9918.759623
2358.120154,536.266849,-222.061783,9326.594869
2358.120483,1072.533697,296.082377,9622.677246
2358.120812,842.705048,-592.164754,9104.533087
2358.121141,1378.971896,-370.102971,9770.718434
2358.121470,689.485948,-592.164754,8512.368333
2358.121799,1072.533697,-296.082377,9400.615463
2358.122128,459.657299,-740.205942,8364.327145
2358.122457,689.485948,-148.041188,9178.553681
2358.122786,-153.219100,-296.082377,8438.347739
2358.123115,1072.533697,-222.061783,8956.491898
2358.123444,0.000000,-666.185348,8068.244768
2358.123773,536.266849,-296.082377,8882.471304
2358.124102,-229.828649,-962.267725,8512.368333
2358.124431,0.000000,-666.185348,8512.368333
2358.124760,-536.266849,-1110.308913,8660.409521
2358.125089,-459.657299,-1036.288319,8734.430116
2358.125418,-919.314598,-814.226536,8586.388927
2358.125747,-1072.533697,-1184.329507,8512.368333
2358.126076,-1072.533697,-888.247130,8660.409521
2358.126405,-1225.752797,-1924.535449,8364.327145
2358.126734,-995.924147,-1628.453072,8660.409521
2358.127063,-842.705048,-1776.494261,8808.450710
2358.127392,-153.219100,-1480.411884,9178.553681
2358.127721,-1302.362347,-1480.411884,8734.430116
2358.128050,-766.095498,-1110.308913,9178.553681
2358.128379,-766.095498,-1406.391290,8660.409521
2358.128708,-383.047749,-888.247130,9178.553681
2358.129037,-383.047749,-1480.411884,8734.430116
2358.129366,229.828649,-518.144159,9474.636058
2358.129695,-995.924147,-1036.288319,8956.491898
2358.130024,153.219100,-296.082377,9252.574275
2358.130353,-536.266849,-296.082377,8956.491898
2358.130682,153.219100,-444.123565,9252.574275
2358.131011,0.000000,-296.082377,8956.491898
2358.131340,842.705048,-296.082377,8734.430116
2358.131669,612.876398,-148.041188,8808.450710
2358.131998,1072.533697,-0.000000,8734.430116
2358.132327,1455.581446,888.247130,8808.450710
2358.132656,1378.971896,666.185348,8142.265362
2358.132985,1685.410096,1480.411884,9104.533087
2358.133313,1149.143247,1036.288319,8364.327145
2358.133642,1455.581446,1554.432478,8808.450710
2358.133971,842.705048,666.185348,8882.471304
2358.134300,1838.629195,1110.308913,9474.636058
2358.134629,76.609550,444.123565,8956.491898
2358.134958,689.485948,1110.308913,10066.800811
2358.135287,-153.219100,592.164754,9252.574275
2358.135616,459.657299,888.247130,10214.842000
2358.135945,-306.438199,740.205942,9474.636058
2358.136274,536.266849,962.267725,10288.862594
2358.136603,-229.828649,444.123565,9918.759623
2358.136932,459.657299,666.185348,9992.780217
2358.137261,229.828649,518.144159,9696.697840
2358.137590,995.924147,592.164754,9474.636058
2358.137919,536.266849,148.041188,9770.718434
2358.138248,1455.581446,-0.000000,9474.636058
2358.138577,1149.143247,666.185348,9548.656652
2358.138906,1455.581446,296.082377,8956.491898
2358.139235,1455.581446,666.185348,9622.677246
2358.139564,1838.629195,222.061783,9104.533087
2358.139893,1685.410096,296.082377,9622.677246
2358.140222,1455.581446,-74.020594,8734.430116
2358.140551,2068.457845,-0.000000,9548.656652
2358.140880,919.314598,-296.082377,8438.347739
2358.141209,1608.800546,-148.041188,9474.636058
2358.141538,536.266849,-592.164754,8512.368333
2358.141867,1762.019645,-74.020594,9548.656652
2358.142196,842.705048,-814.226536,8364.327145
2358.142525,1302.362347,-518.144159,8734.430116
2358.142854,459.657299,-592.164754,8364.327145
2358.143183,1149.143247,-222.061783,8438.347739
2358.143512,459.657299,-518.144159,8364.327145
2358.143841,842.705048,-518.144159,8512.368333
2358.144170,153.219100,-1036.288319,8586.388927
2358.144499,-229.828649,-1184.329507,7994.224174
2358.144828,-459.657299,-888.247130,8734.430116
2358.145157,-919.314598,-1628.453072,8290.306550
2358.145486,-1225.752797,-1258.350101,9030.512492
2358.145815,-1455.581446,-2072.576638,8586.388927
2358.146144,-1455.581446,-1480.411884,9326.594869
2358.146473,-1532.190996,-1998.556043,8438.347739
2358.146802,-842.705048,-1406.391290,9326.594869
2358.147131,-1532.190996,-1628.453072,8660.409521
2358.147460,-995.924147,-1184.329507,9104.533087
2358.147789,-1532.190996,-1628.453072,8512.368333
2358.148118,-383.047749,-1258.350101,9474.636058
2358.148447,-1149.143247,-1776.494261,9326.594869
2358.148776,229.828649,-962.267725,9326.594869
2358.149105,-1225.752797,-1110.308913,8956.491898
2358.149434,0.000000,-666.185348,9696.697840
2358.149763,-536.266849,-222.061783,8808.450710
2358.150092,0.000000,-592.164754,9030.512492
2358.150421,-459.657299,-370.102971,9030.512492
2358.150750,0.000000,-592.164754,9104.533087
2358.151079,0.000000,-0.000000,8734.430116
2358.151408,76.609550,-0.000000,9252.574275
2358.151737,229.828649,296.082377,9400.615463
2358.152066,536.266849,-0.000000,8882.471304
2358.152395,1149.143247,814.226536,9104.533087
2358.152724,1302.362347,592.164754,8142.265362
2358.153053,2298.286494,1998.556043,8882.471304
2358.153382,1532.190996,1184.329507,8142.265362
2358.153711,2145.067394,1850.514855,9030.512492
2358.154040,1532.190996,1406.391290,8364.327145
2358.154369,1915.238745,1702.473667,8734.430116
2358.154698,842.705048,1184.329507,8808.450710
2358.155027,995.924147,740.205942,9622.677246
2358.155356,153.219100,370.102971,9474.636058
2358.155685,229.828649,296.082377,9992.780217
2358.156014,-383.047749,-148.041188,9918.759623
2358.156343,0.000000,-0.000000,10288.862594
2358.156672,-766.095498,148.041188,9992.780217
2358.157001,-153.219100,-0.000000,10140.821405
2358.157330,76.609550,296.082377,10807.006753
2358.157659,306.438199,-74.020594,9696.697840
2358.157988,1225.752797,148.041188,10658.965565
2358.158317,612.876398,-0.000000,9474.636058
2358.158646,1991.848295,1110.308913,9770.718434
2358.158975,2068.457845,370.102971,8734.430116
2358.159304,2451.505594,888.247130,9474.636058
2358.159633,2374.896044,518.144159,8734.430116
2358.159962,2451.505594,666.185348,9770.718434
2358.160290,689.485948,-74.020594,8882.471304
2358.160619,1838.629195,-0.000000,9474.636058
2358.160948,612.876398,-444.123565,8882.471304
2358.161277,1149.143247,-222.061783,9474.636058
2358.161606,459.657299,-370.102971,8808.450710
2358.161935,1608.800546,-0.000000,9252.574275
2358.162264,229.828649,-296.082377,8956.491898
2358.162593,919.314598,-444.123565,8734.430116
2358.162922,689.485948,-0.000000,8660.409521
2358.163251,612.876398,-370.102971,8068.244768
2358.163580,536.266849,-296.082377,8290.306550
2358.163909,306.438199,-518.144159,7920.203579
2358.164238,383.047749,-296.082377,8512.368333
2358.164567,0.000000,-962.267725,7846.182985
2358.164896,0.000000,-518.144159,8734.430116
2358.165225,-919.314598,-1184.329507,8290.306550
2358.165554,-459.657299,-888.247130,8808.450710
2358.165883,-1225.752797,-1554.432478,8438.347739
2358.166212,-995.924147,-1258.350101,8956.491898
2358.166541,-1072.533697,-1406.391290,8660.409521
2358.166870,-919.314598,-1480.411884,9252.574275
2358.167199,-1225.752797,-1776.494261,8882.471304
2358.167528,-766.095498,-1628.453072,9030.512492
2358.167857,-1532.190996,-1628.453072,9104.533087
2358.168186,-995.924147,-1480.411884,9326.594869
2358.168515,-1225.752797,-1184.329507,9030.512492
2358.168844,-459.657299,-1110.308913,9474.636058
2358.169173,-229.828649,-1184.329507,8882.471304
2358.169502,-459.657299,-1258.350101,9474.636058
2358.169831,0.000000,-666.185348,9252.574275
2358.170160,0.000000,-740.205942,9178.553681
2358.170489,0.000000,-0.000000,9252.574275
2358.170818,-383.047749,-592.164754,9252.574275
2358.171147,306.438199,-0.000000,9474.636058
2358.171476,229.828649,-296.082377,8734.430116
2358.171805,919.314598,518.144159,9474.636058
2358.172134,919.314598,962.267725,8586.388927
2358.172463,1532.190996,1480.411884,8882.471304
2358.172792,1072.533697,1110.308913,7920.203579
2358.173121,1991.848295,1480.411884,8882.471304
2358.173450,1072.533697,1110.308913,8290.306550
2358.173778,1455.581446,1258.350101,8660.409521
2358.174107,459.657299,814.226536,8882.471304
2358.174436,1149.143247,592.164754,9400.615463
2358.174765,229.828649,592.164754,9326.594869
2358.175094,76.609550,444.123565,9474.636058
2358.175423,0.000000,740.205942,9474.636058
2358.175752,153.219100,592.164754,9992.780217
2358.176081,-689.485948,1036.288319,10214.842000
2358.176410,76.609550,518.144159,9770.718434
2358.176739,229.828649,1110.308913,9918.759623
2358.177068,0.000000,666.185348,9696.697840
2358.177397,689.485948,1184.329507,10214.842000
2358.177726,459.657299,-0.000000,9326.594869
2358.178055,1302.362347,666.185348,9992.780217
2358.178384,995.924147,-148.041188,9326.594869
2358.178713,2221.676944,222.061783,9622.677246
2358.179042,995.924147,148.041188,8882.471304
2358.179371,1838.629195,-0.000000,9992.780217
2358.179700,1302.362347,-0.000000,9252.574275
2358.180029,2145.067394,148.041188,9696.697840
2358.180358,1149.143247,-0.000000,9178.553681
2358.180687,2068.457845,-222.061783,9474.636058
2358.181015,1378.971896,-370.102971,9178.553681
2358.181344,1608.800546,-370.102971,8956.491898
2358.181673,1532.190996,-0.000000,9474.636058
2358.182002,1302.362347,-148.041188,8512.368333
2358.182331,1302.362347,-0.000000,8882.471304
2358.182660,1149.143247,-370.102971,8216.285956
2358.182989,1302.362347,-666.185348,8660.409521
2358.183318,919.314598,-666.185348,7920.203579
2358.183647,1225.752797,-370.102971,8734.430116
2358.183976,0.000000,-814.226536,7846.182985
2358.184305,306.438199,-518.144159,8586.388927
2358.184634,-612.876398,-888.247130,7698.141797
2358.184963,0.000000,-666.185348,8586.388927
2358.185292,-1378.971896,-1258.350101,8068.244768
2358.185621,-459.657299,-962.267725,8882.471304
2358.185950,-1378.971896,-1184.329507,8438.347739
2358.186279,-1149.143247,-814.226536,8512.368333
2358.186608,-1762.019645,-1702.473667,8586.388927
2358.186937,-1072.533697,-1258.350101,8956.491898
2358.187266,-1685.410096,-1480.411884,8734.430116
2358.187595,-1225.752797,-1628.453072,9104.533087
2358.187924,0.000000,-1850.514855,9104.533087
2358.188252,-689.485948,-2072.576638,9326.594869
2358.188581,-995.924147,-1258.350101,9326.594869
2358.188910,-689.485948,-1480.411884,9178.553681
2358.189239,-689.485948,-814.226536,9548.656652
2358.189568,0.000000,-1036.288319,9030.512492
2358.189897,0.000000,-296.082377,9400.615463
2358.190226,-536.266849,-592.164754,9400.615463
2358.190555,0.000000,-222.061783,9474.636058
2358.190884,-306.438199,-444.123565,8808.450710
2358.191213,76.609550,222.061783,9400.615463
2358.191542,-153.219100,-74.020594,8882.471304
2358.191871,536.266849,296.082377,9252.574275
2358.192200,383.047749,148.041188,8586.388927
2358.192529,1685.410096,814.226536,9326.594869
2358.192858,1225.752797,888.247130,8216.285956
2358.193187,1608.800546,888.247130,9104.533087
2358.193516,919.314598,1406.391290,8734.430116
2358.193845,1378.971896,1184.329507,8734.430116
2358.194174,1225.752797,1332.370696,8808.450710
2358.194503,1225.752797,666.185348,9104.533087
2358.194832,995.924147,1184.329507,9252.574275
2358.195161,689.485948,740.205942,9474.636058
2358.195489,306.438199,1554.432478,9696.697840
2358.195818,0.000000,666.185348,9178.553681
2358.196147,383.047749,1184.329507,9770.718434
2358.196476,0.000000,296.082377,9326.594869
2358.196805,536.266849,444.123565,10140.821405
2358.197134,-919.314598,-74.020594,9474.636058
2358.197463,536.266849,296.082377,10140.821405
2358.197792,153.219100,-370.102971,9400.615463
2358.198121,1455.581446,148.041188,10140.821405
2358.198450,1149.143247,-0.000000,9326.594869
2358.198779,1915.238745,518.144159,9770.718434
2358.199108,1762.019645,-0.000000,9104.533087
2358.199437,1762.019645,296.082377,9622.677246
2358.199766,1762.019645,444.123565,9178.553681
2358.200095,2221.676944,444.123565,9992.780217
2358.200424,1838.629195,-0.000000,9474.636058
2358.200753,1455.581446,-0.000000,9326.594869
2358.201082,1455.581446,-74.020594,9696.697840
2358.201411,1608.800546,-962.267725,8438.347739
2358.201740,1149.143247,-74.020594,9474.636058
2358.202069,459.657299,-444.123565,8808.450710
2358.202398,1072.533697,-222.061783,9400.615463
2358.202726,229.828649,-888.247130,8438.347739
2358.203055,919.314598,-370.102971,9178.553681
2358.203384,0.000000,-740.205942,8216.285956
2358.203713,842.705048,-518.144159,9030.512492
2358.204042,383.047749,-962.267725,8216.285956
2358.204371,612.876398,-444.123565,8956.491898
2358.204700,-383.047749,-518.144159,8068.244768
2358.205029,0.000000,-518.144159,8512.368333
2358.205358,-766.095498,-740.205942,7994.224174
2358.205687,-689.485948,-888.247130,8364.327145
2358.206016,-1149.143247,-1332.370696,8364.327145
2358.206345,-1225.752797,-1628.453072,8512.368333
2358.206674,-1608.800546,-1258.350101,8956.491898
2358.207003,-1378.971896,-1776.494261,8290.306550
2358.207332,-1455.581446,-1480.411884,8882.471304
2358.207661,-1455.581446,-1924.535449,8882.471304
2358.207990,-919.314598,-1184.329507,8956.491898
2358.208319,-689.485948,-1850.514855,8660.409521
2358.208648,-229.828649,-1332.370696,9104.533087
2358.208977,-1302.362347,-1258.350101,8882.471304
2358.209306,-383.047749,-592.164754,9622.677246
2358.209635,-689.485948,-814.226536,8808.450710
2358.209963,0.000000,-148.041188,9326.594869
2358.210292,-919.314598,-296.082377,8956.491898
2358.210621,306.438199,-222.061783,9548.656652
2358.210950,-153.219100,-444.123565,9104.533087
2358.211279,-612.876398,-0.000000,9326.594869
2358.211608,-153.219100,-0.000000,8882.471304
2358.211937,459.657299,-0.000000,9178.553681
2358.212266,383.047749,444.123565,8808.450710
2358.212595,1072.533697,370.102971,8660.409521
2358.212924,1149.143247,888.247130,8956.491898
2358.213253,995.924147,962.267725,8734.430116
2358.213582,1685.410096,1406.391290,8956.491898
2358.213911,1378.971896,1036.288319,8512.368333
2358.214240,1302.362347,1628.453072,9252.574275
2358.214569,842.705048,962.267725,9104.533087
2358.214898,919.314598,1554.432478,9770.718434
2358.215227,459.657299,888.247130,9400.615463
2358.215556,689.485948,1184.329507,9918.759623
2358.215885,76.609550,592.164754,9252.574275
2358.216214,383.047749,592.164754,9844.739029
2358.216543,-229.828649,-0.000000,9252.574275
2358.216872,76.609550,296.082377,10066.800811
2358.217200,-306.438199,222.061783,9622.677246
2358.217529,306.438199,-0.000000,10140.821405
2358.217858,153.219100,-0.000000,9548.656652
2358.218187,919.314598,-0.000000,9696.697840
2358.218516,1072.533697,296.082377,9400.615463
2358.218845,1685.410096,-0.000000,9252.574275
2358.219174,1915.238745,814.226536,9178.553681
2358.219503,2221.676944,222.061783,8956.491898
2358.219832,2604.724693,740.205942,9104.533087
2358.220161,2681.334243,-0.000000,8808.450710
2358.220490,2528.115143,518.144159,9326.594869
2358.220819,1838.629195,-222.061783,8586.388927
2358.221148,2068.457845,296.082377,9252.574275
2358.221477,995.924147,-814.226536,8586.388927
2358.221806,1378.971896,-444.123565,9548.656652
2358.222135,0.000000,-1554.432478,8438.347739
2358.222464,689.485948,-814.226536,9326.594869
2358.222793,229.828649,-1406.391290,8438.347739
2358.223122,1225.752797,-814.226536,9400.615463
2358.223451,-459.657299,-962.267725,8660.409521
2358.223780,766.095498,-814.226536,9030.512492
2358.224109,0.000000,-1110.308913,8438.347739
2358.224437,306.438199,-518.144159,8586.388927
2358.224766,0.000000,-518.144159,8142.265362
2358.225095,-306.438199,-814.226536,8438.347739
2358.225424,0.000000,-444.123565,8660.409521
2358.225753,-1149.143247,-1332.370696,8216.285956
2358.226082,-306.438199,-1406.391290,8808.450710
2358.226411,-1225.752797,-1628.453072,8512.368333
2358.226740,-1149.143247,-1406.391290,8734.430116
2358.227069,-1149.143247,-1924.535449,8512.368333
2358.227398,-1149.143247,-1184.329507,9030.512492
2358.227727,-1302.362347,-1998.556043,8734.430116
2358.228056,-383.047749,-1480.411884,9178.553681
2358.228385,-1225.752797,-1332.370696,9252.574275
2358.228714,-536.266849,-962.267725,9400.615463
2358.229043,-1149.143247,-888.247130,8956.491898
2358.229372,-229.828649,-518.144159,9474.636058
2358.229701,-459.657299,-370.102971,8882.471304
2358.230030,-153.219100,-296.082377,9178.553681
2358.230359,-229.828649,-0.000000,8956.491898
2358.230688,306.438199,-222.061783,9252.574275
2358.231017,-306.438199,296.082377,8734.430116
2358.231346,0.000000,-74.020594,8882.471304
2358.231674,0.000000,-0.000000,8956.491898
2358.232003,76.609550,-148.041188,9030.512492
2358.232332,306.438199,148.041188,9178.553681
2358.232661,153.219100,-518.144159,9178.553681
2358.232990,459.657299,592.164754,9548.656652
2358.233319,995.924147,370.102971,8956.491898
2358.233648,1762.019645,1480.411884,9178.553681
2358.233977,1608.800546,1480.411884,8216.285956
2358.234306,2068.457845,2220.617826,8808.450710
2358.234635,1455.581446,2294.638420,8142.265362
2358.234964,1915.238745,1998.556043,9178.553681
2358.235293,689.485948,888.247130,8660.409521
2358.235622,995.924147,1406.391290,9770.718434
2358.235951,-229.828649,518.144159,9474.636058
2358.236280,76.609550,-148.041188,10288.862594
2358.236609,-612.876398,222.061783,9992.780217
2358.236938,229.828649,-518.144159,10584.944971
2358.237267,-306.438199,-444.123565,9844.739029
2358.237596,-76.609550,-148.041188,10066.800811
2358.237925,0.000000,-222.061783,10214.842000
2358.238254,689.485948,-148.041188,9770.718434
2358.238583,1532.190996,666.185348,9918.759623
2358.238911,1838.629195,222.061783,9104.533087
2358.239240,2604.724693,1406.391290,9474.636058
2358.239569,1762.019645,444.123565,8660.409521
2358.239898,2987.772442,1184.329507,9030.512492
2358.240227,2221.676944,370.102971,8290.306550
2358.240556,2451.505594,740.205942,8956.491898
2358.240885,1378.971896,-148.041188,8438.347739
2358.241214,1225.752797,-148.041188,9400.615463
2358.241543,689.485948,-1480.411884,8882.471304
2358.241872,919.314598,-1406.391290,9548.656652
2358.242201,0.000000,-1406.391290,9104.533087
2358.242530,383.047749,-962.267725,9400.615463
2358.242859,0.000000,-814.226536,8512.368333
2358.243188,689.485948,-444.123565,8808.450710
2358.243517,383.047749,-296.082377,8216.285956
2358.243846,612.876398,-148.041188,7994.224174
2358.244175,383.047749,-74.020594,8142.265362
2358.244504,536.266849,-740.205942,8142.265362
2358.244833,0.000000,-370.102971,8364.327145
2358.245162,-689.485948,-1110.308913,8068.244768
2358.245491,-1072.533697,-1184.329507,8660.409521
2358.245819,-1608.800546,-1998.556043,8512.368333
2358.246148,-1762.019645,-1924.535449,9178.553681
2358.246477,-1225.752797,-2220.617826,8512.368333
2358.246806,-1072.533697,-1480.411884,9030.512492
2358.247135,-1455.581446,-1702.473667,8956.491898
2358.247464,-1072.533697,-1406.391290,9474.636058
2358.247793,-1532.190996,-1702.473667,9178.553681
2358.248122,-536.266849,-1184.329507,9474.636058
2358.248451,-766.095498,-1110.308913,9178.553681
2358.248780,-153.219100,-814.226536,9474.636058
2358.249109,-229.828649,-370.102971,8882.471304
2358.249438,-536.266849,-666.185348,9400.615463
2358.249767,-306.438199,-370.102971,9104.533087
2358.250096,0.000000,-296.082377,8808.450710
2358.250425,-153.219100,-0.000000,8956.491898
2358.250754,0.000000,-518.144159,8882.471304
2358.251083,1455.581446,74.020594,8734.430116
2358.251412,1302.362347,-222.061783,8512.368333
2358.251741,1149.143247,740.205942,8956.491898
2358.252070,919.314598,370.102971,8586.388927
2358.252399,1608.800546,1184.329507,8808.450710
2358.252728,1072.533697,666.185348,8364.327145
2358.253056,1378.971896,1258.350101,9326.594869
2358.253385,766.095498,1110.308913,8586.388927
2358.253714,536.266849,1406.391290,9696.697840
2358.254043,0.000000,740.205942,9326.594869
2358.254372,383.047749,740.205942,9844.739029
2358.254701,0.000000,666.185348,9400.615463
2358.255030,383.047749,740.205942,9844.739029
2358.255359,-153.219100,592.164754,9400.615463
2358.255688,536.266849,592.164754,9770.718434
2358.256017,-306.438199,962.267725,9474.636058
2358.256346,306.438199,814.226536,9918.759623
2358.256675,306.438199,888.247130,9622.677246
2358.257004,612.876398,-0.000000,9474.636058
2358.257333,612.876398,888.247130,9770.718434
2358.257662,919.314598,-148.041188,9474.636058
2358.257991,1072.533697,444.123565,9844.739029
2358.258320,1072.533697,-74.020594,9622.677246
2358.258649,1378.971896,666.185348,9918.759623
2358.258978,995.924147,-0.000000,9030.512492
2358.259307,1685.410096,296.082377,9696.697840
2358.259636,842.705048,-74.020594,8882.471304
2358.259965,2451.505594,148.041188,9696.697840
2358.260293,919.314598,-0.000000,9030.512492
2358.260622,1915.238745,370.102971,9622.677246
2358.260951,689.485948,-0.000000,8808.450710
2358.261280,1838.629195,-0.000000,8882.471304
2358.261609,1072.533697,-148.041188,8512.368333
2358.261938,1378.971896,-222.061783,8660.409521
2358.262267,1302.362347,-148.041188,8882.471304
2358.262596,1455.581446,-222.061783,8660.409521
2358.262925,1225.752797,-296.082377,8512.368333
2358.263254,1072.533697,-666.185348,8216.285956
2358.263583,766.095498,-0.000000,8512.368333
2358.263912,229.828649,-962.267725,7920.203579
2358.264241,383.047749,-222.061783,8512.368333
2358.264570,0.000000,-1406.391290,8068.244768
2358.264899,0.000000,-814.226536,8956.491898
2358.265228,-842.705048,-1406.391290,8364.327145
2358.265557,-306.438199,-1406.391290,9400.615463
2358.265886,-1762.019645,-1776.494261,8216.285956
2358.266215,-1149.143247,-1332.370696,9548.656652
2358.266544,-1915.238745,-1924.535449,8586.388927
2358.266873,-919.314598,-1480.411884,9104.533087
2358.267202,-1762.019645,-1924.535449,9030.512492
2358.267530,-1072.533697,-1702.473667,9400.615463
2358.267859,-1608.800546,-1110.308913,9400.615463
2358.268188,-842.705048,-1406.391290,9474.636058
2358.268517,-1225.752797,-962.267725,9252.574275
2358.268846,-612.876398,-1110.308913,9104.533087
2358.269175,-459.657299,-592.164754,9474.636058
2358.269504,-153.219100,-888.247130,9474.636058
2358.269833,0.000000,-296.082377,9178.553681
2358.270162,-153.219100,-888.247130,8882.471304
2358.270491,153.219100,148.041188,9400.615463
2358.270820,76.609550,-74.020594,8364.327145
2358.271149,612.876398,814.226536,9030.512492
2358.271478,536.266849,148.041188,8586.388927
2358.271807,1302.362347,814.226536,9178.553681
2358.272136,612.876398,-0.000000,8808.450710
2358.272465,1608.800546,666.185348,8882.471304
2358.272794,842.705048,888.247130,8882.471304
2358.273123,1532.190996,962.267725,9474.636058
2358.273452,689.485948,814.226536,8586.388927
2358.273781,1685.410096,1110.308913,9326.594869
2358.274110,1225.752797,1184.329507,8586.388927
2358.274439,1455.581446,1998.556043,9252.574275
2358.274769,1149.143247,1258.350101,9178.553681
2358.275098,1225.752797,1258.350101,9104.533087
2358.275427,766.095498,1628.453072,9178.553681
2358.275756,383.047749,592.164754,9252.574275
2358.276085,612.876398,888.247130,9844.739029
2358.276414,306.438199,-0.000000,9252.574275
2358.276743,153.219100,814.226536,10288.862594
2358.277072,306.438199,-962.267725,9696.697840
2358.277401,536.266849,-0.000000,10436.903782
2358.277730,229.828649,-222.061783,9474.636058
2358.278059,919.314598,296.082377,10214.842000
2358.278388,995.924147,-148.041188,9400.615463
2358.278717,1685.410096,962.267725,9992.780217
2358.279046,1608.800546,-0.000000,9178.553681
2358.279375,2528.115143,370.102971,9696.697840
2358.279704,1532.190996,148.041188,8956.491898
2358.280033,2145.067394,222.061783,9474.636058
2358.280362,1225.752797,-0.000000,8956.491898
2358.280691,1302.362347,-296.082377,9400.615463
2358.281020,766.095498,-370.102971,9030.512492
2358.281349,842.705048,-740.205942,9252.574275
2358.281678,995.924147,-296.082377,9252.574275
2358.282007,536.266849,-740.205942,8956.491898
2358.282336,459.657299,-296.082377,9178.553681
2358.282665,459.657299,-666.185348,8586.388927
2358.282995,459.657299,-0.000000,8882.471304
2358.283324,153.219100,-518.144159,7772.162391
2358.283653,689.485948,-222.061783,8512.368333
2358.283982,229.828649,-740.205942,7846.182985
2358.284311,383.047749,-0.000000,8438.347739
2358.284640,-383.047749,-518.144159,7698.141797
2358.284969,-229.828649,-444.123565,8512.368333
2358.285298,-1378.971896,-888.247130,8068.244768
2358.285627,-842.705048,-1184.329507,8808.450710
2358.285956,-1225.752797,-1554.432478,8512.368333
2358.286285,-995.924147,-1554.432478,8586.388927
2358.286614,-1532.190996,-1258.350101,8660.409521
2358.286943,-1072.533697,-1628.453072,8882.471304
2358.287272,-1225.752797,-1406.391290,8882.471304
2358.287601,-1149.143247,-1702.473667,9030.512492
2358.287930,-1225.752797,-1480.411884,9474.636058
2358.288259,-766.095498,-1702.473667,9548.656652
2358.288588,-229.828649,-888.247130,9326.594869
2358.288917,-612.876398,-1554.432478,9326.594869
2358.289246,-612.876398,-666.185348,9400.615463
2358.289575,-536.266849,-1110.308913,9030.512492
2358.289904,-306.438199,-370.102971,9474.636058
2358.290233,-612.876398,-888.247130,9252.574275
2358.290562,459.657299,-592.164754,9474.636058
2358.290891,0.000000,-814.226536,9030.512492
2358.291221,995.924147,296.082377,9104.533087
2358.291550,919.314598,296.082377,8216.285956
2358.291879,1762.019645,592.164754,8956.491898
2358.292208,1455.581446,962.267725,8290.306550
2358.292537,1762.019645,1184.329507,9178.553681
2358.292866,995.924147,1480.411884,8660.409521
2358.293195,1378.971896,1184.329507,9104.533087
2358.293524,459.657299,1110.308913,8956.491898
2358.293853,995.924147,740.205942,9474.636058
2358.294182,229.828649,814.226536,9400.615463
2358.294511,612.876398,666.185348,9400.615463
2358.294840,0.000000,1110.308913,9770.718434
2358.295169,306.438199,-0.000000,9104.533087
2358.295498,0.000000,962.267725,9474.636058
2358.295827,229.828649,1036.288319,9400.615463
2358.296156,612.876398,1480.411884,9548.656652
2358.296485,229.828649,814.226536,8956.491898
2358.296814,919.314598,962.267725,9770.718434
2358.297143,689.485948,296.082377,9178.553681
2358.297472,1455.581446,814.226536,9696.697840
2358.297801,383.047749,444.123565,9474.636058
2358.298130,1149.143247,-0.000000,10214.842000
2358.298459,919.314598,296.082377,9178.553681
2358.298788,1455.581446,-0.000000,9844.739029
2358.299117,689.485948,-0.000000,9474.636058
2358.299447,1991.848295,-666.185348,9770.718434
2358.299776,1455.581446,-74.020594,9400.615463
2358.300105,1685.410096,-296.082377,9548.656652
2358.300434,1532.190996,-0.000000,9474.636058
2358.300763,1302.362347,-444.123565,9104.533087
2358.301092,1225.752797,-0.000000,9104.533087
2358.301421,1302.362347,-444.123565,8882.471304
2358.301750,1302.362347,-222.061783,9178.553681
2358.302079,1838.629195,-296.082377,8808.450710
2358.302408,1762.019645,-518.144159,9400.615463
2358.302737,689.485948,-444.123565,8364.327145
2358.303066,1149.143247,-74.020594,9030.512492
2358.303395,76.609550,-518.144159,8216.285956
2358.303724,689.485948,-74.020594,8956.491898
2358.304053,-153.219100,-666.185348,8142.265362
2358.304382,1225.752797,-592.164754,9030.512492
2358.304711,0.000000,-1184.329507,8216.285956
2358.305040,153.219100,-1258.350101,8290.306550
2358.305369,-1072.533697,-1258.350101,8438.347739
2358.305698,-842.705048,-1406.391290,8734.430116
2358.306027,-1378.971896,-1036.288319,8438.347739
2358.306356,-842.705048,-1628.453072,8586.388927
2358.306685,-1149.143247,-888.247130,8586.388927
2358.307014,-1225.752797,-1702.473667,8660.409521
2358.307343,-1149.143247,-1036.288319,8808.450710
2358.307673,-1532.190996,-1406.391290,8586.388927
2358.308002,-1225.752797,-1110.308913,9400.615463
2358.308331,-1149.143247,-1406.391290,8808.450710
2358.308660,-842.705048,-888.247130,9474.636058
2358.308989,-766.095498,-1110.308913,8586.388927
2358.309318,-306.438199,-444.123565,9474.636058
2358.309647,-612.876398,-518.144159,9104.533087
2358.309976,-383.047749,-296.082377,9252.574275
2358.310305,-536.266849,-592.164754,8808.450710
2358.310634,-153.219100,-592.164754,9104.533087
2358.310963,-459.657299,-148.041188,8808.450710
2358.311292,76.609550,-370.102971,9400.615463
2358.311621,0.000000,-0.000000,8956.491898
2358.311950,1225.752797,-0.000000,9030.512492
2358.312279,1532.190996,666.185348,8660.409521
2358.312608,1608.800546,814.226536,8660.409521
2358.312937,1915.238745,1702.473667,8660.409521
2358.313266,1685.410096,1332.370696,8660.409521
2358.313595,1915.238745,1850.514855,9030.512492
2358.313924,1378.971896,962.267725,8882.471304
2358.314253,1532.190996,1406.391290,9178.553681
2358.314582,689.485948,740.205942,9252.574275
2358.314911,842.705048,1258.350101,10066.800811
2358.315240,153.219100,592.164754,9178.553681
2358.315569,536.266849,888.247130,10066.800811
2358.315899,-153.219100,518.144159,9474.636058
2358.316228,306.438199,666.185348,9918.759623
2358.316557,-919.314598,-0.000000,9696.697840
2358.316886,306.438199,-0.000000,9992.780217
2358.317215,0.000000,-0.000000,9548.656652
2358.317544,919.314598,148.041188,9992.780217
2358.317873,612.876398,-0.000000,9622.677246
2358.318202,1455.581446,-0.000000,9622.677246
2358.318531,1378.971896,370.102971,9400.615463
2358.318860,2451.505594,-0.000000,9252.574275
2358.319189,1532.190996,592.164754,9474.636058
2358.319518,1149.143247,370.102971,9252.574275
2358.319847,1991.848295,592.164754,9030.512492
2358.320176,1762.019645,-0.000000,8734.430116
2358.320505,1762.019645,222.061783,9400.615463
2358.320834,1149.143247,-444.123565,8364.327145
2358.321163,995.924147,-296.082377,9696.697840
2358.321492,-612.876398,-740.205942,9104.533087
2358.321821,612.876398,-518.144159,9770.718434
2358.322150,0.000000,-666.185348,8956.491898
2358.322479,689.485948,-592.164754,9252.574275
2358.322808,76.609550,-814.226536,8512.368333
2358.323137,995.924147,-370.102971,9178.553681
2358.323466,229.828649,-814.226536,8364.327145
2358.323795,919.314598,-666.185348,8734.430116
2358.324125,153.219100,-444.123565,8068.244768
2358.324454,306.438199,-370.102971,8290.306550
2358.324783,-153.219100,-296.082377,8290.306550
2358.325112,0.000000,-740.205942,7920.203579
2358.325441,-766.095498,-1036.288319,8364.327145
2358.325770,-1378.971896,-1406.391290,8586.388927
2358.326099,-1149.143247,-1702.473667,9178.553681
2358.326428,-1915.238745,-2072.576638,8512.368333
2358.326757,-1302.362347,-1184.329507,8882.471304
2358.327086,-1455.581446,-1998.556043,8586.388927
2358.327415,-1378.971896,-1480.411884,9178.553681
2358.327744,-1532.190996,-1924.535449,8882.471304
2358.328073,-919.314598,-1628.453072,9770.718434
2358.328402,-536.266849,-1850.514855,8586.388927
2358.328731,0.000000,-888.247130,9474.636058
2358.329060,-842.705048,-740.205942,8808.450710
2358.329389,-229.828649,-296.082377,9178.553681
2358.329718,-536.266849,-592.164754,9178.553681
2358.330047,459.657299,-444.123565,9030.512492
2358.330376,-229.828649,-962.267725,8734.430116
2358.330705,-153.219100,-1184.329507,9474.636058
2358.331034,459.657299,-222.061783,8882.471304
2358.331363,1149.143247,-0.000000,8290.306550
2358.331692,1149.143247,962.267725,8438.347739
2358.332021,1225.752797,888.247130,8216.285956
2358.332351,1532.190996,1184.329507,8734.430116
2358.332680,1455.581446,592.164754,8068.244768
2358.333009,1302.362347,1110.308913,9104.533087
2358.333338,919.314598,296.082377,9030.512492
2358.333667,766.095498,1184.329507,9918.759623
2358.333996,0.000000,370.102971,9474.636058
2358.334325,383.047749,1036.288319,9844.739029
2358.334654,-383.047749,370.102971,9030.512492
2358.334983,383.047749,666.185348,10288.862594
2358.335312,-153.219100,1036.288319,9178.553681
2358.335641,612.876398,814.226536,9918.759623
2358.335970,0.000000,962.267725,9474.636058
2358.336299,536.266849,962.267725,9770.718434
2358.336628,153.219100,888.247130,9474.636058
2358.336957,0.000000,444.123565,9696.697840
2358.337286,383.047749,296.082377,9696.697840
2358.337615,766.095498,-0.000000,9548.656652
2358.337944,1072.533697,370.102971,9622.677246
2358.338273,995.924147,-0.000000,9622.677246
2358.338602,1225.752797,592.164754,9770.718434
2358.338931,1225.752797,296.082377,9178.553681
2358.339260,1915.238745,592.164754,9622.677246
2358.339589,1455.581446,-296.082377,9178.553681
2358.339918,1915.238745,-0.000000,9474.636058
2358.340247,1685.410096,-74.020594,8586.388927
2358.340577,2145.067394,-0.000000,9622.677246
2358.340906,1378.971896,-222.061783,8512.368333
2358.341235,1991.848295,-0.000000,9178.553681
2358.341564,1149.143247,-518.144159,8586.388927
2358.341893,1149.143247,-518.144159,9104.533087
2358.342222,689.485948,-740.205942,8438.347739
2358.342551,1302.362347,-740.205942,8660.409521
2358.342880,459.657299,-666.185348,8290.306550
2358.343209,612.876398,-666.185348,8734.430116
2358.343538,306.438199,-666.185348,8068.244768
2358.343867,459.657299,-1184.329507,8364.327145
2358.344196,536.266849,-518.144159,8216.285956
2358.344525,0.000000,-1036.288319,7994.224174
2358.344854,-689.485948,-1036.288319,8808.450710
2358.345183,-919.314598,-1406.391290,8438.347739
2358.345512,-995.924147,-1258.350101,9104.533087
2358.345841,-1762.019645,-1998.556043,8734.430116
2358.346170,-1608.800546,-1406.391290,9252.574275
2358.346499,-1915.238745,-1776.494261,9030.512492
2358.346828,-995.924147,-1258.350101,9400.615463
2358.347157,-1838.629195,-1554.432478,9104.533087
2358.347486,-919.314598,-962.267725,9474.636058
2358.347815,-1455.581446,-1258.350101,9104.533087
2358.348144,-995.924147,-1184.329507,9622.677246
2358.348473,-995.924147,-1036.288319,9252.574275
2358.348802,-383.047749,-1184.329507,8882.471304
2358.349132,-689.485948,-888.247130,9030.512492
2358.349461,-612.876398,-962.267725,9474.636058
2358.349790,-229.828649,-222.061783,8660.409521
2358.350119,-383.047749,-296.082377,9030.512492
2358.350448,-612.876398,-0.000000,8956.491898
2358.350777,-306.438199,-296.082377,8882.471304
2358.351106,0.000000,-0.000000,9104.533087
2358.351435,0.000000,-666.185348,9030.512492
2358.351764,536.266849,-0.000000,8956.491898
2358.352093,459.657299,-74.020594,8290.306550
2358.352422,1532.190996,814.226536,9104.533087
2358.352751,1378.971896,740.205942,7994.224174
2358.353080,2068.457845,1480.411884,8956.491898
2358.353409,1532.190996,1554.432478,8290.306550
2358.353738,2145.067394,1406.391290,9326.594869
2358.354067,1378.971896,1184.329507,8586.388927
2358.354396,1762.019645,1258.350101,8956.491898
2358.354725,612.876398,1258.350101,8882.471304
2358.355054,842.705048,740.205942,9696.697840
2358.355383,0.000000,592.164754,9474.636058
2358.355712,459.657299,222.061783,9918.759623
2358.356041,-689.485948,666.185348,9696.697840
2358.356370,0.000000,-814.226536,10214.842000
2358.356699,-459.657299,-0.000000,10362.883188
2358.357028,-459.657299,-592.164754,10066.800811
2358.357358,153.219100,-0.000000,10214.842000
2358.357687,459.657299,-222.061783,9844.739029
2358.358016,1225.752797,518.144159,10214.842000
2358.358345,1455.581446,148.041188,9474.636058
2358.358674,2298.286494,666.185348,9548.656652
2358.359003,2145.067394,370.102971,8364.327145
2358.359332,2451.505594,1184.329507,9548.656652
2358.359661,2068.457845,518.144159,8734.430116
2358.359990,2451.505594,592.164754,9326.594869
2358.360319,1302.362347,-74.020594,8512.368333
2358.360648,1915.238745,-148.041188,9548.656652
2358.360977,842.705048,-296.082377,8882.471304
2358.361306,766.095498,-740.205942,9474.636058
2358.361635,0.000000,-444.123565,9030.512492
2358.361964,536.266849,-592.164754,9104.533087
2358.362293,229.828649,-592.164754,8660.409521
2358.362622,919.314598,-1110.308913,8808.450710
2358.362951,1302.362347,-518.144159,8660.409521
2358.363280,842.705048,-740.205942,8216.285956
2358.363609,1225.752797,-0.000000,8512.368333
2358.363938,766.095498,-296.082377,7624.121203
2358.364267,919.314598,296.082377,8216.285956
2358.364596,229.828649,-444.123565,7476.080014
2358.364925,306.438199,-444.123565,8438.347739
2358.365254,-612.876398,-666.185348,7920.203579
2358.365584,-536.266849,-1258.350101,8512.368333
2358.365913,-1455.581446,-1850.514855,8808.450710
2358.366242,-1149.143247,-1776.494261,9252.574275
2358.366571,-1838.629195,-1850.514855,8586.388927
2358.366900,-1149.143247,-1776.494261,9178.553681
2358.367229,-1608.800546,-1924.535449,9252.574275
2358.367558,-1302.362347,-962.267725,9622.677246
2358.367887,-1225.752797,-1702.473667,9474.636058
2358.368216,-919.314598,-1924.535449,9104.533087
2358.368545,-842.705048,-1036.288319,9474.636058
2358.368874,-842.705048,-1332.370696,9326.594869
2358.369203,-612.876398,-518.144159,9326.594869
2358.369532,-459.657299,-1184.329507,9252.574275
2358.369861,0.000000,-444.123565,9474.636058
2358.370190,76.609550,-666.185348,8364.327145
2358.370519,-153.219100,-74.020594,9178.553681
2358.370848,-536.266849,-592.164754,8956.491898
2358.371177,306.438199,-0.000000,9474.636058
2358.371506,306.438199,-0.000000,8586.388927
2358.371835,1302.362347,888.247130,8882.471304
2358.372164,995.924147,518.144159,8216.285956
2358.372493,1455.581446,1258.350101,9104.533087
2358.372822,1455.581446,1184.329507,8068.244768
2358.373151,1532.190996,1332.370696,9104.533087
2358.373480,1072.533697,962.267725,8512.368333
2358.373809,995.924147,888.247130,9030.512492
2358.374138,0.000000,740.205942,9104.533087
2358.374467,612.876398,222.061783,9252.574275
2358.374796,76.609550,592.164754,9548.656652
2358.375125,306.438199,-0.000000,9548.656652
2358.375454,153.219100,888.247130,9474.636058
2358.375784,76.609550,592.164754,9178.553681
2358.376113,229.828649,1110.308913,9474.636058
2358.376442,76.609550,296.082377,9252.574275
2358.376771,612.876398,1110.308913,9474.636058
2358.377100,459.657299,444.123565,9770.718434
2358.377429,1225.752797,592.164754,9918.759623
2358.377758,459.657299,-0.000000,9326.594869
2358.378087,1455.581446,296.082377,10214.842000
2358.378416,919.314598,-74.020594,9474.636058
2358.378745,1608.800546,-0.000000,10140.821405
2358.379074,995.924147,-222.061783,9326.594869
2358.379403,1532.190996,-0.000000,10214.842000
2358.379732,1455.581446,-370.102971,8882.471304
2358.380061,2068.457845,-370.102971,9474.636058
2358.380390,1608.800546,-0.000000,9474.636058
2358.380719,1915.238745,-74.020594,9030.512492
2358.381048,1608.800546,-0.000000,9474.636058
2358.381377,1685.410096,-148.041188,8882.471304
2358.381706,1302.362347,-0.000000,9400.615463
2358.382035,536.266849,-518.144159,8882.471304
2358.382364,1378.971896,-0.000000,9030.512492
2358.382693,689.485948,-814.226536,8364.327145
2358.383022,766.095498,-0.000000,8808.450710
2358.383351,612.876398,-666.185348,8142.265362
2358.383680,612.876398,-222.061783,8956.491898
2358.384009,-1378.971896,-888.247130,8142.265362
2358.384338,306.438199,-666.185348,8734.430116
2358.384667,-919.314598,-1036.288319,7846.182985
2358.384996,-383.047749,-740.205942,8808.450710
2358.385325,-1378.971896,-1184.329507,8290.306550
2358.385654,-842.705048,-1184.329507,8808.450710
2358.385983,-1225.752797,-1258.350101,8882.471304
2358.386312,-612.876398,-1258.350101,8364.327145
2358.386641,-1302.362347,-1406.391290,8364.327145
2358.386970,-1149.143247,-1258.350101,8734.430116
2358.387299,-1378.971896,-962.267725,8512.368333
2358.387628,-995.924147,-1480.411884,8660.409521
2358.387957,-1532.190996,-1332.370696,9030.512492
2358.388286,-995.924147,-1998.556043,9252.574275
2358.388615,-306.438199,-1480.411884,9178.553681
2358.388945,-1608.800546,-1480.411884,9474.636058
2358.389274,-689.485948,-962.267725,9696.697840
2358.389603,-919.314598,-1110.308913,8956.491898
2358.389932,-459.657299,-74.020594,9400.615463
2358.390261,0.000000,-1110.308913,9178.553681
2358.390590,-536.266849,-370.102971,9622.677246
2358.390919,-229.828649,-740.205942,8734.430116
2358.391248,-306.438199,-0.000000,9474.636058
2358.391577,-383.047749,-0.000000,9104.533087
2358.391906,383.047749,-0.000000,9400.615463
2358.392235,153.219100,-0.000000,9252.574275
2358.392564,1455.581446,666.185348,8882.471304
2358.392893,1762.019645,1850.514855,8216.285956
2358.393222,2145.067394,1480.411884,8290.306550
2358.393551,1991.848295,2146.597232,8734.430116
2358.393880,2374.896044,1628.453072,8512.368333
2358.394209,1991.848295,1850.514855,8512.368333
2358.394538,1455.581446,1036.288319,8512.368333
2358.394867,919.314598,1406.391290,9474.636058
2358.395196,153.219100,-0.000000,9030.512492
2358.395525,0.000000,444.123565,10584.944971
2358.395854,-842.705048,-148.041188,9770.718434
2358.396183,-229.828649,370.102971,10436.903782
2358.396512,-612.876398,-74.020594,9622.677246
2358.396841,383.047749,444.123565,10214.842000
2358.397170,0.000000,-74.020594,9622.677246
2358.397499,995.924147,-0.000000,10288.862594
2358.397828,1378.971896,222.061783,8882.471304
2358.398157,2298.286494,370.102971,9696.697840
2358.398486,1762.019645,518.144159,8808.450710
2358.398815,2451.505594,888.247130,8956.491898
2358.399144,2145.067394,814.226536,8956.491898
2358.399473,2451.505594,-0.000000,9252.574275
2358.399802,1608.800546,-0.000000,9474.636058
2358.400131,1225.752797,-444.123565,9474.636058
2358.400460,1072.533697,-296.082377,9326.594869
2358.400789,612.876398,-1258.350101,9326.594869
2358.401118,766.095498,-814.226536,9844.739029
2358.401447,229.828649,-1184.329507,9326.594869
2358.401777,536.266849,-370.102971,9548.656652
2358.402106,536.266849,-814.226536,8660.409521
2358.402435,1302.362347,-296.082377,9030.512492
2358.402764,689.485948,-444.123565,8216.285956
2358.403093,1455.581446,-444.123565,8808.450710
2358.403422,153.219100,-444.123565,7772.162391
2358.403751,995.924147,-148.041188,8142.265362
2358.404080,153.219100,-296.082377,8142.265362
2358.404409,229.828649,-444.123565,8216.285956
2358.404738,-766.095498,-740.205942,8068.244768
2358.405067,0.000000,-1184.329507,8512.368333
2358.405396,-689.485948,-1110.308913,8364.327145
2358.405725,-1149.143247,-1776.494261,8512.368333
2358.406054,-1225.752797,-1332.370696,8290.306550
2358.406383,-1149.143247,-1480.411884,8512.368333
2358.406712,-1225.752797,-1110.308913,8512.368333
2358.407041,-1149.143247,-1628.453072,8882.471304
2358.407370,-1302.362347,-1332.370696,9104.533087
2358.407699,-842.705048,-1850.514855,8734.430116
2358.408028,-766.095498,-1258.350101,9400.615463
2358.408357,-995.924147,-1998.556043,9178.553681
