#time,accel_x,accel_y,accel_z
2554.648576,459.657299,-148.041188,9178.553681
2554.648905,0.000000,-148.041188,9400.615463
2554.649234,536.266849,-518.144159,9030.512492
2554.649563,306.438199,-222.061783,9326.594869
2554.649892,383.047749,-222.061783,9252.574275
2554.650221,229.828649,-0.000000,9104.533087
2554.650550,306.438199,-148.041188,8808.450710
2554.650879,229.828649,-148.041188,8956.491898
2554.651208,536.266849,-0.000000,8882.471304
2554.651537,689.485948,-222.061783,8882.471304
2554.651866,229.828649,-518.144159,8956.491898
2554.652195,229.828649,-148.041188,9030.512492
2554.652524,229.828649,-0.000000,8882.471304
2554.652853,153.219100,-0.000000,9030.512492
2554.653182,229.828649,-0.000000,9030.512492
2554.653511,-306.438199,-222.061783,8956.491898
2554.653840,153.219100,-370.102971,9252.574275
2554.654169,536.266849,-296.082377,8882.471304
2554.654498,306.438199,-592.164754,8956.491898
2554.654827,306.438199,-148.041188,8808.450710
2554.655156,536.266849,-74.020594,9104.533087
2554.655485,383.047749,-148.041188,9178.553681
2554.655814,229.828649,-518.144159,8956.491898
2554.656143,536.266849,-74.020594,8956.491898
2554.656472,459.657299,-0.000000,9474.636058
2554.656801,383.047749,-222.061783,9474.636058
2554.657130,153.219100,-222.061783,9326.594869
2554.657459,229.828649,-296.082377,9474.636058
2554.657788,153.219100,-592.164754,9104.533087
2554.658117,383.047749,-592.164754,9178.553681
2554.658446,153.219100,-74.020594,9400.615463
2554.658775,536.266849,-222.061783,9474.636058
2554.659104,0.000000,-222.061783,9252.574275
2554.659433,536.266849,-0.000000,9252.574275
2554.659762,229.828649,-74.020594,9104.533087
2554.660091,459.657299,-0.000000,9104.533087
2554.660420,1072.533697,-296.082377,9178.553681
2554.660749,383.047749,-296.082377,9104.533087
2554.661078,-153.219100,-296.082377,9030.512492
2554.661407,76.609550,-444.123565,9030.512492
2554.661736,536.266849,-74.020594,8956.491898
2554.662065,306.438199,-74.020594,8956.491898
2554.662394,459.657299,-0.000000,8882.471304
2554.662723,459.657299,-148.041188,9104.533087
2554.663052,306.438199,-0.000000,9030.512492
2554.663381,0.000000,-74.020594,8882.471304
2554.663710,383.047749,-444.123565,8660.409521
2554.664039,153.219100,-0.000000,9104.533087
2554.664368,229.828649,-0.000000,9104.533087
2554.664697,306.438199,-0.000000,8956.491898
2554.665026,536.266849,-222.061783,9030.512492
2554.665355,229.828649,-0.000000,9400.615463
2554.665684,-306.438199,-444.123565,9030.512492
2554.666013,306.438199,-0.000000,9326.594869
2554.666342,229.828649,-0.000000,9252.574275
2554.666671,153.219100,-148.041188,8956.491898
2554.667000,383.047749,-74.020594,9178.553681
2554.667329,229.828649,-370.102971,9252.574275
2554.667658,766.095498,-370.102971,9252.574275
2554.667987,383.047749,-222.061783,9400.615463
2554.668316,536.266849,-0.000000,9178.553681
2554.668645,229.828649,-222.061783,9252.574275
2554.668974,229.828649,-74.020594,9326.594869
2554.669303,229.828649,-222.061783,9252.574275
2554.669632,612.876398,-518.144159,9178.553681
2554.669961,612.876398,-222.061783,9326.594869
2554.670290,536.266849,-444.123565,9252.574275
2554.670619,0.000000,-0.000000,9474.636058
2554.670948,306.438199,-296.082377,9178.553681
2554.671277,536.266849,-0.000000,9030.512492
2554.671606,153.219100,-0.000000,9104.533087
2554.671935,536.266849,-0.000000,9030.512492
2554.672264,536.266849,-148.041188,9178.553681
2554.672593,-383.047749,-74.020594,9178.553681
2554.672922,383.047749,-148.041188,8882.471304
2554.673251,229.828649,-0.000000,8956.491898
2554.673580,229.828649,-74.020594,8882.471304
2554.673909,229.828649,-0.000000,8882.471304
2554.674239,459.657299,-74.020594,9104.533087
2554.674568,689.485948,-0.000000,9252.574275
2554.674897,536.266849,-222.061783,9326.594869
2554.675226,76.609550,-296.082377,8586.388927
2554.675555,229.828649,-74.020594,9030.512492
2554.675884,229.828649,-0.000000,9104.533087
2554.676213,383.047749,-74.020594,9030.512492
2554.676542,842.705048,-148.041188,8882.471304
2554.676871,383.047749,-222.061783,9030.512492
2554.677200,153.219100,-74.020594,9178.553681
2554.677529,0.000000,-370.102971,8882.471304
2554.677858,383.047749,-296.082377,9104.533087
2554.678187,306.438199,-222.061783,9178.553681
2554.678516,383.047749,-222.061783,9104.533087
2554.678845,383.047749,-74.020594,9474.636058
2554.679174,76.609550,-296.082377,9474.636058
2554.679503,76.609550,-444.123565,9252.574275
2554.679832,383.047749,-370.102971,9326.594869
2554.680161,153.219100,-0.000000,9178.553681
2554.680490,229.828649,-222.061783,9326.594869
2554.680819,153.219100,-148.041188,9400.615463
2554.681148,153.219100,-148.041188,9178.553681
2554.681477,153.219100,-74.020594,8956.491898
2554.681806,459.657299,-74.020594,9400.615463
2554.682135,0.000000,-0.000000,9326.594869
2554.682464,153.219100,-0.000000,9104.533087
2554.682793,153.219100,-222.061783,9252.574275
2554.683122,153.219100,-0.000000,9178.553681
2554.683451,153.219100,-370.102971,9178.553681
2554.683780,689.485948,-592.164754,9548.656652
2554.684109,1302.362347,-1036.288319,9252.574275
2554.684438,1685.410096,-740.205942,9400.615463
2554.684767,1685.410096,-370.102971,9252.574275
2554.685096,1991.848295,-74.020594,8882.471304
2554.685425,2681.334243,518.144159,8512.368333
2554.685754,3983.696590,592.164754,8882.471304
2554.686083,4290.134789,-0.000000,8438.347739
2554.686412,3600.648841,296.082377,8512.368333
2554.686741,3064.381992,592.164754,8364.327145
2554.687070,2834.553343,296.082377,8364.327145
2554.687399,2911.162892,-370.102971,9548.656652
2554.687728,2221.676944,-888.247130,9030.512492
2554.688057,1378.971896,-1258.350101,9844.739029
2554.688386,1762.019645,-2220.617826,9992.780217
2554.688715,2604.724693,-1258.350101,9696.697840
2554.689044,2298.286494,-0.000000,9770.718434
2554.689373,2987.772442,-1258.350101,9844.739029
2554.689702,3294.210641,-0.000000,8882.471304
2554.690031,4443.353888,962.267725,9548.656652
2554.690360,5439.278036,962.267725,7105.977043
2554.690689,4596.572988,1480.411884,8660.409521
2554.691018,5132.839837,1554.432478,9474.636058
2554.691347,3753.867940,740.205942,7846.182985
2554.691676,3907.087040,444.123565,9104.533087
2554.692005,2987.772442,-148.041188,8808.450710
2554.692334,2528.115143,222.061783,9252.574275
2554.692663,1378.971896,-888.247130,9696.697840
2554.692992,2068.457845,-962.267725,9844.739029
2554.693321,1838.629195,-1332.370696,10288.862594
2554.693650,1302.362347,-1480.411884,9770.718434
2554.693979,1838.629195,-222.061783,9474.636058
2554.694308,2298.286494,-370.102971,9918.759623
2554.694637,3140.991542,740.205942,7550.100608
2554.694966,3830.477490,-0.000000,9548.656652
2554.695295,4519.963438,1258.350101,8438.347739
2554.695624,4749.792088,296.082377,8142.265362
2554.695953,4443.353888,1184.329507,8438.347739
2554.696282,3983.696590,444.123565,8956.491898
2554.696611,3524.039291,-0.000000,8882.471304
2554.696940,2987.772442,-1406.391290,9104.533087
2554.697269,2604.724693,-1110.308913,9696.697840
2554.697598,2145.067394,-1702.473667,10362.883188
2554.697927,2451.505594,-2294.638420,9844.739029
2554.698256,2298.286494,-1924.535449,9770.718434
2554.698585,2528.115143,-592.164754,9474.636058
2554.698914,3294.210641,-0.000000,9326.594869
2554.699243,3677.258390,888.247130,8364.327145
2554.699572,4290.134789,1776.494261,8586.388927
2554.699901,4826.401637,2368.659014,7994.224174
2554.700230,4519.963438,2442.679609,7698.141797
2554.700559,4290.134789,1998.556043,7772.162391
2554.700888,3294.210641,1554.432478,7994.224174
2554.701217,2834.553343,222.061783,8290.306550
2554.701546,2528.115143,-1184.329507,9400.615463
2554.701875,2374.896044,-2220.617826,9992.780217
2554.702204,2221.676944,-3404.947333,9844.739029
2554.702533,2298.286494,-3182.885551,11103.089130
2554.702862,2987.772442,-2812.782580,10807.006753
2554.703191,3600.648841,-1628.453072,10658.965565
2554.703520,4826.401637,-0.000000,9696.697840
2554.703849,5745.716235,962.267725,8882.471304
2554.704178,5822.325785,2368.659014,8364.327145
2554.704507,5592.497135,3256.906145,7698.141797
2554.704836,5439.278036,3330.926739,7846.182985
2554.705165,5286.058936,4145.153275,6809.894666
2554.705494,4060.306139,2368.659014,7105.977043
2554.705823,2145.067394,518.144159,8290.306550
2554.706152,766.095498,-2442.679609,9992.780217
2554.706481,-842.705048,-3552.988522,10362.883188
2554.706810,-995.924147,-5403.503377,11769.274478
2554.707139,-1225.752797,-4515.256246,10658.965565
2554.707468,-229.828649,-2072.576638,11103.089130
2554.707797,229.828649,-1406.391290,10584.944971
2554.708126,995.924147,296.082377,9696.697840
2554.708455,3907.087040,518.144159,11029.068536
2554.708784,6052.154434,2294.638420,7624.121203
2554.709113,7431.126331,1480.411884,8364.327145
2554.709442,5669.106685,1850.514855,6957.935855
2554.709771,5822.325785,2442.679609,6143.709319
2554.710100,5209.449386,2960.823768,7105.977043
2554.710429,4749.792088,2738.761985,5551.544565
2554.710758,4060.306139,4071.132681,5181.441594
2554.711087,3753.867940,2516.700203,5477.523971
2554.711416,1072.533697,-1184.329507,7846.182985
2554.711745,-1762.019645,-6809.894666,11695.253884
2554.712074,-2374.896044,-5255.462188,11177.109724
2554.712403,-2987.772442,-5403.503377,11843.295072
2554.712732,-3677.258390,-5847.626942,11251.130318
2554.713061,-4060.306139,-1332.370696,11695.253884
2554.713390,-1838.629195,-1184.329507,12361.439231
2554.713719,-1685.410096,1924.535449,10881.027347
2554.714048,689.485948,1036.288319,9696.697840
2554.714377,1991.848295,2516.700203,8438.347739
2554.714706,1378.971896,1998.556043,10436.903782
2554.715035,3294.210641,-0.000000,11103.089130
2554.715364,4213.525239,1184.329507,4515.256246
2554.715693,7124.688131,962.267725,7105.977043
2554.716022,6588.421283,2146.597232,3256.906145
2554.716351,7354.516781,3701.029710,5847.626942
2554.716680,3830.477490,2072.576638,6883.915261
2554.717009,2451.505594,-814.226536,7550.100608
2554.717338,-459.657299,-3108.864956,10288.862594
2554.717667,-2528.115143,-1998.556043,9622.677246
2554.717996,-3140.991542,-3034.844362,11843.295072
2554.718325,-4136.915689,-2368.659014,9992.780217
2554.718654,-1915.238745,-666.185348,10732.986159
2554.718983,-3447.429741,-518.144159,11473.192101
2554.719312,-2757.943793,1184.329507,11621.233289
2554.719641,-1685.410096,740.205942,10881.027347
2554.719970,459.657299,-518.144159,9844.739029
2554.720299,689.485948,2072.576638,8290.306550
2554.720628,-306.438199,1406.391290,8290.306550
2554.720957,1072.533697,-2368.659014,11473.192101
2554.721286,3524.039291,296.082377,6291.750507
2554.721615,6128.763984,1406.391290,5403.503377
2554.721944,4136.915689,518.144159,4663.297435
2554.722273,2834.553343,370.102971,6365.771101
2554.722602,919.314598,-0.000000,9474.636058
2554.722931,-1455.581446,-0.000000,8512.368333
2554.723260,-1225.752797,-1332.370696,10807.006753
2554.723589,-1915.238745,-1480.411884,9918.759623
2554.723918,-3447.429741,-148.041188,9400.615463
2554.724247,-4443.353888,-740.205942,10955.047942
2554.724576,-3524.039291,-370.102971,10140.821405
2554.724905,-1455.581446,-2368.659014,13249.686362
2554.725234,0.000000,-1998.556043,11695.253884
2554.725563,612.876398,-0.000000,9622.677246
2554.725892,-383.047749,-296.082377,8142.265362
2554.726221,0.000000,-0.000000,8956.491898
2554.726550,1608.800546,592.164754,10214.842000
2554.726879,4903.011187,1258.350101,6143.709319
2554.727208,6128.763984,1332.370696,4959.379811
2554.727537,4749.792088,1406.391290,4589.276840
2554.727866,2604.724693,2738.761985,7105.977043
2554.728195,0.000000,-0.000000,9252.574275
2554.728524,-2298.286494,-1110.308913,9400.615463
2554.728853,-1532.190996,-1480.411884,12287.418637
2554.729182,-2834.553343,222.061783,8364.327145
2554.729511,-3830.477490,222.061783,8956.491898
2554.729840,-4213.525239,-2294.638420,12435.459826
2554.730169,-2221.676944,-1554.432478,11103.089130
2554.730498,-842.705048,-1554.432478,12731.542202
2554.730827,306.438199,-518.144159,9252.574275
2554.731156,689.485948,1406.391290,7772.162391
2554.731485,-229.828649,-0.000000,10807.006753
2554.731814,2451.505594,-0.000000,10066.800811
2554.732143,4596.572988,1554.432478,5625.565159
2554.732473,6818.249932,518.144159,5995.668130
2554.732802,5132.839837,962.267725,3478.967927
2554.733131,2451.505594,1628.453072,7476.080014
2554.733460,-1149.143247,-222.061783,8956.491898
2554.733789,-2221.676944,-2368.659014,9474.636058
2554.734118,-919.314598,-3108.864956,12361.439231
2554.734447,-2374.896044,1554.432478,6883.915261
2554.734776,-2987.772442,-1554.432478,11621.233289
2554.735105,-3907.087040,-2812.782580,12361.439231
2554.735434,-306.438199,-1406.391290,12731.542202
2554.735763,612.876398,-1110.308913,11769.274478
2554.736092,536.266849,962.267725,7846.182985
2554.736421,1072.533697,-296.082377,11251.130318
2554.736751,3907.087040,-518.144159,10807.006753
2554.737080,5286.058936,4367.215058,3775.050304
2554.737409,6588.421283,1110.308913,6735.874072
2554.737738,6588.421283,1110.308913,2516.700203
2554.738067,5286.058936,3330.926739,6883.915261
2554.738396,306.438199,888.247130,7476.080014
2554.738725,-2298.286494,-1332.370696,8734.430116
2554.739054,-1991.848295,-5699.585753,13989.892304
2554.739383,-3447.429741,1184.329507,4663.297435
2554.739712,-4903.011187,-740.205942,13175.665768
2554.740041,-6741.640382,-3256.906145,12657.521608
2554.740370,-1915.238745,-1850.514855,12879.583391
2554.740700,-612.876398,-1924.535449,14211.954086
2554.741029,1149.143247,666.185348,7105.977043
2554.741358,229.828649,1480.411884,6513.812290
2554.741687,3294.210641,-1480.411884,15322.262999
2554.742016,4903.011187,4737.318029,2812.782580
2554.742345,8733.488677,3182.885551,6661.853478
2554.742674,6741.640382,666.185348,2146.597232
2554.743003,5439.278036,3552.988522,4515.256246
2554.743332,842.705048,1776.494261,9918.759623
2554.743661,-2451.505594,148.041188,7031.956449
2554.743990,-1072.533697,-7031.956449,13397.727550
2554.744319,-4596.572988,-222.061783,6513.812290
2554.744649,-6205.373534,-518.144159,14063.912898
2554.744978,-10189.070123,-6365.771101,14804.118840
2554.745307,-5132.839837,-1702.473667,13693.809927
2554.745636,-2374.896044,-2812.782580,14878.139434
2554.745965,459.657299,-888.247130,8808.450710
2554.746294,1302.362347,3108.864956,6735.874072
2554.746623,766.095498,-2072.576638,12435.459826
2554.746952,7048.078582,2664.741391,6439.791695
2554.747281,9499.584175,6217.729913,2812.782580
2554.747610,9116.536426,-0.000000,3849.070898
2554.747939,4519.963438,3404.947333,1332.370696
2554.748268,3830.477490,3108.864956,9992.780217
2554.748598,-2834.553343,666.185348,7772.162391
2554.748927,-1915.238745,-6291.750507,12213.398043
2554.749256,-3524.039291,-2146.597232,9696.697840
2554.749585,-7124.688131,444.123565,10362.883188
2554.749914,-11951.089769,-8216.285956,16802.674883
2554.750243,-11108.384721,-2220.617826,14730.098246
2554.750572,-4366.744339,-3923.091493,17024.736666
2554.750901,-2221.676944,-1776.494261,9770.718434
2554.751230,3600.648841,1776.494261,8512.368333
2554.751559,0.000000,3478.967927,5033.400406
2554.751888,9576.193725,1110.308913,14730.098246
2554.752217,7048.078582,7328.038826,-3552.988522
2554.752547,11338.213370,1776.494261,7550.100608
2554.752876,5669.106685,2368.659014,1036.288319
2554.753205,7584.345430,7031.956449,2368.659014
2554.753534,1455.581446,1850.514855,6735.874072
2554.753863,-2987.772442,148.041188,3256.906145
2554.754192,0.000000,-10214.842000,20725.766376
2554.754521,-6052.154434,4219.173869,740.205942
2554.754850,-6894.859482,-6809.894666,17912.983796
2554.755179,-14479.204912,-8660.409521,12361.439231
2554.755508,-5209.449386,-814.226536,15544.324782
2554.755837,-3830.477490,-5625.565159,17987.004391
2554.756166,229.828649,-518.144159,6513.812290
2554.756496,3064.381992,5033.400406,5551.544565
2554.756825,6281.983084,-296.082377,13101.645173
2554.757154,8580.269578,4071.132681,4737.318029
2554.757483,10878.556072,3034.844362,8142.265362
2554.757812,9422.974625,-222.061783,-1406.391290
2554.758141,5592.497135,6587.832884,2960.823768
2554.758470,4749.792088,2368.659014,9252.574275
2554.758799,2068.457845,4367.215058,7031.956449
2554.759128,-2451.505594,-5033.400406,11843.295072
2554.759457,-383.047749,-9178.553681,16950.716072
2554.759786,-9346.365076,6587.832884,0.000000
2554.760115,-7124.688131,-15470.304188,26943.496289
2554.760445,-13483.280765,-1406.391290,6809.894666
2554.760774,-3447.429741,-2738.761985,18505.148550
2554.761103,-3294.210641,-5625.565159,14434.015869
2554.761432,2604.724693,5181.441594,5551.544565
2554.761761,2145.067394,296.082377,6439.791695
2554.762090,10189.070123,3034.844362,12879.583391
2554.762419,7354.516781,7328.038826,-2368.659014
2554.762748,10418.898773,-1110.308913,9992.780217
2554.763077,7431.126331,3034.844362,-222.061783
2554.763406,7737.564530,5773.606348,3923.091493
2554.763735,2068.457845,2072.576638,5773.606348
2554.764064,-229.828649,4663.297435,3034.844362
2554.764394,-1915.238745,-11325.150913,19097.313304
2554.764723,-3753.867940,2294.638420,5329.482782
2554.765052,-8044.002729,-1924.535449,13249.686362
2554.765381,-11874.480219,-12731.542202,18209.066173
2554.765710,-8503.660028,1258.350101,11251.130318
2554.766039,-2298.286494,-5181.441594,19393.395680
2554.766368,-1915.238745,-148.041188,6513.812290
2554.766697,2987.772442,4959.379811,7254.018232
2554.767026,2451.505594,-1332.370696,10807.006753
2554.767355,9499.584175,3627.009116,6069.688724
2554.767684,9269.755526,3182.885551,3552.988522
2554.768013,9116.536426,-1776.494261,3256.906145
2554.768343,5439.278036,5181.441594,1036.288319
2554.768672,5822.325785,3552.988522,9474.636058
2554.769001,766.095498,2590.720797,6587.832884
2554.769330,-3140.991542,-3034.844362,9178.553681
2554.769659,-1532.190996,-7179.997637,15470.304188
2554.769988,-8503.660028,4885.359217,4145.153275
2554.770317,-9499.584175,-13101.645173,21614.013506
2554.770646,-14249.376263,-2368.659014,10955.047942
2554.770975,-3294.210641,-3552.988522,16876.695478
2554.771304,-4519.963438,-3552.988522,12287.418637
2554.771633,2528.115143,2146.597232,7105.977043
2554.771962,1378.971896,3849.070898,4959.379811
2554.772292,8656.879127,518.144159,14804.118840
2554.772621,6281.983084,5699.585753,-1332.370696
2554.772950,11108.384721,1184.329507,8290.306550
2554.773279,8810.098227,962.267725,2072.576638
2554.773608,7814.174080,7624.121203,1110.308913
2554.773937,2374.896044,1480.411884,7328.038826
2554.774266,-2604.724693,2368.659014,5255.462188
2554.774595,-1072.533697,-8438.347739,18727.210333
2554.774924,-4290.134789,2220.617826,4811.338623
2554.775253,-7967.393179,-4811.338623,14211.954086
2554.775582,-13713.109414,-9918.759623,16062.468941
2554.775911,-7354.516781,-444.123565,14434.015869
2554.776241,-4060.306139,-3627.009116,17098.757260
2554.776570,-1608.800546,-1480.411884,7550.100608
2554.776899,2757.943793,4885.359217,7179.997637
2554.777228,2145.067394,592.164754,10066.800811
2554.777557,9652.803275,2146.597232,7550.100608
2554.777886,9193.145976,3923.091493,3478.967927
2554.778215,10265.679673,-444.123565,3182.885551
2554.778544,5515.887586,5107.421000,1998.556043
2554.778873,6052.154434,3478.967927,9030.512492
2554.779202,76.609550,2590.720797,6587.832884
2554.779531,-2528.115143,-3404.947333,10584.944971
2554.779860,-1838.629195,-6883.915261,15840.407159
2554.780190,-8350.440928,4589.276840,4811.338623
2554.780519,-8886.707777,-13027.624579,23020.404796
2554.780848,-13713.109414,-2072.576638,10658.965565
2554.781177,-3907.087040,-3701.029710,16654.633695
2554.781506,-5056.230287,-3627.009116,13175.665768
2554.781835,1455.581446,3034.844362,7476.080014
2554.782164,2374.896044,3404.947333,6069.688724
2554.782493,9193.145976,1776.494261,12583.501014
2554.782822,7277.907231,5773.606348,-1036.288319
2554.783151,10955.165621,740.205942,8512.368333
2554.783480,8810.098227,2368.659014,1258.350101
2554.783809,7814.174080,5699.585753,2664.741391
2554.784139,2987.772442,2886.803174,5329.482782
2554.784468,-766.095498,3552.988522,4219.173869
2554.784797,-1838.629195,-9696.697840,17764.942608
2554.785126,-2604.724693,888.247130,6809.894666
2554.785455,-7814.174080,-1480.411884,10658.965565
2554.785784,-11031.775171,-12583.501014,19393.395680
2554.786113,-9039.926876,1036.288319,10584.944971
2554.786442,-2528.115143,-4293.194464,18505.148550
2554.786771,-2068.457845,-592.164754,7550.100608
2554.787100,1838.629195,5255.462188,7402.059420
2554.787429,2604.724693,-518.144159,7846.182985
2554.787758,9806.022374,4367.215058,7624.121203
2554.788087,6818.249932,3775.050304,0.000000
2554.788417,9269.755526,-1184.329507,6143.709319
2554.788746,5669.106685,3330.926739,1628.453072
2554.789075,6818.249932,2664.741391,7105.977043
2554.789404,2145.067394,3034.844362,5699.585753
2554.789733,-1991.848295,148.041188,4441.235652
2554.790062,-1455.581446,-10214.842000,20355.663405
2554.790391,-4060.306139,6069.688724,1850.514855
2554.790720,-6281.983084,-7624.121203,16802.674883
2554.791049,-13483.280765,-6217.729913,12213.398043
2554.791378,-5362.668486,-296.082377,15396.283594
2554.791707,-3983.696590,-5107.421000,17912.983796
2554.792036,-612.876398,1480.411884,5847.626942
2554.792366,2221.676944,3701.029710,8808.450710
2554.792695,1608.800546,-370.102971,11103.089130
2554.793024,8197.221829,3849.070898,8660.409521
2554.793353,7507.735880,888.247130,2442.679609
2554.793682,8656.879127,370.102971,4885.359217
2554.794011,4826.401637,1702.473667,2886.803174
2554.794340,6358.592633,3849.070898,6809.894666
2554.794669,689.485948,2220.617826,6735.874072
2554.794998,-2298.286494,-2886.803174,6439.791695
2554.795327,459.657299,-5255.462188,18209.066173
2554.795656,-6205.373534,4441.235652,2368.659014
2554.795985,-5286.058936,-9104.533087,20059.581028
2554.796315,-12334.137518,-3404.947333,9622.677246
2554.796644,-2374.896044,-1776.494261,15544.324782
2554.796973,-4443.353888,-3034.844362,14656.077652
2554.797302,459.657299,2146.597232,6143.709319
2554.797631,919.314598,3478.967927,7328.038826
2554.797960,4290.134789,-74.020594,12065.356855
2554.798289,5745.716235,2886.803174,4589.276840
2554.798618,9039.926876,1406.391290,5847.626942
2554.798947,8273.831378,-148.041188,1924.535449
2554.799276,5669.106685,3923.091493,2812.782580
2554.799605,3830.477490,3034.844362,7254.018232
2554.799934,-2374.896044,222.061783,7624.121203
2554.800264,-1455.581446,-5773.606348,13175.665768
2554.800593,-2221.676944,-592.164754,9030.512492
2554.800922,-5975.544884,-1036.288319,10140.821405
2554.801251,-9806.022374,-9326.594869,17172.777854
2554.801580,-9729.412825,-1776.494261,13693.809927
2554.801909,-3600.648841,-3034.844362,17468.860231
2554.802238,-2528.115143,-2072.576638,10066.800811
2554.802567,2374.896044,3330.926739,7402.059420
2554.802896,-153.219100,2812.782580,7846.182985
2554.803225,7354.516781,370.102971,14804.118840
2554.803554,5975.544884,4515.256246,-592.164754
2554.803883,10725.336972,1110.308913,7105.977043
2554.804213,5822.325785,666.185348,2368.659014
2554.804542,6894.859482,5847.626942,2664.741391
2554.804871,383.047749,1702.473667,7772.162391
2554.805200,-3370.820191,-2442.679609,7772.162391
2554.805529,0.000000,-5255.462188,16506.592507
2554.805858,-4519.963438,2886.803174,4441.235652
2554.806187,-6741.640382,-6291.750507,17468.860231
2554.806516,-13023.623466,-4737.318029,13249.686362
2554.806845,-3447.429741,-1924.535449,16358.551318
2554.807174,-4596.572988,-2812.782580,14952.160028
2554.807503,153.219100,-222.061783,7328.038826
2554.807832,1915.238745,5625.565159,5921.647536
2554.808162,2604.724693,-0.000000,11399.171507
2554.808491,7124.688131,2442.679609,5773.606348
2554.808820,9422.974625,3478.967927,4589.276840
2554.809149,9116.536426,-444.123565,2146.597232
2554.809478,4826.401637,4071.132681,1332.370696
2554.809807,4749.792088,3627.009116,8068.244768
2554.810136,-1149.143247,1036.288319,6217.729913
2554.810465,-1225.752797,-5107.421000,11029.068536
2554.810794,-536.266849,-4219.173869,13323.706956
2554.811123,-6818.249932,2960.823768,4589.276840
2554.811452,-7124.688131,-11177.109724,21762.054695
2554.811781,-11721.261119,-444.123565,10732.986159
2554.812111,-1762.019645,-2812.782580,18505.148550
2554.812440,-3447.429741,-2886.803174,12213.398043
2554.812769,2298.286494,3701.029710,6809.894666
2554.813098,612.876398,2294.638420,6883.915261
2554.813427,7431.126331,1036.288319,14137.933492
2554.813756,6052.154434,5477.523971,-296.082377
2554.814085,10725.336972,1036.288319,6439.791695
2554.814414,8120.612279,222.061783,1110.308913
2554.814743,6818.249932,5995.668130,2664.741391
2554.815072,1915.238745,1702.473667,7328.038826
2554.815401,-1762.019645,962.267725,5403.503377
2554.815730,-689.485948,-9178.553681,18505.148550
2554.816060,-2451.505594,2664.741391,5403.503377
2554.816389,-6818.249932,-3478.967927,12953.603985
2554.816718,-9882.631924,-9548.656652,17098.757260
2554.817047,-5056.230287,888.247130,12953.603985
2554.817376,-1838.629195,-4515.256246,17690.922014
2554.817705,-1608.800546,-0.000000,7328.038826
2554.818034,1915.238745,4959.379811,6513.812290
2554.818363,1302.362347,-962.267725,11769.274478
2554.818692,7660.954980,2886.803174,5255.462188
2554.819021,8427.050478,3552.988522,2442.679609
2554.819350,8427.050478,-962.267725,2960.823768
2554.819679,5056.230287,2812.782580,1332.370696
2554.820009,5056.230287,2590.720797,8512.368333
2554.820338,-1532.190996,370.102971,7179.997637
2554.820667,-3524.039291,-4219.173869,8512.368333
2554.820996,-1838.629195,-6069.688724,15618.345376
2554.821325,-7660.954980,2886.803174,5847.626942
2554.821654,-8503.660028,-8290.306550,20725.766376
2554.821983,-11644.651570,-2516.700203,12065.356855
2554.822312,-2298.286494,-2146.597232,16802.674883
2554.822641,-2757.943793,-1850.514855,12213.398043
2554.822970,2528.115143,2960.823768,5255.462188
2554.823299,1225.752797,1554.432478,9770.718434
2554.823628,8120.612279,1480.411884,8438.347739
2554.823958,8427.050478,3923.091493,0.000000
2554.824287,7967.393179,2146.597232,5255.462188
2554.824616,6588.421283,1036.288319,1628.453072
2554.824945,6128.763984,3034.844362,7105.977043
2554.825274,2681.334243,2664.741391,5921.647536
2554.825603,-2604.724693,-148.041188,5921.647536
2554.825932,-2681.334243,-12139.377449,22280.198854
2554.826261,-6435.202183,5181.441594,2738.761985
2554.826590,-6818.249932,-7698.141797,19763.498651
2554.826919,-12947.013916,-5995.668130,12657.521608
2554.827248,-5515.887586,-1036.288319,15618.345376
2554.827577,-2298.286494,-4219.173869,17764.942608
2554.827907,0.000000,2146.597232,5773.606348
2554.828236,2298.286494,4663.297435,5477.523971
2554.828565,7660.954980,-0.000000,15248.242405
2554.828894,5975.544884,7920.203579,-1332.370696
2554.829223,11644.651570,1332.370696,7698.141797
2554.829552,8733.488677,3849.070898,-1924.535449
2554.829881,7967.393179,2368.659014,3627.009116
2554.830210,1991.848295,3775.050304,4145.153275
2554.830539,2068.457845,5033.400406,6217.729913
2554.830869,-4366.744339,-7994.224174,14878.139434
2554.831198,-2681.334243,-6291.750507,13101.645173
2554.831527,-10342.289223,4071.132681,5699.585753
2554.831856,-9269.755526,-16210.510130,27313.599260
2554.832185,-13866.328514,-518.144159,7031.956449
2554.832514,-3294.210641,-4367.215058,19911.539840
2554.832843,-3830.477490,-2072.576638,10955.047942
2554.833172,1302.362347,5625.565159,6143.709319
2554.833502,2604.724693,-1184.329507,6735.874072
2554.833831,11031.775171,5033.400406,6217.729913
2554.834160,6128.763984,5033.400406,-1036.288319
2554.834489,12257.527968,-0.000000,7550.100608
2554.834818,6741.640382,3330.926739,-2590.720797
2554.835147,7354.516781,-0.000000,7254.018232
2554.835476,1685.410096,8068.244768,1776.494261
2554.835806,2604.724693,2664.741391,5255.462188
2554.836135,-4290.134789,-12139.377449,20281.642811
2554.836464,-2451.505594,444.123565,8882.471304
2554.836793,-8810.098227,-1258.350101,10881.027347
2554.837122,-9729.412825,-14211.954086,23760.610738
2554.837451,-10342.289223,1776.494261,8068.244768
2554.837780,-995.924147,-4885.359217,19467.416275
2554.838109,-2757.943793,1702.473667,7772.162391
2554.838439,1685.410096,4885.359217,7846.182985
2554.838768,4673.182538,-3182.885551,11917.315666
2554.839097,10035.851024,5107.421000,4441.235652
2554.839426,9193.145976,1628.453072,5181.441594
2554.839755,9193.145976,-0.000000,-592.164754
2554.840084,6281.983084,1998.556043,2368.659014
2554.840413,5209.449386,3627.009116,10436.903782
2554.840743,2451.505594,5107.421000,2886.803174
2554.841072,-1608.800546,-740.205942,5699.585753
2554.841401,-2068.457845,-10658.965565,20577.725188
2554.841730,-6205.373534,7698.141797,1998.556043
2554.842059,-5975.544884,-11029.068536,21688.034101
2554.842388,-13176.842566,-6587.832884,10807.006753
2554.842717,-5286.058936,1776.494261,16136.489536
2554.843047,-2145.067394,-4737.318029,17690.922014
2554.843376,-612.876398,3478.967927,4737.318029
2554.843705,2451.505594,2738.761985,5773.606348
2554.844034,6435.202183,888.247130,14582.057057
2554.844363,6588.421283,5255.462188,2368.659014
2554.844692,11568.042020,-296.082377,8438.347739
2554.845021,8427.050478,1998.556043,-2294.638420
2554.845350,7201.297681,4293.194464,4737.318029
2554.845680,3140.991542,2442.679609,6513.812290
2554.846009,-2145.067394,1406.391290,6661.853478
2554.846338,-2528.115143,-7550.100608,15470.304188
2554.846667,-2757.943793,-74.020594,9326.594869
2554.846996,-7967.393179,-1184.329507,11547.212695
2554.847325,-10418.898773,-12213.398043,19689.478057
2554.847654,-9576.193725,1110.308913,12361.439231
2554.847984,-2834.553343,-4737.318029,17024.736666
2554.848313,-1455.581446,-296.082377,9030.512492
2554.848642,3370.820191,4071.132681,5921.647536
2554.848971,1225.752797,2072.576638,7105.977043
2554.849300,8963.317327,2590.720797,8364.327145
2554.849629,6741.640382,3478.967927,-1036.288319
2554.849958,9116.536426,-74.020594,6291.750507
2554.850287,5132.839837,2516.700203,1036.288319
2554.850617,6281.983084,3256.906145,6365.771101
2554.850946,-612.876398,1554.432478,7105.977043
2554.851275,-3064.381992,-2590.720797,6883.915261
2554.851604,-1378.971896,-5847.626942,15322.262999
2554.851933,-6665.030833,4589.276840,4885.359217
2554.852262,-8656.879127,-9104.533087,19615.457463
2554.852591,-14019.547613,-3182.885551,12879.583391
2554.852921,-3524.039291,-2886.803174,15692.365970
2554.853250,-4749.792088,-2294.638420,13027.624579
2554.853579,1149.143247,592.164754,7254.018232
2554.853908,1149.143247,5995.668130,5107.421000
2554.854237,4213.525239,-666.185348,12583.501014
2554.854566,6665.030833,1776.494261,5921.647536
2554.854895,9269.755526,592.164754,4071.132681
2554.855225,8886.707777,-0.000000,2294.638420
2554.855554,4903.011187,3478.967927,2960.823768
2554.855883,4903.011187,3404.947333,8290.306550
2554.856212,-995.924147,1776.494261,6143.709319
2554.856541,-612.876398,-4737.318029,12139.377449
2554.856870,-1762.019645,-3108.864956,13989.892304
2554.857199,-7048.078582,2442.679609,6291.750507
2554.857528,-6894.859482,-10732.986159,21169.889941
2554.857858,-10878.556072,-518.144159,11769.274478
2554.858187,-2451.505594,-2960.823768,16358.551318
2554.858516,-2834.553343,-2886.803174,12583.501014
2554.858845,1915.238745,4515.256246,6365.771101
2554.859174,1685.410096,3182.885551,5107.421000
2554.859503,7201.297681,-0.000000,15248.242405
2554.859832,4979.620737,4441.235652,518.144159
2554.860162,11261.603821,148.041188,7105.977043
2554.860491,8120.612279,962.267725,1332.370696
2554.860820,7431.126331,4737.318029,2664.741391
2554.861149,1378.971896,1406.391290,8216.285956
2554.861478,-2528.115143,-444.123565,7994.224174
2554.861807,-842.705048,-6143.709319,15100.201217
2554.862136,-2451.505594,740.205942,8068.244768
2554.862465,-7124.688131,-2516.700203,11621.233289
2554.862795,-10265.679673,-6217.729913,17394.839637
2554.863124,-5745.716235,-962.267725,14063.912898
2554.863453,-3294.210641,-1406.391290,14804.118840
2554.863782,76.609550,-1554.432478,8882.471304
2554.864111,2528.115143,5625.565159,5181.441594
2554.864440,1838.629195,-1184.329507,10066.800811
2554.864769,7814.174080,1332.370696,7402.059420
2554.865099,7814.174080,2738.761985,1036.288319
2554.865428,9193.145976,370.102971,4663.297435
2554.865757,5362.668486,1850.514855,1110.308913
2554.866086,5822.325785,2812.782580,7550.100608
2554.866415,-612.876398,1110.308913,6809.894666
2554.866744,-1762.019645,-3478.967927,8364.327145
2554.867073,-2451.505594,-5477.523971,16284.530724
2554.867403,-6281.983084,2886.803174,5995.668130
2554.867732,-6511.811733,-7328.038826,18579.169144
2554.868061,-10955.165621,-2072.576638,13175.665768
2554.868390,-2451.505594,-2738.761985,14656.077652
2554.868719,-2374.896044,-2368.659014,14063.912898
2554.869048,1072.533697,1406.391290,7476.080014
2554.869377,1378.971896,4219.173869,4737.318029
2554.869706,6894.859482,-222.061783,15470.304188
2554.870036,5286.058936,5181.441594,-888.247130
2554.870365,10725.336972,2368.659014,6143.709319
2554.870694,8427.050478,1184.329507,1628.453072
2554.871023,8197.221829,4885.359217,2368.659014
2554.871352,2451.505594,1036.288319,7920.203579
2554.871681,-3064.381992,370.102971,8068.244768
2554.872010,-2298.286494,-8438.347739,16210.510130
2554.872340,-4213.525239,1036.288319,8438.347739
2554.872669,-8427.050478,-2294.638420,11991.336260
2554.872998,-12180.918418,-6883.915261,16580.613101
2554.873327,-7890.783629,-1258.350101,14804.118840
2554.873656,-4519.963438,-2960.823768,16358.551318
2554.873985,-1225.752797,-1406.391290,9918.759623
2554.874314,1762.019645,4145.153275,6957.935855
2554.874643,689.485948,666.185348,6143.709319
2554.874973,8963.317327,2960.823768,10140.821405
2554.875302,6818.249932,4737.318029,-2664.741391
2554.875631,10648.727422,962.267725,6661.853478
2554.875960,5592.497135,888.247130,1184.329507
2554.876289,7431.126331,4737.318029,4515.256246
2554.876618,689.485948,1554.432478,7624.121203
2554.876947,-2221.676944,-1850.514855,6661.853478
2554.877277,-1915.238745,-7698.141797,18357.107362
2554.877606,-5209.449386,4071.132681,6291.750507
2554.877935,-6741.640382,-6809.894666,16432.571912
2554.878264,-12410.747068,-4441.235652,13175.665768
2554.878593,-4136.915689,-3256.906145,15692.365970
2554.878922,-4213.525239,-2886.803174,14656.077652
2554.879251,383.047749,-148.041188,8364.327145
2554.879581,1455.581446,5107.421000,4811.338623
2554.879910,4060.306139,-1554.432478,14211.954086
2554.880239,6281.983084,4071.132681,4071.132681
2554.880568,10801.946522,1702.473667,5403.503377
2554.880897,9269.755526,1332.370696,222.061783
2554.881226,6205.373534,3182.885551,2516.700203
2554.881555,4290.134789,2664.741391,8142.265362
2554.881884,-2528.115143,-222.061783,7550.100608
2554.882214,-2604.724693,-6587.832884,13989.892304
2554.882543,-3064.381992,-2146.597232,12953.603985
2554.882872,-8273.831378,-444.123565,8290.306550
2554.883201,-9576.193725,-8808.450710,18283.086767
2554.883530,-10189.070123,296.082377,13101.645173
2554.883859,-2681.334243,-2516.700203,15692.365970
2554.884188,-2221.676944,-1110.308913,10510.924376
2554.884518,2374.896044,3478.967927,6143.709319
2554.884847,1532.190996,740.205942,8216.285956
2554.885176,8427.050478,1554.432478,8660.409521
2554.885505,8197.221829,4441.235652,-1110.308913
2554.885834,9346.365076,1480.411884,5181.441594
2554.886163,6052.154434,2442.679609,888.247130
2554.886492,6511.811733,2886.803174,7846.182985
2554.886821,1225.752797,2516.700203,6809.894666
2554.887151,-2298.286494,-518.144159,8364.327145
2554.887480,-2834.553343,-11473.192101,20947.828159
2554.887809,-6894.859482,5107.421000,4441.235652
2554.888138,-6588.421283,-9770.718434,20725.766376
2554.888467,-13330.061665,-3404.947333,11029.068536
2554.888796,-3907.087040,-1702.473667,15766.386565
2554.889125,-1915.238745,-3552.988522,15914.427753
2554.889455,612.876398,2664.741391,6365.771101
2554.889784,1455.581446,3775.050304,6587.832884
2554.890113,9882.631924,-518.144159,12361.439231
2554.890442,6435.202183,7105.977043,-4885.359217
2554.890771,11031.775171,1110.308913,8216.285956
2554.891100,7890.783629,3849.070898,-888.247130
2554.891429,8273.831378,962.267725,5773.606348
2554.891759,1915.238745,4515.256246,4441.235652
2554.892088,2681.334243,4071.132681,6143.709319
2554.892417,-4290.134789,-10436.903782,18061.024985
2554.892746,-3064.381992,-3849.070898,12361.439231
2554.893075,-8886.707777,3552.988522,7624.121203
2554.893404,-9499.584175,-13249.686362,23834.631332
2554.893733,-11721.261119,888.247130,6809.894666
2554.894062,-1991.848295,-3849.070898,18283.086767
2554.894392,-2987.772442,-814.226536,9326.594869
2554.894721,689.485948,5255.462188,5847.626942
2554.895050,2987.772442,-3182.885551,7402.059420
2554.895379,9806.022374,4959.379811,4663.297435
2554.895708,6971.469032,3849.070898,74.020594
2554.896037,9882.631924,-0.000000,5477.523971
2554.896366,5669.106685,1924.535449,0.000000
2554.896696,6971.469032,1850.514855,8512.368333
2554.897025,1838.629195,4589.276840,3997.112087
2554.897354,-1991.848295,518.144159,5033.400406
2554.897683,-3217.601092,-12731.542202,20651.745782
2554.898012,-4749.792088,6883.915261,4589.276840
2554.898341,-7890.783629,-7550.100608,17320.819043
2554.898670,-12870.404366,-7920.203579,14137.933492
2554.898999,-5822.325785,370.102971,14434.015869
2554.899329,-2221.676944,-4367.215058,17246.798449
2554.899658,-689.485948,3108.864956,5847.626942
2554.899987,2451.505594,3182.885551,5847.626942
2554.900316,7201.297681,-814.226536,15470.304188
2554.900645,5515.887586,6809.894666,0.000000
2554.900974,12257.527968,370.102971,9178.553681
2554.901303,8427.050478,2072.576638,-2368.659014
2554.901633,7890.783629,3552.988522,4959.379811
2554.901962,3064.381992,3404.947333,6365.771101
2554.902291,76.609550,2368.659014,7031.956449
2554.902620,-4213.525239,-7772.162391,14656.077652
2554.902949,-2221.676944,-4219.173869,13027.624579
2554.903278,-8503.660028,4885.359217,6957.935855
2554.903607,-9116.536426,-13915.871710,23982.672521
2554.903937,-12410.747068,1776.494261,8438.347739
2554.904266,-3447.429741,-3330.926739,17098.757260
2554.904595,-3830.477490,-888.247130,10584.944971
2554.904924,1838.629195,3923.091493,6365.771101
2554.905253,1149.143247,1036.288319,5255.462188
2554.905582,8350.440928,3108.864956,12805.562797
2554.905911,4136.915689,5477.523971,222.061783
2554.906240,11644.651570,-222.061783,7105.977043
2554.906570,7354.516781,3997.112087,518.144159
2554.906899,8197.221829,5699.585753,3775.050304
2554.907228,1685.410096,1036.288319,6883.915261
2554.907557,-4060.306139,-0.000000,8586.388927
2554.907886,-1455.581446,-9030.512492,17764.942608
2554.908215,-4826.401637,3552.988522,7105.977043
2554.908544,-8886.707777,-5551.544565,13989.892304
2554.908874,-12180.918418,-6809.894666,16358.551318
2554.909203,-5515.887586,-888.247130,14656.077652
2554.909532,-3064.381992,-1924.535449,14656.077652
2554.909861,612.876398,-666.185348,7476.080014
2554.910190,1838.629195,6143.709319,4219.173869
2554.910519,4136.915689,-2072.576638,13323.706956
2554.910848,7201.297681,2516.700203,4737.318029
2554.911177,9499.584175,1702.473667,5921.647536
2554.911507,10035.851024,1110.308913,0.000000
2554.911836,6511.811733,3108.864956,3108.864956
2554.912165,4596.572988,3256.906145,9548.656652
2554.912494,0.000000,1998.556043,6587.832884
2554.912823,-1915.238745,-5403.503377,12879.583391
2554.913152,-2374.896044,-6883.915261,17098.757260
2554.913481,-6665.030833,4737.318029,5181.441594
2554.913811,-6511.811733,-10732.986159,21762.054695
2554.914140,-11951.089769,-888.247130,10066.800811
2554.914469,-3370.820191,-1924.535449,15692.365970
2554.914798,-2757.943793,-2960.823768,14063.912898
2554.915127,612.876398,3997.112087,7550.100608
2554.915456,1225.752797,2146.597232,5403.503377
2554.915785,5439.278036,-1110.308913,14434.015869
2554.916115,4826.401637,3923.091493,4663.297435
2554.916444,11261.603821,-518.144159,5921.647536
2554.916773,8656.879127,1554.432478,74.020594
2554.917102,6511.811733,2368.659014,5329.482782
2554.917431,4290.134789,3404.947333,7920.203579
2554.917760,-766.095498,1406.391290,7254.018232
2554.918089,-1302.362347,-5847.626942,12361.439231
2554.918418,-1378.971896,-2072.576638,13545.768739
2554.918748,-6435.202183,2072.576638,6069.688724
2554.919077,-6205.373534,-8882.471304,19615.457463
2554.919406,-8273.831378,-74.020594,11769.274478
2554.919735,-1991.848295,-2368.659014,14582.057057
2554.920064,-995.924147,-1406.391290,11399.171507
2554.920393,689.485948,4737.318029,5551.544565
2554.920722,1302.362347,-370.102971,7846.182985
2554.921052,7277.907231,1628.453072,9622.677246
2554.921381,6052.154434,5403.503377,-370.102971
2554.921710,9039.926876,-0.000000,7476.080014
2554.922039,6511.811733,1036.288319,1554.432478
2554.922368,7277.907231,2960.823768,5107.421000
2554.922697,1685.410096,1702.473667,6957.935855
2554.923026,-2604.724693,-444.123565,6587.832884
2554.923355,-2834.553343,-8512.368333,17394.839637
2554.923685,-3677.258390,2146.597232,7846.182985
2554.924014,-6665.030833,-3404.947333,12879.583391
2554.924343,-11108.384721,-4959.379811,14508.036463
2554.924672,-5592.497135,-1924.535449,13471.748144
2554.925001,-2911.162892,-1998.556043,15322.262999
2554.925330,-459.657299,962.267725,8142.265362
2554.925659,1455.581446,3701.029710,4737.318029
2554.925989,1608.800546,-2516.700203,11177.109724
2554.926318,6511.811733,2664.741391,6143.709319
2554.926647,8044.002729,1406.391290,3182.885551
2554.926976,7967.393179,962.267725,2516.700203
2554.927305,4826.401637,222.061783,2812.782580
2554.927634,4596.572988,2886.803174,8808.450710
2554.927963,-2298.286494,370.102971,7772.162391
2554.928293,-2221.676944,-4811.338623,9622.677246
2554.928622,-2298.286494,-2960.823768,13915.871710
2554.928951,-5975.544884,2220.617826,7994.224174
2554.929280,-8273.831378,-6513.812290,17024.736666
2554.929609,-10648.727422,-2294.638420,13175.665768
2554.929938,-2221.676944,-2442.679609,14804.118840
2554.930267,-1302.362347,-1406.391290,11325.150913
2554.930596,1608.800546,2368.659014,5995.668130
2554.930926,383.047749,2516.700203,6735.874072
2554.931255,8197.221829,740.205942,12065.356855
2554.931584,5975.544884,5921.647536,-2368.659014
2554.931913,9576.193725,1480.411884,7402.059420
2554.932242,5592.497135,444.123565,1554.432478
2554.932571,6971.469032,3330.926739,3923.091493
2554.932901,1302.362347,1110.308913,6661.853478
2554.933230,-2987.772442,-814.226536,6883.915261
2554.933559,-1915.238745,-8808.450710,18875.251521
2554.933888,-4903.011187,2368.659014,7254.018232
2554.934217,-6665.030833,-6217.729913,16950.716072
2554.934546,-12870.404366,-4811.338623,12879.583391
2554.934875,-5439.278036,-1554.432478,15174.221811
2554.935205,-4366.744339,-2590.720797,15544.324782
2554.935534,-536.266849,370.102971,8660.409521
2554.935863,2374.896044,3775.050304,7105.977043
2554.936192,2911.162892,-1110.308913,10881.027347
2554.936521,7737.564530,2442.679609,7031.956449
2554.936850,8810.098227,2886.803174,2960.823768
2554.937179,9729.412825,1036.288319,2738.761985
2554.937509,4979.620737,1702.473667,2738.761985
2554.937838,5209.449386,3330.926739,8882.471304
2554.938167,306.438199,814.226536,7624.121203
2554.938496,-1225.752797,-5181.441594,9770.718434
2554.938825,-1608.800546,-5255.462188,16210.510130
2554.939154,-6358.592633,4219.173869,5329.482782
2554.939484,-5515.887586,-9844.739029,21984.116477
2554.939813,-11184.994271,-666.185348,10881.027347
2554.940142,-1149.143247,-2294.638420,15470.304188
2554.940471,-3370.820191,-1998.556043,12361.439231
2554.940800,2221.676944,2664.741391,6661.853478
2554.941129,1378.971896,2220.617826,5329.482782
2554.941458,8810.098227,296.082377,12953.603985
2554.941788,5286.058936,6513.812290,-2442.679609
2554.942117,10112.460574,-296.082377,7550.100608
2554.942446,7201.297681,1702.473667,1406.391290
2554.942775,7890.783629,3552.988522,4737.318029
2554.943104,3294.210641,2886.803174,4663.297435
2554.943433,229.828649,3034.844362,4589.276840
2554.943763,-3294.210641,-7698.141797,17468.860231
2554.944092,-2374.896044,-2590.720797,12139.377449
2554.944421,-8120.612279,2072.576638,7920.203579
2554.944750,-8427.050478,-10362.883188,20873.807564
2554.945079,-8733.488677,814.226536,8068.244768
2554.945408,-2221.676944,-1850.514855,16654.633695
2554.945737,-2221.676944,-592.164754,9696.697840
2554.946067,1532.190996,4885.359217,5995.668130
2554.946396,2451.505594,-2442.679609,8882.471304
2554.946725,8273.831378,3701.029710,5403.503377
2554.947054,6818.249932,2590.720797,222.061783
2554.947383,7277.907231,-1036.288319,5403.503377
2554.947712,5056.230287,444.123565,1110.308913
2554.948042,6741.640382,2738.761985,7402.059420
2554.948371,536.266849,-0.000000,7105.977043
2554.948700,-3447.429741,-1628.453072,8142.265362
2554.949029,-2834.553343,-7550.100608,16876.695478
2554.949358,-5209.449386,4515.256246,6809.894666
2554.949687,-6818.249932,-6143.709319,17098.757260
2554.950016,-10955.165621,-2516.700203,13841.851115
2554.950346,-2451.505594,-1184.329507,14211.954086
2554.950675,-2374.896044,-222.061783,13545.768739
2554.951004,995.924147,2072.576638,5699.585753
2554.951333,1225.752797,4071.132681,5255.462188
2554.951662,7048.078582,-1184.329507,15692.365970
2554.951991,4903.011187,5255.462188,-1184.329507
2554.952321,11184.994271,444.123565,7772.162391
2554.952650,7584.345430,1258.350101,444.123565
2554.952979,7584.345430,5255.462188,2960.823768
2554.953308,2451.505594,1998.556043,6661.853478
2554.953637,-1762.019645,2146.597232,5181.441594
2554.953966,-2834.553343,-8142.265362,16654.633695
2554.954295,-2451.505594,-0.000000,10732.986159
2554.954625,-7967.393179,-0.000000,7994.224174
2554.954954,-9806.022374,-9326.594869,21317.931130
2554.955283,-9499.584175,888.247130,11325.150913
2554.955612,-2451.505594,-2442.679609,17024.736666
2554.955941,-3447.429741,-814.226536,9992.780217
2554.956270,1838.629195,3849.070898,6069.688724
2554.956600,1225.752797,-444.123565,8142.265362
2554.956929,7354.516781,3552.988522,8956.491898
2554.957258,5209.449386,3404.947333,-2146.597232
2554.957587,9346.365076,-592.164754,7476.080014
2554.957916,5669.106685,1258.350101,1776.494261
2554.958245,6205.373534,4145.153275,4071.132681
2554.958574,153.219100,740.205942,7772.162391
2554.958904,-4749.792088,-1776.494261,7846.182985
2554.959233,-1149.143247,-7328.038826,17912.983796
2554.959562,-5592.497135,4589.276840,5255.462188
2554.959891,-7890.783629,-6513.812290,17987.004391
2554.960220,-13023.623466,-3923.091493,13249.686362
2554.960549,-2528.115143,-1702.473667,14952.160028
2554.960879,-3447.429741,-1480.411884,13101.645173
2554.961208,1762.019645,666.185348,6365.771101
2554.961537,1225.752797,4441.235652,5625.565159
2554.961866,6741.640382,-1332.370696,14434.015869
2554.962195,5898.935335,5033.400406,-1258.350101
2554.962524,10265.679673,1332.370696,7698.141797
2554.962853,8503.660028,1480.411884,-296.082377
2554.963183,8044.002729,4811.338623,2590.720797
2554.963512,3370.820191,3034.844362,5921.647536
2554.963841,689.485948,3108.864956,6143.709319
2554.964170,-2681.334243,-6143.709319,16580.613101
2554.964499,-2528.115143,-4737.318029,11843.295072
2554.964828,-8197.221829,3256.906145,6217.729913
2554.965158,-7967.393179,-11917.315666,23686.590144
2554.965487,-10955.165621,666.185348,8216.285956
2554.965816,-2528.115143,-3256.906145,17987.004391
2554.966145,-2604.724693,-2072.576638,10288.862594
2554.966474,1455.581446,4885.359217,6069.688724
2554.966803,1762.019645,-222.061783,5773.606348
2554.967132,9269.755526,2886.803174,11251.130318
2554.967462,5209.449386,4663.297435,-2664.741391
2554.967791,10495.508323,-888.247130,8512.368333
2554.968120,6281.983084,1628.453072,1036.288319
2554.968449,8427.050478,4219.173869,4219.173869
2554.968778,2068.457845,1924.535449,5255.462188
2554.969107,-1838.629195,2294.638420,5107.421000
2554.969437,-1762.019645,-9474.636058,18653.189738
2554.969766,-3217.601092,3404.947333,7402.059420
2554.970095,-7354.516781,-4293.194464,11325.150913
2554.970424,-9882.631924,-8290.306550,17394.839637
2554.970753,-6205.373534,592.164754,13027.624579
2554.971082,-2221.676944,-3256.906145,16802.674883
2554.971411,-995.924147,518.144159,8512.368333
2554.971741,2068.457845,3923.091493,5847.626942
2554.972070,2068.457845,-1332.370696,9622.677246
2554.972399,8273.831378,2146.597232,8142.265362
2554.972728,5822.325785,3108.864956,0.000000
2554.973057,9422.974625,-1628.453072,6809.894666
2554.973386,4213.525239,2072.576638,666.185348
2554.973716,7048.078582,4367.215058,6365.771101
2554.974045,459.657299,1924.535449,7920.203579
2554.974374,-2451.505594,-222.061783,6217.729913
2554.974703,-1149.143247,-7698.141797,18949.272115
2554.975032,-4213.525239,5181.441594,5107.421000
2554.975361,-5592.497135,-5625.565159,14952.160028
2554.975690,-11031.775171,-4293.194464,13841.851115
2554.976020,-4213.525239,-1110.308913,14359.995275
2554.976349,-3447.429741,-3034.844362,15026.180623
2554.976678,-612.876398,370.102971,7328.038826
2554.977007,1685.410096,3034.844362,6291.750507
2554.977336,383.047749,-962.267725,7920.203579
2554.977665,7124.688131,2368.659014,10362.883188
2554.977995,4903.011187,1776.494261,-1480.411884
2554.978324,10189.070123,-1184.329507,8216.285956
2554.978653,3983.696590,2368.659014,518.144159
2554.978982,6128.763984,3627.009116,5329.482782
2554.979311,-1991.848295,-0.000000,9474.636058
2554.979640,-2911.162892,-2368.659014,9030.512492
2554.979969,-1685.410096,-4145.153275,15988.448347
2554.980299,-4060.306139,3404.947333,5329.482782
2554.980628,-6665.030833,-5921.647536,15618.345376
2554.980957,-10801.946522,-2072.576638,13841.851115
2554.981286,-689.485948,-2146.597232,13471.748144
2554.981615,-3064.381992,-1776.494261,12361.439231
2554.981944,1762.019645,666.185348,7105.977043
2554.982274,229.828649,3330.926739,4885.359217
2554.982603,4519.963438,-3627.009116,16062.468941
2554.982932,5056.230287,4589.276840,-1406.391290
2554.983261,9576.193725,1850.514855,7550.100608
2554.983590,6511.811733,-74.020594,2146.597232
2554.983919,7048.078582,5033.400406,3108.864956
2554.984248,1838.629195,1554.432478,9104.533087
2554.984578,-3600.648841,148.041188,7105.977043
2554.984907,-1149.143247,-5551.544565,16654.633695
2554.985236,-3677.258390,888.247130,8808.450710
2554.985565,-6205.373534,-1776.494261,12065.356855
2554.985894,-9806.022374,-4959.379811,15692.365970
2554.986223,-5439.278036,-1258.350101,13101.645173
2554.986552,-2834.553343,-2368.659014,15174.221811
2554.986882,-306.438199,-1406.391290,8956.491898
2554.987211,1991.848295,4145.153275,4071.132681
2554.987540,1455.581446,-1850.514855,9696.697840
2554.987869,6971.469032,1110.308913,8068.244768
2554.988198,6358.592633,3478.967927,296.082377
2554.988527,8273.831378,740.205942,6291.750507
2554.988857,3907.087040,1258.350101,1332.370696
2554.989186,6281.983084,3404.947333,8216.285956
2554.989515,-1532.190996,1332.370696,7920.203579
2554.989844,-2604.724693,-3256.906145,9178.553681
2554.990173,-1838.629195,-4219.173869,16358.551318
2554.990502,-5286.058936,2664.741391,6143.709319
2554.990831,-6052.154434,-6513.812290,17987.004391
2554.991161,-9806.022374,-2368.659014,12805.562797
2554.991490,-1225.752797,-3256.906145,13841.851115
2554.991819,-2451.505594,-2220.617826,12139.377449
2554.992148,1762.019645,1924.535449,7698.141797
2554.992477,0.000000,2442.679609,5403.503377
2554.992806,8197.221829,-1480.411884,14434.015869
2554.993136,5975.544884,5995.668130,-3997.112087
2554.993465,9959.241474,1036.288319,8290.306550
2554.993794,6128.763984,740.205942,1110.308913
2554.994123,7507.735880,3478.967927,4515.256246
2554.994452,2145.067394,4219.173869,6365.771101
2554.994781,-306.438199,3182.885551,4293.194464
2554.995110,-2681.334243,-7772.162391,17394.839637
2554.995440,-2374.896044,148.041188,9326.594869
2554.995769,-6818.249932,814.226536,10140.821405
2554.996098,-9422.974625,-9844.739029,19985.560434
2554.996427,-7814.174080,222.061783,10288.862594
2554.996756,-1838.629195,-3627.009116,16950.716072
2554.997085,-3217.601092,-1332.370696,9178.553681
2554.997415,1532.190996,3330.926739,6365.771101
2554.997744,1915.238745,-1406.391290,7031.956449
2554.998073,9039.926876,4071.132681,8290.306550
2554.998402,5056.230287,3849.070898,-1776.494261
2554.998731,9499.584175,-222.061783,7624.121203
2554.999060,4596.572988,1702.473667,1924.535449
2554.999389,6665.030833,5551.544565,5477.523971
2554.999719,1608.800546,1332.370696,7105.977043
2555.000048,-2911.162892,1998.556043,6291.750507
2555.000377,-766.095498,-9696.697840,20355.663405
2555.000706,-5286.058936,6143.709319,4959.379811
2555.001035,-6358.592633,-8290.306550,17616.901420
2555.001364,-11414.822920,-5403.503377,13323.706956
2555.001694,-3907.087040,-962.267725,14952.160028
2555.002023,-2681.334243,-3627.009116,15174.221811
2555.002352,0.000000,296.082377,6957.935855
2555.002681,1685.410096,4145.153275,5107.421000
2555.003010,4749.792088,-2368.659014,14730.098246
2555.003339,6894.859482,4441.235652,1554.432478
2555.003668,10495.508323,1850.514855,7105.977043
2555.003998,8197.221829,370.102971,-592.164754
2555.004327,6128.763984,5033.400406,4145.153275
2555.004656,3294.210641,1406.391290,8734.430116
2555.004985,-3140.991542,1554.432478,7402.059420
2555.005314,-3140.991542,-7179.997637,15470.304188
2555.005643,-3600.648841,-296.082377,10955.047942
2555.005973,-8273.831378,-0.000000,9548.656652
2555.006302,-9576.193725,-8956.491898,18653.189738
2555.006631,-9422.974625,518.144159,12509.480420
2555.006960,-1685.410096,-3256.906145,15692.365970
2555.007289,-1302.362347,-1258.350101,9326.594869
2555.007618,2528.115143,4071.132681,4219.173869
2555.007947,2834.553343,-1184.329507,12583.501014
2555.008277,7431.126331,1258.350101,5551.544565
2555.008606,8886.707777,3552.988522,4663.297435
2555.008935,8350.440928,1850.514855,962.267725
2555.009264,6052.154434,2590.720797,2960.823768
2555.009593,4443.353888,3182.885551,9400.615463
2555.009922,1685.410096,2368.659014,6735.874072
2555.010252,-2681.334243,-2220.617826,9400.615463
2555.010581,-2221.676944,-9992.780217,20429.683999
2555.010910,-6665.030833,5181.441594,4293.194464
2555.011239,-5975.544884,-10732.986159,22946.384202
2555.011568,-12257.527968,-1850.514855,10140.821405
2555.011897,-3370.820191,-2590.720797,15766.386565
2555.012226,-2834.553343,-2738.761985,14730.098246
2555.012556,689.485948,3478.967927,5107.421000
2555.012885,2068.457845,2738.761985,4663.297435
2555.013214,8810.098227,-370.102971,14211.954086
2555.013543,5056.230287,7254.018232,-2664.741391
2555.013872,11184.994271,-0.000000,9326.594869
2555.014201,6741.640382,2738.761985,0.000000
2555.014531,7737.564530,3997.112087,4811.338623
2555.014860,1532.190996,2368.659014,5551.544565
2555.015189,-1149.143247,3923.091493,5921.647536
2555.015518,-3677.258390,-10510.924376,17542.880825
2555.015847,-3294.210641,962.267725,10362.883188
2555.016176,-8810.098227,-1554.432478,9844.739029
2555.016505,-10342.289223,-10955.047942,21095.869347
2555.016835,-8886.707777,444.123565,11621.233289
2555.017164,-1608.800546,-3404.947333,16876.695478
2555.017493,-1762.019645,-0.000000,9400.615463
2555.017822,2298.286494,4441.235652,4145.153275
2555.018151,3217.601092,-3034.844362,11843.295072
2555.018480,8350.440928,2294.638420,6291.750507
2555.018810,8656.879127,1998.556043,3552.988522
2555.019139,8886.707777,1776.494261,1184.329507
2555.019468,5822.325785,1628.453072,2812.782580
2555.019797,5898.935335,2146.597232,11029.068536
2555.020126,2068.457845,7179.997637,3108.864956
2555.020455,383.047749,-148.041188,4811.338623
2555.020784,-2834.553343,-10140.821405,19689.478057
2555.021114,-4519.963438,4737.318029,6513.812290
2555.021443,-6894.859482,-4885.359217,16802.674883
2555.021772,-9806.022374,-8364.327145,16580.613101
2555.022101,-6435.202183,-296.082377,11621.233289
2555.022430,-612.876398,-3182.885551,15988.448347
2555.022759,-995.924147,3923.091493,5995.668130
2555.023089,1762.019645,2886.803174,4441.235652
2555.023418,7584.345430,-2072.576638,15470.304188
2555.023747,5975.544884,6587.832884,-370.102971
2555.024076,11031.775171,148.041188,9326.594869
2555.024405,7507.735880,1554.432478,-2294.638420
2555.024734,8044.002729,2294.638420,4959.379811
2555.025063,2604.724693,3775.050304,6217.729913
2555.025393,1149.143247,2886.803174,7328.038826
2555.025722,-3677.258390,-5921.647536,13619.789333
2555.026051,-2757.943793,-4737.318029,15174.221811
2555.026380,-8120.612279,4589.276840,7179.997637
2555.026709,-7431.126331,-13175.665768,23686.590144
2555.027038,-11491.432470,-0.000000,8660.409521
2555.027368,-2834.553343,-2072.576638,15692.365970
2555.027697,-3447.429741,-888.247130,11177.109724
2555.028026,1072.533697,3775.050304,6291.750507
2555.028355,1685.410096,1036.288319,5847.626942
2555.028684,8427.050478,2516.700203,10584.944971
2555.029013,4519.963438,4737.318029,-2516.700203
2555.029342,10035.851024,-1110.308913,8660.409521
2555.029672,6128.763984,3256.906145,740.205942
2555.030001,7737.564530,4367.215058,4441.235652
2555.030330,1915.238745,1628.453072,7031.956449
2555.030659,-2911.162892,518.144159,7105.977043
2555.030988,-2987.772442,-9844.739029,18135.045579
2555.031317,-4443.353888,3404.947333,8438.347739
2555.031646,-7890.783629,-5329.482782,13471.748144
2555.031975,-11874.480219,-6291.750507,15470.304188
2555.032304,-5975.544884,-1110.308913,14359.995275
2555.032633,-2757.943793,-1776.494261,14952.160028
2555.032962,-383.047749,-74.020594,7402.059420
2555.033290,2145.067394,4441.235652,3404.947333
2555.033619,3524.039291,-2368.659014,14285.974681
2555.033948,6128.763984,2960.823768,4071.132681
2555.034277,8810.098227,1110.308913,6439.791695
2555.034606,8350.440928,1628.453072,592.164754
2555.034935,5439.278036,2220.617826,2516.700203
2555.035264,4443.353888,3478.967927,9696.697840
2555.035593,0.000000,2072.576638,7328.038826
2555.035922,-1838.629195,-4145.153275,9992.780217
2555.036251,-2374.896044,-6365.771101,17764.942608
2555.036580,-4979.620737,3997.112087,5625.565159
2555.036909,-5822.325785,-8216.285956,18653.189738
2555.037238,-10955.165621,-1998.556043,12731.542202
2555.037567,-3524.039291,-1554.432478,13619.789333
2555.037896,-2298.286494,-2590.720797,14582.057057
2555.038225,-153.219100,2886.803174,7624.121203
2555.038554,2604.724693,1332.370696,4885.359217
2555.038883,1838.629195,-1036.288319,11621.233289
2555.039212,5515.887586,2294.638420,7105.977043
2555.039541,8810.098227,-518.144159,3182.885551
2555.039870,7814.174080,2220.617826,3701.029710
2555.040199,4060.306139,-0.000000,2960.823768
2555.040528,4903.011187,4959.379811,8364.327145
2555.040857,-1225.752797,1776.494261,7254.018232
2555.041186,-1302.362347,-3330.926739,7994.224174
2555.041515,-1991.848295,-3108.864956,17468.860231
2555.041844,-4519.963438,2368.659014,7550.100608
2555.042173,-5439.278036,-6291.750507,16802.674883
2555.042502,-8120.612279,-2368.659014,14285.974681
2555.042831,-1685.410096,-1554.432478,12287.418637
2555.043160,-1302.362347,-1332.370696,14285.974681
2555.043489,536.266849,2220.617826,6587.832884
2555.043818,1149.143247,1998.556043,4885.359217
2555.044147,5515.887586,-1924.535449,15174.221811
2555.044476,4903.011187,5033.400406,-1702.473667
2555.044805,9422.974625,-0.000000,7402.059420
2555.045134,6435.202183,740.205942,2960.823768
2555.045463,7584.345430,3478.967927,3775.050304
2555.045792,2068.457845,2368.659014,8290.306550
2555.046121,-1915.238745,962.267725,7624.121203
2555.046450,-2145.067394,-5181.441594,14656.077652
2555.046779,-2451.505594,-740.205942,12509.480420
2555.047107,-5745.716235,-148.041188,8586.388927
2555.047436,-7737.564530,-6291.750507,18801.230927
2555.047765,-5745.716235,-2146.597232,12139.377449
2555.048094,-1225.752797,-1332.370696,13249.686362
2555.048423,0.000000,-814.226536,10658.965565
2555.048752,842.705048,4071.132681,3330.926739
2555.049081,2911.162892,-3701.029710,13989.892304
2555.049410,5362.668486,1924.535449,4515.256246
2555.049739,8197.221829,2886.803174,3552.988522
2555.050068,7354.516781,-148.041188,3849.070898
2555.050397,5439.278036,1406.391290,2368.659014
2555.050726,4826.401637,2368.659014,8660.409521
2555.051055,-459.657299,1036.288319,6217.729913
2555.051384,-1991.848295,-1998.556043,9548.656652
2555.051713,-2451.505594,-5699.585753,16728.654289
2555.052042,-5056.230287,4145.153275,5995.668130
2555.052371,-6281.983084,-6217.729913,19171.333898
2555.052700,-10342.289223,-2146.597232,12213.398043
2555.053029,-2451.505594,-2664.741391,13175.665768
2555.053358,-2145.067394,-2220.617826,14211.954086
2555.053687,689.485948,2368.659014,5995.668130
2555.054016,995.924147,1258.350101,4737.318029
2555.054345,5975.544884,-1258.350101,14211.954086
2555.054674,4673.182538,5477.523971,-2072.576638
2555.055003,10189.070123,444.123565,7179.997637
2555.055332,6358.592633,1184.329507,1110.308913
2555.055661,6588.421283,4219.173869,3552.988522
2555.055990,2298.286494,2294.638420,7476.080014
2555.056319,-2451.505594,2072.576638,5773.606348
2555.056648,-2374.896044,-7920.203579,16284.530724
2555.056977,-2834.553343,962.267725,9918.759623
2555.057306,-6435.202183,-666.185348,9918.759623
2555.057635,-9116.536426,-7846.182985,19097.313304
2555.057964,-7890.783629,-444.123565,12213.398043
2555.058293,-2451.505594,-3404.947333,16062.468941
2555.058622,-1838.629195,-814.226536,9696.697840
2555.058951,1762.019645,3108.864956,5551.544565
2555.059280,766.095498,-1554.432478,7920.203579
2555.059609,8580.269578,2368.659014,10807.006753
2555.059938,5439.278036,4441.235652,-1924.535449
2555.060267,9269.755526,-0.000000,7624.121203
2555.060596,3753.867940,1850.514855,1702.473667
2555.060924,6665.030833,4293.194464,5255.462188
2555.061253,689.485948,1924.535449,7698.141797
2555.061582,-3677.258390,-370.102971,6661.853478
2555.061911,-1149.143247,-7550.100608,19985.560434
2555.062240,-3753.867940,5181.441594,6587.832884
2555.062569,-6511.811733,-5699.585753,15544.324782
2555.062898,-11491.432470,-4293.194464,14730.098246
2555.063227,-3600.648841,-2220.617826,14434.015869
2555.063556,-2604.724693,-2294.638420,14285.974681
2555.063885,76.609550,666.185348,7254.018232
2555.064214,1532.190996,3997.112087,5033.400406
2555.064543,3983.696590,-2590.720797,14137.933492
2555.064872,6128.763984,3108.864956,3923.091493
2555.065201,8656.879127,2072.576638,4293.194464
2555.065530,8427.050478,814.226536,148.041188
2555.065859,6205.373534,3627.009116,2590.720797
2555.066188,4213.525239,3330.926739,8734.430116
2555.066517,-1455.581446,1924.535449,7846.182985
2555.066846,-2145.067394,-4885.359217,12805.562797
2555.067175,-3370.820191,-4663.297435,16432.571912
2555.067504,-7507.735880,3404.947333,5921.647536
2555.067833,-6128.763984,-9474.636058,21539.992912
2555.068162,-9729.412825,-222.061783,10732.986159
2555.068491,-1225.752797,-2664.741391,14063.912898
2555.068820,-1532.190996,-1406.391290,11769.274478
2555.069149,2221.676944,4367.215058,4959.379811
2555.069478,3370.820191,-1184.329507,9326.594869
2555.069807,7507.735880,444.123565,6513.812290
2555.070136,7354.516781,4367.215058,1776.494261
2555.070465,8120.612279,518.144159,3997.112087
2555.070794,5822.325785,888.247130,2664.741391
2555.071123,5209.449386,1776.494261,9400.615463
2555.071452,1838.629195,3552.988522,5921.647536
2555.071781,-1378.971896,-666.185348,7846.182985
2555.072110,-3753.867940,-10510.924376,19171.333898
2555.072439,-5209.449386,4441.235652,7402.059420
2555.072768,-5822.325785,-6883.915261,17987.004391
2555.073097,-10801.946522,-3330.926739,12953.603985
2555.073426,-3677.258390,-2516.700203,13841.851115
2555.073755,-689.485948,-1702.473667,14137.933492
2555.074084,612.876398,3108.864956,6735.874072
2555.074413,1532.190996,2368.659014,2812.782580
2555.074741,8733.488677,-1258.350101,14804.118840
2555.075070,4903.011187,6883.915261,-4145.153275
2555.075399,11261.603821,-296.082377,8364.327145
2555.075728,5669.106685,2960.823768,0.000000
2555.076057,7584.345430,1110.308913,5625.565159
2555.076386,2145.067394,3997.112087,5921.647536
2555.076715,459.657299,4441.235652,5773.606348
2555.077044,-4519.963438,-8956.491898,14730.098246
2555.077373,-3294.210641,-1702.473667,13545.768739
2555.077702,-7814.174080,1184.329507,8660.409521
2555.078031,-8580.269578,-10288.862594,21465.972318
2555.078360,-9576.193725,-740.205942,10214.842000
2555.078689,-1838.629195,-2812.782580,15026.180623
2555.079018,-2145.067394,370.102971,9770.718434
2555.079347,1532.190996,3478.967927,5329.482782
2555.079676,1838.629195,-3108.864956,8290.306550
2555.080005,8963.317327,2812.782580,7402.059420
2555.080334,6358.592633,1924.535449,0.000000
2555.080663,8273.831378,148.041188,5403.503377
2555.080992,4903.011187,592.164754,1258.350101
2555.081321,6281.983084,1850.514855,8882.471304
2555.081650,1685.410096,5107.421000,5847.626942
2555.081979,-1378.971896,222.061783,5329.482782
2555.082308,-2911.162892,-10362.883188,19911.539840
2555.082637,-4826.401637,5995.668130,7328.038826
2555.082966,-7124.688131,-6069.688724,16284.530724
2555.083295,-11568.042020,-5921.647536,15470.304188
2555.083624,-5362.668486,-1184.329507,13915.871710
2555.083953,-919.314598,-1702.473667,15100.201217
2555.084282,-459.657299,1924.535449,7476.080014
2555.084611,2068.457845,3108.864956,3256.906145
2555.084940,6435.202183,-2812.782580,16062.468941
2555.085269,4749.792088,5699.585753,-222.061783
2555.085598,10342.289223,-0.000000,7254.018232
2555.085927,7048.078582,3034.844362,-1554.432478
2555.086256,7431.126331,2294.638420,5551.544565
2555.086585,2221.676944,4515.256246,5773.606348
2555.086914,-153.219100,3552.988522,7920.203579
2555.087243,-3677.258390,-6809.894666,13545.768739
2555.087572,-3217.601092,-3182.885551,14730.098246
2555.087901,-8350.440928,3997.112087,6809.894666
2555.088230,-7967.393179,-12361.439231,23834.631332
2555.088558,-12793.794817,-0.000000,9400.615463
2555.088887,-2451.505594,-3404.947333,15840.407159
2555.089216,-2987.772442,-1258.350101,10510.924376
2555.089545,2681.334243,3478.967927,6069.688724
2555.089874,1455.581446,-1110.308913,5477.523971
2555.090203,9652.803275,1628.453072,11103.089130
2555.090532,4903.011187,4885.359217,-3701.029710
2555.090861,10189.070123,-1184.329507,8734.430116
2555.091190,4749.792088,3701.029710,592.164754
2555.091519,7660.954980,666.185348,7179.997637
2555.091848,1762.019645,5847.626942,4737.318029
2555.092177,-229.828649,2072.576638,4589.276840
2555.092506,-3753.867940,-11177.109724,19319.375086
2555.092835,-3370.820191,2738.761985,10140.821405
2555.093164,-6588.421283,-2738.761985,12065.356855
2555.093493,-9499.584175,-10066.800811,19689.478057
2555.093822,-7354.516781,-0.000000,10140.821405
2555.094151,-383.047749,-3330.926739,15544.324782
2555.094480,-995.924147,1702.473667,8216.285956
2555.094809,2068.457845,4737.318029,4071.132681
2555.095138,4136.915689,-4441.235652,12731.542202
2555.095467,6435.202183,3256.906145,3478.967927
2555.095796,8580.269578,370.102971,5847.626942
2555.096125,7814.174080,-148.041188,962.267725
2555.096454,4136.915689,1554.432478,3256.906145
2555.096783,4979.620737,1776.494261,11177.109724
2555.097112,919.314598,5551.544565,3701.029710
2555.097441,-229.828649,-0.000000,6661.853478
2555.097770,-2451.505594,-8068.244768,17912.983796
2555.098099,-3983.696590,5107.421000,7328.038826
2555.098428,-4979.620737,-6587.832884,15914.427753
2555.098757,-9346.365076,-4811.338623,13841.851115
2555.099086,-5592.497135,-814.226536,13027.624579
2555.099415,-612.876398,-3552.988522,14211.954086
2555.099744,-383.047749,3552.988522,7624.121203
2555.100073,1149.143247,962.267725,3997.112087
2555.100402,3753.867940,-3627.009116,13619.789333
2555.100731,5209.449386,3256.906145,3997.112087
2555.101060,9346.365076,-518.144159,7105.977043
2555.101389,6971.469032,-444.123565,2294.638420
2555.101718,4060.306139,1998.556043,3627.009116
2555.102046,4979.620737,3108.864956,9178.553681
2555.102375,612.876398,3478.967927,6143.709319
2555.102704,-1378.971896,-444.123565,8216.285956
2555.103033,-1915.238745,-6069.688724,18801.230927
2555.103362,-3983.696590,3627.009116,7328.038826
2555.103691,-5362.668486,-6587.832884,16580.613101
2555.104020,-8350.440928,-3256.906145,12805.562797
2555.104349,-3600.648841,-1406.391290,13471.748144
2555.104678,-1225.752797,-1480.411884,13767.830521
2555.105007,-459.657299,3849.070898,6439.791695
2555.105336,1149.143247,518.144159,5255.462188
2555.105665,4903.011187,-2886.803174,15692.365970
2555.105994,4826.401637,4367.215058,1998.556043
2555.106323,9806.022374,-444.123565,7550.100608
2555.106652,5439.278036,740.205942,-296.082377
2555.106981,5822.325785,2442.679609,4663.297435
2555.107310,1762.019645,2886.803174,9770.718434
2555.107639,-3830.477490,814.226536,9252.574275
2555.107968,-2834.553343,-4441.235652,14359.995275
2555.108297,-4213.525239,-888.247130,11399.171507
2555.108626,-6894.859482,296.082377,10436.903782
2555.108955,-9269.755526,-5921.647536,17838.963202
2555.109284,-7507.735880,-1258.350101,13027.624579
2555.109613,-2528.115143,-2516.700203,14656.077652
2555.109942,-153.219100,-296.082377,10066.800811
2555.110271,2374.896044,4071.132681,2960.823768
2555.110600,1915.238745,-3552.988522,12583.501014
2555.110929,6281.983084,222.061783,6883.915261
2555.111258,8427.050478,2812.782580,4145.153275
2555.111587,8044.002729,444.123565,2664.741391
2555.111916,5209.449386,2368.659014,2072.576638
2555.112245,5209.449386,3775.050304,9992.780217
2555.112574,383.047749,3552.988522,5403.503377
2555.112903,-995.924147,-666.185348,6661.853478
2555.113232,-2298.286494,-8216.285956,19097.313304
2555.113561,-4366.744339,4145.153275,6217.729913
2555.113890,-5592.497135,-7031.956449,18061.024985
2555.114219,-10342.289223,-4293.194464,13693.809927
2555.114548,-4749.792088,-1924.535449,13323.706956
2555.114877,-1302.362347,-3330.926739,16210.510130
2555.115206,-153.219100,3034.844362,6513.812290
2555.115535,1302.362347,2146.597232,3701.029710
2555.115863,5592.497135,-2738.761985,16284.530724
2555.116192,4903.011187,5477.523971,814.226536
2555.116521,10878.556072,-74.020594,8438.347739
2555.116850,6052.154434,740.205942,0.000000
2555.117179,6205.373534,3256.906145,5107.421000
2555.117508,3600.648841,3775.050304,9252.574275
2555.117837,-1685.410096,3108.864956,6365.771101
2555.118166,-2221.676944,-4737.318029,13619.789333
2555.118495,-2298.286494,-1924.535449,13397.727550
2555.118824,-6894.859482,2368.659014,6883.915261
2555.119153,-7507.735880,-10584.944971,20059.581028
2555.119482,-9346.365076,-1406.391290,10658.965565
2555.119811,-1532.190996,-3330.926739,14434.015869
2555.120140,-1915.238745,-1480.411884,11399.171507
2555.120469,2145.067394,3775.050304,4515.256246
2555.120798,689.485948,-2516.700203,8290.306550
2555.121127,7967.393179,-0.000000,9474.636058
2555.121456,6741.640382,5181.441594,-1406.391290
2555.121785,9039.926876,-962.267725,8438.347739
2555.122114,3600.648841,2516.700203,1258.350101
2555.122443,6741.640382,2738.761985,7920.203579
2555.122772,1225.752797,4663.297435,5699.585753
2555.123101,229.828649,3108.864956,3775.050304
2555.123430,-2374.896044,-8882.471304,18801.230927
2555.123759,-2681.334243,2294.638420,9104.533087
2555.124088,-5209.449386,-1776.494261,11621.233289
2555.124417,-8503.660028,-8438.347739,18949.272115
2555.124746,-6281.983084,-1480.411884,9622.677246
2555.125075,-1378.971896,-3701.029710,15692.365970
2555.125404,-842.705048,296.082377,8956.491898
2555.125733,153.219100,3627.009116,3552.988522
2555.126062,3294.210641,-4811.338623,13175.665768
2555.126391,6894.859482,4145.153275,3849.070898
2555.126720,7890.783629,2146.597232,4885.359217
2555.127049,7737.564530,-740.205942,3478.967927
2555.127378,4519.963438,1332.370696,2368.659014
2555.127707,4903.011187,3923.091493,10288.862594
2555.128036,-766.095498,2664.741391,6513.812290
2555.128365,-3447.429741,-1554.432478,9474.636058
2555.128694,-3753.867940,-6513.812290,18135.045579
2555.129023,-6281.983084,5181.441594,6735.874072
2555.129352,-6818.249932,-7772.162391,18579.169144
2555.129680,-10265.679673,-2368.659014,12509.480420
2555.130009,-2681.334243,-1998.556043,11991.336260
2555.130338,-1608.800546,-1036.288319,12879.583391
2555.130667,919.314598,2294.638420,4811.338623
2555.130996,842.705048,666.185348,5107.421000
2555.131325,7737.564530,-1184.329507,13027.624579
2555.131654,5822.325785,6587.832884,-4811.338623
2555.131983,9193.145976,-444.123565,9474.636058
2555.132312,4749.792088,2072.576638,1184.329507
2555.132641,7354.516781,3701.029710,5773.606348
2555.132970,1302.362347,3404.947333,7920.203579
2555.133299,-1838.629195,3034.844362,4145.153275
2555.133628,-3524.039291,-9104.533087,18135.045579
2555.133958,-4290.134789,1332.370696,8956.491898
2555.134287,-6741.640382,-2072.576638,11769.274478
2555.134616,-10418.898773,-7328.038826,17912.983796
2555.134945,-6435.202183,-1776.494261,11769.274478
2555.135274,-1762.019645,-2516.700203,14434.015869
2555.135603,0.000000,370.102971,8808.450710
2555.135932,612.876398,4145.153275,2442.679609
2555.136261,6741.640382,-4663.297435,16802.674883
2555.136590,6281.983084,5033.400406,370.102971
2555.136919,10112.460574,2294.638420,7031.956449
2555.137248,7048.078582,666.185348,962.267725
2555.137577,6818.249932,3701.029710,4219.173869
2555.137906,3064.381992,3478.967927,9178.553681
2555.138235,0.000000,3997.112087,6883.915261
2555.138564,-3600.648841,-3849.070898,13915.871710
2555.138893,-4136.915689,-5995.668130,16358.551318
2555.139222,-8197.221829,4441.235652,6735.874072
2555.139551,-8503.660028,-11103.089130,23242.466579
2555.139880,-12104.308868,-1998.556043,9326.594869
2555.140209,-2834.553343,-3552.988522,14878.139434
2555.140538,-2604.724693,-1554.432478,10881.027347
2555.140867,1149.143247,3923.091493,5181.441594
2555.141196,1762.019645,-2146.597232,7254.018232
2555.141525,9959.241474,1702.473667,9400.615463
2555.141854,6128.763984,5921.647536,-3478.967927
2555.142183,10112.460574,-0.000000,9030.512492
2555.142512,5056.230287,2738.761985,0.000000
2555.142841,7354.516781,2072.576638,7772.162391
2555.143170,1072.533697,5699.585753,5255.462188
2555.143499,1608.800546,3182.885551,4959.379811
2555.143828,-3983.696590,-9030.512492,19467.416275
2555.144157,-4136.915689,-518.144159,10955.047942
2555.144487,-8350.440928,370.102971,9770.718434
2555.144816,-9193.145976,-12361.439231,22946.384202
2555.145145,-9193.145976,-1480.411884,6809.894666
2555.145474,-842.705048,-3404.947333,16654.633695
2555.145803,-1302.362347,-370.102971,7550.100608
2555.146132,536.266849,4811.338623,2294.638420
2555.146461,6741.640382,-5255.462188,17024.736666
2555.146790,6894.859482,6735.874072,-148.041188
2555.147119,10878.556072,2146.597232,8142.265362
2555.147448,9116.536426,2960.823768,-1702.473667
2555.147777,8580.269578,2516.700203,4737.318029
2555.148106,3677.258390,3182.885551,9252.574275
2555.148435,1838.629195,5995.668130,5107.421000
2555.148764,-689.485948,-2072.576638,8956.491898
2555.149093,-4443.353888,-7846.182985,18283.086767
2555.149422,-5209.449386,4219.173869,6291.750507
2555.149751,-8044.002729,-7994.224174,18727.210333
2555.150080,-10648.727422,-7254.018232,13471.748144
2555.150409,-5898.935335,-222.061783,13545.768739
2555.150738,-1302.362347,-3552.988522,15322.262999
2555.151067,-766.095498,3923.091493,5403.503377
2555.151396,1455.581446,-1184.329507,4145.153275
2555.151725,8120.612279,-0.000000,15026.180623
2555.152054,5286.058936,6957.935855,-3923.091493
2555.152383,11261.603821,-1332.370696,10510.924376
2555.152712,5439.278036,4367.215058,-2368.659014
2555.153041,9729.412825,3404.947333,7031.956449
2555.153370,2298.286494,3849.070898,6661.853478
2555.153699,2451.505594,5477.523971,5477.523971
2555.154028,-3447.429741,-4515.256246,13249.686362
2555.154357,-2911.162892,-5403.503377,17987.004391
2555.154686,-8427.050478,3108.864956,5551.544565
2555.155016,-7507.735880,-12213.398043,22280.198854
2555.155345,-9806.022374,-3108.864956,8290.306550
2555.155674,-3524.039291,-2294.638420,16284.530724
2555.156003,-995.924147,-2368.659014,12139.377449
2555.156332,-459.657299,5329.482782,2812.782580
2555.156661,2374.896044,-3256.906145,9696.697840
2555.156990,7660.954980,3034.844362,6883.915261
2555.157319,6741.640382,3849.070898,1258.350101
2555.157648,9269.755526,-2072.576638,10066.800811
2555.157977,4826.401637,2072.576638,-1036.288319
2555.158306,6818.249932,2220.617826,9548.656652
2555.158635,0.000000,4589.276840,5033.400406
2555.158964,1149.143247,3775.050304,5847.626942
2555.159293,-4596.572988,-7994.224174,16580.613101
2555.159622,-2528.115143,1850.514855,11251.130318
2555.159951,-7814.174080,-518.144159,9326.594869
2555.160280,-7814.174080,-10140.821405,20355.663405
2555.160609,-8503.660028,-74.020594,8142.265362
2555.160938,-1225.752797,-3034.844362,15322.262999
2555.161267,-2528.115143,-0.000000,8882.471304
2555.161596,383.047749,2146.597232,3701.029710
2555.161925,1685.410096,-2590.720797,9474.636058
2555.162254,6435.202183,3775.050304,7105.977043
2555.162583,4903.011187,1628.453072,1628.453072
2555.162912,7584.345430,-74.020594,7772.162391
2555.163241,3370.820191,1184.329507,2072.576638
2555.163570,5132.839837,4071.132681,7105.977043
2555.163899,0.000000,1850.514855,7772.162391
2555.164228,-2528.115143,518.144159,6587.832884
2555.164557,-2451.505594,-7550.100608,18949.272115
2555.164886,-3524.039291,4589.276840,6883.915261
2555.165215,-5592.497135,-6365.771101,14434.015869
2555.165545,-9269.755526,-4737.318029,14582.057057
2555.165874,-2451.505594,-1184.329507,11843.295072
2555.166203,-612.876398,-1406.391290,13175.665768
2555.166532,0.000000,1998.556043,5551.544565
2555.166861,306.438199,1628.453072,5699.585753
2555.167190,5286.058936,-3775.050304,15544.324782
2555.167519,5286.058936,6069.688724,-2368.659014
2555.167848,8733.488677,-148.041188,8290.306550
2555.168177,6435.202183,1110.308913,2368.659014
2555.168506,7584.345430,3627.009116,5255.462188
2555.168835,1838.629195,2960.823768,8142.265362
2555.169164,-1225.752797,2664.741391,5477.523971
2555.169493,-2757.943793,-6217.729913,15840.407159
2555.169822,-2757.943793,-1702.473667,13027.624579
2555.170151,-5515.887586,222.061783,8068.244768
2555.170480,-8120.612279,-7994.224174,17690.922014
2555.170809,-7354.516781,-2294.638420,11621.233289
2555.171138,-2068.457845,-1998.556043,14211.954086
2555.171467,-536.266849,-740.205942,10658.965565
2555.171796,-383.047749,2738.761985,4145.153275
2555.172125,2451.505594,-4293.194464,12435.459826
2555.172454,6435.202183,2294.638420,5995.668130
2555.172783,7277.907231,3182.885551,2590.720797
2555.173112,7890.783629,740.205942,4589.276840
2555.173441,5822.325785,2664.741391,2664.741391
2555.173770,5745.716235,2516.700203,10510.924376
2555.174099,995.924147,5847.626942,5255.462188
2555.174428,1378.971896,1036.288319,6587.832884
2555.174757,-3447.429741,-6439.791695,16950.716072
2555.175086,-2451.505594,740.205942,10288.862594
2555.175415,-5209.449386,-888.247130,11473.192101
2555.175744,-6511.811733,-8142.265362,17542.880825
2555.176074,-5286.058936,-1110.308913,9178.553681
2555.176403,919.314598,-2146.597232,14582.057057
2555.176732,-1532.190996,2146.597232,7179.997637
2555.177061,0.000000,888.247130,5921.647536
2555.177390,5439.278036,-2960.823768,13767.830521
2555.177719,5362.668486,6217.729913,1850.514855
2555.178048,8886.707777,1480.411884,7624.121203
2555.178377,6358.592633,1184.329507,74.020594
2555.178706,6358.592633,2294.638420,5181.441594
2555.179035,2374.896044,3701.029710,8068.244768
2555.179364,1225.752797,3627.009116,6587.832884
2555.179693,-2681.334243,-2368.659014,11917.315666
2555.180022,-3447.429741,-6735.874072,16654.633695
2555.180351,-6281.983084,4441.235652,5625.565159
2555.180680,-6894.859482,-9622.677246,19985.560434
2555.181009,-10265.679673,-4663.297435,8882.471304
2555.181338,-4136.915689,-2368.659014,15396.283594
2555.181667,-1915.238745,-3034.844362,13323.706956
2555.181996,-995.924147,2442.679609,4515.256246
2555.182325,1072.533697,-1776.494261,7031.956449
2555.182654,6205.373534,1184.329507,13027.624579
2555.182983,4443.353888,6069.688724,-370.102971
2555.183312,9652.803275,-444.123565,8512.368333
2555.183641,5975.544884,3330.926739,814.226536
2555.183970,6971.469032,4663.297435,6365.771101
2555.184299,1455.581446,3701.029710,7105.977043
2555.184628,-536.266849,3849.070898,5699.585753
2555.184957,-2834.553343,-6439.791695,15692.365970
2555.185286,-1991.848295,-814.226536,13027.624579
2555.185615,-7201.297681,1776.494261,6735.874072
2555.185944,-7201.297681,-11547.212695,21169.889941
2555.186274,-8120.612279,-962.267725,9104.533087
2555.186603,-1072.533697,-2516.700203,14211.954086
2555.186932,-1608.800546,-1554.432478,10436.903782
2555.187261,-536.266849,3330.926739,3627.009116
2555.187590,2834.553343,-3552.988522,10288.862594
2555.187919,6588.421283,2812.782580,5551.544565
2555.188248,5439.278036,3701.029710,2368.659014
2555.188577,7431.126331,-1554.432478,7550.100608
2555.188906,4366.744339,3182.885551,1776.494261
2555.189235,5515.887586,3330.926739,9178.553681
2555.189564,1455.581446,5033.400406,5847.626942
2555.189893,-1915.238745,888.247130,5181.441594
2555.190222,-3064.381992,-9696.697840,19911.539840
2555.190551,-4136.915689,4737.318029,6365.771101
2555.190880,-6435.202183,-6365.771101,14211.954086
2555.191209,-10112.460574,-7105.977043,14434.015869
2555.191538,-4903.011187,-666.185348,13027.624579
2555.191867,-689.485948,-3182.885551,13841.851115
2555.192196,-995.924147,1332.370696,6735.874072
2555.192525,1225.752797,1850.514855,6291.750507
2555.192854,6511.811733,-1036.288319,13397.727550
2555.193183,6128.763984,6661.853478,-1924.535449
2555.193512,8503.660028,-0.000000,9030.512492
2555.193841,5132.839837,2368.659014,1036.288319
2555.194170,6971.469032,3627.009116,5773.606348
2555.194499,2221.676944,3182.885551,6883.915261
2555.194828,76.609550,3997.112087,6957.935855
2555.195157,-3064.381992,-6217.729913,14137.933492
2555.195486,-3064.381992,-3404.947333,13471.748144
2555.195815,-7431.126331,2146.597232,8734.430116
2555.196144,-6818.249932,-12213.398043,21021.848753
2555.196473,-8120.612279,-814.226536,9474.636058
2555.196803,0.000000,-2812.782580,13545.768739
2555.197132,-1225.752797,-0.000000,8882.471304
2555.197461,919.314598,3034.844362,5699.585753
2555.197790,7354.516781,-1850.514855,13027.624579
2555.198119,6128.763984,4737.318029,0.000000
2555.198448,9806.022374,2812.782580,6439.791695
2555.198777,8120.612279,2960.823768,888.247130
2555.199106,7048.078582,2516.700203,5033.400406
2555.199435,2834.553343,2516.700203,7698.141797
2555.199764,2757.943793,7476.080014,4737.318029
2555.200093,76.609550,-1110.308913,7920.203579
2555.200422,-4673.182538,-8290.306550,17616.901420
2555.200751,-5669.106685,-814.226536,9178.553681
2555.201080,-8273.831378,-3775.050304,16876.695478
2555.201409,-8273.831378,-10658.965565,15766.386565
2555.201738,-7737.564530,-444.123565,10881.027347
2555.202067,0.000000,-2516.700203,15618.345376
2555.202396,-2145.067394,3775.050304,6143.709319
2555.202725,1685.410096,-1406.391290,6735.874072
2555.203054,9116.536426,1332.370696,9844.739029
2555.203383,6128.763984,7105.977043,-2590.720797
2555.203712,10342.289223,-444.123565,9770.718434
2555.204041,4749.792088,4589.276840,-1702.473667
2555.204370,7507.735880,-148.041188,9104.533087
2555.204699,995.924147,5329.482782,4811.338623
2555.205028,3983.696590,4367.215058,6883.915261
2555.205357,-4826.401637,-4811.338623,13027.624579
2555.205686,-3217.601092,-6143.709319,15692.365970
2555.206015,-8197.221829,2590.720797,7920.203579
2555.206344,-7660.954980,-13545.768739,22946.384202
2555.206673,-10265.679673,-3108.864956,6957.935855
2555.207002,-2451.505594,-2590.720797,16358.551318
2555.207332,-2451.505594,-222.061783,10214.842000
2555.207661,229.828649,3775.050304,6661.853478
2555.207990,4903.011187,-2368.659014,9622.677246
2555.208319,7584.345430,4071.132681,6291.750507
2555.208648,8503.660028,2516.700203,4737.318029
2555.208977,9882.631924,2590.720797,370.102971
2555.209306,5822.325785,2960.823768,2960.823768
2555.209635,4213.525239,1554.432478,9622.677246
2555.209964,1762.019645,6365.771101,3552.988522
2555.210293,689.485948,222.061783,7402.059420
2555.210622,-5669.106685,-7698.141797,17172.777854
2555.210951,-4443.353888,1184.329507,9474.636058
2555.211280,-7660.954980,-2960.823768,15026.180623
2555.211609,-9499.584175,-11251.130318,17246.798449
2555.211938,-8963.317327,814.226536,10881.027347
2555.212267,-536.266849,-3701.029710,16136.489536
2555.212596,-2298.286494,2664.741391,5625.565159
2555.212925,1532.190996,518.144159,5033.400406
2555.213254,6511.811733,518.144159,13101.645173
2555.213583,5745.716235,6439.791695,-666.185348
2555.213912,10265.679673,-444.123565,10214.842000
2555.214241,6511.811733,3701.029710,-2220.617826
2555.214570,7354.516781,2590.720797,6291.750507
2555.214899,1149.143247,4145.153275,5847.626942
2555.215228,2221.676944,3552.988522,8142.265362
2555.215557,-4443.353888,-4663.297435,13619.789333
2555.215886,-2681.334243,-6365.771101,16432.571912
2555.216215,-8886.707777,4515.256246,5995.668130
2555.216544,-7124.688131,-15322.262999,24574.837274
2555.216873,-11721.261119,-592.164754,7328.038826
2555.217202,-1915.238745,-2368.659014,16284.530724
2555.217531,-2604.724693,-888.247130,10436.903782
2555.217861,229.828649,3775.050304,6957.935855
2555.218190,2374.896044,-1480.411884,7476.080014
2555.218519,8656.879127,1998.556043,8438.347739
2555.218848,5286.058936,3552.988522,1924.535449
2555.219177,9499.584175,-74.020594,4811.338623
2555.219506,4519.963438,2664.741391,1406.391290
2555.219835,6358.592633,296.082377,11103.089130
2555.220164,766.095498,7476.080014,2442.679609
2555.220493,3907.087040,3034.844362,3108.864956
2555.220822,-3753.867940,-4885.359217,13767.830521
2555.221151,-2451.505594,-2368.659014,15840.407159
2555.221480,-6281.983084,-148.041188,7920.203579
2555.221809,-7201.297681,-10881.027347,21243.910535
2555.222138,-8197.221829,-3478.967927,8290.306550
2555.222467,-2757.943793,-2072.576638,16580.613101
2555.222796,-1225.752797,-222.061783,12361.439231
2555.223125,-766.095498,4515.256246,3849.070898
2555.223454,3217.601092,-3330.926739,9178.553681
2555.223783,7890.783629,4293.194464,7254.018232
2555.224112,6741.640382,1258.350101,2442.679609
2555.224441,8197.221829,-1184.329507,6587.832884
2555.224770,3370.820191,1702.473667,222.061783
2555.225099,5745.716235,1332.370696,9844.739029
2555.225428,612.876398,4441.235652,4959.379811
2555.225757,842.705048,2590.720797,6217.729913
2555.226086,-3677.258390,-6735.874072,15618.345376
2555.226415,-2145.067394,1332.370696,10881.027347
2555.226744,-5515.887586,-3404.947333,11695.253884
2555.227073,-6511.811733,-9252.574275,18061.024985
2555.227402,-4979.620737,370.102971,10362.883188
2555.227731,76.609550,-2368.659014,13693.809927
2555.228060,-1532.190996,2664.741391,7550.100608
2555.228390,919.314598,1998.556043,5699.585753
2555.228719,7201.297681,-2442.679609,12213.398043
2555.229048,5745.716235,5551.544565,-1924.535449
2555.229377,8580.269578,-814.226536,8438.347739
2555.229706,5286.058936,2146.597232,1702.473667
2555.230035,7048.078582,1998.556043,5847.626942
2555.230364,1762.019645,3701.029710,5625.565159
2555.230693,2221.676944,4737.318029,5107.421000
2555.231022,-3830.477490,-3404.947333,11843.295072
2555.231351,-3753.867940,-5847.626942,15692.365970
2555.231680,-7124.688131,1998.556043,8290.306550
2555.232009,-7354.516781,-10140.821405,20799.786970
2555.232338,-9346.365076,-4367.215058,9622.677246
2555.232667,-3753.867940,-1480.411884,14878.139434
2555.232996,-2145.067394,-666.185348,12805.562797
2555.233325,-919.314598,3552.988522,5477.523971
2555.233655,3140.991542,-2220.617826,9326.594869
2555.233984,7584.345430,2368.659014,6957.935855
2555.234313,6741.640382,3404.947333,1258.350101
2555.234642,8886.707777,-148.041188,4959.379811
2555.234971,4060.306139,2960.823768,1850.514855
2555.235300,5132.839837,1702.473667,9992.780217
2555.235629,383.047749,4589.276840,5255.462188
2555.235958,-1225.752797,222.061783,7624.121203
2555.236287,-4136.915689,-8734.430116,17172.777854
2555.236617,-4903.011187,3182.885551,8290.306550
2555.236946,-6971.469032,-6809.894666,16580.613101
2555.237275,-10648.727422,-7698.141797,15174.221811
2555.237604,-6205.373534,-1406.391290,14582.057057
2555.237933,-1149.143247,-2960.823768,14211.954086
2555.238262,-612.876398,3034.844362,6513.812290
2555.238591,1608.800546,1776.494261,5033.400406
2555.238920,8580.269578,-592.164754,13915.871710
2555.239249,4826.401637,8068.244768,-5477.523971
2555.239579,10648.727422,-222.061783,9992.780217
2555.239908,5439.278036,4293.194464,0.000000
2555.240237,7660.954980,444.123565,6513.812290
2555.240566,536.266849,5181.441594,4441.235652
2555.240895,2834.553343,5699.585753,4885.359217
2555.241224,-3753.867940,-4811.338623,11843.295072
2555.241553,-2911.162892,-5403.503377,15840.407159
2555.241882,-7431.126331,3108.864956,6291.750507
2555.242211,-8503.660028,-12953.603985,23242.466579
2555.242541,-10725.336972,-3849.070898,9178.553681
2555.242870,-4136.915689,-2072.576638,16802.674883
2555.243199,-1378.971896,-1702.473667,12583.501014
2555.243528,-612.876398,5921.647536,3997.112087
2555.243857,2298.286494,-2738.761985,7105.977043
2555.244186,9039.926876,3404.947333,10214.842000
2555.244515,5209.449386,4293.194464,-2960.823768
2555.244844,10342.289223,-1850.514855,8808.450710
2555.245173,3064.381992,3552.988522,-1036.288319
2555.245503,7354.516781,518.144159,10584.944971
2555.245832,306.438199,5255.462188,3330.926739
2555.246161,2834.553343,3849.070898,4959.379811
2555.246490,-4060.306139,-7328.038826,16210.510130
2555.246819,-2221.676944,-1554.432478,13397.727550
2555.247148,-6818.249932,-222.061783,8512.368333
2555.247477,-7354.516781,-13175.665768,23316.487173
2555.247806,-9116.536426,-592.164754,8586.388927
2555.248136,-1762.019645,-3849.070898,17394.839637
2555.248465,-2145.067394,962.267725,10362.883188
2555.248794,153.219100,4885.359217,4367.215058
2555.249123,4290.134789,-4367.215058,12879.583391
2555.249452,7660.954980,4145.153275,5033.400406
2555.249781,8350.440928,2368.659014,6513.812290
2555.250110,8656.879127,-296.082377,2072.576638
2555.250439,4826.401637,3330.926739,148.041188
2555.250768,5286.058936,1258.350101,10881.027347
2555.251098,919.314598,5403.503377,3701.029710
2555.251427,-689.485948,962.267725,7031.956449
2555.251756,-4290.134789,-9178.553681,19023.292709
2555.252085,-5592.497135,2960.823768,7550.100608
2555.252414,-5975.544884,-7031.956449,16802.674883
2555.252743,-9806.022374,-6143.709319,14137.933492
2555.253072,-5592.497135,296.082377,12731.542202
2555.253401,-229.828649,-2664.741391,14285.974681
2555.253730,-842.705048,4737.318029,5625.565159
2555.254060,2681.334243,-0.000000,7031.956449
2555.254389,8350.440928,-2072.576638,10288.862594
2555.254718,6205.373534,6661.853478,-2220.617826
2555.255047,9882.631924,-74.020594,7476.080014
2555.255376,4213.525239,2368.659014,888.247130
2555.255705,5898.935335,518.144159,8290.306550
2555.256034,1378.971896,5773.606348,4811.338623
2555.256363,1838.629195,2516.700203,5847.626942
2555.256692,-5515.887586,-8216.285956,15174.221811
2555.257022,-3983.696590,-1702.473667,12065.356855
2555.257351,-7967.393179,-592.164754,12953.603985
2555.257680,-9652.803275,-10288.862594,20133.601622
2555.258009,-8503.660028,-1184.329507,10807.006753
2555.258338,-1762.019645,-2146.597232,14211.954086
2555.258667,-689.485948,2738.761985,9548.656652
2555.258996,842.705048,3997.112087,3108.864956
2555.259325,8427.050478,-2960.823768,14359.995275
2555.259654,6281.983084,6513.812290,-2590.720797
2555.259984,10725.336972,592.164754,8142.265362
2555.260313,6665.030833,3849.070898,518.144159
2555.260642,7890.783629,962.267725,4737.318029
2555.260971,1608.800546,4219.173869,5995.668130
2555.261300,2911.162892,7550.100608,4959.379811
2555.261629,-2757.943793,-2886.803174,9178.553681
2555.261958,-4290.134789,-8586.388927,18209.066173
2555.262287,-7124.688131,1998.556043,7846.182985
2555.262617,-8580.269578,-8586.388927,19171.333898
2555.262946,-10418.898773,-6957.935855,13397.727550
2555.263275,-6741.640382,-222.061783,14730.098246
2555.263604,-766.095498,-1850.514855,15544.324782
2555.263933,-612.876398,5329.482782,5995.668130
2555.264262,2374.896044,-1406.391290,4219.173869
2555.264591,9499.584175,2368.659014,10510.924376
2555.264920,4979.620737,6957.935855,-4219.173869
2555.265249,11031.775171,-666.185348,9326.594869
2555.265579,3753.867940,4071.132681,-1554.432478
2555.265908,7737.564530,-444.123565,8068.244768
2555.266237,459.657299,6439.791695,4145.153275
2555.266566,3677.258390,3478.967927,6661.853478
2555.266895,-4749.792088,-6587.832884,15692.365970
2555.267224,-3677.258390,-4441.235652,15396.283594
2555.267553,-9346.365076,2368.659014,9178.553681
2555.267882,-9269.755526,-15026.180623,25241.022622
2555.268211,-11184.994271,-1480.411884,7846.182985
2555.268541,-1378.971896,-3034.844362,16654.633695
2555.268870,-1532.190996,444.123565,9918.759623
2555.269199,383.047749,5477.523971,4367.215058
2555.269528,7737.564530,-3034.844362,13101.645173
2555.269857,6205.373534,7402.059420,-1850.514855
2555.270186,11261.603821,1480.411884,6957.935855
2555.270515,8963.317327,4885.359217,-1628.453072
2555.270844,8350.440928,1036.288319,2886.803174
2555.271173,1762.019645,3478.967927,7105.977043
2555.271503,2834.553343,5699.585753,6735.874072
2555.271832,-2834.553343,-2960.823768,9104.533087
2555.272161,-4673.182538,-9770.718434,19023.292709
2555.272490,-8427.050478,3256.906145,7772.162391
2555.272819,-8886.707777,-12435.459826,23020.404796
2555.273148,-12717.185267,-6365.771101,11843.295072
2555.273477,-5362.668486,-370.102971,15248.242405
2555.273806,-919.314598,-2368.659014,14063.912898
2555.274135,76.609550,5699.585753,4367.215058
2555.274465,5975.544884,-4071.132681,10214.842000
2555.274794,7431.126331,2442.679609,5255.462188
2555.275123,9806.022374,3849.070898,962.267725
2555.275452,12717.185267,4219.173869,666.185348
2555.275781,7737.564530,3849.070898,518.144159
2555.276110,5822.325785,1184.329507,9844.739029
2555.276439,1302.362347,6291.750507,5181.441594
2555.276768,4060.306139,-222.061783,6661.853478
2555.277098,-6281.983084,-5403.503377,15322.262999
2555.277427,-3830.477490,-5477.523971,16358.551318
2555.277756,-10725.336972,592.164754,11103.089130
2555.278085,-9116.536426,-13989.892304,25463.084405
2555.278414,-11108.384721,-1184.329507,7105.977043
2555.278743,-1149.143247,-2442.679609,19393.395680
2555.279072,-766.095498,2072.576638,8734.430116
2555.279401,1455.581446,2294.638420,2812.782580
2555.279730,9193.145976,-2960.823768,13323.706956
2555.280060,7048.078582,8142.265362,-3404.947333
2555.280389,12717.185267,518.144159,8290.306550
2555.280718,8197.221829,6143.709319,-3404.947333
2555.281047,10342.289223,-0.000000,4515.256246
2555.281376,1685.410096,6143.709319,7105.977043
2555.281705,3370.820191,5255.462188,4367.215058
2555.282034,-1532.190996,-2442.679609,10732.986159
2555.282363,-6281.983084,-6883.915261,18357.107362
2555.282692,-7354.516781,-888.247130,9252.574275
2555.283022,-10572.117872,-5329.482782,20133.601622
2555.283351,-11338.213370,-10436.903782,15174.221811
2555.283680,-9116.536426,1184.329507,12509.480420
2555.284009,-919.314598,-3256.906145,16580.613101
2555.284338,-1762.019645,4589.276840,2738.761985
2555.284667,3830.477490,-1628.453072,7031.956449
2555.284996,7124.688131,2368.659014,8956.491898
2555.285325,7431.126331,4663.297435,-1924.535449
2555.285654,12104.308868,370.102971,9696.697840
2555.285984,6052.154434,5329.482782,-4367.215058
2555.286313,8810.098227,370.102971,8142.265362
2555.286642,689.485948,5403.503377,4145.153275
2555.286971,3294.210641,3256.906145,6957.935855
2555.287300,-5132.839837,-4663.297435,12583.501014
2555.287629,-3140.991542,-5107.421000,18209.066173
2555.287958,-9729.412825,2590.720797,6069.688724
2555.288287,-7814.174080,-13915.871710,26277.310941
2555.288616,-12257.527968,-1776.494261,7328.038826
2555.288946,-2298.286494,-2294.638420,16432.571912
2555.289275,-2068.457845,-1332.370696,12361.439231
2555.289604,0.000000,4515.256246,3923.091493
2555.289933,3064.381992,-2738.761985,9770.718434
2555.290262,7048.078582,4071.132681,5107.421000
2555.290591,6818.249932,1702.473667,1998.556043
2555.290920,9422.974625,-962.267725,6291.750507
2555.291249,5439.278036,3627.009116,-1480.411884
2555.291579,6128.763984,1628.453072,8882.471304
2555.291908,1532.190996,5033.400406,4145.153275
2555.292237,2298.286494,3923.091493,6957.935855
2555.292566,-4213.525239,-4811.338623,15988.448347
2555.292895,-3064.381992,-2368.659014,16284.530724
2555.293224,-7890.783629,-0.000000,9104.533087
2555.293553,-6894.859482,-10436.903782,21465.972318
2555.293882,-10035.851024,-1480.411884,7846.182985
2555.294211,-2374.896044,-1924.535449,16506.592507
2555.294541,-1915.238745,-0.000000,11103.089130
2555.294870,-919.314598,2664.741391,5107.421000
2555.295199,2681.334243,-2738.761985,7624.121203
2555.295528,6818.249932,3775.050304,5181.441594
2555.295857,7048.078582,1702.473667,2146.597232
2555.296186,9116.536426,-1332.370696,6439.791695
2555.296515,4749.792088,3034.844362,888.247130
2555.296844,5056.230287,1480.411884,9252.574275
2555.297173,612.876398,4367.215058,5181.441594
2555.297503,766.095498,3701.029710,7328.038826
2555.297832,-3600.648841,-5551.544565,15988.448347
2555.298161,-2681.334243,-0.000000,12879.583391
2555.298490,-5975.544884,-592.164754,11843.295072
2555.298819,-5822.325785,-9770.718434,19097.313304
2555.299148,-5822.325785,296.082377,10140.821405
2555.299477,-383.047749,-1998.556043,12731.542202
2555.299806,-1532.190996,1332.370696,7402.059420
2555.300135,612.876398,814.226536,7550.100608
2555.300465,5898.935335,-2664.741391,8882.471304
2555.300794,7814.174080,4441.235652,1036.288319
2555.301123,7890.783629,222.061783,6957.935855
2555.301452,6435.202183,-370.102971,2072.576638
2555.301781,6435.202183,2368.659014,4959.379811
2555.302110,1991.848295,3256.906145,6587.832884
2555.302439,2221.676944,3404.947333,7031.956449
2555.302768,-2834.553343,-1258.350101,12287.418637
2555.303097,-3140.991542,-5625.565159,16210.510130
2555.303427,-6052.154434,2146.597232,10288.862594
2555.303756,-5439.278036,-7920.203579,18357.107362
2555.304085,-7431.126331,-4441.235652,11251.130318
2555.304414,-2604.724693,-518.144159,13693.809927
2555.304743,-1302.362347,-0.000000,10807.006753
2555.305072,-1149.143247,1776.494261,7328.038826
2555.305401,3140.991542,-2516.700203,8142.265362
2555.305730,6818.249932,1480.411884,6365.771101
2555.306060,6818.249932,2812.782580,1850.514855
2555.306389,8120.612279,-740.205942,4367.215058
2555.306718,4749.792088,2812.782580,3256.906145
2555.307047,4673.182538,2294.638420,8216.285956
2555.307376,1608.800546,4441.235652,5255.462188
2555.307705,0.000000,3256.906145,7179.997637
2555.308034,-3370.820191,-6143.709319,15100.201217
2555.308363,-3753.867940,962.267725,11177.109724
2555.308692,-6281.983084,-1110.308913,12213.398043
2555.309022,-7737.564530,-8808.450710,17616.901420
2555.309351,-7124.688131,-1332.370696,12435.459826
2555.309680,-842.705048,-1258.350101,13767.830521
2555.310009,-2374.896044,740.205942,8290.306550
2555.310338,306.438199,666.185348,6069.688724
2555.310667,4826.401637,-1776.494261,11621.233289
2555.310996,5515.887586,4663.297435,2664.741391
2555.311325,8886.707777,1258.350101,6143.709319
2555.311654,6588.421283,1776.494261,296.082377
2555.311984,6281.983084,3108.864956,4589.276840
2555.312313,2528.115143,3182.885551,7105.977043
2555.312642,1455.581446,4663.297435,6291.750507
2555.312971,-2604.724693,-1850.514855,11473.192101
2555.313300,-3677.258390,-7476.080014,18801.230927
2555.313629,-7277.907231,3478.967927,8290.306550
2555.313958,-7277.907231,-10140.821405,20799.786970
2555.314287,-10725.336972,-4885.359217,11103.089130
2555.314616,-4903.011187,-962.267725,15100.201217
2555.314946,-1225.752797,-2146.597232,13545.768739
2555.315275,-536.266849,2886.803174,5551.544565
2555.315604,2911.162892,-666.185348,7179.997637
2555.315933,7584.345430,1776.494261,8586.388927
2555.316262,6588.421283,4441.235652,-222.061783
2555.316591,9882.631924,-222.061783,5477.523971
2555.316920,4903.011187,3701.029710,222.061783
2555.317249,6665.030833,-518.144159,10362.883188
2555.317578,459.657299,6217.729913,3552.988522
2555.317908,1991.848295,3627.009116,5847.626942
2555.318237,-4213.525239,-6587.832884,16210.510130
2555.318566,-3677.258390,-2738.761985,13989.892304
2555.318895,-8044.002729,1184.329507,11473.192101
2555.319224,-8273.831378,-13249.686362,22206.178260
2555.319553,-9499.584175,-1332.370696,8660.409521
2555.319882,-919.314598,-2960.823768,15914.427753
2555.320211,-1378.971896,2146.597232,8364.327145
2555.320541,766.095498,4441.235652,4515.256246
2555.320870,7507.735880,-2146.597232,10955.047942
2555.321199,6281.983084,6439.791695,-1332.370696
2555.321528,10112.460574,1332.370696,7550.100608
2555.321857,8197.221829,3627.009116,0.000000
2555.322186,7124.688131,888.247130,3108.864956
2555.322515,1225.752797,3182.885551,7846.182985
2555.322844,2987.772442,7105.977043,4811.338623
2555.323173,-536.266849,-1110.308913,9178.553681
2555.323503,-4979.620737,-8734.430116,17542.880825
2555.323832,-6052.154434,1924.535449,8364.327145
2555.324161,-7967.393179,-7994.224174,19615.457463
2555.324490,-9959.241474,-8808.450710,13619.789333
2555.324819,-7124.688131,-0.000000,13915.871710
2555.325148,-612.876398,-3256.906145,15396.283594
2555.325477,-1225.752797,4737.318029,4663.297435
2555.325806,3830.477490,-1702.473667,7105.977043
2555.326135,7814.174080,-74.020594,9400.615463
2555.326465,6665.030833,3997.112087,0.000000
2555.326794,10648.727422,592.164754,5625.565159
2555.327123,4903.011187,3775.050304,-1406.391290
2555.327452,7277.907231,-0.000000,9844.739029
2555.327781,919.314598,6587.832884,3849.070898
2555.328110,4673.182538,5181.441594,4811.338623
2555.328439,-2911.162892,-3108.864956,10584.944971
2555.328768,-2834.553343,-6587.832884,18579.169144
2555.329097,-6818.249932,1924.535449,9696.697840
2555.329427,-7431.126331,-10658.965565,21614.013506
2555.329756,-9806.022374,-4885.359217,8808.450710
2555.330085,-3524.039291,-444.123565,15470.304188
2555.330414,229.828649,148.041188,11547.212695
2555.330743,229.828649,4737.318029,3552.988522
2555.331072,7277.907231,-2886.803174,10658.965565
2555.331401,5898.935335,4663.297435,2368.659014
2555.331730,11031.775171,2146.597232,5551.544565
2555.332059,9729.412825,4071.132681,0.000000
2555.332389,6741.640382,1850.514855,1110.308913
2555.332718,3064.381992,2368.659014,8660.409521
2555.333047,2145.067394,6069.688724,5107.421000
2555.333376,459.657299,-592.164754,9474.636058
2555.333705,-6588.421283,-7698.141797,17246.798449
2555.334034,-7124.688131,-1480.411884,10140.821405
2555.334363,-9039.926876,-4071.132681,18949.272115
2555.334692,-10648.727422,-10510.924376,15248.242405
2555.335021,-9729.412825,296.082377,12287.418637
2555.335350,-842.705048,-3478.967927,15100.201217
2555.335679,-1149.143247,4737.318029,4441.235652
2555.336008,4519.963438,-2072.576638,7105.977043
2555.336338,8120.612279,-296.082377,7328.038826
2555.336667,7124.688131,3330.926739,-370.102971
2555.336996,11568.042020,2442.679609,4885.359217
2555.337325,6588.421283,4589.276840,-962.267725
2555.337654,6818.249932,-0.000000,9400.615463
2555.337983,76.609550,7105.977043,3923.091493
2555.338312,4749.792088,1924.535449,6365.771101
2555.338641,-5975.544884,-4071.132681,12361.439231
2555.338970,-3370.820191,-5551.544565,18431.127956
2555.339299,-9652.803275,2294.638420,9178.553681
2555.339628,-9346.365076,-13989.892304,24796.899057
2555.339957,-11874.480219,-2220.617826,8438.347739
2555.340287,-2604.724693,-2368.659014,16950.716072
2555.340616,-919.314598,888.247130,10955.047942
2555.340945,1302.362347,4367.215058,2886.803174
2555.341274,6971.469032,-2590.720797,11917.315666
2555.341603,6358.592633,6217.729913,0.000000
2555.341932,11338.213370,148.041188,6809.894666
2555.342261,9116.536426,6143.709319,-2368.659014
2555.342590,8044.002729,1110.308913,888.247130
2555.342919,1762.019645,2886.803174,8068.244768
2555.343248,2298.286494,7476.080014,6291.750507
2555.343577,766.095498,-666.185348,9844.739029
2555.343906,-6741.640382,-8216.285956,18801.230927
2555.344235,-7124.688131,-1332.370696,9770.718434
2555.344565,-9576.193725,-4737.318029,19689.478057
2555.344894,-10878.556072,-11177.109724,17246.798449
2555.345223,-9882.631924,-74.020594,11769.274478
2555.345552,-1149.143247,-3775.050304,16876.695478
2555.345881,-1838.629195,4219.173869,5107.421000
2555.346210,3830.477490,-1110.308913,5551.544565
2555.346539,7890.783629,444.123565,8364.327145
2555.346868,6971.469032,5033.400406,-2886.803174
2555.347197,12180.918418,592.164754,9326.594869
2555.347526,6818.249932,6291.750507,-2812.782580
2555.347855,7890.783629,-888.247130,8142.265362
2555.348184,229.828649,5847.626942,5255.462188
2555.348513,4443.353888,4663.297435,6143.709319
2555.348843,-4673.182538,-3923.091493,10881.027347
2555.349172,-3983.696590,-7179.997637,19097.313304
2555.349501,-9806.022374,2812.782580,8512.368333
2555.349830,-7890.783629,-14434.015869,26055.249158
2555.350159,-11874.480219,-3552.988522,8956.491898
2555.350488,-3370.820191,-1184.329507,16802.674883
2555.350817,-536.266849,-962.267725,11103.089130
2555.351146,766.095498,5033.400406,2812.782580
2555.351475,6971.469032,-3034.844362,10732.986159
2555.351804,7048.078582,4737.318029,1480.411884
2555.352133,11184.994271,1628.453072,4885.359217
2555.352462,11108.384721,4589.276840,-1776.494261
2555.352792,9039.926876,2146.597232,-814.226536
2555.353121,3370.820191,3034.844362,8734.430116
2555.353450,2068.457845,6069.688724,6513.812290
2555.353779,2145.067394,-592.164754,10436.903782
2555.354108,-6588.421283,-6291.750507,17764.942608
2555.354437,-5132.839837,-4293.194464,12139.377449
2555.354766,-9806.022374,-1036.288319,16136.489536
2555.355095,-9499.584175,-12361.439231,20503.704593
2555.355424,-10265.679673,370.102971,8216.285956
2555.355753,-229.828649,-3404.947333,17616.901420
2555.356082,-842.705048,3182.885551,4663.297435
2555.356411,3294.210641,-740.205942,4885.359217
2555.356740,8120.612279,-1184.329507,8512.368333
2555.357070,6741.640382,4589.276840,-3478.967927
2555.357399,11951.089769,1184.329507,8734.430116
2555.357728,7277.907231,5847.626942,-2812.782580
2555.358057,9116.536426,-0.000000,7772.162391
2555.358386,536.266849,5551.544565,6143.709319
2555.358715,4060.306139,4219.173869,5847.626942
2555.359044,-4673.182538,-2072.576638,9622.677246
2555.359373,-3753.867940,-7550.100608,20355.663405
2555.359702,-7967.393179,4071.132681,7920.203579
2555.360031,-7890.783629,-9992.780217,22132.157666
2555.360360,-10572.117872,-5625.565159,10510.924376
2555.360689,-4979.620737,740.205942,15692.365970
2555.361018,0.000000,-2072.576638,13841.851115
2555.361348,-766.095498,4441.235652,3256.906145
2555.361677,3217.601092,-2960.823768,6957.935855
2555.362006,7507.735880,1036.288319,8882.471304
2555.362335,6128.763984,2590.720797,74.020594
2555.362664,9499.584175,444.123565,5403.503377
2555.362993,4366.744339,2812.782580,-2072.576638
2555.363322,6281.983084,1036.288319,12065.356855
2555.363651,-689.485948,6069.688724,4515.256246
2555.363980,3677.258390,4293.194464,5255.462188
2555.364309,-5745.716235,-4811.338623,14285.974681
2555.364638,-2528.115143,-2368.659014,16062.468941
2555.364967,-7277.907231,3552.988522,7328.038826
2555.365296,-7660.954980,-12657.521608,23612.569550
2555.365626,-10801.946522,-592.164754,6735.874072
2555.365955,-1685.410096,-3478.967927,16506.592507
2555.366284,-2221.676944,-962.267725,10881.027347
2555.366613,-612.876398,2960.823768,2960.823768
2555.366942,1608.800546,-3034.844362,6957.935855
2555.367271,6741.640382,2368.659014,9104.533087
2555.367600,5439.278036,1924.535449,296.082377
2555.367929,8886.707777,-2664.741391,8290.306550
2555.368258,3677.258390,3775.050304,74.020594
2555.368587,6052.154434,1480.411884,9252.574275
2555.368916,536.266849,4811.338623,6217.729913
2555.369245,995.924147,6587.832884,4885.359217
2555.369575,-2451.505594,-5921.647536,17542.880825
2555.369904,-2145.067394,444.123565,14285.974681
2555.370233,-4903.011187,-444.123565,9992.780217
2555.370562,-5898.935335,-9400.615463,20059.581028
2555.370891,-6281.983084,-0.000000,9622.677246
2555.371220,-995.924147,-2294.638420,13915.871710
2555.371549,-919.314598,-0.000000,8512.368333
2555.371878,-919.314598,4589.276840,4589.276840
2555.372207,2987.772442,-5181.441594,11473.192101
2555.372536,5592.497135,1406.391290,3775.050304
2555.372865,7277.907231,962.267725,6143.709319
2555.373194,7124.688131,-1776.494261,2294.638420
2555.373523,3830.477490,2146.597232,1554.432478
2555.373853,3600.648841,1776.494261,11103.089130
2555.374182,-766.095498,3108.864956,7402.059420
2555.374511,-2757.943793,-296.082377,10362.883188
2555.374840,-3370.820191,-5773.606348,16580.613101
2555.375169,-5132.839837,3701.029710,7328.038826
2555.375498,-5132.839837,-5699.585753,19171.333898
2555.375827,-8656.879127,-3627.009116,13249.686362
2555.376156,-1838.629195,296.082377,11547.212695
2555.376485,-766.095498,-814.226536,11917.315666
2555.376814,536.266849,4145.153275,2886.803174
2555.377143,4366.744339,-3034.844362,11917.315666
2555.377472,3983.696590,-2442.679609,5773.606348
2555.377801,7660.954980,3330.926739,4367.215058
2555.378131,7890.783629,1702.473667,740.205942
2555.378460,5898.935335,1702.473667,3627.009116
2555.378789,3524.039291,1332.370696,8364.327145
2555.379118,1685.410096,7031.956449,5847.626942
2555.379447,1838.629195,518.144159,7402.059420
2555.379776,-5209.449386,-8068.244768,17098.757260
2555.380105,-3753.867940,-1702.473667,13471.748144
2555.380434,-6894.859482,-1332.370696,14434.015869
2555.380763,-6588.421283,-6809.894666,17764.942608
2555.381092,-7354.516781,-1998.556043,10732.986159
2555.381421,306.438199,-814.226536,13841.851115
2555.381750,612.876398,3997.112087,8512.368333
2555.382080,536.266849,740.205942,3627.009116
2555.382409,7967.393179,-3627.009116,12583.501014
2555.382738,4673.182538,6439.791695,-3034.844362
2555.383067,10112.460574,-74.020594,8512.368333
2555.383396,4443.353888,2146.597232,518.144159
2555.383725,7201.297681,-666.185348,6957.935855
2555.384054,1149.143247,5403.503377,5847.626942
2555.384383,3677.258390,6513.812290,4811.338623
2555.384712,-2987.772442,-2664.741391,10732.986159
2555.385041,-3677.258390,-6143.709319,17987.004391
2555.385370,-5286.058936,1924.535449,8290.306550
2555.385699,-7967.393179,-7105.977043,18505.148550
2555.386028,-9116.536426,-6143.709319,11547.212695
2555.386358,-5056.230287,-1184.329507,15174.221811
2555.386687,153.219100,-370.102971,14508.036463
2555.387016,-383.047749,4811.338623,2812.782580
2555.387345,2604.724693,-4219.173869,5847.626942
2555.387674,7660.954980,1110.308913,9178.553681
2555.388003,5209.449386,5477.523971,-1850.514855
2555.388332,10112.460574,-1776.494261,9030.512492
2555.388661,2911.162892,3997.112087,-1480.411884
2555.388990,6741.640382,-666.185348,9030.512492
2555.389319,76.609550,6883.915261,5181.441594
2555.389648,3830.477490,3923.091493,5995.668130
2555.389977,-4290.134789,-7031.956449,17024.736666
2555.390306,-2987.772442,-3108.864956,16506.592507
2555.390636,-7431.126331,1776.494261,8586.388927
2555.390965,-7507.735880,-11473.192101,23168.445985
2555.391294,-9729.412825,-1258.350101,6217.729913
2555.391623,-2145.067394,-2960.823768,15692.365970
2555.391952,-995.924147,444.123565,12731.542202
2555.392281,-1072.533697,4441.235652,1480.411884
2555.392610,7048.078582,-4885.359217,13989.892304
2555.392939,4060.306139,6291.750507,444.123565
2555.393268,9959.241474,1110.308913,6957.935855
2555.393597,8810.098227,1998.556043,-296.082377
2555.393926,5745.716235,3552.988522,2442.679609
2555.394255,3064.381992,666.185348,11029.068536
2555.394584,1302.362347,7402.059420,4515.256246
2555.394914,-612.876398,-518.144159,8068.244768
2555.395243,-5209.449386,-9252.574275,18801.230927
2555.395572,-5362.668486,2442.679609,9844.739029
2555.395901,-8350.440928,-4145.153275,17764.942608
2555.396230,-9422.974625,-9844.739029,17838.963202
2555.396559,-8733.488677,1776.494261,12361.439231
2555.396888,-229.828649,-3849.070898,15396.283594
2555.397217,-995.924147,5625.565159,4293.194464
2555.397546,1378.971896,-1332.370696,2960.823768
2555.397875,8120.612279,-1258.350101,12583.501014
2555.398204,4596.572988,7179.997637,-5995.668130
2555.398533,11491.432470,-2368.659014,11103.089130
2555.398863,4443.353888,4737.318029,-1924.535449
2555.399192,8503.660028,-740.205942,6143.709319
2555.399521,76.609550,5033.400406,6217.729913
2555.399850,3600.648841,5847.626942,6513.812290
2555.400179,-4136.915689,-4515.256246,12731.542202
2555.400508,-2987.772442,-6291.750507,19245.354492
2555.400837,-7431.126331,3330.926739,8142.265362
2555.401166,-7277.907231,-13323.706956,23686.590144
2555.401495,-9499.584175,-3552.988522,7772.162391
2555.401824,-1991.848295,-1406.391290,14434.015869
2555.402153,689.485948,-740.205942,13249.686362
2555.402482,0.000000,6587.832884,1110.308913
2555.402811,8503.660028,-5477.523971,13619.789333
2555.403141,4673.182538,5181.441594,-1924.535449
2555.403470,10572.117872,1998.556043,6069.688724
2555.403799,8120.612279,1850.514855,1628.453072
2555.404128,7737.564530,1998.556043,1776.494261
2555.404457,3064.381992,1998.556043,8882.471304
2555.404786,1685.410096,6809.894666,6291.750507
2555.405115,1455.581446,-148.041188,9696.697840
2555.405444,-6205.373534,-7402.059420,16580.613101
2555.405773,-4903.011187,-666.185348,12287.418637
2555.406102,-8350.440928,-1702.473667,16284.530724
2555.406431,-7890.783629,-11103.089130,18357.107362
2555.406760,-8733.488677,814.226536,9844.739029
2555.407089,766.095498,-3108.864956,15322.262999
2555.407419,-919.314598,5329.482782,5477.523971
2555.407748,2451.505594,-1258.350101,3775.050304
2555.408077,7967.393179,-1480.411884,11473.192101
2555.408406,5209.449386,5255.462188,-3552.988522
2555.408735,11874.480219,1036.288319,7772.162391
2555.409064,4519.963438,3701.029710,-1258.350101
2555.409393,8350.440928,-74.020594,7698.141797
2555.409722,612.876398,5847.626942,5699.585753
2555.410051,3830.477490,4663.297435,4811.338623
2555.410380,-4519.963438,-2886.803174,11769.274478
2555.410709,-3447.429741,-7105.977043,19319.375086
2555.411038,-7584.345430,3478.967927,8586.388927
2555.411368,-8120.612279,-11029.068536,23020.404796
2555.411697,-10189.070123,-4959.379811,9326.594869
2555.412026,-4136.915689,-962.267725,14878.139434
2555.412355,459.657299,-962.267725,13249.686362
2555.412684,-383.047749,5181.441594,2442.679609
2555.413013,5745.716235,-4959.379811,11029.068536
2555.413342,5975.544884,3775.050304,3256.906145
2555.413671,9576.193725,1628.453072,4663.297435
2555.414000,9882.631924,3330.926739,0.000000
2555.414329,6741.640382,2960.823768,592.164754
2555.414658,3983.696590,1332.370696,11029.068536
2555.414987,1149.143247,6513.812290,5403.503377
2555.415316,306.438199,148.041188,8068.244768
2555.415646,-7201.297681,-8956.491898,17912.983796
2555.415975,-5362.668486,2516.700203,10066.800811
2555.416304,-8810.098227,-2738.761985,16506.592507
2555.416633,-11338.213370,-10140.821405,18283.086767
2555.416962,-9499.584175,962.267725,13101.645173
2555.417291,-1072.533697,-3775.050304,15618.345376
2555.417620,-842.705048,3997.112087,4737.318029
2555.417949,2604.724693,-370.102971,3182.885551
2555.418278,7201.297681,-1554.432478,11251.130318
2555.418607,5515.887586,7105.977043,-4737.318029
2555.418936,11797.870669,-814.226536,9400.615463
2555.419265,5975.544884,5699.585753,-2368.659014
2555.419594,8120.612279,370.102971,5181.441594
2555.419924,995.924147,4737.318029,5551.544565
2555.420253,2604.724693,6143.709319,7254.018232
2555.420582,-4060.306139,-3552.988522,10584.944971
2555.420911,-3983.696590,-6661.853478,20059.581028
2555.421240,-8273.831378,3923.091493,7402.059420
2555.421569,-8503.660028,-12287.418637,22354.219448
2555.421898,-10495.508323,-4071.132681,9770.718434
2555.422227,-4596.572988,-222.061783,15248.242405
2555.422556,-1072.533697,-2368.659014,14211.954086
2555.422885,0.000000,5181.441594,4589.276840
2555.423214,4519.963438,-3627.009116,8882.471304
2555.423543,7584.345430,2146.597232,6513.812290
2555.423872,8120.612279,3701.029710,1258.350101
2555.424202,11951.089769,962.267725,1776.494261
2555.424531,6741.640382,4737.318029,0.000000
2555.424860,5669.106685,1110.308913,11547.212695
2555.425189,536.266849,5255.462188,5329.482782
2555.425518,2757.943793,296.082377,8882.471304
2555.425847,-6818.249932,-7994.224174,18431.127956
2555.426176,-4903.011187,-1998.556043,11695.253884
2555.426505,-8886.707777,-148.041188,14730.098246
2555.426834,-9652.803275,-12509.480420,21317.931130
2555.427163,-10725.336972,592.164754,9992.780217
2555.427492,-2068.457845,-4293.194464,17616.901420
2555.427821,-2221.676944,2072.576638,6513.812290
2555.428151,1685.410096,814.226536,4219.173869
2555.428480,5975.544884,-3034.844362,13249.686362
2555.428809,5362.668486,5995.668130,-2368.659014
2555.429138,12563.966167,370.102971,8586.388927
2555.429467,8350.440928,4885.359217,-3997.112087
2555.429796,9959.241474,2368.659014,2294.638420
2555.430125,2911.162892,3404.947333,7105.977043
2555.430454,2528.115143,5699.585753,8438.347739
2555.430783,1225.752797,-666.185348,9474.636058
2555.431112,-4596.572988,-4071.132681,17764.942608
2555.431441,-4749.792088,-2294.638420,13323.706956
2555.431770,-9269.755526,-2960.823768,13915.871710
2555.432099,-6894.859482,-8438.347739,19467.416275
2555.432428,-8427.050478,-1036.288319,9400.615463
2555.432758,842.705048,-3108.864956,16432.571912
2555.433087,-1762.019645,2368.659014,5403.503377
2555.433416,1072.533697,-1332.370696,5181.441594
2555.433745,6665.030833,-666.185348,9474.636058
2555.434074,5669.106685,5181.441594,-3108.864956
2555.434403,12027.699319,-1110.308913,8808.450710
2555.434732,7354.516781,5477.523971,-1628.453072
2555.435061,8273.831378,1850.514855,5551.544565
2555.435390,1762.019645,2664.741391,7031.956449
2555.435719,2298.286494,5107.421000,6587.832884
2555.436048,-2681.334243,-962.267725,10658.965565
2555.436377,-4443.353888,-6661.853478,18653.189738
2555.436706,-6511.811733,-0.000000,11695.253884
2555.437035,-7584.345430,-6513.812290,17172.777854
2555.437364,-7354.516781,-6513.812290,13027.624579
2555.437693,-6128.763984,592.164754,12953.603985
2555.438023,0.000000,-2072.576638,12731.542202
2555.438352,-842.705048,3775.050304,4441.235652
2555.438681,2528.115143,-2886.803174,6735.874072
2555.439010,6818.249932,-444.123565,7476.080014
2555.439339,6665.030833,2146.597232,222.061783
2555.439668,9116.536426,-740.205942,5255.462188
2555.439997,4519.963438,3330.926739,0.000000
2555.440326,5132.839837,1554.432478,9474.636058
2555.440655,383.047749,4589.276840,7105.977043
2555.440984,2528.115143,4219.173869,8142.265362
2555.441313,-4826.401637,-4737.318029,15470.304188
2555.441642,-3140.991542,-3034.844362,14211.954086
2555.441971,-6741.640382,2442.679609,10658.965565
2555.442300,-6894.859482,-10807.006753,21539.992912
2555.442629,-8886.707777,-1036.288319,7846.182985
2555.442958,-995.924147,-1332.370696,13619.789333
2555.443288,-995.924147,370.102971,9104.533087
2555.443617,766.095498,3256.906145,2442.679609
2555.443946,6971.469032,-2812.782580,12139.377449
2555.444275,4213.525239,4515.256246,-1998.556043
2555.444604,8733.488677,444.123565,9104.533087
2555.444933,5439.278036,1406.391290,1850.514855
2555.445262,5822.325785,2886.803174,3330.926739
2555.445591,1302.362347,2886.803174,8512.368333
2555.445920,1685.410096,4515.256246,7402.059420
2555.446249,-2757.943793,-2146.597232,12953.603985
2555.446578,-3677.258390,-7179.997637,16876.695478
2555.446907,-6128.763984,3478.967927,10066.800811
2555.447236,-7354.516781,-9400.615463,19615.457463
2555.447565,-9576.193725,-3256.906145,10881.027347
2555.447894,-4213.525239,-666.185348,13841.851115
2555.448223,-1302.362347,-1184.329507,11917.315666
2555.448553,0.000000,4071.132681,4589.276840
2555.448882,2911.162892,-2812.782580,6365.771101
2555.449211,7048.078582,-592.164754,8660.409521
2555.449540,5439.278036,3923.091493,666.185348
2555.449869,8656.879127,-1480.411884,5329.482782
2555.450198,2834.553343,3627.009116,1258.350101
2555.450527,5592.497135,962.267725,9844.739029
2555.450856,1762.019645,5107.421000,6587.832884
2555.451185,612.876398,3330.926739,6735.874072
2555.451514,-4136.915689,-8660.409521,16580.613101
2555.451843,-4136.915689,1036.288319,12139.377449
2555.452172,-6205.373534,-1850.514855,12583.501014
2555.452501,-7890.783629,-7920.203579,19023.292709
2555.452830,-6511.811733,-888.247130,11251.130318
2555.453159,-766.095498,-2368.659014,11695.253884
2555.453488,0.000000,2368.659014,8068.244768
2555.453818,229.828649,3182.885551,2664.741391
2555.454147,6511.811733,-3775.050304,10732.986159
2555.454476,3830.477490,6809.894666,-3182.885551
2555.454805,7584.345430,666.185348,6439.791695
2555.455134,3677.258390,2294.638420,1184.329507
2555.455463,4443.353888,1850.514855,4589.276840
2555.455792,306.438199,2146.597232,7328.038826
