#time,accel_x,accel_y,accel_z
2592.918234,306.438199,-74.020594,9030.512492
2592.918563,536.266849,-0.000000,9104.533087
2592.918892,229.828649,-0.000000,8882.471304
2592.919222,459.657299,-0.000000,8956.491898
2592.919551,689.485948,-0.000000,9030.512492
2592.919880,306.438199,-0.000000,8586.388927
2592.920209,229.828649,-0.000000,8956.491898
2592.920539,153.219100,-0.000000,8882.471304
2592.920868,76.609550,-222.061783,8882.471304
2592.921197,229.828649,-148.041188,8882.471304
2592.921526,383.047749,-148.041188,8882.471304
2592.921856,-306.438199,-370.102971,9178.553681
2592.922185,-383.047749,-222.061783,9178.553681
2592.922514,229.828649,-222.061783,9178.553681
2592.922843,0.000000,-222.061783,8808.450710
2592.923173,383.047749,-148.041188,9030.512492
2592.923502,153.219100,-148.041188,8882.471304
2592.923831,766.095498,-222.061783,8734.430116
2592.924160,536.266849,-370.102971,9178.553681
2592.924490,229.828649,-444.123565,8734.430116
2592.924819,459.657299,-74.020594,9252.574275
2592.925148,306.438199,-222.061783,9400.615463
2592.925477,229.828649,-148.041188,9252.574275
2592.925807,383.047749,-148.041188,9326.594869
2592.926136,459.657299,-370.102971,9252.574275
2592.926465,536.266849,-0.000000,9326.594869
2592.926794,-229.828649,-74.020594,9400.615463
2592.927124,76.609550,-74.020594,9400.615463
2592.927453,459.657299,-0.000000,9326.594869
2592.927782,229.828649,-148.041188,9178.553681
2592.928111,383.047749,-0.000000,9030.512492
2592.928441,459.657299,-0.000000,9252.574275
2592.928770,459.657299,-0.000000,9178.553681
2592.929099,536.266849,-518.144159,9178.553681
2592.929428,229.828649,-222.061783,9104.533087
2592.929758,229.828649,-222.061783,9104.533087
2592.930087,153.219100,-0.000000,9104.533087
2592.930416,153.219100,-148.041188,8882.471304
2592.930745,76.609550,-0.000000,9104.533087
2592.931075,459.657299,-222.061783,8956.491898
2592.931404,0.000000,-222.061783,8882.471304
2592.931733,306.438199,-222.061783,8808.450710
2592.932062,459.657299,-0.000000,9030.512492
2592.932392,153.219100,-74.020594,9030.512492
2592.932721,536.266849,-0.000000,8956.491898
2592.933050,-306.438199,-74.020594,9400.615463
2592.933380,536.266849,-370.102971,8956.491898
2592.933709,842.705048,-296.082377,8808.450710
2592.934038,306.438199,-148.041188,8734.430116
2592.934367,229.828649,-222.061783,8882.471304
2592.934697,229.828649,-222.061783,8956.491898
2592.935026,306.438199,-222.061783,9030.512492
2592.935355,536.266849,-296.082377,9178.553681
2592.935684,383.047749,222.061783,9400.615463
2592.936014,459.657299,-74.020594,9400.615463
2592.936343,229.828649,-222.061783,9104.533087
2592.936672,229.828649,-74.020594,9252.574275
2592.937001,536.266849,-222.061783,9178.553681
2592.937331,306.438199,-0.000000,9178.553681
2592.937660,229.828649,-0.000000,9030.512492
2592.937989,536.266849,-148.041188,9252.574275
2592.938318,306.438199,-74.020594,9400.615463
2592.938648,229.828649,-518.144159,9104.533087
2592.938977,306.438199,-222.061783,9104.533087
2592.939306,229.828649,-0.000000,9252.574275
2592.939635,229.828649,-222.061783,9252.574275
2592.939965,0.000000,-148.041188,9326.594869
2592.940294,383.047749,-296.082377,9326.594869
2592.940623,153.219100,-0.000000,9104.533087
2592.940952,0.000000,-148.041188,9104.533087
2592.941282,306.438199,-0.000000,8882.471304
2592.941611,306.438199,-0.000000,9030.512492
2592.941940,229.828649,-74.020594,8882.471304
2592.942269,459.657299,-74.020594,8882.471304
2592.942599,306.438199,740.205942,9252.574275
2592.942928,306.438199,-0.000000,9178.553681
2592.943257,306.438199,-370.102971,8882.471304
2592.943586,229.828649,-222.061783,8956.491898
2592.943916,76.609550,-222.061783,9104.533087
2592.944245,229.828649,-222.061783,8808.450710
2592.944574,459.657299,-0.000000,9178.553681
2592.944903,0.000000,-0.000000,8882.471304
2592.945233,689.485948,-0.000000,8882.471304
2592.945562,459.657299,-74.020594,8882.471304
2592.945891,229.828649,-0.000000,9104.533087
2592.946220,459.657299,-0.000000,9104.533087
2592.946550,459.657299,-74.020594,8956.491898
2592.946879,229.828649,-592.164754,9178.553681
2592.947208,536.266849,-592.164754,9178.553681
2592.947537,153.219100,-444.123565,9030.512492
2592.947867,76.609550,-518.144159,9400.615463
2592.948196,153.219100,-444.123565,9474.636058
2592.948525,766.095498,-814.226536,9844.739029
2592.948854,1378.971896,-1036.288319,9474.636058
2592.949184,1302.362347,-592.164754,9474.636058
2592.949513,1762.019645,-888.247130,9548.656652
2592.949842,2834.553343,-296.082377,9030.512492
2592.950171,3140.991542,444.123565,8956.491898
2592.950501,3524.039291,74.020594,8882.471304
2592.950830,4060.306139,-0.000000,8290.306550
2592.951159,3294.210641,444.123565,8586.388927
2592.951488,2681.334243,666.185348,8660.409521
2592.951818,2298.286494,-148.041188,8882.471304
2592.952147,2834.553343,-666.185348,9548.656652
2592.952476,1532.190996,-740.205942,8956.491898
2592.952805,1149.143247,-1184.329507,10140.821405
2592.953135,1915.238745,-2220.617826,9696.697840
2592.953464,2451.505594,-666.185348,9400.615463
2592.953793,2451.505594,-592.164754,9474.636058
2592.954122,3140.991542,-1332.370696,9696.697840
2592.954452,3753.867940,222.061783,9252.574275
2592.954781,5132.839837,1110.308913,8882.471304
2592.955110,5592.497135,1258.350101,6735.874072
2592.955440,4673.182538,1702.473667,8660.409521
2592.955769,5362.668486,1184.329507,8290.306550
2592.956098,3753.867940,740.205942,7402.059420
2592.956427,3600.648841,148.041188,9030.512492
2592.956757,2681.334243,-148.041188,8290.306550
2592.957086,1455.581446,-222.061783,9696.697840
2592.957415,536.266849,-1628.453072,9770.718434
2592.957744,1608.800546,-1036.288319,9696.697840
2592.958074,995.924147,-1406.391290,10066.800811
2592.958403,1149.143247,-1258.350101,9844.739029
2592.958732,1455.581446,-1036.288319,9844.739029
2592.959061,1991.848295,222.061783,10362.883188
2592.959391,2987.772442,370.102971,7698.141797
2592.959720,4366.744339,962.267725,10066.800811
2592.960049,4596.572988,1406.391290,8290.306550
2592.960378,4903.011187,1406.391290,8142.265362
2592.960708,4596.572988,1036.288319,8808.450710
2592.961037,4749.792088,296.082377,8808.450710
2592.961366,3753.867940,-148.041188,8882.471304
2592.961695,2681.334243,-1184.329507,9992.780217
2592.962025,2221.676944,-1036.288319,10214.842000
2592.962354,1838.629195,-1998.556043,10288.862594
2592.962683,2221.676944,-1776.494261,10140.821405
2592.963012,2451.505594,-1924.535449,10066.800811
2592.963342,2911.162892,-444.123565,9622.677246
2592.963671,3294.210641,-0.000000,9030.512492
2592.964000,3677.258390,1184.329507,8512.368333
2592.964329,4366.744339,2146.597232,7846.182985
2592.964659,4826.401637,2516.700203,7698.141797
2592.964988,4596.572988,2812.782580,7031.956449
2592.965317,4443.353888,2368.659014,7846.182985
2592.965646,3600.648841,1110.308913,7698.141797
2592.965976,2834.553343,-74.020594,8734.430116
2592.966305,2298.286494,-1406.391290,9696.697840
2592.966634,1991.848295,-2516.700203,10140.821405
2592.966963,1532.190996,-2960.823768,10658.965565
2592.967293,1838.629195,-3182.885551,10955.047942
2592.967622,2681.334243,-2368.659014,10584.944971
2592.967951,4290.134789,-962.267725,10214.842000
2592.968280,5592.497135,-296.082377,8882.471304
2592.968610,6205.373534,1258.350101,7920.203579
2592.968939,6358.592633,2516.700203,7846.182985
2592.969268,5592.497135,3034.844362,7402.059420
2592.969597,4596.572988,3627.009116,6883.915261
2592.969927,4519.963438,3404.947333,7328.038826
2592.970256,3447.429741,1110.308913,7772.162391
2592.970585,766.095498,-1110.308913,9252.574275
2592.970914,-459.657299,-3552.988522,10732.986159
2592.971244,-1149.143247,-4145.153275,11547.212695
2592.971573,-689.485948,-5033.400406,11399.171507
2592.971902,-536.266849,-3108.864956,10362.883188
2592.972231,0.000000,-1776.494261,11695.253884
2592.972561,-689.485948,-518.144159,10362.883188
2592.972890,1762.019645,370.102971,11251.130318
2592.973219,4519.963438,444.123565,10436.903782
2592.973548,6588.421283,2220.617826,7254.018232
2592.973878,7048.078582,1184.329507,8586.388927
2592.974207,5362.668486,740.205942,7476.080014
2592.974536,6435.202183,2146.597232,7031.956449
2592.974865,5898.935335,2146.597232,7402.059420
2592.975195,5745.716235,2294.638420,5847.626942
2592.975524,4519.963438,3552.988522,6587.832884
2592.975853,4749.792088,1850.514855,5921.647536
2592.976183,4290.134789,1184.329507,5995.668130
2592.976512,3217.601092,-3034.844362,9696.697840
2592.976841,766.095498,-5551.544565,11843.295072
2592.977170,-842.705048,-4737.318029,11843.295072
2592.977500,-1072.533697,-4441.235652,13989.892304
2592.977829,-1225.752797,-5699.585753,13249.686362
2592.978158,-306.438199,370.102971,10510.924376
2592.978487,2757.943793,-518.144159,11843.295072
2592.978817,3830.477490,1480.411884,9844.739029
2592.979146,6358.592633,1702.473667,9400.615463
2592.979475,6971.469032,1036.288319,9918.759623
2592.979804,6665.030833,2590.720797,6291.750507
2592.980134,7660.954980,3256.906145,5403.503377
2592.980463,7431.126331,1850.514855,4737.318029
2592.980792,6741.640382,2368.659014,5181.441594
2592.981121,6128.763984,2368.659014,7105.977043
2592.981451,4366.744339,2072.576638,5551.544565
2592.981780,3677.258390,2812.782580,5181.441594
2592.982109,1072.533697,-2516.700203,9770.718434
2592.982438,-2374.896044,-6661.853478,12879.583391
2592.982768,-3447.429741,-370.102971,11029.068536
2592.983097,-2757.943793,-3182.885551,12065.356855
2592.983426,-3753.867940,-4885.359217,12361.439231
2592.983755,-3677.258390,1554.432478,12953.603985
2592.984085,229.828649,-814.226536,11991.336260
2592.984414,-2298.286494,2294.638420,9844.739029
2592.984743,995.924147,-74.020594,7846.182985
2592.985072,2298.286494,222.061783,9992.780217
2592.985402,3447.429741,1924.535449,10288.862594
2592.985731,3294.210641,2368.659014,3478.967927
2592.986060,4826.401637,-1702.473667,7105.977043
2592.986389,4596.572988,1258.350101,4441.235652
2592.986719,4673.182538,1776.494261,5477.523971
2592.987048,612.876398,1184.329507,7772.162391
2592.987377,-1455.581446,222.061783,7624.121203
2592.987706,-229.828649,-3997.112087,12361.439231
2592.988036,-689.485948,1258.350101,6809.894666
2592.988365,-2298.286494,-888.247130,9770.718434
2592.988694,-4596.572988,-1332.370696,11103.089130
2592.989023,-919.314598,-592.164754,11325.150913
2592.989353,-306.438199,-0.000000,11399.171507
2592.989682,-383.047749,-0.000000,8438.347739
2592.990011,-1685.410096,-444.123565,10732.986159
2592.990340,-1302.362347,-2072.576638,10436.903782
2592.990670,-1225.752797,1406.391290,7920.203579
2592.990999,-766.095498,518.144159,8586.388927
2592.991328,536.266849,-222.061783,7402.059420
2592.991657,689.485948,-296.082377,8660.409521
2592.991987,76.609550,-962.267725,8438.347739
2592.992316,-842.705048,-1554.432478,7402.059420
2592.992645,-612.876398,-1776.494261,9400.615463
2592.992974,0.000000,-888.247130,10214.842000
2592.993304,-229.828649,518.144159,9326.594869
2592.993633,0.000000,370.102971,9474.636058
2592.993962,766.095498,-0.000000,9992.780217
2592.994291,1532.190996,814.226536,9548.656652
2592.994621,1149.143247,962.267725,7624.121203
2592.994950,919.314598,1332.370696,7476.080014
2592.995279,995.924147,1332.370696,9030.512492
2592.995608,612.876398,296.082377,9548.656652
2592.995937,-1149.143247,-888.247130,9178.553681
2592.996267,-1378.971896,-1628.453072,9474.636058
2592.996596,-1685.410096,-1924.535449,9548.656652
2592.996925,-842.705048,-1110.308913,8734.430116
2592.997254,-689.485948,-1850.514855,9400.615463
2592.997584,-306.438199,-1850.514855,9696.697840
2592.997913,383.047749,-1406.391290,10510.924376
2592.998242,0.000000,-518.144159,10214.842000
2592.998571,842.705048,-74.020594,10732.986159
2592.998901,1072.533697,1850.514855,7920.203579
2592.999230,2604.724693,2146.597232,8808.450710
2592.999559,2834.553343,2960.823768,7772.162391
2592.999888,3217.601092,1924.535449,7550.100608
2593.000217,3140.991542,1184.329507,7994.224174
2593.000547,2681.334243,1702.473667,7254.018232
2593.000876,2451.505594,-296.082377,8142.265362
2593.001205,1149.143247,-592.164754,7994.224174
2593.001534,0.000000,-1850.514855,9844.739029
2593.001864,-229.828649,-2368.659014,9770.718434
2593.002193,-229.828649,-2220.617826,9474.636058
2593.002522,-383.047749,-2220.617826,10066.800811
2593.002851,0.000000,-1110.308913,9696.697840
2593.003181,153.219100,222.061783,9400.615463
2593.003510,1225.752797,370.102971,10066.800811
2593.003839,1455.581446,592.164754,9696.697840
2593.004168,1378.971896,1480.411884,9474.636058
2593.004497,2145.067394,1406.391290,9030.512492
2593.004827,2221.676944,1554.432478,7994.224174
2593.005156,1991.848295,1332.370696,7550.100608
2593.005485,2451.505594,-222.061783,8882.471304
2593.005814,1532.190996,-814.226536,9030.512492
2593.006144,459.657299,-1776.494261,9400.615463
2593.006473,-306.438199,-1110.308913,8660.409521
2593.006802,-766.095498,-370.102971,9030.512492
2593.007131,-995.924147,-518.144159,8734.430116
2593.007461,-1149.143247,-222.061783,9252.574275
2593.007790,-995.924147,-0.000000,9326.594869
2593.008119,-612.876398,-222.061783,9030.512492
2593.008448,-536.266849,296.082377,9474.636058
2593.008777,-1072.533697,370.102971,9104.533087
2593.009107,-1072.533697,592.164754,9104.533087
2593.009436,-919.314598,-0.000000,9474.636058
2593.009765,-919.314598,-592.164754,9548.656652
2593.010094,0.000000,-666.185348,9326.594869
2593.010424,-229.828649,-888.247130,9178.553681
2593.010753,-919.314598,-740.205942,8734.430116
2593.011082,-766.095498,-296.082377,9030.512492
2593.011411,-689.485948,-444.123565,8808.450710
2593.011741,-306.438199,-148.041188,8586.388927
2593.012070,-383.047749,-148.041188,8660.409521
2593.012399,-1378.971896,-296.082377,9030.512492
2593.012728,0.000000,-0.000000,9178.553681
2593.013057,-306.438199,666.185348,8290.306550
2593.013387,-995.924147,222.061783,8734.430116
2593.013716,-306.438199,-296.082377,9696.697840
2593.014045,-383.047749,-518.144159,9548.656652
2593.014374,-536.266849,-148.041188,8956.491898
2593.014704,-689.485948,-740.205942,8882.471304
2593.015033,-459.657299,-0.000000,9474.636058
2593.015362,0.000000,-0.000000,8660.409521
2593.015691,-612.876398,-444.123565,8512.368333
2593.016021,-153.219100,-814.226536,9474.636058
2593.016350,459.657299,-296.082377,10066.800811
2593.016679,229.828649,-592.164754,9548.656652
2593.017008,766.095498,296.082377,8512.368333
2593.017337,536.266849,-740.205942,9326.594869
2593.017667,1532.190996,-148.041188,9104.533087
2593.017996,2451.505594,-148.041188,9030.512492
2593.018325,2604.724693,222.061783,8364.327145
2593.018654,2528.115143,666.185348,8290.306550
2593.018984,2604.724693,888.247130,8882.471304
2593.019313,1608.800546,888.247130,8142.265362
2593.019642,1685.410096,592.164754,8882.471304
2593.019971,459.657299,-296.082377,9696.697840
2593.020301,612.876398,-666.185348,9622.677246
2593.020630,459.657299,-444.123565,9474.636058
2593.020959,536.266849,-592.164754,9178.553681
2593.021288,536.266849,-666.185348,9252.574275
2593.021617,1072.533697,-814.226536,9400.615463
2593.021947,1762.019645,-666.185348,9326.594869
2593.022276,2451.505594,-518.144159,9104.533087
2593.022605,2911.162892,296.082377,8142.265362
2593.022934,2681.334243,1184.329507,7920.203579
2593.023264,1915.238745,1332.370696,8068.244768
2593.023593,1378.971896,1332.370696,8808.450710
2593.023922,842.705048,962.267725,8882.471304
2593.024251,0.000000,296.082377,9474.636058
2593.024581,153.219100,-666.185348,9844.739029
2593.024910,-459.657299,-962.267725,9622.677246
2593.025239,-919.314598,-1332.370696,9474.636058
2593.025568,-995.924147,-1184.329507,9326.594869
2593.025897,-612.876398,-1554.432478,9696.697840
2593.026227,-689.485948,-1628.453072,9770.718434
2593.026556,0.000000,-1036.288319,9104.533087
2593.026885,-306.438199,-1406.391290,9474.636058
2593.027214,0.000000,-0.000000,8512.368333
2593.027544,229.828649,592.164754,8290.306550
2593.027873,153.219100,666.185348,8956.491898
2593.028202,0.000000,518.144159,8882.471304
2593.028531,-153.219100,222.061783,9326.594869
2593.028861,0.000000,592.164754,8216.285956
2593.029190,0.000000,-0.000000,9104.533087
2593.029519,-536.266849,-222.061783,8808.450710
2593.029848,-995.924147,-74.020594,8808.450710
2593.030177,-842.705048,-1258.350101,9474.636058
2593.030507,-689.485948,-1332.370696,9030.512492
2593.030836,-612.876398,-740.205942,9178.553681
2593.031165,-1072.533697,-1110.308913,9178.553681
2593.031494,-1532.190996,148.041188,8660.409521
2593.031824,-1149.143247,-296.082377,9178.553681
2593.032153,-612.876398,148.041188,8808.450710
2593.032482,-536.266849,-444.123565,9474.636058
2593.032811,-689.485948,-0.000000,9178.553681
2593.033141,-612.876398,-0.000000,8882.471304
2593.033470,-612.876398,-148.041188,8882.471304
2593.033799,0.000000,-296.082377,9400.615463
2593.034128,459.657299,-592.164754,9400.615463
2593.034457,229.828649,-1332.370696,9474.636058
2593.034787,459.657299,-1036.288319,9474.636058
2593.035116,153.219100,-888.247130,9178.553681
2593.035445,383.047749,-518.144159,9400.615463
2593.035774,306.438199,-0.000000,8364.327145
2593.036104,1225.752797,444.123565,9252.574275
2593.036433,1149.143247,518.144159,8586.388927
2593.036762,1608.800546,296.082377,8660.409521
2593.037091,2145.067394,666.185348,8882.471304
2593.037421,1915.238745,740.205942,8216.285956
2593.037750,1302.362347,444.123565,8586.388927
2593.038079,1072.533697,-0.000000,9474.636058
2593.038408,1149.143247,-370.102971,9696.697840
2593.038737,995.924147,-1036.288319,9992.780217
2593.039067,1378.971896,-814.226536,9696.697840
2593.039396,919.314598,-1036.288319,9178.553681
2593.039725,459.657299,-148.041188,9178.553681
2593.040054,612.876398,222.061783,9104.533087
2593.040384,919.314598,-0.000000,9548.656652
2593.040713,766.095498,-74.020594,9696.697840
2593.041042,1608.800546,-0.000000,9326.594869
2593.041371,1302.362347,-0.000000,8734.430116
2593.041701,1991.848295,-0.000000,8734.430116
2593.042030,2068.457845,-0.000000,8512.368333
2593.042359,2221.676944,-296.082377,7994.224174
2593.042688,2834.553343,-0.000000,8290.306550
2593.043017,2451.505594,666.185348,8882.471304
2593.043347,2145.067394,148.041188,7846.182985
2593.043676,1685.410096,444.123565,7920.203579
2593.044005,995.924147,666.185348,9178.553681
2593.044334,153.219100,-592.164754,9696.697840
2593.044664,76.609550,-666.185348,9696.697840
2593.044993,-383.047749,-1110.308913,8956.491898
2593.045322,-459.657299,-1184.329507,9400.615463
2593.045651,-153.219100,-888.247130,9104.533087
2593.045981,-306.438199,-888.247130,8660.409521
2593.046310,-383.047749,-888.247130,9474.636058
2593.046639,536.266849,-1110.308913,9326.594869
2593.046968,459.657299,-1184.329507,8882.471304
2593.047297,459.657299,-296.082377,8882.471304
2593.047627,153.219100,296.082377,8216.285956
2593.047956,0.000000,296.082377,8364.327145
2593.048285,0.000000,592.164754,8956.491898
2593.048614,-153.219100,296.082377,9326.594869
2593.048944,-689.485948,-74.020594,9178.553681
2593.049273,-842.705048,-370.102971,9400.615463
2593.049602,-536.266849,-222.061783,8808.450710
2593.049931,-919.314598,-444.123565,8956.491898
2593.050261,-1302.362347,-296.082377,9326.594869
2593.050590,-536.266849,-1110.308913,9918.759623
2593.050919,-766.095498,-962.267725,9474.636058
2593.051248,-1378.971896,-1332.370696,9696.697840
2593.051577,-1302.362347,-370.102971,9030.512492
2593.051907,-1608.800546,-592.164754,9252.574275
2593.052236,-1149.143247,74.020594,8882.471304
2593.052565,-766.095498,-0.000000,9326.594869
2593.052894,-919.314598,518.144159,9474.636058
2593.053224,-459.657299,148.041188,9104.533087
2593.053553,-229.828649,814.226536,8808.450710
2593.053882,-459.657299,-0.000000,8660.409521
2593.054211,-612.876398,-0.000000,8956.491898
2593.054541,76.609550,-444.123565,9548.656652
2593.054870,536.266849,-370.102971,9104.533087
2593.055199,1149.143247,-518.144159,8956.491898
2593.055528,919.314598,370.102971,8586.388927
2593.055858,766.095498,740.205942,8068.244768
2593.056187,842.705048,444.123565,8364.327145
2593.056516,459.657299,370.102971,8808.450710
2593.056845,306.438199,-296.082377,9030.512492
2593.057174,153.219100,-444.123565,9622.677246
2593.057504,-459.657299,-444.123565,9474.636058
2593.057833,0.000000,-666.185348,9474.636058
2593.058162,0.000000,-666.185348,9474.636058
2593.058491,536.266849,-888.247130,10066.800811
2593.058821,1608.800546,-518.144159,9548.656652
2593.059150,2604.724693,-814.226536,8882.471304
2593.059479,2987.772442,296.082377,9104.533087
2593.059808,3140.991542,518.144159,7328.038826
2593.060138,3294.210641,1258.350101,8068.244768
2593.060467,2451.505594,1110.308913,8512.368333
2593.060796,2145.067394,518.144159,9104.533087
2593.061125,1685.410096,-148.041188,9252.574275
2593.061454,919.314598,-296.082377,8956.491898
2593.061784,919.314598,-518.144159,9548.656652
2593.062113,612.876398,-1406.391290,8956.491898
2593.062442,306.438199,-666.185348,10214.842000
2593.062771,229.828649,-444.123565,10288.862594
2593.063101,1072.533697,-740.205942,9622.677246
2593.063430,1378.971896,-0.000000,9400.615463
2593.063759,919.314598,666.185348,8512.368333
2593.064088,919.314598,1036.288319,8068.244768
2593.064418,995.924147,962.267725,8438.347739
2593.064747,1302.362347,1406.391290,8290.306550
2593.065076,536.266849,-0.000000,9326.594869
2593.065405,-229.828649,-74.020594,8956.491898
2593.065734,-612.876398,-444.123565,9104.533087
2593.066064,-1225.752797,-666.185348,9252.574275
2593.066393,-995.924147,-1184.329507,9178.553681
2593.066722,-612.876398,-888.247130,9844.739029
2593.067051,306.438199,-666.185348,10362.883188
2593.067381,76.609550,-222.061783,8882.471304
2593.067710,689.485948,222.061783,8734.430116
2593.068039,766.095498,1036.288319,7846.182985
2593.068368,689.485948,1776.494261,7772.162391
2593.068698,76.609550,666.185348,8734.430116
2593.069027,0.000000,-666.185348,10362.883188
2593.069356,-612.876398,-296.082377,9030.512492
2593.069685,-1302.362347,-518.144159,8586.388927
2593.070014,-1762.019645,-814.226536,9030.512492
2593.070344,-1608.800546,-1110.308913,10140.821405
2593.070673,-2068.457845,-962.267725,9696.697840
2593.071002,-612.876398,-1850.514855,9178.553681
2593.071331,-383.047749,-1924.535449,9696.697840
2593.071661,-1149.143247,-1110.308913,9326.594869
2593.071990,-1302.362347,-592.164754,9252.574275
2593.072319,-919.314598,-370.102971,9326.594869
2593.072648,-1072.533697,592.164754,8882.471304
2593.072978,-306.438199,592.164754,9326.594869
2593.073307,-459.657299,148.041188,9104.533087
2593.073636,0.000000,-74.020594,8808.450710
2593.073965,612.876398,-222.061783,8734.430116
2593.074294,0.000000,-0.000000,8290.306550
2593.074624,-153.219100,-296.082377,8882.471304
2593.074953,229.828649,-1036.288319,9252.574275
2593.075282,459.657299,-666.185348,9252.574275
2593.075611,919.314598,-666.185348,9030.512492
2593.075941,383.047749,-592.164754,8142.265362
2593.076270,1378.971896,148.041188,8216.285956
2593.076599,995.924147,592.164754,8142.265362
2593.076928,842.705048,444.123565,8734.430116
2593.077258,536.266849,222.061783,9104.533087
2593.077587,766.095498,-0.000000,9696.697840
2593.077916,766.095498,222.061783,9326.594869
2593.078245,766.095498,-444.123565,8734.430116
2593.078574,1302.362347,-666.185348,8808.450710
2593.078904,842.705048,-222.061783,9548.656652
2593.079233,1915.238745,-814.226536,9178.553681
2593.079562,2298.286494,-1110.308913,8808.450710
2593.079891,2221.676944,-592.164754,8586.388927
2593.080221,2068.457845,-74.020594,8586.388927
2593.080550,2145.067394,296.082377,8734.430116
2593.080879,1378.971896,444.123565,9030.512492
2593.081208,1072.533697,592.164754,9844.739029
2593.081538,459.657299,-0.000000,9918.759623
2593.081867,383.047749,-0.000000,9770.718434
2593.082196,689.485948,296.082377,9474.636058
2593.082525,383.047749,-0.000000,9178.553681
2593.082854,1149.143247,-740.205942,10066.800811
2593.083184,1915.238745,-1406.391290,10214.842000
2593.083513,1838.629195,-592.164754,9844.739029
2593.083842,1685.410096,-444.123565,9104.533087
2593.084171,1762.019645,-0.000000,8290.306550
2593.084501,2068.457845,740.205942,7994.224174
2593.084830,1838.629195,962.267725,8586.388927
2593.085159,1608.800546,518.144159,8956.491898
2593.085488,766.095498,222.061783,9474.636058
2593.085818,383.047749,-74.020594,9474.636058
2593.086147,-383.047749,-296.082377,9474.636058
2593.086476,-536.266849,-222.061783,8956.491898
2593.086805,-1302.362347,-370.102971,9474.636058
2593.087134,-459.657299,-444.123565,9548.656652
2593.087464,-536.266849,-1258.350101,9104.533087
2593.087793,-153.219100,-888.247130,9104.533087
2593.088122,-536.266849,-518.144159,8882.471304
2593.088451,-306.438199,-74.020594,8142.265362
2593.088781,-383.047749,-0.000000,7772.162391
2593.089110,-612.876398,444.123565,8586.388927
2593.089439,-766.095498,-222.061783,8438.347739
2593.089768,-919.314598,-74.020594,8882.471304
2593.090098,-766.095498,74.020594,8882.471304
2593.090427,-842.705048,-222.061783,8808.450710
2593.090756,-1072.533697,-518.144159,8956.491898
2593.091085,-919.314598,-592.164754,9326.594869
2593.091414,-612.876398,-888.247130,9622.677246
2593.091744,-229.828649,-814.226536,9104.533087
2593.092073,-536.266849,-814.226536,9548.656652
2593.092402,0.000000,-296.082377,8586.388927
2593.092731,0.000000,370.102971,8290.306550
2593.093061,0.000000,740.205942,8956.491898
2593.093390,0.000000,592.164754,9252.574275
2593.093719,-229.828649,148.041188,9030.512492
2593.094048,-459.657299,-74.020594,9326.594869
2593.094377,-919.314598,-222.061783,9178.553681
2593.094707,-153.219100,-814.226536,9400.615463
2593.095036,-612.876398,-962.267725,9252.574275
2593.095365,-383.047749,-814.226536,9918.759623
2593.095694,459.657299,-1110.308913,9770.718434
2593.096023,536.266849,-592.164754,9474.636058
2593.096352,1072.533697,-74.020594,9326.594869
2593.096681,842.705048,-296.082377,8216.285956
2593.097011,1225.752797,518.144159,7994.224174
2593.097340,1149.143247,1184.329507,9104.533087
2593.097669,612.876398,814.226536,8956.491898
2593.097998,612.876398,222.061783,9178.553681
2593.098327,612.876398,-148.041188,9326.594869
2593.098656,1225.752797,-296.082377,8734.430116
2593.098985,536.266849,-666.185348,8808.450710
2593.099315,1302.362347,-1480.411884,9400.615463
2593.099644,1608.800546,-888.247130,9104.533087
2593.099973,1991.848295,-592.164754,9474.636058
2593.100302,1991.848295,-370.102971,9178.553681
2593.100631,2068.457845,296.082377,8438.347739
2593.100960,2451.505594,444.123565,8364.327145
2593.101289,2374.896044,370.102971,7920.203579
2593.101619,2068.457845,666.185348,9104.533087
2593.101948,1991.848295,222.061783,9030.512492
2593.102277,1532.190996,-0.000000,9178.553681
2593.102606,1149.143247,-0.000000,9030.512492
2593.102935,1149.143247,-0.000000,8586.388927
2593.103264,919.314598,-592.164754,9770.718434
2593.103593,842.705048,-1332.370696,9918.759623
2593.103923,766.095498,-1036.288319,9400.615463
2593.104252,1225.752797,-518.144159,8808.450710
2593.104581,1149.143247,-518.144159,8882.471304
2593.104910,383.047749,296.082377,8882.471304
2593.105239,536.266849,222.061783,8734.430116
2593.105568,612.876398,-0.000000,8660.409521
2593.105897,0.000000,-222.061783,9030.512492
2593.106227,-306.438199,-148.041188,9622.677246
2593.106556,-1072.533697,-74.020594,9400.615463
2593.106885,-995.924147,-370.102971,8956.491898
2593.107214,-1072.533697,-888.247130,9104.533087
2593.107543,-842.705048,-1110.308913,9696.697840
2593.107872,0.000000,-1184.329507,9622.677246
2593.108201,0.000000,-0.000000,9400.615463
2593.108531,0.000000,-592.164754,9104.533087
2593.108860,459.657299,148.041188,8586.388927
2593.109189,689.485948,1036.288319,7624.121203
2593.109518,459.657299,1036.288319,8216.285956
2593.109847,229.828649,518.144159,8734.430116
2593.110176,-306.438199,-0.000000,8734.430116
2593.110505,-383.047749,-74.020594,9252.574275
2593.110835,-459.657299,-0.000000,8290.306550
2593.111164,-1225.752797,-74.020594,8956.491898
2593.111493,-1378.971896,-1258.350101,9104.533087
2593.111822,-1072.533697,-1036.288319,9770.718434
2593.112151,-689.485948,-888.247130,9474.636058
2593.112480,-1149.143247,-962.267725,9474.636058
2593.112809,-1685.410096,-592.164754,9622.677246
2593.113139,-919.314598,-592.164754,9326.594869
2593.113468,-919.314598,444.123565,9030.512492
2593.113797,-612.876398,-0.000000,9622.677246
2593.114126,-612.876398,296.082377,8882.471304
2593.114455,-306.438199,222.061783,8956.491898
2593.114784,0.000000,148.041188,9474.636058
2593.115113,-689.485948,-0.000000,8882.471304
2593.115443,306.438199,-666.185348,9030.512492
2593.115772,536.266849,-592.164754,9770.718434
2593.116101,536.266849,-592.164754,9326.594869
2593.116430,995.924147,-740.205942,9474.636058
2593.116759,1302.362347,296.082377,8068.244768
2593.117088,1072.533697,-222.061783,7698.141797
2593.117417,1149.143247,1110.308913,9104.533087
2593.117747,1608.800546,814.226536,8068.244768
2593.118076,1072.533697,-296.082377,9474.636058
2593.118405,842.705048,666.185348,9770.718434
2593.118734,1302.362347,-814.226536,9844.739029
2593.119063,536.266849,-0.000000,8956.491898
2593.119392,766.095498,370.102971,8882.471304
2593.119721,995.924147,-444.123565,9178.553681
2593.120051,1838.629195,-888.247130,9178.553681
2593.120380,1991.848295,-814.226536,9326.594869
2593.120709,2145.067394,-518.144159,8734.430116
2593.121038,1991.848295,-0.000000,8438.347739
2593.121367,1762.019645,444.123565,7698.141797
2593.121696,1455.581446,592.164754,8512.368333
2593.122025,919.314598,592.164754,8956.491898
2593.122355,612.876398,-148.041188,9548.656652
2593.122684,612.876398,-74.020594,9252.574275
2593.123013,76.609550,-148.041188,9548.656652
2593.123342,-612.876398,-1036.288319,9400.615463
2593.123671,0.000000,-962.267725,9252.574275
2593.124000,229.828649,-888.247130,9474.636058
2593.124329,995.924147,-962.267725,9252.574275
2593.124659,2374.896044,-444.123565,8438.347739
2593.124988,2451.505594,-0.000000,8216.285956
2593.125317,2451.505594,222.061783,8068.244768
2593.125646,1532.190996,592.164754,7846.182985
2593.125975,1225.752797,740.205942,8512.368333
2593.126304,842.705048,222.061783,9326.594869
2593.126633,76.609550,-222.061783,9104.533087
2593.126963,383.047749,-444.123565,9474.636058
2593.127292,-459.657299,-1036.288319,9400.615463
2593.127621,-306.438199,-1480.411884,9770.718434
2593.127950,-612.876398,-296.082377,9178.553681
2593.128279,-689.485948,-1036.288319,9622.677246
2593.128608,-229.828649,-1628.453072,10140.821405
2593.128937,-306.438199,-370.102971,9178.553681
2593.129267,0.000000,-74.020594,8586.388927
2593.129596,0.000000,666.185348,8142.265362
2593.129925,-459.657299,222.061783,8734.430116
2593.130254,-459.657299,1036.288319,9104.533087
2593.130583,-766.095498,370.102971,9104.533087
2593.130912,-842.705048,-0.000000,9252.574275
2593.131241,-995.924147,370.102971,8882.471304
2593.131571,-612.876398,-0.000000,8882.471304
2593.131900,-995.924147,-666.185348,9474.636058
2593.132229,-612.876398,-518.144159,9178.553681
2593.132558,-306.438199,-1258.350101,9918.759623
2593.132887,-689.485948,-1184.329507,9548.656652
2593.133216,-1072.533697,-0.000000,8734.430116
2593.133545,-1072.533697,-518.144159,9030.512492
2593.133875,-1225.752797,-296.082377,8734.430116
2593.134204,0.000000,-0.000000,9326.594869
2593.134533,-383.047749,-222.061783,9252.574275
2593.134862,153.219100,518.144159,8956.491898
2593.135191,153.219100,-0.000000,8882.471304
2593.135520,536.266849,1332.370696,8290.306550
2593.135849,306.438199,-0.000000,8956.491898
2593.136179,459.657299,-740.205942,9548.656652
2593.136508,306.438199,-518.144159,9178.553681
2593.136837,612.876398,-962.267725,9326.594869
2593.137166,842.705048,-1332.370696,8660.409521
2593.137495,153.219100,-148.041188,8512.368333
2593.137824,0.000000,-148.041188,8956.491898
2593.138153,-153.219100,-0.000000,9474.636058
2593.138483,0.000000,-222.061783,9474.636058
2593.138812,0.000000,-222.061783,9844.739029
2593.139141,459.657299,-0.000000,10140.821405
2593.139470,153.219100,-222.061783,9326.594869
2593.139799,229.828649,-370.102971,9474.636058
2593.140128,995.924147,-148.041188,9400.615463
2593.140457,2221.676944,-0.000000,9252.574275
2593.140787,2528.115143,-148.041188,9030.512492
2593.141116,2911.162892,370.102971,8956.491898
2593.141445,3294.210641,370.102971,7624.121203
2593.141774,2528.115143,888.247130,7772.162391
2593.142103,2451.505594,962.267725,8364.327145
2593.142432,1915.238745,740.205942,8956.491898
2593.142761,1532.190996,296.082377,9326.594869
2593.143091,689.485948,-222.061783,9400.615463
2593.143420,842.705048,222.061783,9770.718434
2593.143749,689.485948,-370.102971,9474.636058
2593.144078,0.000000,-74.020594,9474.636058
2593.144407,919.314598,-296.082377,9474.636058
2593.144736,1378.971896,-666.185348,9178.553681
2593.145065,1762.019645,-370.102971,8808.450710
2593.145395,1455.581446,-0.000000,8512.368333
2593.145724,1762.019645,-0.000000,8216.285956
2593.146053,1072.533697,-0.000000,8734.430116
2593.146382,76.609550,148.041188,9326.594869
2593.146711,0.000000,-74.020594,9400.615463
2593.147040,-459.657299,-592.164754,9474.636058
2593.147369,-612.876398,-222.061783,9548.656652
2593.147699,-766.095498,-296.082377,9252.574275
2593.148028,-306.438199,-1258.350101,9474.636058
2593.148357,0.000000,-740.205942,10214.842000
2593.148686,153.219100,-1628.453072,9844.739029
2593.149015,153.219100,-962.267725,9104.533087
2593.149344,536.266849,222.061783,8882.471304
2593.149673,766.095498,296.082377,8512.368333
2593.150003,306.438199,962.267725,8068.244768
2593.150332,919.314598,370.102971,9104.533087
2593.150661,-153.219100,-74.020594,8438.347739
2593.150990,-766.095498,-296.082377,9400.615463
2593.151319,-766.095498,-370.102971,9326.594869
2593.151648,-1225.752797,-518.144159,8660.409521
2593.151977,-1685.410096,-962.267725,9178.553681
2593.152307,-1378.971896,-592.164754,9474.636058
2593.152636,-842.705048,-814.226536,9474.636058
2593.152965,-1072.533697,-1184.329507,9474.636058
2593.153294,-383.047749,-814.226536,9104.533087
2593.153623,-383.047749,-0.000000,8660.409521
2593.153952,-536.266849,444.123565,8068.244768
2593.154281,-459.657299,888.247130,7994.224174
2593.154611,-229.828649,1110.308913,8438.347739
2593.154940,-536.266849,-148.041188,9326.594869
2593.155269,-612.876398,-222.061783,9252.574275
2593.155598,-689.485948,-296.082377,8364.327145
2593.155927,-1302.362347,-814.226536,9030.512492
2593.156256,-1302.362347,-1258.350101,9474.636058
2593.156585,-995.924147,-1332.370696,9474.636058
2593.156914,229.828649,-1332.370696,10066.800811
2593.157244,612.876398,-666.185348,9844.739029
2593.157573,995.924147,-444.123565,9474.636058
2593.157902,1302.362347,666.185348,7994.224174
2593.158231,1838.629195,1036.288319,8068.244768
2593.158560,1838.629195,1184.329507,8734.430116
2593.158889,1532.190996,740.205942,9104.533087
2593.159218,1302.362347,370.102971,9104.533087
2593.159548,1455.581446,-296.082377,9474.636058
2593.159877,766.095498,-222.061783,8734.430116
2593.160206,76.609550,-1036.288319,9252.574275
2593.160535,153.219100,-1184.329507,9622.677246
2593.160864,612.876398,-1480.411884,9918.759623
2593.161193,1455.581446,-1110.308913,9844.739029
2593.161522,1608.800546,-1036.288319,9030.512492
2593.161852,1685.410096,-74.020594,9178.553681
2593.162181,1915.238745,666.185348,8290.306550
2593.162510,2145.067394,1184.329507,8586.388927
2593.162839,2068.457845,1036.288319,9326.594869
2593.163168,1455.581446,814.226536,9252.574275
2593.163497,1302.362347,962.267725,9104.533087
2593.163826,1225.752797,148.041188,8734.430116
2593.164156,612.876398,-296.082377,8734.430116
2593.164485,842.705048,-666.185348,9252.574275
2593.164814,919.314598,-1036.288319,9400.615463
2593.165143,1149.143247,-1480.411884,9178.553681
2593.165472,919.314598,-1110.308913,8808.450710
2593.165801,995.924147,-666.185348,9030.512492
2593.166130,306.438199,-370.102971,8734.430116
2593.166460,536.266849,296.082377,9326.594869
2593.166789,919.314598,666.185348,8808.450710
2593.167118,842.705048,592.164754,9548.656652
2593.167447,919.314598,370.102971,9474.636058
2593.167776,689.485948,740.205942,9178.553681
2593.168105,459.657299,296.082377,8808.450710
2593.168434,919.314598,-0.000000,8882.471304
2593.168764,536.266849,-148.041188,8956.491898
2593.169093,153.219100,-592.164754,9474.636058
2593.169422,1302.362347,-1036.288319,9030.512492
2593.169751,536.266849,-444.123565,8364.327145
2593.170080,766.095498,-222.061783,8438.347739
2593.170409,76.609550,222.061783,8586.388927
2593.170738,-995.924147,296.082377,9104.533087
2593.171068,-1072.533697,-444.123565,9918.759623
2593.171397,-1302.362347,-0.000000,9696.697840
2593.171726,-842.705048,-518.144159,10288.862594
2593.172055,-995.924147,-518.144159,9252.574275
2593.172384,-1532.190996,-518.144159,9474.636058
2593.172713,-1455.581446,-740.205942,9622.677246
2593.173042,-612.876398,-592.164754,9918.759623
2593.173372,-842.705048,-962.267725,9474.636058
2593.173701,76.609550,-222.061783,9326.594869
2593.174030,229.828649,-296.082377,8660.409521
2593.174359,306.438199,1110.308913,7994.224174
2593.174688,0.000000,1184.329507,8142.265362
2593.175017,76.609550,592.164754,8956.491898
2593.175346,-536.266849,-74.020594,9030.512492
2593.175676,-689.485948,-148.041188,8882.471304
2593.176005,-1302.362347,-814.226536,9104.533087
2593.176334,-1149.143247,-518.144159,8956.491898
2593.176663,-1225.752797,-518.144159,8882.471304
2593.176992,-842.705048,-814.226536,9622.677246
2593.177321,-689.485948,-1184.329507,9474.636058
2593.177650,0.000000,-962.267725,9548.656652
2593.177980,153.219100,-0.000000,9474.636058
2593.178309,76.609550,-296.082377,8216.285956
2593.178638,612.876398,-0.000000,8216.285956
2593.178967,459.657299,814.226536,8734.430116
2593.179296,766.095498,962.267725,9104.533087
2593.179625,536.266849,296.082377,9252.574275
2593.179954,612.876398,-0.000000,8956.491898
2593.180284,612.876398,-814.226536,9104.533087
2593.180613,306.438199,-1036.288319,8808.450710
2593.180942,0.000000,-1110.308913,9622.677246
2593.181271,995.924147,-1258.350101,9622.677246
2593.181600,1685.410096,-740.205942,9474.636058
2593.181929,1762.019645,-0.000000,9104.533087
2593.182258,2068.457845,370.102971,8512.368333
2593.182588,1915.238745,518.144159,8142.265362
2593.182917,2298.286494,370.102971,8956.491898
2593.183246,1915.238745,592.164754,9178.553681
2593.183575,1685.410096,296.082377,9030.512492
2593.183904,1302.362347,-0.000000,9326.594869
2593.184233,1072.533697,-0.000000,9474.636058
2593.184562,689.485948,-74.020594,8882.471304
2593.184892,383.047749,-1110.308913,9400.615463
2593.185221,383.047749,-1258.350101,9844.739029
2593.185550,919.314598,-1110.308913,9844.739029
2593.185879,1455.581446,-888.247130,9178.553681
2593.186208,1685.410096,-0.000000,8660.409521
2593.186537,1455.581446,740.205942,8586.388927
2593.186866,1302.362347,666.185348,8438.347739
2593.187196,842.705048,740.205942,9104.533087
2593.187525,306.438199,-0.000000,9326.594869
2593.187854,306.438199,-222.061783,9030.512492
2593.188183,0.000000,-222.061783,8808.450710
2593.188512,-229.828649,-444.123565,8956.491898
2593.188841,-306.438199,-222.061783,9030.512492
2593.189170,-306.438199,-740.205942,9474.636058
2593.189500,0.000000,-962.267725,9474.636058
2593.189829,76.609550,-740.205942,9474.636058
2593.190158,689.485948,-1110.308913,8660.409521
2593.190487,459.657299,-74.020594,7994.224174
2593.190816,0.000000,296.082377,8290.306550
2593.191145,153.219100,222.061783,8660.409521
2593.191474,0.000000,444.123565,8808.450710
2593.191804,-153.219100,-74.020594,9474.636058
2593.192133,-306.438199,-148.041188,8956.491898
2593.192462,-919.314598,-74.020594,8956.491898
2593.192791,-919.314598,-222.061783,9326.594869
2593.193120,-995.924147,-370.102971,9474.636058
2593.193449,-842.705048,-740.205942,9400.615463
2593.193778,-766.095498,-1036.288319,9770.718434
2593.194108,-306.438199,-518.144159,9030.512492
2593.194437,-536.266849,-148.041188,9030.512492
2593.194766,-689.485948,444.123565,7920.203579
2593.195095,-1149.143247,-74.020594,9252.574275
2593.195424,-1225.752797,-444.123565,10510.924376
2593.195753,-1302.362347,-74.020594,9104.533087
2593.196082,-995.924147,-666.185348,9326.594869
2593.196412,-2068.457845,-370.102971,8882.471304
2593.196741,-1149.143247,-444.123565,9992.780217
2593.197070,-842.705048,-1258.350101,10584.944971
2593.197399,-1378.971896,-888.247130,9918.759623
2593.197728,0.000000,-814.226536,9474.636058
2593.198057,229.828649,-666.185348,8956.491898
2593.198386,995.924147,592.164754,8882.471304
2593.198715,2374.896044,962.267725,7698.141797
2593.199044,1455.581446,1480.411884,7254.018232
2593.199373,2451.505594,1184.329507,8216.285956
2593.199702,1685.410096,666.185348,8438.347739
2593.200031,1302.362347,296.082377,8512.368333
2593.200360,995.924147,-0.000000,9178.553681
2593.200689,536.266849,-296.082377,8956.491898
2593.201018,153.219100,-1110.308913,9030.512492
2593.201348,153.219100,-1332.370696,9622.677246
2593.201677,536.266849,-1480.411884,10362.883188
2593.202006,766.095498,-1258.350101,9992.780217
2593.202335,1915.238745,-592.164754,8882.471304
2593.202664,1915.238745,444.123565,8364.327145
2593.202993,2221.676944,888.247130,8216.285956
2593.203322,2604.724693,1036.288319,8290.306550
2593.203651,2145.067394,1184.329507,8882.471304
2593.203980,995.924147,518.144159,9104.533087
2593.204309,1072.533697,-222.061783,9548.656652
2593.204638,536.266849,-222.061783,9030.512492
2593.204967,229.828649,-740.205942,9474.636058
2593.205296,0.000000,-1332.370696,9696.697840
2593.205625,76.609550,-1480.411884,10362.883188
2593.205955,995.924147,-1628.453072,9844.739029
2593.206284,1455.581446,-740.205942,9400.615463
2593.206613,1532.190996,148.041188,9400.615463
2593.206942,1685.410096,592.164754,8290.306550
2593.207271,1608.800546,1110.308913,8808.450710
2593.207600,1991.848295,888.247130,8512.368333
2593.207929,1762.019645,666.185348,8216.285956
2593.208258,229.828649,296.082377,9400.615463
2593.208587,0.000000,-0.000000,8956.491898
2593.208916,0.000000,-222.061783,8956.491898
2593.209245,-612.876398,-962.267725,8438.347739
2593.209574,-766.095498,-888.247130,9696.697840
2593.209903,-766.095498,-2368.659014,9770.718434
2593.210232,-689.485948,-1110.308913,8956.491898
2593.210561,0.000000,-1036.288319,8956.491898
2593.210891,0.000000,-0.000000,8290.306550
2593.211220,-842.705048,888.247130,8808.450710
2593.211549,-229.828649,592.164754,8808.450710
2593.211878,0.000000,962.267725,8660.409521
2593.212207,-306.438199,222.061783,8956.491898
2593.212536,0.000000,296.082377,8660.409521
2593.212865,-612.876398,-0.000000,9178.553681
2593.213194,-1225.752797,-666.185348,8956.491898
2593.213523,-919.314598,-962.267725,9252.574275
2593.213852,-766.095498,-1258.350101,9770.718434
2593.214181,-612.876398,-1036.288319,9474.636058
2593.214510,-612.876398,-962.267725,9326.594869
2593.214839,-383.047749,-370.102971,8734.430116
2593.215168,0.000000,-222.061783,8512.368333
2593.215498,229.828649,370.102971,8808.450710
2593.215827,-229.828649,148.041188,8808.450710
2593.216156,0.000000,-0.000000,9400.615463
2593.216485,-612.876398,148.041188,9178.553681
2593.216814,-842.705048,-148.041188,9474.636058
2593.217143,-842.705048,-592.164754,9178.553681
2593.217472,-1455.581446,-740.205942,9326.594869
2593.217801,-689.485948,-740.205942,9548.656652
2593.218130,-76.609550,-1184.329507,9992.780217
2593.218459,229.828649,-962.267725,9326.594869
2593.218788,383.047749,-0.000000,8660.409521
2593.219117,536.266849,592.164754,8512.368333
2593.219446,612.876398,814.226536,8586.388927
2593.219775,229.828649,592.164754,8956.491898
2593.220104,919.314598,518.144159,9104.533087
2593.220434,842.705048,-74.020594,9770.718434
2593.220763,536.266849,-296.082377,9104.533087
2593.221092,995.924147,-222.061783,8956.491898
2593.221421,536.266849,-222.061783,8882.471304
2593.221750,842.705048,-888.247130,9030.512492
2593.222079,2145.067394,-1184.329507,9326.594869
2593.222408,2068.457845,-444.123565,9104.533087
2593.222737,2528.115143,-0.000000,8808.450710
2593.223066,2528.115143,296.082377,8290.306550
2593.223395,2374.896044,518.144159,8216.285956
2593.223724,2068.457845,814.226536,8734.430116
2593.224053,1762.019645,222.061783,9104.533087
2593.224382,919.314598,-518.144159,9474.636058
2593.224711,689.485948,-296.082377,9770.718434
2593.225041,689.485948,-148.041188,9918.759623
2593.225370,459.657299,-592.164754,9252.574275
2593.225699,229.828649,-666.185348,9474.636058
2593.226028,919.314598,-888.247130,9918.759623
2593.226357,1532.190996,-1036.288319,9400.615463
2593.226686,2068.457845,-740.205942,8660.409521
2593.227015,1762.019645,-0.000000,8068.244768
2593.227344,2298.286494,814.226536,8364.327145
2593.227673,1838.629195,1184.329507,8068.244768
2593.228002,689.485948,740.205942,9178.553681
2593.228331,612.876398,222.061783,8734.430116
2593.228660,0.000000,-0.000000,9474.636058
2593.228989,-1378.971896,-962.267725,10658.965565
2593.229318,-1149.143247,-1480.411884,9326.594869
2593.229648,-1149.143247,-1036.288319,9400.615463
2593.229977,-995.924147,-814.226536,9474.636058
2593.230306,-612.876398,-740.205942,9770.718434
2593.230635,0.000000,-740.205942,9400.615463
2593.230964,612.876398,-0.000000,8956.491898
2593.231293,1225.752797,592.164754,8438.347739
2593.231622,766.095498,962.267725,7402.059420
2593.231951,-306.438199,1406.391290,7846.182985
2593.232280,153.219100,962.267725,8808.450710
2593.232609,-383.047749,222.061783,9178.553681
2593.232938,-766.095498,-0.000000,9030.512492
2593.233267,-612.876398,-370.102971,8808.450710
2593.233596,-1302.362347,-740.205942,9326.594869
2593.233925,-1608.800546,-1184.329507,9474.636058
2593.234254,-1149.143247,-1406.391290,9622.677246
2593.234584,-1378.971896,-1332.370696,9474.636058
2593.234913,-1302.362347,-666.185348,9326.594869
2593.235242,-995.924147,-296.082377,9474.636058
2593.235571,-842.705048,-0.000000,8882.471304
2593.235900,-1149.143247,666.185348,8808.450710
2593.236229,-842.705048,518.144159,9252.574275
2593.236558,-536.266849,296.082377,9400.615463
2593.236887,-612.876398,370.102971,9474.636058
2593.237216,0.000000,296.082377,9030.512492
2593.237545,-153.219100,-74.020594,8882.471304
2593.237874,76.609550,-962.267725,9178.553681
2593.238203,459.657299,-740.205942,9326.594869
2593.238532,842.705048,-1406.391290,9474.636058
2593.238861,1072.533697,-962.267725,9178.553681
2593.239191,1225.752797,-444.123565,9104.533087
2593.239520,842.705048,148.041188,8734.430116
2593.239849,1149.143247,740.205942,8586.388927
2593.240178,842.705048,592.164754,8586.388927
2593.240507,842.705048,222.061783,9622.677246
2593.240836,995.924147,-0.000000,9548.656652
2593.241165,612.876398,-296.082377,9178.553681
2593.241494,459.657299,-0.000000,8956.491898
2593.241823,536.266849,-0.000000,9178.553681
2593.242152,689.485948,-222.061783,9474.636058
2593.242481,1455.581446,-740.205942,9326.594869
2593.242810,2068.457845,-888.247130,9104.533087
2593.243139,2451.505594,-666.185348,8660.409521
2593.243468,1762.019645,-0.000000,8216.285956
2593.243797,2068.457845,592.164754,8364.327145
2593.244127,2068.457845,444.123565,8290.306550
2593.244456,1685.410096,592.164754,8734.430116
2593.244785,1762.019645,222.061783,9474.636058
2593.245114,1072.533697,-0.000000,9030.512492
2593.245443,1072.533697,296.082377,8882.471304
2593.245772,842.705048,-370.102971,9252.574275
2593.246101,1302.362347,-444.123565,9844.739029
2593.246430,1225.752797,-592.164754,10140.821405
2593.246759,1072.533697,-666.185348,9622.677246
2593.247088,1149.143247,-592.164754,9104.533087
2593.247417,1532.190996,-0.000000,9104.533087
2593.247746,1608.800546,-0.000000,8364.327145
2593.248075,1685.410096,444.123565,8438.347739
2593.248404,689.485948,1110.308913,8808.450710
2593.248734,995.924147,592.164754,8586.388927
2593.249063,229.828649,-592.164754,9844.739029
2593.249392,-306.438199,-1258.350101,9918.759623
2593.249721,-766.095498,222.061783,8882.471304
2593.250050,-536.266849,-1628.453072,8808.450710
2593.250379,-1149.143247,-296.082377,8956.491898
2593.250708,153.219100,-1110.308913,10955.047942
2593.251037,-306.438199,-1702.473667,9844.739029
2593.251366,0.000000,-222.061783,8438.347739
2593.251695,0.000000,-444.123565,8808.450710
2593.252024,0.000000,1110.308913,7624.121203
2593.252353,-306.438199,370.102971,8586.388927
2593.252682,0.000000,370.102971,8882.471304
2593.253011,-766.095498,-0.000000,8808.450710
2593.253340,-689.485948,-0.000000,9400.615463
2593.253670,-1302.362347,-518.144159,8956.491898
2593.253999,-1225.752797,-148.041188,8734.430116
2593.254328,-995.924147,-740.205942,9400.615463
2593.254657,-842.705048,-814.226536,9400.615463
2593.254986,-153.219100,-888.247130,9400.615463
2593.255315,-229.828649,-888.247130,9030.512492
2593.255644,229.828649,-0.000000,8734.430116
2593.255973,0.000000,148.041188,7772.162391
2593.256302,0.000000,814.226536,8364.327145
2593.256631,-229.828649,962.267725,8956.491898
2593.256960,-229.828649,222.061783,9474.636058
2593.257289,-383.047749,-0.000000,9104.533087
2593.257618,-842.705048,-0.000000,9326.594869
2593.257947,-689.485948,-666.185348,9252.574275
2593.258277,-766.095498,-814.226536,9696.697840
2593.258606,-459.657299,-962.267725,9474.636058
2593.258935,383.047749,-1036.288319,9622.677246
2593.259264,153.219100,-1184.329507,9326.594869
2593.259593,842.705048,-296.082377,9178.553681
2593.259922,1455.581446,-0.000000,8734.430116
2593.260251,1455.581446,740.205942,8142.265362
2593.260580,995.924147,962.267725,8882.471304
2593.260909,612.876398,962.267725,9474.636058
2593.261238,383.047749,-0.000000,9696.697840
2593.261567,383.047749,-0.000000,9696.697840
2593.261896,-76.609550,-0.000000,9548.656652
2593.262225,229.828649,-740.205942,9474.636058
2593.262554,383.047749,-666.185348,9696.697840
2593.262884,919.314598,-888.247130,9474.636058
2593.263213,1455.581446,-518.144159,9252.574275
2593.263542,1838.629195,-0.000000,8660.409521
2593.263871,2451.505594,-0.000000,8512.368333
2593.264200,2298.286494,518.144159,7846.182985
2593.264529,2451.505594,518.144159,8438.347739
2593.264858,2451.505594,-0.000000,9474.636058
2593.265187,1455.581446,-0.000000,8956.491898
2593.265516,766.095498,-0.000000,9030.512492
2593.265845,995.924147,-0.000000,9252.574275
2593.266174,229.828649,-592.164754,9030.512492
2593.266503,612.876398,-296.082377,9474.636058
2593.266832,1149.143247,-740.205942,9474.636058
2593.267161,1225.752797,-1184.329507,8660.409521
2593.267490,1455.581446,-814.226536,8438.347739
2593.267820,1149.143247,370.102971,8364.327145
2593.268149,919.314598,-0.000000,8142.265362
2593.268478,612.876398,814.226536,8290.306550
2593.268807,153.219100,-0.000000,8882.471304
2593.269136,0.000000,-74.020594,9178.553681
2593.269465,-536.266849,-1258.350101,9696.697840
2593.269794,-842.705048,-740.205942,9622.677246
2593.270123,-919.314598,-1036.288319,9474.636058
2593.270452,-766.095498,-962.267725,9696.697840
2593.270781,-306.438199,-740.205942,9844.739029
2593.271110,459.657299,-1184.329507,9474.636058
2593.271439,995.924147,-148.041188,8660.409521
2593.271768,1149.143247,444.123565,8808.450710
2593.272097,1455.581446,666.185348,7624.121203
2593.272427,1072.533697,1406.391290,7550.100608
2593.272756,459.657299,962.267725,8290.306550
2593.273085,0.000000,-0.000000,9104.533087
2593.273414,-842.705048,-592.164754,9918.759623
2593.273743,-1455.581446,-1110.308913,9326.594869
2593.274072,-2068.457845,-1332.370696,9992.780217
2593.274401,-2145.067394,-1332.370696,9770.718434
2593.274730,-1608.800546,-666.185348,9474.636058
2593.275059,-1378.971896,-814.226536,9992.780217
2593.275388,-995.924147,-962.267725,9696.697840
2593.275717,-766.095498,-592.164754,9696.697840
2593.276046,0.000000,-0.000000,8882.471304
2593.276375,-1149.143247,814.226536,8586.388927
2593.276704,0.000000,888.247130,8290.306550
2593.277033,0.000000,1258.350101,8512.368333
2593.277363,-153.219100,518.144159,9030.512492
2593.277692,-459.657299,-0.000000,9326.594869
2593.278021,-383.047749,-222.061783,9030.512492
2593.278350,-766.095498,-592.164754,9252.574275
2593.278679,-766.095498,-592.164754,8956.491898
2593.279008,-612.876398,-1850.514855,9622.677246
2593.279337,76.609550,-1110.308913,9548.656652
2593.279666,995.924147,-1332.370696,9178.553681
2593.279995,1149.143247,-0.000000,8364.327145
2593.280324,1378.971896,296.082377,8142.265362
2593.280653,1072.533697,1110.308913,8808.450710
2593.280982,689.485948,740.205942,8734.430116
2593.281311,995.924147,1036.288319,9622.677246
2593.281640,459.657299,-0.000000,9474.636058
2593.281970,612.876398,-592.164754,9770.718434
2593.282299,229.828649,-518.144159,9104.533087
2593.282628,842.705048,-888.247130,9400.615463
2593.282957,536.266849,-962.267725,9770.718434
2593.283286,1762.019645,-1110.308913,9400.615463
2593.283615,1762.019645,-592.164754,9252.574275
2593.283944,2528.115143,-0.000000,8216.285956
2593.284273,2221.676944,666.185348,8216.285956
2593.284602,1915.238745,814.226536,7624.121203
2593.284931,1608.800546,888.247130,8512.368333
2593.285260,995.924147,-0.000000,9104.533087
2593.285589,766.095498,-0.000000,9104.533087
2593.285918,842.705048,-222.061783,9178.553681
2593.286247,459.657299,-222.061783,9178.553681
2593.286576,229.828649,-370.102971,9474.636058
2593.286906,459.657299,-814.226536,9474.636058
2593.287235,1072.533697,-962.267725,9622.677246
2593.287564,1608.800546,-740.205942,9252.574275
2593.287893,2374.896044,-740.205942,8808.450710
2593.288222,2451.505594,-0.000000,8290.306550
2593.288551,2298.286494,814.226536,7846.182985
2593.288880,2221.676944,1184.329507,7846.182985
2593.289209,1685.410096,962.267725,7994.224174
2593.289538,1302.362347,518.144159,9104.533087
2593.289867,689.485948,-370.102971,9326.594869
2593.290196,-153.219100,-444.123565,9474.636058
2593.290525,-689.485948,-814.226536,9474.636058
2593.290854,-1149.143247,-518.144159,9474.636058
2593.291183,-1149.143247,-1110.308913,10066.800811
2593.291513,-766.095498,-962.267725,9844.739029
2593.291842,-536.266849,-1036.288319,9992.780217
2593.292171,-1225.752797,-740.205942,9622.677246
2593.292500,153.219100,74.020594,8956.491898
2593.292829,0.000000,962.267725,8586.388927
2593.293158,0.000000,592.164754,8734.430116
2593.293487,0.000000,666.185348,9104.533087
2593.293816,-383.047749,-0.000000,9474.636058
2593.294145,-1378.971896,-444.123565,9474.636058
2593.294474,-1455.581446,-296.082377,9400.615463
2593.294803,-1838.629195,-888.247130,9326.594869
2593.295131,-1838.629195,-1036.288319,9770.718434
2593.295460,-995.924147,-1110.308913,9844.739029
2593.295789,-306.438199,-1110.308913,9474.636058
2593.296118,0.000000,-0.000000,8882.471304
2593.296447,459.657299,148.041188,8734.430116
2593.296776,1225.752797,1110.308913,7624.121203
2593.297105,842.705048,888.247130,8438.347739
2593.297434,689.485948,1036.288319,8734.430116
2593.297763,229.828649,-0.000000,8808.450710
2593.298092,-229.828649,-0.000000,9326.594869
2593.298421,-459.657299,-222.061783,8882.471304
2593.298750,-1072.533697,-370.102971,8956.491898
2593.299079,-995.924147,-814.226536,9622.677246
2593.299408,-995.924147,-1258.350101,9770.718434
2593.299737,-306.438199,-1406.391290,9770.718434
2593.300066,-306.438199,-1258.350101,9400.615463
2593.300395,76.609550,-444.123565,8660.409521
2593.300723,229.828649,222.061783,8364.327145
2593.301052,919.314598,1258.350101,7328.038826
2593.301381,995.924147,518.144159,8882.471304
2593.301710,383.047749,-370.102971,9548.656652
2593.302039,536.266849,148.041188,9474.636058
2593.302368,689.485948,-740.205942,8956.491898
2593.302697,153.219100,-222.061783,8216.285956
2593.303026,612.876398,-666.185348,10066.800811
2593.303355,0.000000,-1554.432478,9992.780217
2593.303684,1915.238745,-888.247130,9548.656652
2593.304013,1838.629195,-1036.288319,9474.636058
2593.304342,2221.676944,-222.061783,8512.368333
2593.304671,2681.334243,-0.000000,8660.409521
2593.305000,2298.286494,1110.308913,7402.059420
2593.305329,2145.067394,1258.350101,8512.368333
2593.305658,2911.162892,740.205942,9030.512492
2593.305987,1991.848295,-74.020594,9400.615463
2593.306316,689.485948,-74.020594,8882.471304
2593.306645,459.657299,-518.144159,9844.739029
2593.306974,459.657299,-296.082377,9326.594869
2593.307303,0.000000,-740.205942,9400.615463
2593.307632,689.485948,-888.247130,10214.842000
2593.307961,306.438199,-888.247130,10362.883188
2593.308290,689.485948,-296.082377,9104.533087
2593.308619,1762.019645,-592.164754,8956.491898
2593.308948,1685.410096,666.185348,7772.162391
2593.309277,1149.143247,962.267725,8068.244768
2593.309606,1149.143247,592.164754,8808.450710
2593.309935,383.047749,222.061783,8882.471304
2593.310264,842.705048,-222.061783,8586.388927
2593.310593,0.000000,-74.020594,8956.491898
2593.310922,0.000000,-666.185348,9252.574275
2593.311251,-306.438199,-666.185348,9178.553681
2593.311580,-383.047749,-740.205942,9622.677246
2593.311909,0.000000,-1184.329507,10066.800811
2593.312238,229.828649,-1036.288319,9474.636058
2593.312567,612.876398,-74.020594,8734.430116
2593.312896,1149.143247,370.102971,8290.306550
2593.313225,689.485948,888.247130,7624.121203
2593.313554,766.095498,962.267725,8364.327145
2593.313883,229.828649,888.247130,8660.409521
2593.314212,-536.266849,444.123565,9474.636058
2593.314541,-766.095498,-444.123565,9622.677246
2593.314870,-1072.533697,-518.144159,9474.636058
2593.315199,-1532.190996,-888.247130,9030.512492
2593.315528,-1302.362347,-1184.329507,9548.656652
2593.315857,-1455.581446,-962.267725,9474.636058
2593.316186,-689.485948,-888.247130,9326.594869
2593.316515,-612.876398,-1850.514855,7994.224174
2593.316844,-842.705048,518.144159,10140.821405
2593.317173,229.828649,296.082377,8808.450710
2593.317502,-995.924147,-0.000000,8586.388927
2593.317831,-689.485948,1184.329507,9918.759623
2593.318160,-306.438199,-296.082377,9326.594869
2593.318489,-689.485948,222.061783,9252.574275
2593.318818,-766.095498,148.041188,9326.594869
2593.319147,-536.266849,-518.144159,8956.491898
2593.319476,-1455.581446,-1258.350101,9326.594869
2593.319805,-459.657299,-1184.329507,9474.636058
2593.320134,612.876398,-666.185348,9474.636058
2593.320463,459.657299,-592.164754,9178.553681
2593.320792,1225.752797,-74.020594,8364.327145
2593.321121,1455.581446,444.123565,7698.141797
2593.321450,1378.971896,1036.288319,7920.203579
2593.321779,612.876398,370.102971,7994.224174
2593.322108,1072.533697,296.082377,9104.533087
2593.322437,536.266849,740.205942,9326.594869
2593.322766,995.924147,-148.041188,9178.553681
2593.323095,383.047749,-0.000000,8808.450710
2593.323424,459.657299,-444.123565,9252.574275
2593.323753,842.705048,-370.102971,9400.615463
2593.324082,1685.410096,-1036.288319,9474.636058
2593.324411,1302.362347,-1850.514855,8808.450710
2593.324740,2374.896044,-370.102971,8734.430116
2593.325069,1915.238745,222.061783,7920.203579
2593.325398,1685.410096,296.082377,7920.203579
2593.325727,1455.581446,814.226536,8586.388927
2593.326056,1149.143247,666.185348,9178.553681
2593.326385,842.705048,222.061783,10140.821405
2593.326714,536.266849,-444.123565,10140.821405
2593.327043,153.219100,-370.102971,9696.697840
2593.327372,-612.876398,-740.205942,10066.800811
2593.327701,-153.219100,-1184.329507,9770.718434
2593.328030,459.657299,-1184.329507,10288.862594
2593.328359,1455.581446,-814.226536,9474.636058
2593.328688,1991.848295,148.041188,9104.533087
2593.329017,2298.286494,-0.000000,8734.430116
2593.329346,2528.115143,666.185348,8438.347739
2593.329675,2374.896044,1554.432478,7772.162391
2593.330004,1225.752797,962.267725,8290.306550
2593.330333,1378.971896,740.205942,9104.533087
2593.330662,153.219100,-0.000000,9474.636058
2593.330991,229.828649,-222.061783,9622.677246
2593.331320,-919.314598,-370.102971,9178.553681
2593.331649,-919.314598,-740.205942,9474.636058
2593.331978,-1378.971896,-1184.329507,9474.636058
2593.332307,-842.705048,-814.226536,9918.759623
2593.332636,-612.876398,-1184.329507,9918.759623
2593.332965,-689.485948,-444.123565,8956.491898
2593.333294,0.000000,370.102971,8734.430116
2593.333623,0.000000,962.267725,8290.306550
2593.333952,-306.438199,962.267725,8290.306550
2593.334281,153.219100,444.123565,9252.574275
2593.334610,153.219100,148.041188,8734.430116
2593.334939,0.000000,296.082377,8956.491898
2593.335268,-766.095498,296.082377,8586.388927
2593.335597,-1149.143247,-296.082377,8808.450710
2593.335926,-1378.971896,-888.247130,9622.677246
2593.336255,-766.095498,-1036.288319,9992.780217
2593.336584,-766.095498,-1406.391290,9400.615463
2593.336913,-153.219100,-1110.308913,9474.636058
2593.337242,0.000000,-0.000000,9252.574275
2593.337571,306.438199,370.102971,8734.430116
2593.337900,306.438199,666.185348,8290.306550
2593.338229,76.609550,666.185348,9326.594869
2593.338558,76.609550,-74.020594,9326.594869
2593.338887,-229.828649,-296.082377,9474.636058
2593.339216,-459.657299,-814.226536,9178.553681
2593.339545,0.000000,-962.267725,9178.553681
2593.339874,-536.266849,-814.226536,9030.512492
2593.340203,-153.219100,-1036.288319,9400.615463
2593.340532,76.609550,-1480.411884,9400.615463
2593.340861,229.828649,-1036.288319,8882.471304
2593.341190,689.485948,-370.102971,8364.327145
2593.341518,612.876398,296.082377,8216.285956
2593.341847,612.876398,296.082377,8216.285956
2593.342176,612.876398,888.247130,8808.450710
2593.342505,306.438199,592.164754,9030.512492
2593.342834,153.219100,-444.123565,9178.553681
2593.343163,0.000000,-222.061783,9104.533087
2593.343492,-306.438199,-1110.308913,9178.553681
2593.343821,536.266849,-592.164754,9178.553681
2593.344150,612.876398,-1036.288319,9326.594869
2593.344479,1072.533697,-962.267725,9696.697840
2593.344808,2068.457845,-444.123565,8660.409521
2593.345137,2221.676944,-0.000000,8216.285956
2593.345466,2528.115143,296.082377,7994.224174
2593.345795,2681.334243,1406.391290,7476.080014
2593.346124,3677.258390,1332.370696,8364.327145
2593.346453,2757.943793,814.226536,8734.430116
2593.346782,1685.410096,222.061783,9400.615463
2593.347111,1455.581446,-0.000000,9252.574275
2593.347440,842.705048,-518.144159,9474.636058
2593.347769,383.047749,-592.164754,9400.615463
2593.348098,153.219100,-962.267725,9548.656652
2593.348427,536.266849,-1036.288319,9918.759623
2593.348756,842.705048,-1258.350101,9548.656652
2593.349085,1302.362347,-592.164754,9400.615463
2593.349414,1762.019645,-148.041188,8586.388927
2593.349743,1225.752797,888.247130,8068.244768
2593.350072,919.314598,1184.329507,7920.203579
2593.350401,919.314598,888.247130,9030.512492
2593.350730,229.828649,-0.000000,9474.636058
2593.351059,-612.876398,-74.020594,9918.759623
2593.351388,-766.095498,-444.123565,9918.759623
2593.351717,-1072.533697,-740.205942,9474.636058
2593.352046,-1149.143247,-814.226536,9992.780217
2593.352375,-612.876398,-444.123565,9992.780217
2593.352704,-153.219100,-1258.350101,9844.739029
2593.353033,153.219100,-296.082377,9474.636058
2593.353362,1455.581446,-0.000000,8882.471304
2593.353691,459.657299,814.226536,7698.141797
2593.354020,1302.362347,1036.288319,7920.203579
2593.354349,919.314598,888.247130,7550.100608
2593.354678,229.828649,888.247130,8660.409521
2593.355007,76.609550,-1036.288319,8956.491898
2593.355336,-766.095498,-740.205942,9178.553681
2593.355665,-842.705048,-370.102971,9104.533087
2593.355994,-612.876398,-518.144159,8586.388927
2593.356323,-919.314598,-444.123565,9178.553681
2593.356652,-766.095498,-888.247130,9918.759623
2593.356981,-383.047749,-1036.288319,9326.594869
2593.357310,0.000000,-592.164754,8808.450710
2593.357639,-383.047749,-74.020594,8660.409521
2593.357968,536.266849,296.082377,8068.244768
2593.358297,0.000000,740.205942,8364.327145
2593.358626,-76.609550,592.164754,8956.491898
2593.358955,-76.609550,-296.082377,9474.636058
2593.359284,-842.705048,-370.102971,9622.677246
2593.359613,-689.485948,-666.185348,9252.574275
2593.359942,-995.924147,-1332.370696,9326.594869
2593.360271,-1608.800546,-1184.329507,9622.677246
2593.360600,-995.924147,-1332.370696,9770.718434
2593.360929,-383.047749,-1480.411884,9622.677246
2593.361258,153.219100,-740.205942,9178.553681
2593.361587,1149.143247,-222.061783,8956.491898
2593.361916,1302.362347,222.061783,7772.162391
2593.362245,1532.190996,962.267725,8290.306550
2593.362574,2298.286494,592.164754,8586.388927
2593.362903,1378.971896,592.164754,9252.574275
2593.363232,1072.533697,-0.000000,9400.615463
2593.363561,766.095498,222.061783,8956.491898
2593.363890,459.657299,-370.102971,9178.553681
2593.364219,76.609550,-814.226536,8956.491898
2593.364548,612.876398,-666.185348,9326.594869
2593.364877,229.828649,-814.226536,9252.574275
2593.365206,1072.533697,-1110.308913,9474.636058
2593.365535,1072.533697,-592.164754,8882.471304
2593.365864,842.705048,370.102971,8660.409521
2593.366193,1072.533697,222.061783,8438.347739
2593.366522,1225.752797,666.185348,8290.306550
2593.366851,1225.752797,888.247130,9400.615463
2593.367180,995.924147,518.144159,9400.615463
2593.367509,689.485948,-222.061783,9474.636058
2593.367838,1225.752797,-0.000000,9400.615463
2593.368167,1072.533697,-444.123565,9030.512492
2593.368496,689.485948,-518.144159,9178.553681
2593.368825,1149.143247,-962.267725,9548.656652
2593.369154,2298.286494,-444.123565,9178.553681
2593.369483,1685.410096,-888.247130,9326.594869
2593.369812,2374.896044,-0.000000,8438.347739
2593.370141,1378.971896,148.041188,7920.203579
2593.370470,1225.752797,814.226536,8660.409521
2593.370799,536.266849,740.205942,8882.471304
2593.371128,459.657299,-444.123565,9548.656652
2593.371457,-153.219100,-518.144159,9844.739029
2593.371786,0.000000,-740.205942,9918.759623
2593.372115,-689.485948,-444.123565,9474.636058
2593.372444,-842.705048,-592.164754,9548.656652
2593.372773,-459.657299,-888.247130,9844.739029
2593.373102,0.000000,-888.247130,9474.636058
2593.373431,766.095498,-740.205942,8882.471304
2593.373760,1072.533697,-666.185348,8216.285956
2593.374089,842.705048,814.226536,7772.162391
2593.374418,1072.533697,1406.391290,8068.244768
2593.374747,306.438199,1258.350101,8586.388927
2593.375076,-306.438199,888.247130,8882.471304
2593.375405,-612.876398,-0.000000,9252.574275
2593.375734,-1455.581446,-74.020594,9326.594869
2593.376063,-2068.457845,-444.123565,8882.471304
2593.376392,-1838.629195,-814.226536,9030.512492
2593.376721,-1532.190996,-1184.329507,9548.656652
2593.377050,-1532.190996,-888.247130,9770.718434
2593.377379,-919.314598,-814.226536,8956.491898
2593.377708,-612.876398,-370.102971,8882.471304
2593.378037,76.609550,-0.000000,8512.368333
2593.378366,766.095498,-0.000000,7772.162391
2593.378695,229.828649,740.205942,8364.327145
2593.379024,306.438199,296.082377,8734.430116
2593.379353,153.219100,148.041188,9326.594869
2593.379682,-229.828649,-74.020594,9104.533087
2593.380011,-536.266849,-74.020594,9178.553681
2593.380340,0.000000,-518.144159,9400.615463
2593.380669,459.657299,-518.144159,9326.594869
2593.380998,0.000000,-962.267725,9918.759623
2593.381327,383.047749,-666.185348,9548.656652
2593.381656,306.438199,-1036.288319,9400.615463
2593.381985,612.876398,-296.082377,8956.491898
2593.382314,459.657299,-0.000000,8438.347739
2593.382642,76.609550,444.123565,8734.430116
2593.382971,229.828649,444.123565,8734.430116
2593.383300,766.095498,370.102971,9252.574275
2593.383629,229.828649,-666.185348,9548.656652
2593.383958,229.828649,-518.144159,9400.615463
2593.384287,0.000000,-1110.308913,9548.656652
2593.384616,0.000000,-666.185348,9178.553681
2593.384945,842.705048,-962.267725,9548.656652
2593.385274,919.314598,-962.267725,9918.759623
2593.385603,1608.800546,-666.185348,8808.450710
2593.385932,1608.800546,-0.000000,8734.430116
2593.386261,2451.505594,592.164754,8068.244768
2593.386590,2221.676944,1332.370696,7624.121203
2593.386919,2068.457845,1702.473667,8216.285956
2593.387248,1991.848295,1406.391290,8734.430116
2593.387577,1838.629195,666.185348,8956.491898
2593.387906,383.047749,222.061783,9178.553681
2593.388235,1225.752797,-518.144159,9104.533087
2593.388564,689.485948,-518.144159,8956.491898
2593.388893,536.266849,-740.205942,9474.636058
2593.389222,766.095498,-962.267725,9844.739029
2593.389551,1455.581446,-1184.329507,9474.636058
2593.389880,1378.971896,-1110.308913,9178.553681
2593.390209,1915.238745,-444.123565,8808.450710
2593.390538,1838.629195,1406.391290,7846.182985
2593.390867,1685.410096,1702.473667,8068.244768
2593.391196,1455.581446,962.267725,8882.471304
2593.391525,766.095498,592.164754,9696.697840
2593.391854,-383.047749,-444.123565,9696.697840
2593.392183,-383.047749,-814.226536,9548.656652
2593.392512,-612.876398,-962.267725,9844.739029
2593.392841,-1072.533697,-296.082377,9548.656652
2593.393170,-1149.143247,-1110.308913,9992.780217
2593.393499,-612.876398,-1184.329507,9696.697840
2593.393828,0.000000,-888.247130,9178.553681
2593.394157,459.657299,-518.144159,8956.491898
2593.394486,766.095498,-0.000000,8142.265362
2593.394815,689.485948,814.226536,7846.182985
2593.395144,383.047749,592.164754,7994.224174
2593.395473,0.000000,592.164754,9030.512492
2593.395802,0.000000,-74.020594,9252.574275
2593.396131,-612.876398,-296.082377,9104.533087
2593.396460,-1302.362347,-888.247130,9400.615463
2593.396790,-995.924147,-666.185348,8956.491898
2593.397119,-1225.752797,-1184.329507,8956.491898
2593.397448,-995.924147,-1110.308913,9770.718434
2593.397777,-612.876398,-888.247130,9474.636058
2593.398106,-229.828649,-444.123565,9030.512492
2593.398435,229.828649,-0.000000,8438.347739
2593.398764,459.657299,1036.288319,7772.162391
2593.399093,153.219100,1036.288319,8290.306550
2593.399422,0.000000,1036.288319,8882.471304
2593.399751,76.609550,-0.000000,9030.512492
2593.400080,-612.876398,-296.082377,8956.491898
2593.400409,-842.705048,-444.123565,9400.615463
2593.400738,-1149.143247,-888.247130,8956.491898
2593.401067,-1608.800546,-1406.391290,9400.615463
2593.401396,-612.876398,-1480.411884,9770.718434
2593.401725,-689.485948,-1406.391290,9474.636058
2593.402054,153.219100,-1258.350101,9474.636058
2593.402383,306.438199,-370.102971,9104.533087
2593.402712,1072.533697,-0.000000,8956.491898
2593.403041,1302.362347,592.164754,8512.368333
2593.403370,1072.533697,518.144159,9104.533087
2593.403699,919.314598,-148.041188,9252.574275
2593.404028,1455.581446,-148.041188,9918.759623
2593.404357,766.095498,444.123565,9030.512492
2593.404686,459.657299,-0.000000,8956.491898
2593.405015,306.438199,-1184.329507,9400.615463
2593.405344,0.000000,-740.205942,9770.718434
2593.405673,1685.410096,-1480.411884,9400.615463
2593.406002,766.095498,-1702.473667,8660.409521
2593.406331,1838.629195,-888.247130,9548.656652
2593.406660,1838.629195,296.082377,9030.512492
2593.406989,1838.629195,888.247130,8068.244768
2593.407318,1838.629195,1110.308913,8882.471304
2593.407647,1225.752797,888.247130,8956.491898
2593.407976,1149.143247,666.185348,9696.697840
2593.408305,1072.533697,-370.102971,9622.677246
2593.408634,153.219100,-74.020594,9474.636058
2593.408964,76.609550,-666.185348,9696.697840
2593.409293,0.000000,-814.226536,9474.636058
2593.409622,229.828649,-888.247130,9400.615463
2593.409951,1378.971896,-518.144159,9178.553681
2593.410280,1455.581446,-296.082377,8216.285956
2593.410609,1991.848295,444.123565,8068.244768
2593.410938,1991.848295,814.226536,8068.244768
2593.411267,1915.238745,814.226536,8142.265362
2593.411596,1378.971896,1258.350101,8734.430116
2593.411925,1149.143247,222.061783,9474.636058
2593.412254,306.438199,-296.082377,9400.615463
2593.412583,-306.438199,-370.102971,9622.677246
2593.412912,0.000000,-296.082377,9326.594869
2593.413241,0.000000,-444.123565,9400.615463
2593.413570,-689.485948,-888.247130,9474.636058
2593.413899,-153.219100,-962.267725,9474.636058
2593.414228,306.438199,-1258.350101,9474.636058
2593.414557,612.876398,-592.164754,8364.327145
2593.414886,306.438199,-296.082377,7994.224174
2593.415215,306.438199,-0.000000,7846.182985
2593.415544,76.609550,740.205942,7846.182985
2593.415873,0.000000,666.185348,8956.491898
2593.416202,-766.095498,-0.000000,9400.615463
2593.416531,-1225.752797,-296.082377,9696.697840
2593.416860,-1532.190996,-592.164754,10066.800811
2593.417189,-1838.629195,-888.247130,9622.677246
2593.417518,-1991.848295,-962.267725,10362.883188
2593.417847,-1225.752797,-962.267725,10658.965565
2593.418176,-612.876398,-296.082377,9474.636058
2593.418505,-153.219100,296.082377,9474.636058
2593.418834,766.095498,666.185348,8882.471304
2593.419163,459.657299,740.205942,7624.121203
2593.419492,0.000000,1036.288319,8216.285956
2593.419821,0.000000,222.061783,8660.409521
2593.420150,-153.219100,370.102971,9030.512492
2593.420479,-536.266849,-444.123565,8882.471304
2593.420809,-612.876398,-222.061783,9252.574275
2593.421138,-1302.362347,-1036.288319,9326.594869
2593.421467,-766.095498,-74.020594,9252.574275
2593.421796,-229.828649,-814.226536,9918.759623
2593.422125,-383.047749,-1110.308913,9696.697840
2593.422454,0.000000,-814.226536,9474.636058
2593.422783,1072.533697,-148.041188,8956.491898
2593.423112,459.657299,370.102971,8512.368333
2593.423441,1072.533697,740.205942,8364.327145
2593.423770,766.095498,666.185348,8290.306550
2593.424099,995.924147,222.061783,9030.512492
2593.424428,536.266849,-148.041188,9104.533087
2593.424757,229.828649,-518.144159,9326.594869
2593.425086,153.219100,-444.123565,9030.512492
2593.425415,229.828649,-518.144159,8734.430116
2593.425744,383.047749,-1258.350101,9400.615463
2593.426073,842.705048,-1258.350101,9178.553681
2593.426402,1378.971896,-1184.329507,9104.533087
2593.426731,1455.581446,-740.205942,8808.450710
2593.427060,1838.629195,888.247130,9178.553681
2593.427389,2298.286494,592.164754,8364.327145
2593.427718,1915.238745,1036.288319,8512.368333
2593.428047,1762.019645,962.267725,9030.512492
2593.428376,1455.581446,-0.000000,9474.636058
2593.428705,1072.533697,-74.020594,9326.594869
2593.429034,1225.752797,-222.061783,9696.697840
2593.429363,995.924147,-148.041188,8660.409521
2593.429692,995.924147,-296.082377,9178.553681
2593.430021,1072.533697,-296.082377,9548.656652
2593.430350,1149.143247,-666.185348,9326.594869
2593.430679,1915.238745,-666.185348,8734.430116
2593.431008,1455.581446,148.041188,7920.203579
2593.431337,1302.362347,370.102971,8290.306550
2593.431666,76.609550,666.185348,8734.430116
2593.431995,1225.752797,222.061783,9030.512492
2593.432324,459.657299,814.226536,8808.450710
2593.432653,229.828649,-0.000000,9474.636058
2593.432983,0.000000,-222.061783,9400.615463
2593.433312,76.609550,-0.000000,9104.533087
2593.433641,-153.219100,296.082377,9178.553681
2593.433970,-612.876398,-962.267725,9548.656652
2593.434299,76.609550,-1258.350101,9696.697840
2593.434628,306.438199,-370.102971,9770.718434
2593.434957,459.657299,-148.041188,9030.512492
2593.435286,76.609550,-74.020594,8438.347739
2593.435615,919.314598,740.205942,8438.347739
2593.435944,229.828649,666.185348,8734.430116
2593.436273,0.000000,296.082377,10658.965565
2593.436602,-306.438199,-962.267725,9474.636058
2593.436931,-459.657299,-222.061783,9400.615463
2593.437260,-995.924147,222.061783,9400.615463
2593.437589,-995.924147,-370.102971,9104.533087
2593.437918,-1378.971896,-1258.350101,9474.636058
2593.438247,-842.705048,-592.164754,9696.697840
2593.438576,536.266849,-1184.329507,9474.636058
2593.438905,0.000000,-814.226536,8882.471304
2593.439234,-383.047749,-296.082377,8956.491898
2593.439563,0.000000,814.226536,8660.409521
2593.439892,-383.047749,814.226536,8142.265362
2593.440221,-153.219100,666.185348,9104.533087
2593.440550,-1225.752797,444.123565,9844.739029
2593.440879,-766.095498,-296.082377,9696.697840
2593.441208,-1072.533697,-74.020594,9178.553681
2593.441537,-459.657299,-444.123565,8512.368333
2593.441866,-842.705048,-222.061783,9326.594869
2593.442195,0.000000,-740.205942,9178.553681
2593.442524,229.828649,-814.226536,9178.553681
2593.442853,612.876398,-370.102971,9326.594869
2593.443182,842.705048,-888.247130,8438.347739
2593.443511,995.924147,-74.020594,7920.203579
2593.443840,612.876398,814.226536,8290.306550
2593.444169,842.705048,518.144159,8586.388927
2593.444498,153.219100,222.061783,9252.574275
2593.444828,153.219100,-222.061783,9400.615463
2593.445157,383.047749,-888.247130,9622.677246
2593.445486,0.000000,-888.247130,8956.491898
2593.445815,-383.047749,-740.205942,9474.636058
2593.446144,459.657299,-1184.329507,9474.636058
2593.446473,1072.533697,-1184.329507,9030.512492
2593.446802,1455.581446,-740.205942,8882.471304
2593.447131,2068.457845,-74.020594,8586.388927
2593.447460,2221.676944,-296.082377,7994.224174
2593.447789,1608.800546,814.226536,7846.182985
2593.448118,2221.676944,740.205942,7550.100608
2593.448447,1685.410096,296.082377,9252.574275
2593.448776,1149.143247,-148.041188,9474.636058
2593.449105,689.485948,-518.144159,9770.718434
2593.449434,306.438199,-740.205942,9548.656652
2593.449763,0.000000,-666.185348,9400.615463
2593.450092,76.609550,-1184.329507,9474.636058
2593.450421,689.485948,-1406.391290,10214.842000
2593.450750,919.314598,-888.247130,9326.594869
2593.451079,1762.019645,-740.205942,8808.450710
2593.451408,1685.410096,444.123565,7920.203579
2593.451737,1532.190996,962.267725,8290.306550
2593.452066,2298.286494,444.123565,8068.244768
2593.452395,1072.533697,1184.329507,8216.285956
2593.452724,1149.143247,-0.000000,9474.636058
2593.453053,766.095498,-740.205942,9770.718434
2593.453382,-153.219100,296.082377,9326.594869
2593.453711,-766.095498,-518.144159,9030.512492
2593.454040,0.000000,-518.144159,8956.491898
2593.454369,-1072.533697,-1332.370696,9474.636058
2593.454698,306.438199,-962.267725,9696.697840
2593.455027,153.219100,-814.226536,9474.636058
2593.455356,-229.828649,-0.000000,9178.553681
2593.455685,0.000000,444.123565,8216.285956
2593.456014,306.438199,1332.370696,8364.327145
2593.456343,-306.438199,814.226536,8882.471304
2593.456672,383.047749,1554.432478,9548.656652
2593.457002,-306.438199,888.247130,9770.718434
2593.457331,-229.828649,-74.020594,9844.739029
2593.457660,-153.219100,148.041188,9104.533087
2593.457989,-919.314598,-296.082377,9474.636058
2593.458318,-1302.362347,-888.247130,9622.677246
2593.458647,-842.705048,-740.205942,9622.677246
2593.458976,-536.266849,-1554.432478,9400.615463
2593.459305,229.828649,-444.123565,9548.656652
2593.459634,0.000000,-296.082377,8512.368333
2593.459963,0.000000,444.123565,8364.327145
2593.460292,0.000000,888.247130,8364.327145
2593.460621,-383.047749,296.082377,8956.491898
2593.460950,-536.266849,-74.020594,9474.636058
2593.461279,-842.705048,-518.144159,9030.512492
2593.461608,-995.924147,-888.247130,10066.800811
2593.461937,-1072.533697,-444.123565,9548.656652
2593.462266,-1302.362347,-962.267725,9474.636058
2593.462595,-689.485948,-1332.370696,9622.677246
2593.462924,0.000000,-666.185348,9030.512492
2593.463253,383.047749,-592.164754,9104.533087
2593.463582,842.705048,-222.061783,8512.368333
2593.463911,995.924147,-0.000000,7920.203579
2593.464240,995.924147,518.144159,7920.203579
2593.464569,459.657299,222.061783,8290.306550
2593.464898,459.657299,296.082377,8660.409521
2593.465227,0.000000,-222.061783,8734.430116
2593.465556,0.000000,-444.123565,9104.533087
2593.465885,-306.438199,-666.185348,9474.636058
2593.466214,-1149.143247,-592.164754,9474.636058
2593.466543,383.047749,-1036.288319,9178.553681
2593.466872,766.095498,-888.247130,9474.636058
2593.467201,1608.800546,-666.185348,8882.471304
2593.467530,2068.457845,-222.061783,8512.368333
2593.467859,1915.238745,444.123565,8068.244768
2593.468188,3294.210641,148.041188,7624.121203
2593.468517,2987.772442,740.205942,7994.224174
2593.468847,2068.457845,518.144159,8512.368333
2593.469176,2145.067394,-296.082377,9918.759623
2593.469505,1302.362347,-0.000000,9252.574275
2593.469834,766.095498,-740.205942,9474.636058
2593.470163,689.485948,-444.123565,9696.697840
2593.470492,0.000000,-1258.350101,9622.677246
2593.470821,919.314598,-592.164754,10732.986159
2593.471150,1072.533697,-814.226536,9844.739029
2593.471479,1149.143247,-666.185348,8956.491898
2593.471808,1149.143247,-148.041188,9104.533087
2593.472137,1225.752797,962.267725,8734.430116
2593.472466,536.266849,814.226536,8438.347739
2593.472795,766.095498,592.164754,9104.533087
2593.473124,612.876398,-0.000000,9474.636058
2593.473453,76.609550,-74.020594,9474.636058
2593.473782,-229.828649,-814.226536,9918.759623
2593.474111,-383.047749,-592.164754,9474.636058
2593.474440,-612.876398,-1036.288319,9622.677246
2593.474769,-153.219100,-222.061783,9622.677246
2593.475098,76.609550,-370.102971,10140.821405
2593.475427,1072.533697,-148.041188,9474.636058
2593.475756,1378.971896,518.144159,8512.368333
2593.476085,1532.190996,814.226536,7994.224174
2593.476414,1149.143247,1628.453072,7254.018232
2593.476743,766.095498,1628.453072,8216.285956
2593.477072,76.609550,888.247130,8586.388927
2593.477401,-229.828649,-0.000000,9252.574275
2593.477730,-1225.752797,-370.102971,9474.636058
2593.478059,-1225.752797,-518.144159,9844.739029
2593.478388,-1685.410096,-666.185348,9474.636058
2593.478717,-1685.410096,-1332.370696,9474.636058
2593.479046,-1378.971896,-962.267725,9548.656652
2593.479375,-1225.752797,-1184.329507,9622.677246
2593.479704,-689.485948,-888.247130,9918.759623
2593.480033,-766.095498,-222.061783,8882.471304
2593.480362,-229.828649,962.267725,8438.347739
2593.480692,76.609550,1184.329507,8290.306550
2593.481021,0.000000,814.226536,8660.409521
2593.481350,-383.047749,148.041188,9326.594869
2593.481679,-383.047749,222.061783,9104.533087
2593.482008,0.000000,-296.082377,8882.471304
2593.482337,0.000000,-666.185348,8586.388927
2593.482666,-459.657299,-888.247130,8808.450710
2593.482995,-842.705048,-1480.411884,9252.574275
2593.483324,-306.438199,-1850.514855,9548.656652
2593.483653,0.000000,-2072.576638,9400.615463
2593.483982,0.000000,-1332.370696,9400.615463
2593.484311,459.657299,-370.102971,9030.512492
2593.484640,766.095498,-296.082377,8882.471304
2593.484969,689.485948,370.102971,8512.368333
2593.485298,383.047749,370.102971,9252.574275
2593.485627,1072.533697,-222.061783,9326.594869
2593.485956,995.924147,-0.000000,8882.471304
2593.486285,1149.143247,-148.041188,8512.368333
2593.486614,1149.143247,-74.020594,8586.388927
2593.486943,1149.143247,-148.041188,9178.553681
2593.487272,1532.190996,-1110.308913,9326.594869
2593.487601,1532.190996,-888.247130,8882.471304
2593.487930,1455.581446,-592.164754,8808.450710
2593.488259,1685.410096,-74.020594,8142.265362
2593.488588,1378.971896,222.061783,8216.285956
2593.488917,995.924147,148.041188,9104.533087
2593.489246,766.095498,-0.000000,9770.718434
2593.489575,536.266849,-148.041188,9326.594869
2593.489904,383.047749,-444.123565,9844.739029
2593.490233,459.657299,-296.082377,9770.718434
2593.490562,536.266849,-296.082377,9252.574275
2593.490891,919.314598,-148.041188,9252.574275
2593.491220,1532.190996,-0.000000,9696.697840
2593.491549,2604.724693,-148.041188,9474.636058
2593.491878,2911.162892,148.041188,8660.409521
2593.492207,3064.381992,1258.350101,8068.244768
2593.492536,2145.067394,1184.329507,7994.224174
2593.492866,1915.238745,1184.329507,7994.224174
2593.493195,1302.362347,962.267725,8882.471304
2593.493524,536.266849,-74.020594,9622.677246
2593.493853,0.000000,-1036.288319,9918.759623
2593.494182,0.000000,-1036.288319,10140.821405
2593.494511,-1225.752797,-1480.411884,10140.821405
2593.494840,-1608.800546,-444.123565,9622.677246
2593.495169,-1302.362347,-814.226536,9992.780217
2593.495498,-306.438199,-222.061783,10214.842000
2593.495827,229.828649,-0.000000,9400.615463
2593.496156,1225.752797,-222.061783,8808.450710
2593.496485,1072.533697,592.164754,7994.224174
2593.496814,1072.533697,1406.391290,7550.100608
2593.497143,153.219100,814.226536,7920.203579
2593.497473,0.000000,1184.329507,8512.368333
2593.497802,-459.657299,-0.000000,8956.491898
2593.498131,-995.924147,-666.185348,9178.553681
2593.498460,-1532.190996,-592.164754,9326.594869
2593.498789,-1991.848295,-1110.308913,9326.594869
2593.499118,-2068.457845,-1554.432478,9474.636058
2593.499447,-1378.971896,-1406.391290,9474.636058
2593.499776,-689.485948,-1258.350101,9400.615463
2593.500106,0.000000,-888.247130,8586.388927
2593.500435,689.485948,740.205942,8068.244768
2593.500764,842.705048,518.144159,7402.059420
2593.501093,1378.971896,1480.411884,7624.121203
2593.501422,1149.143247,1702.473667,8290.306550
2593.501751,536.266849,518.144159,9104.533087
2593.502080,0.000000,-0.000000,9030.512492
2593.502409,0.000000,-148.041188,8808.450710
2593.502739,-995.924147,-1258.350101,9474.636058
2593.503068,-919.314598,-1850.514855,9178.553681
2593.503397,-1225.752797,-1036.288319,10214.842000
2593.503726,-383.047749,-1554.432478,9918.759623
2593.504055,-459.657299,-1998.556043,9400.615463
2593.504384,229.828649,-666.185348,9252.574275
2593.504713,306.438199,-370.102971,8216.285956
2593.505042,76.609550,370.102971,8290.306550
2593.505372,1072.533697,370.102971,8808.450710
2593.505701,995.924147,888.247130,8438.347739
2593.506030,76.609550,296.082377,9844.739029
2593.506359,229.828649,296.082377,9918.759623
2593.506688,229.828649,-666.185348,9474.636058
2593.507017,76.609550,-74.020594,9622.677246
2593.507346,536.266849,-1036.288319,8956.491898
2593.507676,842.705048,-1406.391290,9918.759623
2593.508005,612.876398,-888.247130,9992.780217
2593.508334,1302.362347,-148.041188,9770.718434
2593.508663,2068.457845,-222.061783,8438.347739
2593.508992,1991.848295,444.123565,6809.894666
2593.509321,2374.896044,1480.411884,8438.347739
2593.509650,2221.676944,740.205942,8364.327145
2593.509979,2145.067394,962.267725,9178.553681
2593.510309,1991.848295,-222.061783,9400.615463
2593.510638,842.705048,222.061783,9104.533087
2593.510967,383.047749,-148.041188,8882.471304
2593.511296,689.485948,-444.123565,9400.615463
2593.511625,459.657299,-592.164754,9326.594869
2593.511954,1149.143247,-740.205942,9844.739029
2593.512283,1302.362347,-1110.308913,9548.656652
2593.512612,842.705048,-740.205942,9104.533087
2593.512942,612.876398,-74.020594,8512.368333
2593.513271,689.485948,370.102971,8364.327145
2593.513600,383.047749,518.144159,8438.347739
2593.513929,459.657299,518.144159,8882.471304
2593.514258,459.657299,148.041188,9474.636058
2593.514587,383.047749,-518.144159,9548.656652
2593.514916,0.000000,-740.205942,9104.533087
2593.515245,-536.266849,-222.061783,9474.636058
2593.515575,-536.266849,-592.164754,9474.636058
2593.515904,0.000000,-814.226536,9400.615463
2593.516233,459.657299,-740.205942,9400.615463
2593.516562,1302.362347,-444.123565,9104.533087
2593.516891,153.219100,444.123565,8216.285956
2593.517220,229.828649,592.164754,8142.265362
2593.517549,612.876398,518.144159,8216.285956
2593.517879,-153.219100,592.164754,9104.533087
2593.518208,-919.314598,-0.000000,9696.697840
2593.518537,-842.705048,-444.123565,9696.697840
2593.518866,-1532.190996,-444.123565,9400.615463
2593.519195,-1608.800546,-222.061783,8438.347739
2593.519524,-995.924147,-592.164754,9400.615463
2593.519853,-766.095498,-1036.288319,9548.656652
2593.520182,76.609550,-296.082377,9104.533087
2593.520512,-153.219100,-518.144159,8660.409521
2593.520841,153.219100,-0.000000,8882.471304
2593.521170,229.828649,740.205942,8068.244768
2593.521499,0.000000,1258.350101,8882.471304
2593.521828,-383.047749,148.041188,9474.636058
2593.522157,-766.095498,-0.000000,9104.533087
2593.522486,-689.485948,148.041188,9992.780217
2593.522815,-995.924147,-74.020594,9474.636058
2593.523145,-1378.971896,-592.164754,9178.553681
2593.523474,-1302.362347,-740.205942,10288.862594
2593.523803,-612.876398,-1110.308913,9844.739029
2593.524132,0.000000,-1480.411884,10066.800811
2593.524461,536.266849,-1332.370696,8956.491898
2593.524790,919.314598,-222.061783,8660.409521
2593.525119,1455.581446,-0.000000,8364.327145
2593.525448,1455.581446,222.061783,8364.327145
2593.525778,1838.629195,518.144159,8808.450710
2593.526107,1455.581446,-74.020594,9178.553681
2593.526436,1225.752797,-0.000000,9548.656652
2593.526765,459.657299,-222.061783,9474.636058
2593.527094,919.314598,-444.123565,9400.615463
2593.527423,1072.533697,-0.000000,9030.512492
2593.527752,995.924147,-740.205942,9400.615463
2593.528082,1532.190996,-1036.288319,9252.574275
2593.528411,1608.800546,-888.247130,8364.327145
2593.528740,1838.629195,-518.144159,8660.409521
2593.529069,1685.410096,-592.164754,8142.265362
2593.529398,1378.971896,-0.000000,7920.203579
2593.529727,1072.533697,518.144159,7994.224174
2593.530056,842.705048,370.102971,8734.430116
2593.530385,459.657299,-370.102971,9326.594869
2593.530715,536.266849,-666.185348,9548.656652
2593.531044,153.219100,-518.144159,9770.718434
2593.531373,612.876398,-222.061783,9178.553681
2593.531702,536.266849,-222.061783,9252.574275
2593.532031,1149.143247,-518.144159,9474.636058
2593.532360,1991.848295,-222.061783,9104.533087
2593.532689,2604.724693,-0.000000,8438.347739
2593.533018,2757.943793,444.123565,8142.265362
2593.533348,2451.505594,1036.288319,7550.100608
2593.533677,1302.362347,888.247130,7550.100608
2593.534006,1149.143247,814.226536,8512.368333
2593.534335,689.485948,-0.000000,8808.450710
2593.534664,0.000000,-296.082377,9474.636058
2593.534993,-459.657299,-666.185348,9770.718434
2593.535322,-1072.533697,-1036.288319,9548.656652
2593.535651,-995.924147,-1110.308913,9844.739029
2593.535981,-1225.752797,-1258.350101,10436.903782
2593.536310,-689.485948,-1406.391290,10214.842000
2593.536639,0.000000,-1184.329507,9770.718434
2593.536968,383.047749,-222.061783,9178.553681
2593.537297,536.266849,-0.000000,8290.306550
2593.537626,612.876398,666.185348,8586.388927
2593.537955,153.219100,592.164754,8734.430116
2593.538285,306.438199,740.205942,9474.636058
2593.538614,-842.705048,444.123565,9178.553681
2593.538943,-995.924147,-0.000000,9326.594869
2593.539272,-1302.362347,-222.061783,9178.553681
2593.539601,-1532.190996,-666.185348,9770.718434
2593.539930,-1532.190996,-1258.350101,9844.739029
2593.540259,-1991.848295,-1406.391290,10214.842000
2593.540588,-919.314598,-1480.411884,9548.656652
2593.540918,-842.705048,-962.267725,8882.471304
2593.541247,-383.047749,296.082377,8956.491898
2593.541576,0.000000,666.185348,8290.306550
2593.541905,76.609550,1036.288319,8512.368333
2593.542234,306.438199,518.144159,8586.388927
2593.542563,612.876398,592.164754,9622.677246
2593.542892,0.000000,148.041188,8882.471304
2593.543221,-612.876398,-0.000000,9400.615463
2593.543551,-306.438199,-222.061783,8808.450710
2593.543880,-689.485948,-148.041188,8808.450710
2593.544209,153.219100,-666.185348,9326.594869
2593.544538,0.000000,-1258.350101,9548.656652
2593.544867,229.828649,-1406.391290,8882.471304
2593.545196,383.047749,-370.102971,8438.347739
2593.545525,306.438199,-444.123565,8438.347739
2593.545854,-153.219100,-296.082377,7920.203579
2593.546184,229.828649,296.082377,8734.430116
2593.546513,306.438199,-0.000000,9326.594869
2593.546842,76.609550,-370.102971,9400.615463
2593.547171,766.095498,-370.102971,9474.636058
2593.547500,842.705048,-740.205942,8956.491898
2593.547829,842.705048,-814.226536,9400.615463
2593.548158,766.095498,-888.247130,9400.615463
2593.548488,1532.190996,-740.205942,9400.615463
2593.548817,2451.505594,-444.123565,8808.450710
2593.549146,2451.505594,-0.000000,8216.285956
2593.549475,2528.115143,-0.000000,8438.347739
2593.549804,1991.848295,296.082377,7994.224174
2593.550133,2145.067394,444.123565,8586.388927
2593.550462,1915.238745,-0.000000,9104.533087
2593.550791,1225.752797,-74.020594,9622.677246
2593.551121,995.924147,-518.144159,9696.697840
2593.551450,689.485948,-592.164754,9770.718434
2593.551779,536.266849,-814.226536,9326.594869
2593.552108,919.314598,-592.164754,9844.739029
2593.552437,1302.362347,-666.185348,9400.615463
2593.552766,1532.190996,-592.164754,9474.636058
2593.553095,2374.896044,-666.185348,9178.553681
2593.553424,2374.896044,-0.000000,8216.285956
2593.553754,1991.848295,814.226536,7994.224174
2593.554083,1991.848295,814.226536,8142.265362
2593.554412,1455.581446,1776.494261,8216.285956
2593.554741,766.095498,962.267725,9030.512492
2593.555070,306.438199,148.041188,9770.718434
2593.555399,0.000000,-518.144159,9474.636058
2593.555728,-995.924147,-518.144159,9400.615463
2593.556057,-1149.143247,-740.205942,9178.553681
2593.556387,-1378.971896,-592.164754,9992.780217
2593.556716,-995.924147,-1480.411884,10214.842000
2593.557045,0.000000,-1036.288319,9474.636058
2593.557374,306.438199,-666.185348,8586.388927
2593.557703,612.876398,-0.000000,9104.533087
2593.558032,842.705048,888.247130,8290.306550
2593.558361,1072.533697,1036.288319,8512.368333
2593.558691,766.095498,1184.329507,8438.347739
2593.559020,766.095498,592.164754,9252.574275
2593.559349,0.000000,592.164754,9030.512492
2593.559678,-153.219100,-0.000000,9252.574275
2593.560007,-766.095498,-0.000000,9252.574275
2593.560336,-1608.800546,-592.164754,9178.553681
2593.560665,-1685.410096,-1258.350101,9696.697840
2593.560994,-1991.848295,-1332.370696,9474.636058
2593.561324,-2374.896044,-1480.411884,9178.553681
2593.561653,-2451.505594,-370.102971,8956.491898
2593.561982,-2834.553343,-296.082377,8808.450710
2593.562311,-3140.991542,666.185348,8734.430116
2593.562640,-3294.210641,370.102971,8882.471304
2593.562969,-3677.258390,444.123565,9178.553681
2593.563298,-3524.039291,-0.000000,9400.615463
2593.563627,-2987.772442,-370.102971,9030.512492
2593.563957,-3753.867940,-1110.308913,8808.450710
2593.564286,-3524.039291,-1184.329507,9252.574275
2593.564615,-4060.306139,-1628.453072,9474.636058
2593.564944,-3830.477490,-1406.391290,9474.636058
2593.565273,-3217.601092,-1258.350101,8956.491898
2593.565602,-2681.334243,-740.205942,8512.368333
2593.565931,-2911.162892,-1110.308913,9326.594869
2593.566260,-2681.334243,-1184.329507,8734.430116
2593.566590,-2987.772442,-0.000000,8438.347739
2593.566919,-3140.991542,592.164754,8586.388927
2593.567248,-2604.724693,518.144159,8512.368333
2593.567577,-2374.896044,444.123565,8438.347739
2593.567906,-2221.676944,-74.020594,8882.471304
2593.568235,-1378.971896,-666.185348,9178.553681
2593.568564,-1915.238745,-1184.329507,9030.512492
2593.568894,-1915.238745,-296.082377,9474.636058
2593.569223,-1532.190996,-148.041188,9030.512492
2593.569552,-1532.190996,-0.000000,8956.491898
2593.569881,76.609550,-296.082377,9178.553681
2593.570210,995.924147,592.164754,7920.203579
2593.570539,1149.143247,-0.000000,7698.141797
2593.570868,842.705048,592.164754,7698.141797
2593.571197,-383.047749,1036.288319,8142.265362
2593.571527,-1149.143247,1036.288319,8882.471304
2593.571856,-2834.553343,1184.329507,8660.409521
2593.572185,-3677.258390,-222.061783,10362.883188
2593.572514,-3677.258390,-518.144159,9622.677246
2593.572843,-3677.258390,-148.041188,9474.636058
2593.573172,-5362.668486,-1850.514855,9992.780217
2593.573501,-4443.353888,-2516.700203,11399.171507
2593.573830,-3983.696590,-2960.823768,11843.295072
2593.574160,-2834.553343,-2072.576638,10658.965565
2593.574489,-1225.752797,-1258.350101,9548.656652
2593.574818,-1608.800546,-0.000000,8068.244768
2593.575147,-1302.362347,1110.308913,9178.553681
2593.575476,-612.876398,-444.123565,11029.068536
2593.575805,459.657299,2072.576638,6439.791695
2593.576134,2145.067394,2664.741391,7254.018232
2593.576463,76.609550,2146.597232,5403.503377
2593.576793,-1149.143247,1702.473667,7772.162391
2593.577122,-3294.210641,-0.000000,9474.636058
2593.577451,-3524.039291,-1480.411884,10214.842000
2593.577780,-2834.553343,-1332.370696,9844.739029
2593.578109,-4826.401637,814.226536,7772.162391
2593.578438,-6205.373534,-1776.494261,10214.842000
2593.578767,-7584.345430,-1850.514855,10881.027347
2593.579097,-5362.668486,-1036.288319,10732.986159
2593.579426,-4443.353888,-1850.514855,9992.780217
2593.579755,-2068.457845,-888.247130,9178.553681
2593.580084,-1149.143247,444.123565,8438.347739
2593.580413,-1532.190996,666.185348,6661.853478
2593.580742,-1532.190996,962.267725,8882.471304
2593.581071,-919.314598,-0.000000,9696.697840
2593.581400,76.609550,592.164754,7846.182985
2593.581730,0.000000,1406.391290,8068.244768
2593.582059,-1225.752797,1332.370696,7328.038826
2593.582388,-766.095498,666.185348,7994.224174
2593.582717,-2451.505594,370.102971,9474.636058
2593.583046,-2757.943793,370.102971,9474.636058
2593.583375,-2451.505594,148.041188,8808.450710
2593.583704,-3600.648841,296.082377,7624.121203
2593.584033,-4979.620737,-740.205942,8068.244768
2593.584363,-6435.202183,-1702.473667,9992.780217
2593.584692,-5822.325785,-3034.844362,11251.130318
2593.585021,-6281.983084,-3478.967927,10732.986159
2593.585350,-5209.449386,-2886.803174,11177.109724
2593.585679,-5132.839837,-2368.659014,10362.883188
2593.586008,-4903.011187,-2294.638420,9844.739029
2593.586337,-3447.429741,-1036.288319,10214.842000
2593.586666,-1532.190996,1184.329507,9104.533087
2593.586996,-919.314598,1110.308913,8660.409521
2593.587325,-1225.752797,2368.659014,8290.306550
2593.587654,-1225.752797,2368.659014,8882.471304
2593.587983,-2221.676944,1850.514855,7624.121203
2593.588312,-1608.800546,1332.370696,7920.203579
2593.588641,-1225.752797,1406.391290,7402.059420
2593.588970,-1608.800546,888.247130,7994.224174
2593.589300,-1608.800546,814.226536,7328.038826
2593.589629,-1455.581446,-0.000000,7624.121203
2593.589958,-1838.629195,-148.041188,8586.388927
2593.590287,-2451.505594,666.185348,7846.182985
2593.590616,-2451.505594,-296.082377,8512.368333
2593.590945,-3140.991542,962.267725,8882.471304
2593.591274,-2834.553343,1480.411884,9622.677246
2593.591603,-3140.991542,1480.411884,9474.636058
2593.591933,-3140.991542,1258.350101,10436.903782
2593.592262,-1455.581446,1628.453072,10362.883188
2593.592591,-2987.772442,888.247130,10584.944971
2593.592920,-3447.429741,518.144159,11325.150913
2593.593249,-2451.505594,148.041188,10658.965565
2593.593578,-1455.581446,962.267725,10214.842000
2593.593907,-536.266849,1258.350101,8882.471304
2593.594236,-383.047749,1184.329507,8216.285956
2593.594566,-689.485948,222.061783,10658.965565
2593.594895,459.657299,962.267725,9770.718434
2593.595224,2145.067394,2664.741391,6735.874072
2593.595553,3370.820191,3775.050304,7550.100608
2593.595882,2757.943793,4885.359217,5773.606348
2593.596211,4060.306139,4811.338623,8290.306550
2593.596540,2374.896044,4737.318029,7772.162391
2593.596869,1915.238745,3552.988522,8808.450710
2593.597199,459.657299,2146.597232,9696.697840
2593.597528,-1378.971896,2516.700203,9992.780217
2593.597857,-1302.362347,1702.473667,11103.089130
2593.598186,-1685.410096,1110.308913,10362.883188
2593.598515,-689.485948,1628.453072,10584.944971
2593.598844,-459.657299,1554.432478,9696.697840
2593.599173,-459.657299,3256.906145,8734.430116
2593.599503,306.438199,3108.864956,7772.162391
2593.599832,1838.629195,3108.864956,7994.224174
2593.600161,1455.581446,4515.256246,5995.668130
2593.600490,1225.752797,4515.256246,7624.121203
2593.600819,306.438199,3849.070898,8142.265362
2593.601148,-153.219100,3849.070898,8438.347739
2593.601477,-1608.800546,3182.885551,8808.450710
2593.601806,-2757.943793,2294.638420,9918.759623
2593.602136,-2145.067394,592.164754,11399.171507
2593.602465,-3217.601092,1850.514855,9474.636058
2593.602794,-2681.334243,2738.761985,10214.842000
2593.603123,-2834.553343,2442.679609,9992.780217
2593.603452,-2221.676944,2664.741391,10066.800811
2593.603781,-1762.019645,2294.638420,10807.006753
2593.604110,-1225.752797,2664.741391,9844.739029
2593.604439,-995.924147,2442.679609,9474.636058
2593.604769,-1378.971896,3330.926739,8586.388927
2593.605098,-612.876398,2738.761985,9918.759623
2593.605427,-459.657299,2738.761985,9992.780217
2593.605756,2451.505594,3552.988522,8734.430116
2593.606085,2451.505594,4737.318029,6439.791695
2593.606414,3140.991542,5403.503377,7994.224174
2593.606743,2221.676944,5773.606348,6957.935855
2593.607072,3064.381992,6439.791695,8290.306550
2593.607402,2298.286494,5699.585753,7476.080014
2593.607731,1532.190996,5921.647536,7105.977043
2593.608060,995.924147,4367.215058,9474.636058
2593.608389,-229.828649,3849.070898,8734.430116
2593.608718,-1455.581446,222.061783,11325.150913
2593.609047,-1762.019645,962.267725,10658.965565
2593.609376,-459.657299,444.123565,10881.027347
2593.609705,-919.314598,296.082377,10881.027347
2593.610035,-536.266849,2738.761985,9992.780217
2593.610364,842.705048,2516.700203,8882.471304
2593.610693,1838.629195,3478.967927,8142.265362
2593.611022,3064.381992,5107.421000,7550.100608
2593.611351,3370.820191,4737.318029,7402.059420
2593.611680,2987.772442,4737.318029,7105.977043
2593.612009,2221.676944,4737.318029,7179.997637
2593.612339,306.438199,2146.597232,8290.306550
2593.612668,-1225.752797,296.082377,10658.965565
2593.612997,-1838.629195,-296.082377,10807.006753
2593.613326,-1915.238745,-148.041188,11843.295072
2593.613655,-2374.896044,518.144159,9992.780217
2593.613984,-1608.800546,1776.494261,9474.636058
2593.614313,-1455.581446,1776.494261,9474.636058
2593.614642,-1072.533697,2442.679609,9474.636058
2593.614972,76.609550,740.205942,9992.780217
2593.615301,2451.505594,1480.411884,8586.388927
2593.615630,3524.039291,2738.761985,6513.812290
2593.615959,3907.087040,2368.659014,6883.915261
2593.616288,2757.943793,3923.091493,5995.668130
2593.616617,3830.477490,3923.091493,8290.306550
2593.616946,2681.334243,4515.256246,7031.956449
2593.617275,2451.505594,4515.256246,6661.853478
2593.617605,306.438199,2516.700203,9696.697840
2593.617934,-2068.457845,222.061783,10288.862594
2593.618263,-3753.867940,-2146.597232,12731.542202
2593.618592,-3294.210641,-370.102971,11621.233289
2593.618921,-2374.896044,-1554.432478,11325.150913
2593.619250,-3370.820191,962.267725,10807.006753
2593.619579,-1838.629195,1776.494261,9622.677246
2593.619908,-1149.143247,2886.803174,9030.512492
2593.620238,-306.438199,2072.576638,8364.327145
2593.620567,612.876398,3404.947333,8734.430116
2593.620896,3600.648841,1258.350101,11547.212695
2593.621225,2298.286494,4885.359217,3182.885551
2593.621554,4060.306139,2442.679609,8290.306550
2593.621883,3677.258390,3849.070898,5699.585753
2593.622212,5515.887586,3775.050304,6513.812290
2593.622541,3370.820191,1998.556043,7476.080014
2593.622871,2298.286494,3701.029710,6365.771101
2593.623200,-766.095498,-518.144159,11251.130318
2593.623529,-3830.477490,-1406.391290,11843.295072
2593.623858,-4366.744339,-0.000000,12361.439231
2593.624187,-5132.839837,-1702.473667,10807.006753
2593.624516,-3447.429741,-1036.288319,10214.842000
2593.624845,-3064.381992,-2072.576638,12953.603985
2593.625175,-842.705048,-666.185348,11103.089130
2593.625504,-1149.143247,518.144159,10510.924376
2593.625833,-919.314598,-0.000000,6661.853478
2593.626162,-612.876398,1184.329507,10510.924376
2593.626491,2604.724693,1850.514855,10732.986159
2593.626820,3524.039291,4737.318029,518.144159
2593.627149,4903.011187,962.267725,9844.739029
2593.627478,2834.553343,3849.070898,5551.544565
2593.627808,5592.497135,3997.112087,7476.080014
2593.628137,536.266849,3701.029710,6587.832884
2593.628466,-306.438199,2738.761985,7328.038826
2593.628795,-2757.943793,-1628.453072,14137.933492
2593.629124,-3217.601092,-74.020594,10214.842000
2593.629453,-2757.943793,-1998.556043,11399.171507
2593.629782,-2911.162892,-2812.782580,11399.171507
2593.630111,-229.828649,-1036.288319,9992.780217
2593.630441,-2068.457845,-1110.308913,9548.656652
2593.630770,-1532.190996,-0.000000,10214.842000
2593.631099,-1991.848295,-1702.473667,9770.718434
2593.631428,2604.724693,-2590.720797,11029.068536
2593.631757,3217.601092,4663.297435,4441.235652
2593.632086,4749.792088,1406.391290,7179.997637
2593.632415,3600.648841,2368.659014,6291.750507
2593.632744,4213.525239,4367.215058,7698.141797
2593.633074,1685.410096,4589.276840,7179.997637
2593.633403,1072.533697,3552.988522,7328.038826
2593.633732,536.266849,-296.082377,10584.944971
2593.634061,-1532.190996,-2220.617826,10658.965565
2593.634390,-2757.943793,-1998.556043,11621.233289
2593.634719,-3217.601092,-3330.926739,11251.130318
2593.635048,-2987.772442,-3923.091493,9252.574275
2593.635377,-995.924147,-3997.112087,11843.295072
2593.635707,1455.581446,-1406.391290,8290.306550
2593.636036,1838.629195,-0.000000,7254.018232
2593.636365,3600.648841,-1406.391290,7105.977043
2593.636694,4290.134789,2220.617826,6069.688724
2593.637023,3370.820191,3923.091493,7920.203579
2593.637352,2298.286494,2886.803174,7476.080014
2593.637681,2374.896044,1702.473667,7994.224174
2593.638011,1072.533697,444.123565,9918.759623
2593.638340,-153.219100,-1036.288319,9474.636058
2593.638669,-1455.581446,-2294.638420,11843.295072
2593.638998,-2451.505594,-2664.741391,12213.398043
2593.639327,-1072.533697,-2146.597232,11473.192101
2593.639656,-1532.190996,-2146.597232,10214.842000
2593.639985,-842.705048,-1702.473667,9992.780217
2593.640314,0.000000,-370.102971,8956.491898
2593.640644,1378.971896,296.082377,7105.977043
2593.640973,2298.286494,2072.576638,6291.750507
2593.641302,2604.724693,1628.453072,7624.121203
2593.641631,3217.601092,-0.000000,7920.203579
2593.641960,1378.971896,-74.020594,8956.491898
2593.642289,-383.047749,-1554.432478,9992.780217
2593.642618,-536.266849,-2220.617826,10214.842000
2593.642947,-1072.533697,-1184.329507,10066.800811
2593.643277,-1378.971896,-1110.308913,10881.027347
2593.643606,-995.924147,-1184.329507,10881.027347
2593.643935,-919.314598,-740.205942,9622.677246
2593.644264,-842.705048,-1110.308913,9918.759623
2593.644593,-306.438199,888.247130,8660.409521
2593.644922,0.000000,370.102971,8142.265362
2593.645251,766.095498,666.185348,7698.141797
2593.645580,1225.752797,518.144159,7550.100608
2593.645910,1608.800546,-222.061783,7254.018232
2593.646239,1685.410096,-518.144159,7624.121203
2593.646568,536.266849,-740.205942,7920.203579
2593.646897,229.828649,-1036.288319,8956.491898
2593.647226,0.000000,-1258.350101,9400.615463
2593.647555,-153.219100,-2368.659014,10066.800811
2593.647884,0.000000,-2072.576638,10436.903782
2593.648214,-76.609550,-1628.453072,10214.842000
2593.648543,0.000000,-444.123565,10066.800811
2593.648872,0.000000,592.164754,9326.594869
2593.649201,-536.266849,1776.494261,9030.512492
2593.649530,-459.657299,2220.617826,9104.533087
2593.649859,153.219100,666.185348,9030.512492
2593.650188,536.266849,296.082377,8734.430116
2593.650517,689.485948,-592.164754,7772.162391
2593.650847,153.219100,-444.123565,7624.121203
2593.651176,306.438199,-666.185348,8068.244768
2593.651505,536.266849,-1110.308913,8734.430116
2593.651834,1225.752797,-1406.391290,8364.327145
2593.652163,1072.533697,-1184.329507,9030.512492
2593.652492,1072.533697,-444.123565,9104.533087
2593.652821,689.485948,1036.288319,9252.574275
2593.653150,306.438199,1850.514855,9400.615463
2593.653480,-689.485948,1480.411884,10140.821405
2593.653809,-612.876398,962.267725,10510.924376
2593.654138,0.000000,444.123565,10288.862594
2593.654467,0.000000,222.061783,9474.636058
2593.654796,0.000000,444.123565,9030.512492
2593.655125,0.000000,-0.000000,8956.491898
2593.655454,229.828649,-222.061783,8808.450710
2593.655783,1225.752797,-740.205942,8068.244768
2593.656113,1225.752797,-888.247130,7402.059420
2593.656442,1302.362347,-666.185348,7550.100608
2593.656771,995.924147,-0.000000,8068.244768
2593.657100,842.705048,296.082377,8586.388927
2593.657429,689.485948,370.102971,9030.512492
2593.657758,76.609550,-0.000000,9992.780217
2593.658087,-459.657299,-0.000000,10362.883188
2593.658416,0.000000,-0.000000,10288.862594
2593.658746,0.000000,888.247130,9918.759623
2593.659075,0.000000,740.205942,9844.739029
2593.659404,76.609550,370.102971,9548.656652
2593.659733,766.095498,-74.020594,10066.800811
2593.660062,1302.362347,-1036.288319,8660.409521
2593.660391,1149.143247,-962.267725,8216.285956
2593.660720,1225.752797,-444.123565,7994.224174
2593.661050,612.876398,-222.061783,7402.059420
2593.661379,229.828649,-74.020594,8290.306550
2593.661708,0.000000,-222.061783,8438.347739
2593.662037,0.000000,-370.102971,9474.636058
2593.662366,0.000000,-518.144159,9770.718434
2593.662695,459.657299,-444.123565,9326.594869
2593.663024,459.657299,370.102971,9696.697840
2593.663353,153.219100,370.102971,9696.697840
2593.663683,766.095498,-296.082377,9696.697840
2593.664012,1072.533697,-296.082377,9474.636058
2593.664341,2145.067394,-518.144159,9104.533087
2593.664670,2145.067394,-222.061783,8142.265362
2593.664999,1302.362347,148.041188,7772.162391
2593.665328,459.657299,814.226536,8290.306550
2593.665657,76.609550,518.144159,8512.368333
2593.665986,-689.485948,-814.226536,8586.388927
2593.666316,-612.876398,-1406.391290,8660.409521
2593.666645,-536.266849,-2146.597232,9030.512492
2593.666974,-689.485948,-1998.556043,9326.594869
2593.667303,-995.924147,-1702.473667,9400.615463
2593.667632,-1072.533697,-1776.494261,9326.594869
2593.667961,-383.047749,-1258.350101,9474.636058
2593.668290,612.876398,-666.185348,9326.594869
2593.668619,1225.752797,-0.000000,8586.388927
2593.668949,995.924147,1184.329507,8216.285956
2593.669278,306.438199,1258.350101,8290.306550
2593.669607,0.000000,518.144159,8882.471304
2593.669936,-612.876398,-296.082377,9696.697840
2593.670265,-842.705048,-1184.329507,9474.636058
2593.670594,-536.266849,-1702.473667,9622.677246
2593.670923,-1149.143247,-1924.535449,9178.553681
2593.671252,-1532.190996,-1702.473667,9844.739029
2593.671582,-612.876398,-1850.514855,9178.553681
2593.671911,306.438199,-1184.329507,8956.491898
2593.672240,919.314598,-592.164754,8512.368333
2593.672569,1149.143247,-74.020594,8734.430116
2593.672898,1685.410096,444.123565,8438.347739
2593.673227,1455.581446,740.205942,8068.244768
2593.673556,919.314598,1184.329507,9178.553681
2593.673886,0.000000,740.205942,9622.677246
2593.674215,-383.047749,222.061783,9992.780217
2593.674544,0.000000,-222.061783,9770.718434
2593.674873,-306.438199,-518.144159,9474.636058
2593.675202,-612.876398,-666.185348,9400.615463
2593.675531,-612.876398,-962.267725,9474.636058
2593.675860,0.000000,-1332.370696,8882.471304
2593.676189,1302.362347,-444.123565,8216.285956
2593.676519,2221.676944,-518.144159,8142.265362
2593.676848,1685.410096,222.061783,7846.182985
2593.677177,2221.676944,592.164754,8068.244768
2593.677506,1685.410096,1628.453072,7476.080014
2593.677835,1302.362347,1628.453072,8586.388927
2593.678164,689.485948,1480.411884,9326.594869
2593.678493,0.000000,740.205942,9400.615463
2593.678822,76.609550,-0.000000,10066.800811
2593.679152,0.000000,-222.061783,9770.718434
2593.679481,-459.657299,-518.144159,9918.759623
2593.679810,-459.657299,-518.144159,9918.759623
2593.680139,306.438199,-592.164754,9104.533087
2593.680468,1225.752797,-518.144159,9104.533087
2593.680797,1762.019645,-222.061783,8438.347739
2593.681126,1532.190996,592.164754,8216.285956
2593.681455,842.705048,962.267725,8438.347739
2593.681785,459.657299,1480.411884,8364.327145
2593.682114,536.266849,1110.308913,9178.553681
2593.682443,0.000000,-0.000000,9844.739029
2593.682772,229.828649,-518.144159,9992.780217
2593.683101,-612.876398,-1480.411884,10658.965565
2593.683430,-995.924147,-814.226536,10510.924376
2593.683759,-842.705048,-148.041188,9918.759623
2593.684088,0.000000,-370.102971,10140.821405
2593.684418,689.485948,-0.000000,9326.594869
2593.684747,1455.581446,-74.020594,9104.533087
2593.685076,1991.848295,-222.061783,8660.409521
2593.685405,1762.019645,814.226536,8068.244768
2593.685734,919.314598,962.267725,8216.285956
2593.686063,689.485948,592.164754,8290.306550
2593.686392,-383.047749,-296.082377,8734.430116
2593.686722,-383.047749,-888.247130,9548.656652
2593.687051,-383.047749,-1480.411884,9474.636058
2593.687380,-995.924147,-1776.494261,9474.636058
2593.687709,-1072.533697,-1924.535449,9696.697840
2593.688038,-995.924147,-1184.329507,9992.780217
2593.688367,-306.438199,-962.267725,9622.677246
2593.688696,612.876398,-888.247130,9030.512492
2593.689025,1225.752797,-0.000000,8882.471304
2593.689355,1455.581446,370.102971,8290.306550
2593.689684,995.924147,1554.432478,8142.265362
2593.690013,1072.533697,1480.411884,8142.265362
2593.690342,536.266849,1110.308913,8734.430116
2593.690671,229.828649,296.082377,8660.409521
2593.691000,76.609550,-962.267725,9104.533087
2593.691329,-306.438199,-1776.494261,9178.553681
2593.691658,-842.705048,-2220.617826,9178.553681
2593.691988,-766.095498,-2146.597232,9252.574275
2593.692317,-383.047749,-1776.494261,9104.533087
2593.692646,306.438199,-1554.432478,9326.594869
2593.692975,766.095498,-1184.329507,8660.409521
2593.693304,1302.362347,-296.082377,8660.409521
2593.693633,1072.533697,888.247130,8216.285956
2593.693962,919.314598,1184.329507,8068.244768
2593.694291,842.705048,1110.308913,8882.471304
2593.694621,612.876398,370.102971,9696.697840
2593.694950,383.047749,-296.082377,9400.615463
2593.695279,76.609550,-1258.350101,9548.656652
2593.695608,-383.047749,-814.226536,9548.656652
2593.695937,-459.657299,-666.185348,9252.574275
2593.696266,-383.047749,-1036.288319,9474.636058
2593.696595,383.047749,-962.267725,9252.574275
2593.696924,842.705048,-1258.350101,8882.471304
2593.697253,1302.362347,-666.185348,8956.491898
2593.697582,842.705048,-0.000000,8660.409521
2593.697912,612.876398,666.185348,8660.409521
2593.698241,459.657299,888.247130,8660.409521
2593.698570,0.000000,740.205942,9474.636058
2593.698899,0.000000,518.144159,10214.842000
2593.699228,459.657299,-222.061783,9992.780217
2593.699557,153.219100,-296.082377,9844.739029
2593.699886,612.876398,-370.102971,9178.553681
2593.700215,766.095498,-296.082377,9326.594869
2593.700544,536.266849,-74.020594,8882.471304
2593.700873,1149.143247,-0.000000,8438.347739
2593.701202,1378.971896,148.041188,8512.368333
2593.701531,1838.629195,-0.000000,8660.409521
2593.701860,1455.581446,518.144159,8216.285956
2593.702189,766.095498,1110.308913,8586.388927
2593.702518,0.000000,296.082377,9104.533087
2593.702847,-153.219100,296.082377,9844.739029
2593.703176,-306.438199,-296.082377,10140.821405
2593.703505,-306.438199,-444.123565,9844.739029
2593.703835,-383.047749,222.061783,9326.594869
2593.704164,-383.047749,666.185348,10066.800811
2593.704493,306.438199,444.123565,9474.636058
2593.704822,842.705048,592.164754,9252.574275
2593.705151,1455.581446,-74.020594,9030.512492
2593.705480,1302.362347,-0.000000,8956.491898
2593.705809,766.095498,814.226536,8734.430116
2593.706138,612.876398,814.226536,8364.327145
2593.706467,153.219100,1110.308913,9178.553681
2593.706796,0.000000,518.144159,9474.636058
2593.707125,-536.266849,-222.061783,9622.677246
2593.707454,-536.266849,-444.123565,9770.718434
2593.707783,-536.266849,-518.144159,9474.636058
2593.708112,-689.485948,-518.144159,9178.553681
2593.708441,-536.266849,-740.205942,9252.574275
2593.708770,459.657299,-740.205942,8808.450710
2593.709099,1149.143247,-592.164754,8586.388927
2593.709428,1378.971896,-0.000000,8512.368333
2593.709758,1225.752797,888.247130,7846.182985
2593.710087,766.095498,1184.329507,7846.182985
2593.710416,383.047749,1110.308913,8364.327145
2593.710745,-612.876398,-0.000000,8512.368333
2593.711074,-1149.143247,-444.123565,9400.615463
2593.711403,-612.876398,-1036.288319,9770.718434
2593.711732,-995.924147,-1480.411884,9474.636058
2593.712061,-1149.143247,-1480.411884,10066.800811
2593.712390,-689.485948,-962.267725,9474.636058
2593.712719,-153.219100,-1110.308913,9178.553681
2593.713048,229.828649,296.082377,9178.553681
2593.713377,1302.362347,-518.144159,9104.533087
2593.713706,995.924147,740.205942,9104.533087
2593.714035,1378.971896,518.144159,8734.430116
2593.714364,1149.143247,666.185348,7920.203579
2593.714693,0.000000,296.082377,9030.512492
2593.715022,0.000000,-74.020594,9548.656652
2593.715351,383.047749,-1184.329507,10288.862594
2593.715681,-383.047749,-592.164754,9844.739029
2593.716010,-153.219100,-222.061783,9400.615463
2593.716339,-153.219100,-592.164754,9400.615463
2593.716668,0.000000,-148.041188,9400.615463
2593.716997,1225.752797,-888.247130,9104.533087
2593.717326,2451.505594,-1628.453072,9104.533087
2593.717655,1762.019645,-370.102971,8660.409521
2593.717984,2221.676944,-74.020594,8364.327145
2593.718313,1762.019645,1036.288319,8734.430116
2593.718642,689.485948,1406.391290,8290.306550
2593.718971,536.266849,1036.288319,9104.533087
2593.719300,76.609550,518.144159,9548.656652
2593.719629,459.657299,-370.102971,9474.636058
2593.719958,306.438199,-1110.308913,9918.759623
2593.720287,-842.705048,-962.267725,10288.862594
2593.720616,-306.438199,-1110.308913,9770.718434
2593.720945,153.219100,-2072.576638,9474.636058
2593.721275,689.485948,-1332.370696,8734.430116
2593.721604,1762.019645,-592.164754,8660.409521
2593.721933,1532.190996,592.164754,8068.244768
2593.722262,1302.362347,1628.453072,7846.182985
2593.722591,1072.533697,1776.494261,7994.224174
2593.722920,995.924147,1480.411884,8438.347739
2593.723249,153.219100,222.061783,9178.553681
2593.723578,0.000000,-370.102971,9622.677246
2593.723907,-383.047749,-1110.308913,9992.780217
2593.724236,-459.657299,-1480.411884,9474.636058
2593.724565,-383.047749,-1554.432478,9696.697840
2593.724894,0.000000,-1332.370696,9474.636058
2593.725223,766.095498,-1258.350101,9104.533087
2593.725552,1532.190996,-74.020594,8586.388927
2593.725881,995.924147,-0.000000,8290.306550
2593.726210,1149.143247,592.164754,8142.265362
2593.726539,536.266849,962.267725,7772.162391
2593.726868,306.438199,-0.000000,8734.430116
2593.727198,76.609550,-518.144159,9474.636058
2593.727527,-306.438199,-1036.288319,9474.636058
2593.727856,-383.047749,-1332.370696,9770.718434
2593.728185,-919.314598,-666.185348,9326.594869
2593.728514,-919.314598,-518.144159,9326.594869
2593.728843,-459.657299,-444.123565,9178.553681
2593.729172,76.609550,-370.102971,9030.512492
2593.729501,612.876398,-592.164754,9030.512492
2593.729830,766.095498,-74.020594,8364.327145
2593.730159,689.485948,222.061783,8734.430116
2593.730488,229.828649,518.144159,8734.430116
2593.730817,-306.438199,740.205942,8808.450710
2593.731146,-995.924147,592.164754,9178.553681
2593.731475,-919.314598,-0.000000,9548.656652
2593.731804,-306.438199,-222.061783,9400.615463
2593.732133,-612.876398,-0.000000,9548.656652
2593.732462,-1072.533697,-296.082377,9178.553681
2593.732791,0.000000,-370.102971,9474.636058
2593.733121,229.828649,-444.123565,9178.553681
2593.733450,1302.362347,-296.082377,8438.347739
2593.733779,1991.848295,-0.000000,8660.409521
2593.734108,1838.629195,-0.000000,8586.388927
2593.734437,1532.190996,740.205942,8290.306550
2593.734766,1762.019645,1184.329507,8660.409521
2593.735095,612.876398,1258.350101,8512.368333
2593.735424,0.000000,888.247130,9474.636058
2593.735753,0.000000,-0.000000,9622.677246
2593.736082,-153.219100,-814.226536,9548.656652
2593.736411,-612.876398,-1110.308913,9622.677246
2593.736740,-229.828649,-1554.432478,9918.759623
2593.737069,-306.438199,-1406.391290,9696.697840
2593.737398,995.924147,-1110.308913,9252.574275
2593.737727,995.924147,-592.164754,9326.594869
2593.738056,1149.143247,-74.020594,8882.471304
2593.738385,1608.800546,666.185348,8512.368333
2593.738714,1608.800546,1406.391290,8216.285956
2593.739044,1225.752797,1924.535449,8512.368333
2593.739373,766.095498,1036.288319,9326.594869
2593.739702,766.095498,222.061783,9326.594869
2593.740031,766.095498,-296.082377,9474.636058
2593.740360,153.219100,-740.205942,9696.697840
2593.740689,0.000000,-740.205942,9622.677246
2593.741018,0.000000,-1110.308913,9474.636058
2593.741347,229.828649,-962.267725,9548.656652
2593.741676,2221.676944,-814.226536,9030.512492
2593.742005,1608.800546,-740.205942,8586.388927
2593.742334,1608.800546,-0.000000,8364.327145
2593.742663,1455.581446,1184.329507,7698.141797
2593.742992,842.705048,962.267725,8142.265362
2593.743321,459.657299,592.164754,8882.471304
2593.743650,383.047749,-888.247130,9030.512492
2593.743979,-153.219100,-1184.329507,9474.636058
2593.744308,153.219100,-1406.391290,9474.636058
2593.744637,0.000000,-740.205942,9474.636058
2593.744967,-689.485948,-814.226536,9178.553681
2593.745296,0.000000,-740.205942,8882.471304
2593.745625,306.438199,-888.247130,8956.491898
2593.745954,612.876398,-666.185348,8512.368333
2593.746283,612.876398,-296.082377,7550.100608
2593.746612,536.266849,-0.000000,8660.409521
2593.746941,-459.657299,444.123565,8142.265362
2593.747270,-536.266849,-0.000000,9178.553681
2593.747599,-842.705048,-666.185348,9400.615463
2593.747928,-766.095498,-962.267725,9770.718434
2593.748257,-1149.143247,-1332.370696,9474.636058
2593.748586,-766.095498,-1406.391290,9548.656652
2593.748915,-995.924147,-666.185348,9178.553681
2593.749244,76.609550,-1110.308913,9474.636058
2593.749573,689.485948,-740.205942,8956.491898
2593.749902,1149.143247,-592.164754,8586.388927
2593.750231,1915.238745,-222.061783,8512.368333
2593.750561,1915.238745,444.123565,8216.285956
2593.750890,1302.362347,814.226536,8290.306550
2593.751219,306.438199,592.164754,9178.553681
2593.751548,0.000000,518.144159,9178.553681
2593.751877,-536.266849,-222.061783,9474.636058
2593.752206,-766.095498,-148.041188,9326.594869
