#time,accel_x,accel_y,accel_z
2566.797105,153.219100,-74.020594,8956.491898
2566.797434,306.438199,-74.020594,8586.388927
2566.797763,612.876398,-222.061783,8882.471304
2566.798092,383.047749,-370.102971,9104.533087
2566.798421,383.047749,-0.000000,9178.553681
2566.798750,383.047749,-74.020594,8956.491898
2566.799079,383.047749,-0.000000,8956.491898
2566.799408,536.266849,-0.000000,8808.450710
2566.799737,383.047749,-0.000000,8808.450710
2566.800066,612.876398,-74.020594,8956.491898
2566.800395,536.266849,-592.164754,8882.471304
2566.800724,0.000000,-370.102971,9030.512492
2566.801053,76.609550,-296.082377,9252.574275
2566.801382,229.828649,-444.123565,9252.574275
2566.801711,306.438199,-296.082377,9178.553681
2566.802041,153.219100,-222.061783,9548.656652
2566.802370,-766.095498,-296.082377,9474.636058
2566.802699,459.657299,-296.082377,9252.574275
2566.803028,383.047749,-74.020594,9252.574275
2566.803357,536.266849,-0.000000,9178.553681
2566.803686,306.438199,-74.020594,8956.491898
2566.804015,459.657299,-0.000000,9104.533087
2566.804344,383.047749,-74.020594,9178.553681
2566.804673,536.266849,-740.205942,9104.533087
2566.805002,0.000000,-370.102971,9400.615463
2566.805331,229.828649,-222.061783,9030.512492
2566.805660,383.047749,-74.020594,9104.533087
2566.805989,229.828649,-222.061783,9178.553681
2566.806318,76.609550,-0.000000,9030.512492
2566.806647,612.876398,-148.041188,9252.574275
2566.806976,153.219100,-0.000000,8808.450710
2566.807305,536.266849,-0.000000,8660.409521
2566.807634,229.828649,-0.000000,9104.533087
2566.807963,153.219100,-0.000000,8660.409521
2566.808292,229.828649,-0.000000,8734.430116
2566.808621,153.219100,-0.000000,8808.450710
2566.808950,0.000000,-148.041188,9178.553681
2566.809279,306.438199,-296.082377,9252.574275
2566.809608,612.876398,-0.000000,9104.533087
2566.809937,306.438199,-444.123565,8956.491898
2566.810266,153.219100,-222.061783,8956.491898
2566.810595,76.609550,-222.061783,8956.491898
2566.810924,229.828649,-222.061783,8808.450710
2566.811253,536.266849,-0.000000,8956.491898
2566.811583,536.266849,-296.082377,8808.450710
2566.811912,459.657299,-518.144159,8808.450710
2566.812241,383.047749,-74.020594,9178.553681
2566.812570,383.047749,-148.041188,9178.553681
2566.812899,383.047749,-148.041188,9326.594869
2566.813228,229.828649,-296.082377,9326.594869
2566.813557,0.000000,-0.000000,9252.574275
2566.813886,459.657299,-222.061783,9326.594869
2566.814215,153.219100,-148.041188,9252.574275
2566.814544,612.876398,-222.061783,9030.512492
2566.814873,459.657299,-74.020594,9326.594869
2566.815202,306.438199,-74.020594,9104.533087
2566.815531,383.047749,-74.020594,9030.512492
2566.815860,229.828649,-0.000000,9326.594869
2566.816189,612.876398,-148.041188,9104.533087
2566.816518,919.314598,-222.061783,8882.471304
2566.816847,0.000000,-444.123565,8882.471304
2566.817176,76.609550,-222.061783,9178.553681
2566.817505,153.219100,-370.102971,9178.553681
2566.817834,76.609550,-222.061783,9030.512492
2566.818163,153.219100,-222.061783,9030.512492
2566.818492,-689.485948,-0.000000,9178.553681
2566.818821,689.485948,-148.041188,9326.594869
2566.819150,536.266849,-0.000000,8808.450710
2566.819479,383.047749,-0.000000,8808.450710
2566.819808,459.657299,-0.000000,8734.430116
2566.820137,306.438199,-0.000000,8660.409521
2566.820466,153.219100,-296.082377,8882.471304
2566.820795,766.095498,-222.061783,8882.471304
2566.821125,153.219100,-148.041188,9400.615463
2566.821454,229.828649,-0.000000,9474.636058
2566.821783,76.609550,-222.061783,9030.512492
2566.822112,76.609550,-444.123565,8956.491898
2566.822441,0.000000,-148.041188,9104.533087
2566.822770,153.219100,-222.061783,9104.533087
2566.823099,306.438199,-222.061783,9178.553681
2566.823428,306.438199,-222.061783,9030.512492
2566.823757,536.266849,-370.102971,9030.512492
2566.824086,383.047749,-0.000000,9252.574275
2566.824415,306.438199,-222.061783,9104.533087
2566.824744,383.047749,-296.082377,9178.553681
2566.825073,766.095498,-444.123565,8956.491898
2566.825402,383.047749,-222.061783,9400.615463
2566.825731,153.219100,-444.123565,9474.636058
2566.826060,229.828649,-370.102971,9178.553681
2566.826389,153.219100,-74.020594,9178.553681
2566.826718,229.828649,-74.020594,9178.553681
2566.827047,306.438199,-148.041188,9030.512492
2566.827376,536.266849,-148.041188,9178.553681
2566.827705,536.266849,-0.000000,9400.615463
2566.828034,0.000000,-296.082377,9326.594869
2566.828363,1149.143247,-518.144159,9770.718434
2566.828692,1455.581446,-740.205942,9178.553681
2566.829021,1608.800546,-518.144159,9252.574275
2566.829350,1991.848295,-592.164754,9252.574275
2566.829679,2681.334243,-0.000000,8512.368333
2566.830008,3064.381992,444.123565,8808.450710
2566.830337,3830.477490,-148.041188,8586.388927
2566.830667,3753.867940,-148.041188,8142.265362
2566.830996,3064.381992,444.123565,8586.388927
2566.831325,2987.772442,592.164754,8142.265362
2566.831654,2757.943793,-296.082377,8734.430116
2566.831983,3217.601092,-222.061783,9178.553681
2566.832312,1915.238745,-444.123565,9474.636058
2566.832641,1838.629195,-1258.350101,10362.883188
2566.832970,2298.286494,-1924.535449,9400.615463
2566.833299,2451.505594,-0.000000,9252.574275
2566.833628,2374.896044,-814.226536,9992.780217
2566.833957,3294.210641,-814.226536,9400.615463
2566.834286,3907.087040,370.102971,9696.697840
2566.834615,5056.230287,740.205942,8438.347739
2566.834944,5132.839837,962.267725,7698.141797
2566.835273,4443.353888,1332.370696,9400.615463
2566.835602,5132.839837,962.267725,7994.224174
2566.835931,4290.134789,740.205942,7846.182985
2566.836260,3907.087040,370.102971,9474.636058
2566.836589,2987.772442,296.082377,8660.409521
2566.836918,2374.896044,-0.000000,9696.697840
2566.837247,842.705048,-1258.350101,9844.739029
2566.837576,2145.067394,-1036.288319,10140.821405
2566.837905,766.095498,-1258.350101,9770.718434
2566.838234,1225.752797,-888.247130,9770.718434
2566.838563,1072.533697,-740.205942,10288.862594
2566.838892,2681.334243,296.082377,8956.491898
2566.839221,2987.772442,-592.164754,8586.388927
2566.839550,3677.258390,814.226536,9622.677246
2566.839879,4136.915689,444.123565,8142.265362
2566.840209,4366.744339,740.205942,7994.224174
2566.840538,4519.963438,814.226536,8956.491898
2566.840867,4136.915689,222.061783,8438.347739
2566.841196,3600.648841,-518.144159,8882.471304
2566.841525,3370.820191,-1258.350101,9400.615463
2566.841854,2987.772442,-1258.350101,10140.821405
2566.842183,2528.115143,-1924.535449,9400.615463
2566.842512,2528.115143,-1480.411884,9918.759623
2566.842841,2451.505594,-1036.288319,9548.656652
2566.843170,2987.772442,-0.000000,9474.636058
2566.843499,3217.601092,148.041188,8512.368333
2566.843828,3830.477490,888.247130,8586.388927
2566.844157,3600.648841,1850.514855,8364.327145
2566.844486,3983.696590,2146.597232,7550.100608
2566.844815,3907.087040,2146.597232,7402.059420
2566.845144,3677.258390,1776.494261,8290.306550
2566.845473,3294.210641,814.226536,7846.182985
2566.845802,2911.162892,-444.123565,9252.574275
2566.846131,2604.724693,-1332.370696,10140.821405
2566.846460,2757.943793,-2738.761985,9844.739029
2566.846789,2374.896044,-2960.823768,10362.883188
2566.847118,2757.943793,-2516.700203,10658.965565
2566.847447,3370.820191,-2072.576638,10584.944971
2566.847776,4366.744339,-740.205942,9696.697840
2566.848105,5132.839837,444.123565,9178.553681
2566.848434,5515.887586,1406.391290,8142.265362
2566.848763,6052.154434,2294.638420,7846.182985
2566.849092,5209.449386,2738.761985,7698.141797
2566.849421,4596.572988,3330.926739,7179.997637
2566.849751,3830.477490,2812.782580,7105.977043
2566.850080,2528.115143,296.082377,8586.388927
2566.850409,689.485948,-1628.453072,9548.656652
2566.850738,-766.095498,-3182.885551,10807.006753
2566.851067,-1225.752797,-4441.235652,11917.315666
2566.851396,-1302.362347,-4145.153275,10732.986159
2566.851725,-383.047749,-2590.720797,10955.047942
2566.852054,0.000000,-1776.494261,10510.924376
2566.852383,1072.533697,-0.000000,10066.800811
2566.852712,4290.134789,-74.020594,11251.130318
2566.853041,5975.544884,2368.659014,7772.162391
2566.853370,8044.002729,1332.370696,8438.347739
2566.853699,5975.544884,1554.432478,7328.038826
2566.854028,6205.373534,2812.782580,6217.729913
2566.854357,5439.278036,3330.926739,7105.977043
2566.854686,5975.544884,1554.432478,6661.853478
2566.855015,4519.963438,3478.967927,4811.338623
2566.855344,4826.401637,2664.741391,6883.915261
2566.855673,4596.572988,-0.000000,7328.038826
2566.856002,536.266849,-3923.091493,9918.759623
2566.856331,-919.314598,-7846.182985,12361.439231
2566.856660,-2374.896044,-2590.720797,10732.986159
2566.856989,-2221.676944,-7994.224174,13989.892304
2566.857318,-2987.772442,-2146.597232,8882.471304
2566.857647,0.000000,-0.000000,11917.315666
2566.857976,76.609550,1332.370696,10288.862594
2566.858305,229.828649,2516.700203,9104.533087
2566.858634,2987.772442,740.205942,9992.780217
2566.858963,4519.963438,1924.535449,8586.388927
2566.859293,5745.716235,2664.741391,7254.018232
2566.859622,4903.011187,740.205942,5181.441594
2566.859951,4519.963438,962.267725,5625.565159
2566.860280,4903.011187,2442.679609,7402.059420
2566.860609,4366.744339,1184.329507,6809.894666
2566.860938,1455.581446,-74.020594,8364.327145
2566.861267,-1302.362347,-2812.782580,9770.718434
2566.861596,-1915.238745,-3478.967927,11251.130318
2566.861925,-3524.039291,-3775.050304,9992.780217
2566.862254,-2528.115143,-3182.885551,11029.068536
2566.862583,-2834.553343,-814.226536,9992.780217
2566.862912,-2757.943793,-222.061783,11695.253884
2566.863241,-2374.896044,370.102971,11547.212695
2566.863570,-919.314598,740.205942,9696.697840
2566.863899,306.438199,-74.020594,9918.759623
2566.864228,842.705048,740.205942,8290.306550
2566.864557,76.609550,222.061783,9770.718434
2566.864886,1072.533697,-592.164754,11769.274478
2566.865215,4596.572988,1850.514855,6365.771101
2566.865544,7048.078582,1776.494261,6143.709319
2566.865873,5745.716235,962.267725,3849.070898
2566.866202,4290.134789,2294.638420,5921.647536
2566.866531,1991.848295,740.205942,8882.471304
2566.866860,536.266849,-0.000000,8216.285956
2566.867189,-1149.143247,-1184.329507,10658.965565
2566.867518,-2451.505594,-1480.411884,11325.150913
2566.867847,-3140.991542,-518.144159,9252.574275
2566.868176,-2757.943793,-2442.679609,11769.274478
2566.868505,-2604.724693,-1406.391290,9326.594869
2566.868835,-1532.190996,-1110.308913,12139.377449
2566.869164,-1838.629195,-814.226536,12805.562797
2566.869493,-306.438199,666.185348,9918.759623
2566.869822,153.219100,-740.205942,9178.553681
2566.870151,-153.219100,888.247130,8142.265362
2566.870480,0.000000,-148.041188,9622.677246
2566.870809,0.000000,-2146.597232,9770.718434
2566.871138,2451.505594,-444.123565,7994.224174
2566.871467,2528.115143,518.144159,5773.606348
2566.871796,1532.190996,-0.000000,6957.935855
2566.872125,0.000000,1332.370696,6883.915261
2566.872454,-383.047749,-0.000000,9030.512492
2566.872783,-1072.533697,814.226536,9178.553681
2566.873112,-306.438199,814.226536,9178.553681
2566.873441,-1072.533697,-444.123565,9178.553681
2566.873770,-1762.019645,-1036.288319,9992.780217
2566.874099,-1762.019645,-1258.350101,10214.842000
2566.874428,-842.705048,-222.061783,9548.656652
2566.874757,153.219100,444.123565,9548.656652
2566.875086,1072.533697,370.102971,9770.718434
2566.875415,1915.238745,888.247130,8808.450710
2566.875745,1455.581446,370.102971,6957.935855
2566.876074,1455.581446,-1184.329507,7476.080014
2566.876403,1685.410096,-518.144159,7031.956449
2566.876732,1608.800546,-74.020594,8142.265362
2566.877061,-612.876398,-222.061783,9178.553681
2566.877390,-1685.410096,-740.205942,10140.821405
2566.877719,-766.095498,-666.185348,9918.759623
2566.878048,0.000000,-1110.308913,8808.450710
2566.878377,0.000000,-1110.308913,10140.821405
2566.878706,0.000000,-0.000000,10140.821405
2566.879036,-306.438199,296.082377,10807.006753
2566.879365,612.876398,-0.000000,11547.212695
2566.879694,2757.943793,518.144159,8512.368333
2566.880023,4213.525239,1110.308913,7328.038826
2566.880352,4749.792088,740.205942,6143.709319
2566.880681,4596.572988,1480.411884,7031.956449
2566.881010,2528.115143,888.247130,8956.491898
2566.881339,1608.800546,370.102971,7994.224174
2566.881668,0.000000,-370.102971,9474.636058
2566.881998,-1532.190996,-1702.473667,11325.150913
2566.882327,-1991.848295,-1924.535449,8956.491898
2566.882656,-1608.800546,-2072.576638,10881.027347
2566.882985,-919.314598,-1776.494261,10955.047942
2566.883314,-1072.533697,-666.185348,11103.089130
2566.883643,-1072.533697,-592.164754,11843.295072
2566.883972,-689.485948,1258.350101,9400.615463
2566.884301,383.047749,814.226536,7994.224174
2566.884630,0.000000,-0.000000,9326.594869
2566.884959,612.876398,-592.164754,10140.821405
2566.885289,2528.115143,-888.247130,8956.491898
2566.885618,3294.210641,1036.288319,5847.626942
2566.885947,3677.258390,-0.000000,6439.791695
2566.886276,1608.800546,1110.308913,6217.729913
2566.886605,766.095498,1110.308913,8808.450710
2566.886934,-995.924147,-74.020594,8290.306550
2566.887263,0.000000,-962.267725,9104.533087
2566.887592,0.000000,-296.082377,9400.615463
2566.887921,-306.438199,-666.185348,8734.430116
2566.888250,-1378.971896,-1258.350101,11325.150913
2566.888580,-1455.581446,-74.020594,9918.759623
2566.888909,0.000000,518.144159,9992.780217
2566.889238,76.609550,814.226536,9474.636058
2566.889567,306.438199,148.041188,8882.471304
2566.889896,-919.314598,-1406.391290,9770.718434
2566.890225,-1608.800546,-1702.473667,9474.636058
2566.890554,-459.657299,-1332.370696,9326.594869
2566.890883,0.000000,-888.247130,8142.265362
2566.891212,306.438199,444.123565,7772.162391
2566.891542,-689.485948,592.164754,8142.265362
2566.891871,-689.485948,666.185348,8364.327145
2566.892200,-459.657299,-1184.329507,9474.636058
2566.892529,306.438199,-1110.308913,8808.450710
2566.892858,306.438199,-0.000000,9252.574275
2566.893187,-919.314598,370.102971,10288.862594
2566.893516,-1608.800546,222.061783,10288.862594
2566.893845,-689.485948,592.164754,10584.944971
2566.894174,-612.876398,-0.000000,9474.636058
2566.894503,306.438199,-518.144159,9104.533087
2566.894833,1225.752797,-1110.308913,9474.636058
2566.895162,919.314598,-74.020594,7920.203579
2566.895491,383.047749,-74.020594,8660.409521
2566.895820,-306.438199,296.082377,8512.368333
2566.896149,-766.095498,370.102971,9030.512492
2566.896478,-842.705048,-296.082377,9400.615463
2566.896807,76.609550,-592.164754,8512.368333
2566.897136,153.219100,-1332.370696,8660.409521
2566.897465,306.438199,-1184.329507,9696.697840
2566.897794,0.000000,-0.000000,9622.677246
2566.898124,306.438199,666.185348,9696.697840
2566.898453,76.609550,1258.350101,8882.471304
2566.898782,229.828649,1110.308913,9992.780217
2566.899111,2068.457845,-370.102971,10584.944971
2566.899440,1915.238745,-1184.329507,8364.327145
2566.899769,2068.457845,-740.205942,7031.956449
2566.900098,3370.820191,888.247130,7846.182985
2566.900427,2145.067394,592.164754,7328.038826
2566.900756,1225.752797,1184.329507,8290.306550
2566.901086,76.609550,222.061783,8734.430116
2566.901415,-689.485948,-814.226536,8956.491898
2566.901744,306.438199,-2220.617826,9992.780217
2566.902073,0.000000,-962.267725,9178.553681
2566.902402,-306.438199,-2072.576638,10732.986159
2566.902731,-306.438199,-1110.308913,10658.965565
2566.903060,0.000000,296.082377,10362.883188
2566.903389,-306.438199,518.144159,9696.697840
2566.903718,1225.752797,-0.000000,9474.636058
2566.904047,1838.629195,-962.267725,10436.903782
2566.904377,2604.724693,370.102971,7846.182985
2566.904706,3677.258390,444.123565,7476.080014
2566.905035,3294.210641,814.226536,6587.832884
2566.905364,2834.553343,1332.370696,7179.997637
2566.905693,689.485948,592.164754,8290.306550
2566.906022,-689.485948,-666.185348,8660.409521
2566.906351,-1762.019645,-2146.597232,10584.944971
2566.906680,-689.485948,-2072.576638,9326.594869
2566.907009,-612.876398,-1406.391290,8808.450710
2566.907338,-995.924147,-962.267725,10214.842000
2566.907668,-536.266849,-296.082377,9844.739029
2566.907997,0.000000,370.102971,10214.842000
2566.908326,383.047749,814.226536,9326.594869
2566.908655,0.000000,148.041188,8660.409521
2566.908984,689.485948,-1332.370696,9770.718434
2566.909313,1225.752797,-148.041188,8290.306550
2566.909642,1455.581446,222.061783,7105.977043
2566.909971,1225.752797,666.185348,7550.100608
2566.910300,383.047749,814.226536,7328.038826
2566.910630,0.000000,518.144159,8216.285956
2566.910959,-1302.362347,-0.000000,8438.347739
2566.911288,-383.047749,-1702.473667,8808.450710
2566.911617,-612.876398,-1850.514855,9326.594869
2566.911946,-766.095498,-962.267725,9622.677246
2566.912275,-1608.800546,-962.267725,10066.800811
2566.912604,-1532.190996,-296.082377,10288.862594
2566.912933,0.000000,592.164754,9992.780217
2566.913262,0.000000,592.164754,9474.636058
2566.913591,383.047749,-296.082377,9622.677246
2566.913921,0.000000,-1184.329507,10214.842000
2566.914250,612.876398,-888.247130,9252.574275
2566.914579,536.266849,1184.329507,7476.080014
2566.914908,459.657299,592.164754,8586.388927
2566.915237,-919.314598,444.123565,8364.327145
2566.915566,-536.266849,444.123565,9178.553681
2566.915895,-612.876398,-1110.308913,9030.512492
2566.916224,0.000000,-1776.494261,8142.265362
2566.916553,76.609550,-1406.391290,9992.780217
2566.916882,0.000000,-666.185348,9770.718434
2566.917212,-383.047749,-0.000000,9918.759623
2566.917541,76.609550,592.164754,10214.842000
2566.917870,995.924147,962.267725,9696.697840
2566.918199,1608.800546,296.082377,10214.842000
2566.918528,2068.457845,962.267725,8290.306550
2566.918857,2528.115143,814.226536,7772.162391
2566.919186,2145.067394,592.164754,7920.203579
2566.919515,1302.362347,1702.473667,7698.141797
2566.919844,0.000000,592.164754,8512.368333
2566.920174,-1838.629195,-370.102971,9326.594869
2566.920503,-459.657299,-1110.308913,9918.759623
2566.920832,-536.266849,-1332.370696,8290.306550
2566.921161,-153.219100,-2072.576638,9030.512492
2566.921490,-383.047749,-1850.514855,9844.739029
2566.921819,-306.438199,-592.164754,9696.697840
2566.922148,-153.219100,-0.000000,10066.800811
2566.922477,459.657299,222.061783,9474.636058
2566.922806,229.828649,-0.000000,9844.739029
2566.923135,229.828649,-1184.329507,10214.842000
2566.923465,1608.800546,-1258.350101,10066.800811
2566.923794,2604.724693,370.102971,7328.038826
2566.924123,3907.087040,1110.308913,7624.121203
2566.924452,2528.115143,2368.659014,6957.935855
2566.924781,1991.848295,1924.535449,7846.182985
2566.925110,689.485948,740.205942,8438.347739
2566.925439,0.000000,-814.226536,8882.471304
2566.925768,612.876398,-1850.514855,9548.656652
2566.926097,0.000000,-1924.535449,9696.697840
2566.926426,-766.095498,-1924.535449,10066.800811
2566.926756,-842.705048,-1628.453072,10658.965565
2566.927085,-536.266849,-0.000000,9548.656652
2566.927414,842.705048,518.144159,9696.697840
2566.927743,1608.800546,222.061783,9770.718434
2566.928072,1838.629195,444.123565,8512.368333
2566.928401,2604.724693,-0.000000,8660.409521
2566.928730,2145.067394,962.267725,7031.956449
2566.929059,1225.752797,1110.308913,7772.162391
2566.929388,-459.657299,370.102971,9326.594869
2566.929718,-306.438199,-0.000000,8882.471304
2566.930047,-1225.752797,-814.226536,9770.718434
2566.930376,-306.438199,-1554.432478,8586.388927
2566.930705,-459.657299,-1258.350101,8216.285956
2566.931034,-383.047749,-2146.597232,10214.842000
2566.931363,-842.705048,-666.185348,9844.739029
2566.931692,-689.485948,-0.000000,9696.697840
2566.932021,459.657299,370.102971,9400.615463
2566.932350,153.219100,592.164754,8586.388927
2566.932679,0.000000,-1184.329507,10140.821405
2566.933009,1225.752797,-666.185348,9252.574275
2566.933338,1685.410096,-0.000000,7624.121203
2566.933667,2145.067394,296.082377,8216.285956
2566.933996,-153.219100,1776.494261,7550.100608
2566.934325,612.876398,1258.350101,9178.553681
2566.934654,-689.485948,-0.000000,8882.471304
2566.934983,-766.095498,-1036.288319,8734.430116
2566.935312,153.219100,-2368.659014,9622.677246
2566.935641,0.000000,-814.226536,8290.306550
2566.935970,-306.438199,-1554.432478,10288.862594
2566.936300,-1225.752797,-592.164754,10066.800811
2566.936629,0.000000,296.082377,9622.677246
2566.936958,229.828649,-0.000000,9474.636058
2566.937287,306.438199,-74.020594,8956.491898
2566.937616,229.828649,-962.267725,9844.739029
2566.937945,536.266849,-888.247130,8586.388927
2566.938274,842.705048,-0.000000,8438.347739
2566.938603,766.095498,888.247130,7994.224174
2566.938932,0.000000,962.267725,7994.224174
2566.939262,-1608.800546,592.164754,9104.533087
2566.939591,-919.314598,-0.000000,9326.594869
2566.939920,0.000000,-888.247130,8734.430116
2566.940249,76.609550,-1480.411884,8660.409521
2566.940578,0.000000,-1184.329507,9474.636058
2566.940907,-536.266849,-888.247130,9918.759623
2566.941236,-612.876398,-370.102971,10066.800811
2566.941565,-306.438199,-0.000000,9178.553681
2566.941894,0.000000,740.205942,9252.574275
2566.942223,0.000000,-666.185348,9918.759623
2566.942553,689.485948,-592.164754,9178.553681
2566.942882,1608.800546,370.102971,8512.368333
2566.943211,1838.629195,740.205942,7846.182985
2566.943540,1532.190996,1776.494261,7179.997637
2566.943869,0.000000,1406.391290,8882.471304
2566.944198,-612.876398,666.185348,8882.471304
2566.944527,-536.266849,-740.205942,8956.491898
2566.944856,-766.095498,-1924.535449,9474.636058
2566.945185,-459.657299,-1332.370696,9400.615463
2566.945515,-1608.800546,-888.247130,10436.903782
2566.945844,-1302.362347,-148.041188,10066.800811
2566.946173,459.657299,518.144159,10214.842000
2566.946502,1072.533697,222.061783,9844.739029
2566.946831,1685.410096,518.144159,9178.553681
2566.947160,2681.334243,740.205942,7624.121203
2566.947489,2757.943793,-74.020594,8216.285956
2566.947818,2298.286494,1628.453072,7772.162391
2566.948147,1149.143247,962.267725,9400.615463
2566.948476,-383.047749,-0.000000,9548.656652
2566.948806,-1685.410096,-222.061783,9918.759623
2566.949135,-1762.019645,-1406.391290,10584.944971
2566.949464,-1225.752797,-1628.453072,8808.450710
2566.949793,-536.266849,-1924.535449,9844.739029
2566.950122,-153.219100,-1998.556043,10881.027347
2566.950451,-383.047749,-0.000000,10510.924376
2566.950780,-459.657299,444.123565,10066.800811
2566.951109,0.000000,296.082377,9104.533087
2566.951438,1532.190996,-74.020594,10362.883188
2566.951767,2757.943793,-222.061783,8068.244768
2566.952097,4366.744339,888.247130,7179.997637
2566.952426,4060.306139,888.247130,6365.771101
2566.952755,4366.744339,2368.659014,6883.915261
2566.953084,2451.505594,1554.432478,8142.265362
2566.953413,76.609550,592.164754,8216.285956
2566.953742,-1302.362347,-592.164754,9252.574275
2566.954071,-1532.190996,-2368.659014,10732.986159
2566.954400,-1225.752797,-2368.659014,9326.594869
2566.954729,-1838.629195,-1850.514855,10436.903782
2566.955059,-842.705048,-1554.432478,10288.862594
2566.955388,-459.657299,-518.144159,9992.780217
2566.955717,0.000000,962.267725,9474.636058
2566.956046,459.657299,814.226536,8660.409521
2566.956375,1225.752797,-814.226536,9104.533087
2566.956704,2068.457845,1036.288319,7031.956449
2566.957033,2757.943793,370.102971,7772.162391
2566.957362,2374.896044,-518.144159,7698.141797
2566.957691,1455.581446,1850.514855,7254.018232
2566.958020,-612.876398,370.102971,9474.636058
2566.958350,-1608.800546,-148.041188,9252.574275
2566.958679,-1455.581446,-962.267725,10584.944971
2566.959008,-1685.410096,-1776.494261,8956.491898
2566.959337,-919.314598,-1332.370696,10584.944971
2566.959666,-1532.190996,-2146.597232,10362.883188
2566.959995,-919.314598,-0.000000,10214.842000
2566.960324,-306.438199,-740.205942,10584.944971
2566.960653,-689.485948,740.205942,8808.450710
2566.960982,0.000000,-74.020594,9696.697840
2566.961311,1991.848295,-1924.535449,10140.821405
2566.961641,1838.629195,148.041188,6809.894666
2566.961970,2681.334243,814.226536,8660.409521
2566.962299,2451.505594,1036.288319,6883.915261
2566.962628,1302.362347,1924.535449,7698.141797
2566.962957,-459.657299,1036.288319,8290.306550
2566.963286,-995.924147,370.102971,8586.388927
2566.963615,-1378.971896,-2294.638420,10732.986159
2566.963944,-612.876398,-1480.411884,9400.615463
2566.964273,-1072.533697,-888.247130,9770.718434
2566.964603,-1225.752797,-1110.308913,10362.883188
2566.964932,-612.876398,222.061783,9474.636058
2566.965261,-306.438199,666.185348,9696.697840
2566.965590,153.219100,296.082377,9400.615463
2566.965919,1378.971896,-370.102971,8660.409521
2566.966248,2221.676944,-1332.370696,7994.224174
2566.966577,2298.286494,666.185348,6957.935855
2566.966906,1608.800546,814.226536,7105.977043
2566.967235,612.876398,518.144159,8438.347739
2566.967564,-842.705048,370.102971,8734.430116
2566.967894,-1608.800546,-592.164754,9548.656652
2566.968223,-1149.143247,-1554.432478,9548.656652
2566.968552,-1608.800546,-1998.556043,8438.347739
2566.968881,-842.705048,-1998.556043,10881.027347
2566.969210,-995.924147,-888.247130,10362.883188
2566.969539,-689.485948,-814.226536,9918.759623
2566.969868,-536.266849,-0.000000,10362.883188
2566.970197,153.219100,296.082377,9178.553681
2566.970526,1378.971896,-814.226536,10807.006753
2566.970855,2068.457845,-296.082377,7994.224174
2566.971185,3600.648841,296.082377,7550.100608
2566.971514,3140.991542,370.102971,6957.935855
2566.971843,2987.772442,2146.597232,7105.977043
2566.972172,1302.362347,1110.308913,9178.553681
2566.972501,-383.047749,370.102971,8734.430116
2566.972830,-459.657299,-74.020594,9770.718434
2566.973159,-153.219100,-2664.741391,10955.047942
2566.973488,0.000000,-1332.370696,9474.636058
2566.973817,-306.438199,-962.267725,10955.047942
2566.974147,0.000000,-518.144159,9918.759623
2566.974476,76.609550,962.267725,9474.636058
2566.974805,383.047749,1036.288319,9992.780217
2566.975134,1991.848295,-148.041188,9770.718434
2566.975463,2757.943793,222.061783,7402.059420
2566.975792,3600.648841,740.205942,7994.224174
2566.976121,3524.039291,888.247130,6809.894666
2566.976450,2604.724693,1554.432478,7846.182985
2566.976779,995.924147,518.144159,8438.347739
2566.977108,0.000000,370.102971,8956.491898
2566.977437,-1991.848295,-1998.556043,10362.883188
2566.977767,-919.314598,-962.267725,9030.512492
2566.978096,-306.438199,-1554.432478,9326.594869
2566.978425,-842.705048,-1998.556043,10807.006753
2566.978754,-689.485948,-592.164754,9326.594869
2566.979083,0.000000,-74.020594,10955.047942
2566.979412,0.000000,-148.041188,9548.656652
2566.979741,842.705048,962.267725,9030.512492
2566.980070,1225.752797,-814.226536,10510.924376
2566.980399,1915.238745,-0.000000,7698.141797
2566.980728,2911.162892,814.226536,7698.141797
2566.981057,2604.724693,814.226536,7402.059420
2566.981386,1915.238745,1776.494261,7105.977043
2566.981715,536.266849,592.164754,9252.574275
2566.982044,-919.314598,-518.144159,8956.491898
2566.982373,-1685.410096,-1850.514855,9474.636058
2566.982703,-1302.362347,-2664.741391,10140.821405
2566.983032,-1072.533697,-1554.432478,8956.491898
2566.983361,-1225.752797,-1184.329507,9992.780217
2566.983690,-995.924147,-222.061783,9992.780217
2566.984019,0.000000,592.164754,9696.697840
2566.984348,383.047749,1258.350101,9252.574275
2566.984677,0.000000,296.082377,8956.491898
2566.985006,0.000000,-1628.453072,10066.800811
2566.985335,459.657299,-1184.329507,9474.636058
2566.985664,842.705048,296.082377,7476.080014
2566.985993,995.924147,518.144159,7550.100608
2566.986322,383.047749,814.226536,7846.182985
2566.986651,0.000000,962.267725,8512.368333
2566.986980,-995.924147,-370.102971,8364.327145
2566.987310,-842.705048,-1110.308913,8882.471304
2566.987639,-536.266849,-1628.453072,9104.533087
2566.987968,-306.438199,-518.144159,8808.450710
2566.988297,-995.924147,-740.205942,9696.697840
2566.988626,-689.485948,-518.144159,9992.780217
2566.988955,0.000000,222.061783,9326.594869
2566.989284,229.828649,740.205942,9992.780217
2566.989613,1072.533697,-0.000000,9548.656652
2566.989942,1608.800546,-148.041188,8660.409521
2566.990271,2221.676944,-0.000000,7920.203579
2566.990600,1685.410096,888.247130,7476.080014
2566.990929,1072.533697,1184.329507,8142.265362
2566.991258,229.828649,-0.000000,8808.450710
2566.991587,-383.047749,-740.205942,9326.594869
2566.991917,-536.266849,-1258.350101,9918.759623
2566.992246,-689.485948,-2072.576638,9622.677246
2566.992575,-153.219100,-1850.514855,9474.636058
2566.992904,-459.657299,-1332.370696,10510.924376
2566.993233,-383.047749,-296.082377,9992.780217
2566.993562,0.000000,444.123565,10214.842000
2566.993891,383.047749,222.061783,9992.780217
2566.994220,1149.143247,-0.000000,10288.862594
2566.994549,1532.190996,-444.123565,8808.450710
2566.994878,2374.896044,814.226536,7179.997637
2566.995207,2681.334243,1110.308913,7402.059420
2566.995536,2145.067394,1554.432478,7550.100608
2566.995865,995.924147,1258.350101,8438.347739
2566.996194,-229.828649,296.082377,8660.409521
2566.996523,-995.924147,-370.102971,9104.533087
2566.996853,-459.657299,-1998.556043,10066.800811
2566.997182,-459.657299,-1776.494261,8660.409521
2566.997511,-612.876398,-1924.535449,10066.800811
2566.997840,-766.095498,-1184.329507,10140.821405
2566.998169,0.000000,-222.061783,10510.924376
2566.998498,0.000000,-0.000000,9918.759623
2566.998827,842.705048,1036.288319,8882.471304
2566.999156,459.657299,-740.205942,9622.677246
2566.999485,1991.848295,-814.226536,10066.800811
2566.999814,2298.286494,1184.329507,6735.874072
2567.000143,3064.381992,1184.329507,7179.997637
2567.000472,2374.896044,1776.494261,5995.668130
2567.000801,2068.457845,1702.473667,7772.162391
2567.001130,612.876398,814.226536,9178.553681
2567.001460,-229.828649,-888.247130,8216.285956
2567.001789,-1072.533697,-2590.720797,10288.862594
2567.002118,-689.485948,-1554.432478,10140.821405
2567.002447,-1149.143247,-1776.494261,9474.636058
2567.002776,-1149.143247,-1036.288319,10807.006753
2567.003105,-153.219100,-0.000000,9696.697840
2567.003434,842.705048,-296.082377,9844.739029
2567.003763,995.924147,592.164754,9918.759623
2567.004092,1455.581446,-0.000000,8956.491898
2567.004421,2528.115143,-148.041188,8142.265362
2567.004750,2451.505594,1184.329507,7328.038826
2567.005079,383.047749,1332.370696,6735.874072
2567.005408,229.828649,222.061783,8512.368333
2567.005737,-842.705048,666.185348,9474.636058
2567.006067,-2298.286494,-962.267725,9474.636058
2567.006396,-1225.752797,-1776.494261,10140.821405
2567.006725,-1608.800546,-2368.659014,8808.450710
2567.007054,-995.924147,-1776.494261,10584.944971
2567.007383,-612.876398,-666.185348,10436.903782
2567.007712,-842.705048,-0.000000,9622.677246
2567.008041,0.000000,148.041188,9474.636058
2567.008370,612.876398,1332.370696,8808.450710
2567.008699,-153.219100,-666.185348,9992.780217
2567.009028,1608.800546,-1332.370696,10140.821405
2567.009357,2451.505594,888.247130,6809.894666
2567.009686,2911.162892,888.247130,7179.997637
2567.010015,2068.457845,1998.556043,6587.832884
2567.010344,1149.143247,1628.453072,8364.327145
2567.010673,-689.485948,-0.000000,8364.327145
2567.011003,-459.657299,-592.164754,8512.368333
2567.011332,-689.485948,-2294.638420,9918.759623
2567.011661,-689.485948,-2146.597232,9178.553681
2567.011990,-919.314598,-1110.308913,9992.780217
2567.012319,-1378.971896,-1110.308913,10140.821405
2567.012648,-306.438199,-0.000000,9548.656652
2567.012977,383.047749,222.061783,10214.842000
2567.013306,0.000000,-0.000000,9992.780217
2567.013635,1455.581446,-444.123565,10140.821405
2567.013964,1455.581446,-0.000000,8438.347739
2567.014293,1838.629195,962.267725,7624.121203
2567.014622,1149.143247,1776.494261,7402.059420
2567.014951,612.876398,1332.370696,8734.430116
2567.015280,-1072.533697,296.082377,9178.553681
2567.015610,-1072.533697,-888.247130,9400.615463
2567.015939,-842.705048,-1776.494261,9770.718434
2567.016268,-612.876398,-1702.473667,8438.347739
2567.016597,-306.438199,-2368.659014,10288.862594
2567.016926,-1225.752797,-962.267725,9696.697840
2567.017255,-306.438199,-370.102971,9178.553681
2567.017584,0.000000,-222.061783,9918.759623
2567.017913,383.047749,296.082377,9474.636058
2567.018242,153.219100,-444.123565,10510.924376
2567.018571,1991.848295,-1406.391290,8512.368333
2567.018900,3064.381992,888.247130,6957.935855
2567.019229,2681.334243,1480.411884,7254.018232
2567.019558,1915.238745,2590.720797,7105.977043
2567.019887,383.047749,1998.556043,9326.594869
2567.020216,-383.047749,370.102971,9326.594869
2567.020546,0.000000,-592.164754,9252.574275
2567.020875,383.047749,-2590.720797,10362.883188
2567.021204,-612.876398,-1776.494261,9178.553681
2567.021533,-766.095498,-1332.370696,10732.986159
2567.021862,-306.438199,-592.164754,9622.677246
2567.022191,612.876398,296.082377,9474.636058
2567.022520,1378.971896,-0.000000,10214.842000
2567.022849,2298.286494,296.082377,8586.388927
2567.023178,3677.258390,-0.000000,6957.935855
2567.023507,3677.258390,-0.000000,7105.977043
2567.023836,2757.943793,1702.473667,6735.874072
2567.024165,2298.286494,888.247130,8438.347739
2567.024494,153.219100,666.185348,8808.450710
2567.024823,-1685.410096,-0.000000,9622.677246
2567.025153,-2298.286494,-2368.659014,12435.459826
2567.025482,-2528.115143,-2738.761985,9252.574275
2567.025811,-1532.190996,-1776.494261,11103.089130
2567.026140,-919.314598,-3182.885551,10436.903782
2567.026469,-1608.800546,-444.123565,9474.636058
2567.026798,0.000000,-444.123565,11473.192101
2567.027127,-153.219100,666.185348,9178.553681
2567.027456,0.000000,-148.041188,9104.533087
2567.027785,842.705048,-1184.329507,11251.130318
2567.028114,2451.505594,-0.000000,7254.018232
2567.028443,3677.258390,666.185348,7624.121203
2567.028772,3447.429741,1776.494261,5847.626942
2567.029101,2451.505594,2368.659014,6735.874072
2567.029430,1149.143247,1480.411884,9474.636058
2567.029760,-1072.533697,444.123565,8290.306550
2567.030089,-536.266849,-1258.350101,9474.636058
2567.030418,-536.266849,-2516.700203,10658.965565
2567.030747,-1302.362347,-814.226536,8142.265362
2567.031076,-1378.971896,-1998.556043,11177.109724
2567.031405,-1302.362347,-518.144159,9622.677246
2567.031734,766.095498,296.082377,9474.636058
2567.032063,459.657299,592.164754,9474.636058
2567.032392,383.047749,-222.061783,9104.533087
2567.032721,1378.971896,-1554.432478,10288.862594
2567.033050,1762.019645,-296.082377,7105.977043
2567.033379,2068.457845,1036.288319,7328.038826
2567.033708,1608.800546,888.247130,7698.141797
2567.034037,1225.752797,1776.494261,8142.265362
2567.034366,-842.705048,1110.308913,9252.574275
2567.034696,-1378.971896,-444.123565,9474.636058
2567.035025,-995.924147,-1628.453072,10140.821405
2567.035354,-1072.533697,-1850.514855,8956.491898
2567.035683,-842.705048,-1110.308913,10140.821405
2567.036012,-1378.971896,-962.267725,11325.150913
2567.036341,-995.924147,-518.144159,9992.780217
2567.036670,-536.266849,444.123565,10288.862594
2567.036999,-306.438199,592.164754,9474.636058
2567.037328,153.219100,-814.226536,9474.636058
2567.037657,1455.581446,-1406.391290,9770.718434
2567.037986,1608.800546,814.226536,7031.956449
2567.038315,1685.410096,888.247130,7994.224174
2567.038644,1072.533697,1480.411884,7476.080014
2567.038973,229.828649,1776.494261,8882.471304
2567.039303,-1378.971896,814.226536,9474.636058
2567.039632,-919.314598,-518.144159,9030.512492
2567.039961,-536.266849,-2368.659014,10288.862594
2567.040290,-919.314598,-1110.308913,9326.594869
2567.040619,-766.095498,-444.123565,10362.883188
2567.040948,-995.924147,-444.123565,9622.677246
2567.041277,0.000000,370.102971,9696.697840
2567.041606,919.314598,592.164754,9992.780217
2567.041935,1378.971896,-0.000000,8882.471304
2567.042264,2757.943793,-518.144159,7920.203579
2567.042593,3064.381992,-222.061783,7105.977043
2567.042922,2451.505594,740.205942,6809.894666
2567.043251,2145.067394,296.082377,7994.224174
2567.043580,0.000000,518.144159,8512.368333
2567.043909,-1915.238745,-74.020594,9030.512492
2567.044239,-1378.971896,-1036.288319,9696.697840
2567.044568,-1225.752797,-1998.556043,9326.594869
2567.044897,-689.485948,-2294.638420,9548.656652
2567.045226,-536.266849,-1702.473667,10362.883188
2567.045555,-919.314598,-1036.288319,10584.944971
2567.045884,0.000000,-296.082377,9992.780217
2567.046213,76.609550,1184.329507,9252.574275
2567.046542,1149.143247,-148.041188,10066.800811
2567.046871,2911.162892,-518.144159,9474.636058
2567.047200,3983.696590,518.144159,6661.853478
2567.047529,4136.915689,814.226536,7624.121203
2567.047858,3447.429741,1850.514855,6365.771101
2567.048187,3294.210641,1998.556043,7624.121203
2567.048516,536.266849,1110.308913,8808.450710
2567.048846,0.000000,-296.082377,8364.327145
2567.049175,-1762.019645,-2220.617826,10658.965565
2567.049504,-1455.581446,-2664.741391,10732.986159
2567.049833,-1532.190996,-1850.514855,10214.842000
2567.050162,-1149.143247,-1332.370696,11029.068536
2567.050491,-459.657299,-592.164754,9696.697840
2567.050820,306.438199,592.164754,9474.636058
2567.051149,689.485948,740.205942,8808.450710
2567.051478,1685.410096,-222.061783,9918.759623
2567.051807,2528.115143,-814.226536,8660.409521
2567.052136,3600.648841,1554.432478,6957.935855
2567.052465,2987.772442,1110.308913,5995.668130
2567.052794,1991.848295,1850.514855,7105.977043
2567.053123,842.705048,962.267725,8882.471304
2567.053453,-995.924147,222.061783,9252.574275
2567.053782,-1685.410096,-1554.432478,9474.636058
2567.054111,-1225.752797,-1850.514855,10066.800811
2567.054440,-1378.971896,-1628.453072,8512.368333
2567.054769,-1455.581446,-1850.514855,11029.068536
2567.055098,-1762.019645,-592.164754,9770.718434
2567.055427,-383.047749,-296.082377,10658.965565
2567.055756,-536.266849,296.082377,9400.615463
2567.056085,612.876398,1110.308913,8512.368333
2567.056414,-306.438199,-1110.308913,9696.697840
2567.056743,1072.533697,-1702.473667,9770.718434
2567.057072,1225.752797,518.144159,7179.997637
2567.057401,2298.286494,962.267725,7402.059420
2567.057730,1378.971896,1480.411884,6587.832884
2567.058059,536.266849,1110.308913,8142.265362
2567.058389,-612.876398,-0.000000,8808.450710
2567.058718,-766.095498,-666.185348,8290.306550
2567.059047,-842.705048,-2368.659014,10066.800811
2567.059376,-1072.533697,-814.226536,10288.862594
2567.059705,-1838.629195,-740.205942,9474.636058
2567.060034,-1685.410096,-518.144159,10584.944971
2567.060363,0.000000,222.061783,9548.656652
2567.060692,842.705048,666.185348,10140.821405
2567.061021,1532.190996,-296.082377,9474.636058
2567.061350,1838.629195,444.123565,7772.162391
2567.061679,2528.115143,-370.102971,8364.327145
2567.062008,2068.457845,1258.350101,6883.915261
2567.062337,995.924147,1628.453072,7772.162391
2567.062666,-689.485948,148.041188,9326.594869
2567.062996,-1608.800546,-0.000000,9104.533087
2567.063325,-1762.019645,-1036.288319,9770.718434
2567.063654,-1302.362347,-1776.494261,9400.615463
2567.063983,-1149.143247,-1998.556043,9104.533087
2567.064312,-842.705048,-1702.473667,10807.006753
2567.064641,-689.485948,-444.123565,9844.739029
2567.064970,0.000000,370.102971,9992.780217
2567.065299,153.219100,518.144159,9178.553681
2567.065628,306.438199,370.102971,9622.677246
2567.065957,1762.019645,-740.205942,9992.780217
2567.066286,2604.724693,-0.000000,6661.853478
2567.066615,4136.915689,-0.000000,7402.059420
2567.066944,3753.867940,740.205942,6587.832884
2567.067273,2145.067394,1850.514855,7179.997637
2567.067603,76.609550,1036.288319,9400.615463
2567.067932,-689.485948,370.102971,8438.347739
2567.068261,-689.485948,-1702.473667,10140.821405
2567.068590,-536.266849,-2294.638420,10288.862594
2567.068919,-1072.533697,-1998.556043,9992.780217
2567.069248,-1072.533697,-1406.391290,10658.965565
2567.069577,76.609550,-888.247130,9030.512492
2567.069906,229.828649,962.267725,9918.759623
2567.070235,1455.581446,222.061783,10214.842000
2567.070564,2757.943793,740.205942,7624.121203
2567.070893,4443.353888,-148.041188,7846.182985
2567.071222,3907.087040,1184.329507,6439.791695
2567.071551,3830.477490,1480.411884,7031.956449
2567.071880,2221.676944,1036.288319,8216.285956
2567.072209,0.000000,1036.288319,8068.244768
2567.072539,-1225.752797,-444.123565,9252.574275
2567.072868,-2451.505594,-1924.535449,10658.965565
2567.073197,-1302.362347,-2294.638420,9400.615463
2567.073526,-1225.752797,-2072.576638,9844.739029
2567.073855,-919.314598,-1554.432478,10584.944971
2567.074184,-995.924147,-592.164754,10214.842000
2567.074513,-229.828649,296.082377,10362.883188
2567.074842,-306.438199,1184.329507,8734.430116
2567.075171,76.609550,222.061783,9326.594869
2567.075500,1072.533697,-962.267725,10066.800811
2567.075829,2451.505594,296.082377,7105.977043
2567.076158,3677.258390,592.164754,7920.203579
2567.076487,2528.115143,370.102971,5847.626942
2567.076816,1685.410096,1850.514855,7772.162391
2567.077146,-229.828649,1184.329507,9252.574275
2567.077475,-919.314598,370.102971,8438.347739
2567.077804,-1149.143247,-2146.597232,10362.883188
2567.078133,-766.095498,-2368.659014,10288.862594
2567.078462,-1302.362347,-1406.391290,9104.533087
2567.078791,-1532.190996,-1480.411884,10584.944971
2567.079120,-1072.533697,444.123565,10066.800811
2567.079449,-153.219100,962.267725,9548.656652
2567.079778,76.609550,592.164754,9326.594869
2567.080107,1302.362347,-740.205942,9474.636058
2567.080436,2145.067394,-740.205942,7846.182985
2567.080765,2451.505594,370.102971,7846.182985
2567.081094,1762.019645,444.123565,7476.080014
2567.081423,612.876398,1184.329507,7920.203579
2567.081752,-536.266849,814.226536,9622.677246
2567.082081,-1762.019645,370.102971,9252.574275
2567.082410,-1838.629195,-1110.308913,9844.739029
2567.082739,-1378.971896,-1406.391290,9104.533087
2567.083068,-612.876398,-1924.535449,9992.780217
2567.083397,-1532.190996,-1258.350101,10288.862594
2567.083726,-1532.190996,-962.267725,9400.615463
2567.084055,-459.657299,-444.123565,9696.697840
2567.084384,-766.095498,666.185348,9400.615463
2567.084713,0.000000,222.061783,9030.512492
2567.085042,612.876398,-1702.473667,10288.862594
2567.085371,2528.115143,-0.000000,8068.244768
2567.085700,2757.943793,1184.329507,7179.997637
2567.086029,1991.848295,1554.432478,7105.977043
2567.086358,1072.533697,1924.535449,7772.162391
2567.086687,383.047749,1184.329507,9178.553681
2567.087016,-1149.143247,296.082377,8956.491898
2567.087345,-842.705048,-1850.514855,10140.821405
2567.087674,-1072.533697,-1628.453072,9548.656652
2567.088003,-766.095498,-888.247130,9918.759623
2567.088332,-1302.362347,-740.205942,10584.944971
2567.088661,-612.876398,-148.041188,9770.718434
2567.088990,0.000000,-0.000000,9770.718434
2567.089319,689.485948,-0.000000,9918.759623
2567.089648,2221.676944,-0.000000,8734.430116
2567.089977,2834.553343,-222.061783,7624.121203
2567.090306,3064.381992,592.164754,7402.059420
2567.090635,2145.067394,1554.432478,7105.977043
2567.090964,2068.457845,1036.288319,8512.368333
2567.091293,0.000000,-0.000000,9030.512492
2567.091622,-995.924147,-444.123565,9326.594869
2567.091951,-1762.019645,-1406.391290,10288.862594
2567.092280,-1455.581446,-2146.597232,9622.677246
2567.092609,-842.705048,-2368.659014,10362.883188
2567.092938,-459.657299,-1554.432478,10584.944971
2567.093267,-536.266849,-962.267725,10658.965565
2567.093596,-306.438199,-148.041188,10362.883188
2567.093925,-536.266849,444.123565,9992.780217
2567.094254,1455.581446,-148.041188,9622.677246
2567.094583,2987.772442,-296.082377,7920.203579
2567.094912,3753.867940,666.185348,6957.935855
2567.095241,4519.963438,666.185348,6661.853478
2567.095570,3524.039291,2072.576638,7179.997637
2567.095899,1455.581446,1554.432478,7994.224174
2567.096228,-612.876398,-0.000000,8808.450710
2567.096557,-1302.362347,-814.226536,9548.656652
2567.096886,-1455.581446,-2442.679609,10658.965565
2567.097215,-1225.752797,-2072.576638,9104.533087
2567.097544,-306.438199,-1258.350101,10362.883188
2567.097873,-995.924147,-814.226536,10288.862594
2567.098202,0.000000,222.061783,10140.821405
2567.098531,0.000000,1110.308913,9696.697840
2567.098860,153.219100,444.123565,9178.553681
2567.099189,1762.019645,-814.226536,9548.656652
2567.099518,2681.334243,-148.041188,7624.121203
2567.099847,3064.381992,666.185348,6809.894666
2567.100176,3294.210641,222.061783,7031.956449
2567.100505,2298.286494,1554.432478,7772.162391
2567.100834,842.705048,444.123565,9030.512492
2567.101163,-1149.143247,-370.102971,8956.491898
2567.101492,-1378.971896,-1184.329507,9622.677246
2567.101821,-1072.533697,-2146.597232,9622.677246
2567.102150,-919.314598,-1924.535449,9474.636058
2567.102480,-1532.190996,-1702.473667,11029.068536
2567.102809,-995.924147,-962.267725,10214.842000
2567.103138,-229.828649,-740.205942,10066.800811
2567.103467,-306.438199,888.247130,9622.677246
2567.103796,0.000000,148.041188,9104.533087
2567.104125,229.828649,-1480.411884,10214.842000
2567.104454,1455.581446,-444.123565,8512.368333
2567.104783,1838.629195,1110.308913,7846.182985
2567.105112,1762.019645,666.185348,7105.977043
2567.105441,689.485948,1850.514855,7994.224174
2567.105770,-153.219100,1036.288319,9178.553681
2567.106099,-1072.533697,-0.000000,8660.409521
2567.106428,-842.705048,-1258.350101,9030.512492
2567.106757,76.609550,-2738.761985,9696.697840
2567.107086,-536.266849,-1332.370696,10510.924376
2567.107415,-995.924147,-888.247130,10288.862594
2567.107744,-459.657299,-666.185348,9474.636058
2567.108073,-612.876398,888.247130,9548.656652
2567.108402,536.266849,370.102971,10362.883188
2567.108731,766.095498,-444.123565,9844.739029
2567.109060,1072.533697,-814.226536,8068.244768
2567.109389,2374.896044,444.123565,7328.038826
2567.109718,1455.581446,1628.453072,7105.977043
2567.110047,1225.752797,1480.411884,7994.224174
2567.110376,0.000000,592.164754,8660.409521
2567.110705,-1838.629195,296.082377,8512.368333
2567.111034,-919.314598,-1110.308913,9474.636058
2567.111363,-1455.581446,-2072.576638,8586.388927
2567.111692,-1149.143247,-2442.679609,9918.759623
2567.112021,-1532.190996,-2368.659014,11251.130318
2567.112350,-1532.190996,-1110.308913,10288.862594
2567.112679,-766.095498,-296.082377,10214.842000
2567.113008,-383.047749,296.082377,9178.553681
2567.113337,459.657299,-0.000000,10436.903782
2567.113666,1838.629195,-370.102971,9622.677246
2567.113995,3524.039291,518.144159,6809.894666
2567.114324,3677.258390,814.226536,7402.059420
2567.114653,2681.334243,1998.556043,6513.812290
2567.114982,1915.238745,1998.556043,8290.306550
2567.115311,-536.266849,740.205942,8956.491898
2567.115640,-842.705048,-296.082377,9252.574275
2567.115969,-1072.533697,-2664.741391,10732.986159
2567.116298,-689.485948,-2960.823768,9326.594869
2567.116627,-612.876398,-1924.535449,10362.883188
2567.116956,-1149.143247,-1702.473667,10214.842000
2567.117285,0.000000,-370.102971,9696.697840
2567.117614,459.657299,148.041188,10955.047942
2567.117943,2451.505594,666.185348,8882.471304
2567.118272,3983.696590,1332.370696,6735.874072
2567.118601,4519.963438,444.123565,7476.080014
2567.118930,3830.477490,1702.473667,6217.729913
2567.119259,4290.134789,1628.453072,7624.121203
2567.119588,2145.067394,1998.556043,8068.244768
2567.119917,0.000000,666.185348,8512.368333
2567.120246,-1915.238745,-592.164754,10510.924376
2567.120575,-2068.457845,-1776.494261,10881.027347
2567.120904,-1608.800546,-2960.823768,9400.615463
2567.121233,-1072.533697,-2516.700203,10066.800811
2567.121562,-1072.533697,-1628.453072,10510.924376
2567.121891,-766.095498,-370.102971,10658.965565
2567.122220,0.000000,592.164754,9474.636058
2567.122549,-612.876398,666.185348,9030.512492
2567.122878,995.924147,-1850.514855,11177.109724
2567.123207,1838.629195,-222.061783,8216.285956
2567.123536,3294.210641,-296.082377,6809.894666
2567.123865,3983.696590,-148.041188,7254.018232
2567.124194,2834.553343,2368.659014,6809.894666
2567.124523,1608.800546,1924.535449,8586.388927
2567.124852,0.000000,888.247130,8438.347739
2567.125181,-842.705048,-370.102971,8734.430116
2567.125510,-1455.581446,-1850.514855,10140.821405
2567.125839,-1149.143247,-2516.700203,10288.862594
2567.126168,-1991.848295,-1628.453072,10955.047942
2567.126497,-1991.848295,-1702.473667,10584.944971
2567.126826,-766.095498,-518.144159,9548.656652
2567.127155,-383.047749,740.205942,9474.636058
2567.127484,153.219100,592.164754,9104.533087
2567.127813,1225.752797,-814.226536,9548.656652
2567.128142,1685.410096,666.185348,7846.182985
2567.128471,2757.943793,1184.329507,7550.100608
2567.128800,1915.238745,1406.391290,6735.874072
2567.129129,919.314598,1702.473667,8142.265362
2567.129458,-689.485948,1036.288319,8882.471304
2567.129787,-1685.410096,-0.000000,8660.409521
2567.130116,-1991.848295,-1850.514855,10140.821405
2567.130445,-536.266849,-1924.535449,8586.388927
2567.130774,-919.314598,-2294.638420,9992.780217
2567.131103,-1302.362347,-1258.350101,10140.821405
2567.131432,-995.924147,-518.144159,9548.656652
2567.131761,-612.876398,-74.020594,9992.780217
2567.132090,-306.438199,888.247130,8956.491898
2567.132419,153.219100,-222.061783,9474.636058
2567.132748,459.657299,-1480.411884,9474.636058
2567.133077,2528.115143,740.205942,6735.874072
2567.133406,3217.601092,962.267725,7179.997637
2567.133735,1838.629195,2072.576638,6735.874072
2567.134064,1225.752797,1702.473667,8438.347739
2567.134393,-383.047749,592.164754,9030.512492
2567.134722,-995.924147,-222.061783,8956.491898
2567.135051,-1225.752797,-2886.803174,10584.944971
2567.135380,-919.314598,-2368.659014,9474.636058
2567.135709,-1149.143247,-1406.391290,11029.068536
2567.136038,-1532.190996,-1628.453072,11029.068536
2567.136367,-459.657299,-296.082377,9770.718434
2567.136697,153.219100,518.144159,10214.842000
2567.137026,1225.752797,-0.000000,10214.842000
2567.137355,1838.629195,222.061783,8142.265362
2567.137684,4213.525239,-148.041188,7550.100608
2567.138013,3524.039291,814.226536,6809.894666
2567.138342,3370.820191,1850.514855,7328.038826
2567.138671,1378.971896,1702.473667,8734.430116
2567.139000,-612.876398,814.226536,9030.512492
2567.139329,-1225.752797,-518.144159,9400.615463
2567.139658,-1378.971896,-1924.535449,10214.842000
2567.139987,-1225.752797,-2294.638420,9252.574275
2567.140316,-842.705048,-2220.617826,11251.130318
2567.140645,-1302.362347,-1776.494261,10732.986159
2567.140974,-459.657299,-222.061783,9918.759623
2567.141303,0.000000,-0.000000,9474.636058
2567.141632,76.609550,814.226536,10066.800811
2567.141961,2681.334243,-148.041188,10140.821405
2567.142290,3830.477490,1776.494261,7179.997637
2567.142619,4979.620737,1110.308913,6439.791695
2567.142948,4673.182538,1406.391290,5773.606348
2567.143277,3907.087040,2812.782580,7105.977043
2567.143606,1378.971896,1850.514855,8068.244768
2567.143935,0.000000,370.102971,8142.265362
2567.144264,-1378.971896,-1110.308913,10214.842000
2567.144593,-1532.190996,-2664.741391,11399.171507
2567.144922,-1915.238745,-2664.741391,9104.533087
2567.145251,-1838.629195,-2294.638420,10807.006753
2567.145580,-1149.143247,-1850.514855,10214.842000
2567.145909,-383.047749,-0.000000,10066.800811
2567.146238,-306.438199,1332.370696,9474.636058
2567.146567,0.000000,-0.000000,9696.697840
2567.146896,1608.800546,-1406.391290,10214.842000
2567.147225,2911.162892,666.185348,6661.853478
2567.147554,3370.820191,962.267725,6883.915261
2567.147883,2604.724693,1406.391290,6661.853478
2567.148212,1608.800546,2072.576638,8142.265362
2567.148541,-306.438199,962.267725,8734.430116
2567.148870,-689.485948,-148.041188,9104.533087
2567.149199,-1762.019645,-1998.556043,10066.800811
2567.149528,-1149.143247,-2294.638420,9844.739029
2567.149857,-1685.410096,-2072.576638,10288.862594
2567.150186,-2221.676944,-1628.453072,10584.944971
2567.150515,-1225.752797,-1258.350101,10140.821405
2567.150844,-536.266849,-0.000000,10436.903782
2567.151173,-536.266849,1184.329507,8216.285956
2567.151502,0.000000,-148.041188,9548.656652
2567.151831,2145.067394,-2220.617826,10066.800811
2567.152160,2451.505594,1332.370696,6439.791695
2567.152489,2911.162892,1036.288319,7328.038826
2567.152818,1838.629195,1406.391290,6661.853478
2567.153147,1149.143247,1554.432478,8364.327145
2567.153476,-306.438199,296.082377,8882.471304
2567.153805,-689.485948,-666.185348,8438.347739
2567.154134,-1072.533697,-2368.659014,10362.883188
2567.154463,-689.485948,-2368.659014,9178.553681
2567.154792,-1455.581446,-740.205942,9474.636058
2567.155121,-1608.800546,-740.205942,10214.842000
2567.155450,-536.266849,-518.144159,9326.594869
2567.155779,-306.438199,370.102971,10066.800811
2567.156108,1915.238745,444.123565,10362.883188
2567.156437,2145.067394,370.102971,7624.121203
2567.156766,2834.553343,-222.061783,8364.327145
2567.157095,2681.334243,1850.514855,6661.853478
2567.157424,2221.676944,1998.556043,7772.162391
2567.157753,229.828649,814.226536,9030.512492
2567.158082,-766.095498,-74.020594,9400.615463
2567.158411,-1838.629195,-814.226536,9844.739029
2567.158740,-1608.800546,-2220.617826,10066.800811
2567.159069,-1532.190996,-2590.720797,8808.450710
2567.159398,-1378.971896,-2590.720797,11029.068536
2567.159727,-1225.752797,-1258.350101,10362.883188
2567.160056,-766.095498,-222.061783,9770.718434
2567.160385,-766.095498,-0.000000,10288.862594
2567.160714,0.000000,148.041188,10140.821405
2567.161043,2145.067394,-518.144159,10362.883188
2567.161372,2757.943793,962.267725,7105.977043
2567.161701,3753.867940,814.226536,7254.018232
2567.162030,3600.648841,1628.453072,6809.894666
2567.162359,3447.429741,3034.844362,7254.018232
2567.162688,612.876398,1406.391290,8216.285956
2567.163017,-766.095498,-0.000000,8734.430116
2567.163346,-1072.533697,-1480.411884,9548.656652
2567.163675,-1072.533697,-2886.803174,10658.965565
2567.164004,-1225.752797,-2738.761985,9548.656652
2567.164333,-1378.971896,-2294.638420,10214.842000
2567.164662,-612.876398,-1776.494261,9918.759623
2567.164991,-229.828649,-296.082377,9474.636058
2567.165320,0.000000,592.164754,9548.656652
2567.165649,1838.629195,444.123565,10362.883188
2567.165978,2604.724693,296.082377,7920.203579
2567.166307,3907.087040,1554.432478,7772.162391
2567.166636,3217.601092,2146.597232,6439.791695
2567.166965,3064.381992,2442.679609,7179.997637
2567.167294,1225.752797,2220.617826,9030.512492
2567.167623,-229.828649,814.226536,9474.636058
2567.167952,-1838.629195,-1480.411884,9548.656652
2567.168281,-2528.115143,-2516.700203,11547.212695
2567.168610,-1378.971896,-3701.029710,10510.924376
2567.168939,-2145.067394,-2368.659014,9696.697840
2567.169268,-2068.457845,-1998.556043,9474.636058
2567.169597,-919.314598,-1036.288319,10066.800811
2567.169926,-306.438199,-148.041188,9252.574275
2567.170255,383.047749,1332.370696,8956.491898
2567.170584,2145.067394,-1184.329507,10732.986159
2567.170914,2374.896044,666.185348,6735.874072
2567.171243,4136.915689,1554.432478,7254.018232
2567.171572,3217.601092,1702.473667,6513.812290
2567.171901,2451.505594,2368.659014,6883.915261
2567.172230,229.828649,1258.350101,9400.615463
2567.172559,-1608.800546,-74.020594,8956.491898
2567.172888,-1532.190996,-1406.391290,9992.780217
2567.173217,-1149.143247,-3182.885551,10140.821405
2567.173546,-1225.752797,-2368.659014,8956.491898
2567.173875,-1762.019645,-1480.411884,10658.965565
2567.174204,-1072.533697,-1480.411884,9548.656652
2567.174533,-459.657299,222.061783,9474.636058
2567.174862,-383.047749,814.226536,9178.553681
2567.175191,0.000000,296.082377,9104.533087
2567.175520,1378.971896,-1406.391290,10140.821405
2567.175849,2451.505594,518.144159,7031.956449
2567.176178,3064.381992,1776.494261,6735.874072
2567.176507,2374.896044,1258.350101,7105.977043
2567.176836,1225.752797,1628.453072,8438.347739
2567.177165,-383.047749,740.205942,9326.594869
2567.177494,-1072.533697,-222.061783,8956.491898
2567.177823,-1302.362347,-2442.679609,10436.903782
2567.178152,-995.924147,-2294.638420,9696.697840
2567.178481,-1149.143247,-1850.514855,10288.862594
2567.178810,-1532.190996,-1110.308913,10140.821405
2567.179139,-612.876398,-1036.288319,9844.739029
2567.179468,76.609550,-0.000000,9770.718434
2567.179797,1149.143247,370.102971,10584.944971
2567.180126,1685.410096,666.185348,7550.100608
2567.180455,3677.258390,-0.000000,8142.265362
2567.180784,3370.820191,1554.432478,6513.812290
2567.181113,2757.943793,2664.741391,7402.059420
2567.181442,1378.971896,1628.453072,8586.388927
2567.181771,-383.047749,-0.000000,8808.450710
2567.182100,-1302.362347,-814.226536,10214.842000
2567.182429,-2451.505594,-2146.597232,10732.986159
2567.182758,-1762.019645,-2886.803174,10288.862594
2567.183087,-1378.971896,-2294.638420,10510.924376
2567.183416,-995.924147,-1036.288319,10584.944971
2567.183745,-1225.752797,-370.102971,9918.759623
2567.184074,0.000000,962.267725,10214.842000
2567.184403,0.000000,370.102971,9400.615463
2567.184732,1149.143247,-296.082377,9622.677246
2567.185061,2757.943793,-222.061783,7994.224174
2567.185390,3524.039291,444.123565,6365.771101
2567.185719,3217.601092,1628.453072,7328.038826
2567.186048,2528.115143,1998.556043,6957.935855
2567.186377,689.485948,1332.370696,7920.203579
2567.186706,-1378.971896,592.164754,9178.553681
2567.187035,-1915.238745,-962.267725,10140.821405
2567.187364,-1072.533697,-2220.617826,10732.986159
2567.187693,-1685.410096,-2220.617826,8956.491898
2567.188023,-1302.362347,-1480.411884,10881.027347
2567.188352,-1225.752797,-1702.473667,9918.759623
2567.188681,-306.438199,-444.123565,10140.821405
2567.189010,0.000000,666.185348,9474.636058
2567.189339,1149.143247,888.247130,9918.759623
2567.189668,2451.505594,-814.226536,9178.553681
2567.189997,3907.087040,592.164754,6291.750507
2567.190326,4136.915689,1554.432478,6439.791695
2567.190655,3217.601092,1480.411884,6217.729913
2567.190984,2911.162892,2146.597232,7402.059420
2567.191313,229.828649,592.164754,8808.450710
2567.191642,-1225.752797,-222.061783,9326.594869
2567.191971,-1838.629195,-2812.782580,11029.068536
2567.192300,-1378.971896,-3330.926739,10881.027347
2567.192629,-1838.629195,-1998.556043,9696.697840
2567.192958,-1685.410096,-1406.391290,11621.233289
2567.193287,-1072.533697,-1332.370696,9696.697840
2567.193616,76.609550,592.164754,10510.924376
2567.193945,-306.438199,888.247130,9400.615463
2567.194274,1225.752797,-740.205942,9770.718434
2567.194603,2528.115143,-666.185348,7846.182985
2567.194932,3753.867940,1628.453072,6735.874072
2567.195261,3294.210641,814.226536,6587.832884
2567.195590,3217.601092,1702.473667,7105.977043
2567.195919,766.095498,1628.453072,9252.574275
2567.196248,-1532.190996,370.102971,8734.430116
2567.196577,-2528.115143,-1184.329507,9474.636058
2567.196906,-1762.019645,-2442.679609,10288.862594
2567.197235,-1838.629195,-2368.659014,9030.512492
2567.197564,-1608.800546,-1628.453072,11399.171507
2567.197893,-1302.362347,-1184.329507,9992.780217
2567.198222,-306.438199,-0.000000,10955.047942
2567.198551,-612.876398,888.247130,9326.594869
2567.198880,383.047749,962.267725,8956.491898
2567.199209,1608.800546,-1110.308913,10362.883188
2567.199538,3294.210641,444.123565,5921.647536
2567.199867,4290.134789,1554.432478,6957.935855
2567.200196,3447.429741,1480.411884,6439.791695
2567.200525,2834.553343,1998.556043,7254.018232
2567.200854,0.000000,518.144159,8660.409521
2567.201184,-612.876398,296.082377,8512.368333
2567.201513,-1608.800546,-1776.494261,10140.821405
2567.201842,-1532.190996,-3330.926739,11103.089130
2567.202171,-2068.457845,-1628.453072,9770.718434
2567.202500,-1149.143247,-1258.350101,11473.192101
2567.202829,-919.314598,-1332.370696,10362.883188
2567.203158,-842.705048,-0.000000,10214.842000
2567.203487,-612.876398,1702.473667,9844.739029
2567.203816,229.828649,-0.000000,9770.718434
2567.204145,1455.581446,-1406.391290,8882.471304
2567.204474,2681.334243,888.247130,7031.956449
2567.204803,2451.505594,1184.329507,6661.853478
2567.205132,1378.971896,1406.391290,7624.121203
2567.205461,229.828649,1258.350101,8808.450710
2567.205790,-842.705048,296.082377,8660.409521
2567.206119,-1915.238745,-888.247130,9548.656652
2567.206448,-1608.800546,-2368.659014,10214.842000
2567.206777,-1838.629195,-2368.659014,8808.450710
2567.207106,-919.314598,-1480.411884,11251.130318
2567.207435,-1455.581446,-814.226536,9918.759623
2567.207764,-383.047749,-444.123565,10510.924376
2567.208093,-842.705048,444.123565,9400.615463
2567.208422,459.657299,962.267725,9548.656652
2567.208751,1915.238745,-1110.308913,9918.759623
2567.209080,2987.772442,-74.020594,6365.771101
2567.209409,3983.696590,888.247130,7031.956449
2567.209738,3140.991542,1702.473667,6143.709319
2567.210067,2681.334243,2146.597232,6957.935855
2567.210396,0.000000,1332.370696,8364.327145
2567.210725,-306.438199,222.061783,8586.388927
2567.211054,-1225.752797,-1628.453072,9696.697840
2567.211383,-995.924147,-3775.050304,10658.965565
2567.211712,-1072.533697,-2590.720797,9770.718434
2567.212041,-1149.143247,-1998.556043,10807.006753
2567.212370,-1225.752797,-1554.432478,10362.883188
2567.212699,-306.438199,370.102971,10658.965565
2567.213028,1302.362347,740.205942,11177.109724
2567.213357,2681.334243,1036.288319,7402.059420
2567.213686,4749.792088,-74.020594,7550.100608
2567.214015,4519.963438,1036.288319,5847.626942
2567.214345,4290.134789,2220.617826,6809.894666
2567.214674,2604.724693,1702.473667,8364.327145
2567.215003,919.314598,592.164754,8438.347739
2567.215332,-766.095498,-0.000000,9992.780217
2567.215661,-2757.943793,-1702.473667,10436.903782
2567.215990,-1302.362347,-2516.700203,10140.821405
2567.216319,-1532.190996,-2960.823768,9696.697840
2567.216648,-995.924147,-2146.597232,10658.965565
2567.216977,-1225.752797,-1036.288319,10362.883188
2567.217306,-76.609550,-0.000000,10288.862594
2567.217635,-536.266849,1406.391290,9696.697840
2567.217964,689.485948,-518.144159,10658.965565
2567.218293,2911.162892,148.041188,8216.285956
2567.218622,4749.792088,1332.370696,6291.750507
2567.218951,4673.182538,1110.308913,6143.709319
2567.219280,3830.477490,2590.720797,6291.750507
2567.219609,2528.115143,2368.659014,8216.285956
2567.219938,536.266849,1480.411884,7994.224174
2567.220267,-383.047749,-74.020594,9992.780217
2567.220596,-2298.286494,-2072.576638,10658.965565
2567.220925,-1915.238745,-3034.844362,9696.697840
2567.221254,-1838.629195,-2146.597232,10140.821405
2567.221583,-1915.238745,-1776.494261,10140.821405
2567.221912,-1072.533697,-1036.288319,10362.883188
2567.222241,-1302.362347,592.164754,10510.924376
2567.222570,0.000000,444.123565,8586.388927
2567.222899,-383.047749,-888.247130,9400.615463
2567.223228,612.876398,-1998.556043,10732.986159
2567.223557,1532.190996,1036.288319,6957.935855
2567.223886,2604.724693,518.144159,7772.162391
2567.224215,1455.581446,1332.370696,7179.997637
2567.224544,459.657299,2146.597232,7994.224174
2567.224873,-383.047749,518.144159,8882.471304
2567.225202,-1532.190996,-666.185348,8956.491898
2567.225531,-1378.971896,-1776.494261,9622.677246
2567.225860,-1762.019645,-2442.679609,10584.944971
2567.226189,-1838.629195,-1480.411884,9622.677246
2567.226518,-2451.505594,-1554.432478,10214.842000
2567.226847,-1532.190996,-814.226536,9992.780217
2567.227176,-229.828649,370.102971,9844.739029
2567.227506,536.266849,296.082377,9844.739029
2567.227835,1838.629195,-0.000000,7994.224174
2567.228164,3370.820191,-0.000000,7550.100608
2567.228493,3140.991542,1554.432478,6439.791695
2567.228822,2145.067394,1998.556043,7031.956449
2567.229151,612.876398,1406.391290,8808.450710
2567.229480,-612.876398,814.226536,8956.491898
2567.229809,-1838.629195,-148.041188,9918.759623
2567.230138,-2374.896044,-1850.514855,10362.883188
2567.230467,-1762.019645,-3034.844362,9770.718434
2567.230796,-1685.410096,-2220.617826,10510.924376
2567.231125,-1149.143247,-962.267725,10807.006753
2567.231454,-919.314598,-74.020594,9992.780217
2567.231783,-306.438199,1258.350101,9474.636058
2567.232112,383.047749,666.185348,10732.986159
2567.232441,2528.115143,-0.000000,7402.059420
2567.232770,4290.134789,444.123565,6957.935855
2567.233099,3830.477490,1036.288319,5921.647536
2567.233428,4290.134789,1332.370696,7031.956449
2567.233757,2374.896044,2146.597232,8068.244768
2567.234086,-306.438199,1258.350101,8290.306550
2567.234415,-1838.629195,-370.102971,9474.636058
2567.234744,-2451.505594,-2294.638420,10881.027347
2567.235073,-1991.848295,-3108.864956,10658.965565
2567.235402,-2221.676944,-3478.967927,10658.965565
2567.235731,-1072.533697,-2368.659014,11103.089130
2567.236060,-1072.533697,-1702.473667,10732.986159
2567.236389,-689.485948,370.102971,10362.883188
2567.236718,76.609550,-0.000000,10732.986159
2567.237047,2987.772442,-74.020594,8808.450710
2567.237376,4979.620737,370.102971,6957.935855
2567.237705,5056.230287,1702.473667,6143.709319
2567.238034,4596.572988,962.267725,6143.709319
2567.238363,4826.401637,2590.720797,7328.038826
2567.238692,2451.505594,1924.535449,7179.997637
2567.239021,919.314598,962.267725,7994.224174
2567.239350,-1302.362347,-666.185348,9622.677246
2567.239679,-2451.505594,-2516.700203,10288.862594
2567.240008,-1685.410096,-4145.153275,12213.398043
2567.240337,-2221.676944,-2368.659014,9770.718434
2567.240667,-995.924147,-1924.535449,10807.006753
2567.240996,-1762.019645,-592.164754,10288.862594
2567.241325,-612.876398,1776.494261,9104.533087
2567.241654,229.828649,888.247130,9252.574275
2567.241983,2604.724693,-592.164754,9030.512492
2567.242312,3907.087040,1110.308913,6143.709319
2567.242641,4443.353888,1110.308913,6217.729913
2567.242970,2068.457845,1184.329507,6069.688724
2567.243299,2374.896044,1332.370696,7254.018232
2567.243628,306.438199,1036.288319,8512.368333
2567.243957,-1378.971896,-222.061783,8808.450710
2567.244286,-2757.943793,-1628.453072,11473.192101
2567.244615,-2145.067394,-2294.638420,9696.697840
2567.244944,-3064.381992,-2590.720797,10362.883188
2567.245273,-2374.896044,-1406.391290,10807.006753
2567.245602,-1608.800546,-1628.453072,10584.944971
2567.245931,-842.705048,592.164754,11177.109724
2567.246260,-612.876398,1332.370696,8882.471304
2567.246589,0.000000,666.185348,9104.533087
2567.246918,1455.581446,-2294.638420,10732.986159
2567.247247,2681.334243,740.205942,5625.565159
2567.247576,3753.867940,1110.308913,7994.224174
2567.247905,2681.334243,1406.391290,6513.812290
2567.248234,2298.286494,1850.514855,7624.121203
2567.248563,0.000000,1480.411884,9104.533087
2567.248892,-995.924147,444.123565,8734.430116
2567.249221,-1532.190996,-2072.576638,10288.862594
2567.249550,-1838.629195,-2442.679609,10584.944971
2567.249879,-2221.676944,-1628.453072,10288.862594
2567.250208,-1991.848295,-962.267725,11177.109724
2567.250537,-842.705048,-962.267725,9770.718434
2567.250866,-612.876398,1036.288319,9992.780217
2567.251195,0.000000,1036.288319,9770.718434
2567.251524,1532.190996,-0.000000,8216.285956
2567.251853,2911.162892,-518.144159,7328.038826
2567.252182,2757.943793,1184.329507,7402.059420
2567.252511,1455.581446,1480.411884,6513.812290
2567.252840,766.095498,740.205942,8438.347739
2567.253169,-1072.533697,740.205942,8512.368333
2567.253498,-842.705048,-222.061783,8808.450710
2567.253828,-2221.676944,-1776.494261,9622.677246
2567.254157,-1762.019645,-2738.761985,9696.697840
2567.254486,-1302.362347,-2442.679609,10214.842000
2567.254815,-919.314598,-1184.329507,10732.986159
2567.255144,-842.705048,-222.061783,9548.656652
2567.255473,-306.438199,-0.000000,9918.759623
2567.255802,-306.438199,222.061783,10288.862594
2567.256131,1685.410096,222.061783,8808.450710
2567.256460,4443.353888,444.123565,7402.059420
2567.256789,4519.963438,-0.000000,6513.812290
2567.257118,3907.087040,962.267725,6439.791695
2567.257447,3294.210641,2368.659014,8216.285956
2567.257776,1072.533697,1554.432478,7476.080014
2567.258105,0.000000,-74.020594,8660.409521
2567.258434,-1532.190996,-888.247130,10510.924376
2567.258763,-1991.848295,-2368.659014,10436.903782
2567.259092,-1532.190996,-3627.009116,11621.233289
2567.259421,-1762.019645,-1776.494261,9992.780217
2567.259750,-306.438199,-2220.617826,10881.027347
2567.260079,-842.705048,-222.061783,10436.903782
2567.260408,0.000000,814.226536,10658.965565
2567.260737,1991.848295,370.102971,9326.594869
2567.261066,4213.525239,888.247130,6809.894666
2567.261395,4903.011187,1332.370696,6513.812290
2567.261724,4213.525239,1184.329507,5699.585753
2567.262053,4060.306139,1924.535449,7254.018232
2567.262382,1225.752797,2072.576638,7698.141797
2567.262711,0.000000,-0.000000,8882.471304
2567.263040,-2221.676944,-1036.288319,9992.780217
2567.263369,-2451.505594,-1924.535449,10881.027347
2567.263698,-2451.505594,-2442.679609,9992.780217
2567.264027,-2145.067394,-2368.659014,10881.027347
2567.264356,-1608.800546,-1776.494261,10214.842000
2567.264685,-1608.800546,-518.144159,10807.006753
2567.265014,-536.266849,518.144159,10140.821405
2567.265343,-995.924147,888.247130,8438.347739
2567.265672,689.485948,-1110.308913,10658.965565
2567.266001,2221.676944,-222.061783,7994.224174
2567.266330,4060.306139,1184.329507,6143.709319
2567.266659,4213.525239,1110.308913,6439.791695
2567.266989,3064.381992,2368.659014,6069.688724
2567.267318,2451.505594,1924.535449,7994.224174
2567.267647,-306.438199,814.226536,8512.368333
2567.267976,-536.266849,-222.061783,9252.574275
2567.268305,-2145.067394,-2368.659014,11029.068536
2567.268634,-1455.581446,-2368.659014,10807.006753
2567.268963,-2221.676944,-2146.597232,10140.821405
2567.269292,-1608.800546,-1480.411884,11103.089130
2567.269621,-1225.752797,-814.226536,10066.800811
2567.269950,-306.438199,666.185348,10362.883188
2567.270279,0.000000,888.247130,9696.697840
2567.270608,1762.019645,-666.185348,9030.512492
2567.270937,2681.334243,-296.082377,7624.121203
2567.271266,3140.991542,1776.494261,7105.977043
2567.271595,2374.896044,740.205942,6291.750507
2567.271924,1762.019645,1332.370696,8512.368333
2567.272253,0.000000,1036.288319,8734.430116
2567.272582,-1302.362347,296.082377,9178.553681
2567.272911,-2298.286494,-1850.514855,9992.780217
2567.273240,-1378.971896,-2220.617826,9548.656652
2567.273569,-1762.019645,-2516.700203,9844.739029
2567.273898,-2374.896044,-1332.370696,10955.047942
2567.274227,-1762.019645,-740.205942,9992.780217
2567.274556,-459.657299,296.082377,9918.759623
2567.274885,-536.266849,1480.411884,9178.553681
2567.275214,919.314598,-0.000000,9918.759623
2567.275543,2068.457845,-296.082377,7550.100608
2567.275872,3677.258390,370.102971,6957.935855
2567.276201,3217.601092,888.247130,6143.709319
2567.276530,2451.505594,2294.638420,7179.997637
2567.276859,689.485948,962.267725,8364.327145
2567.277188,-383.047749,666.185348,8586.388927
2567.277517,-1378.971896,-740.205942,9474.636058
2567.277846,-1915.238745,-2664.741391,10510.924376
2567.278175,-1608.800546,-3182.885551,9918.759623
2567.278504,-1225.752797,-1776.494261,10807.006753
2567.278833,-995.924147,-1036.288319,10140.821405
2567.279162,-1072.533697,-296.082377,9992.780217
2567.279488,-612.876398,444.123565,10214.842000
2567.279818,842.705048,-0.000000,10362.883188
2567.280147,2068.457845,-370.102971,7698.141797
2567.280476,3600.648841,222.061783,7254.018232
2567.280805,4060.306139,1332.370696,5773.606348
2567.281134,3370.820191,1554.432478,7254.018232
2567.281463,995.924147,1554.432478,8586.388927
2567.281792,-689.485948,666.185348,9030.512492
2567.282121,-1762.019645,-740.205942,9918.759623
2567.282450,-2528.115143,-2146.597232,10658.965565
2567.282780,-1991.848295,-3330.926739,10214.842000
2567.283109,-1991.848295,-3182.885551,11029.068536
2567.283438,-1302.362347,-1554.432478,10510.924376
2567.283767,-1149.143247,-518.144159,10288.862594
2567.284096,-306.438199,666.185348,9696.697840
2567.284425,76.609550,962.267725,9326.594869
2567.284754,2528.115143,-296.082377,9400.615463
2567.285083,3830.477490,444.123565,5551.544565
2567.285412,5132.839837,1406.391290,6513.812290
2567.285741,4213.525239,1332.370696,6217.729913
2567.286071,3677.258390,2442.679609,7254.018232
2567.286400,919.314598,1554.432478,8438.347739
2567.286729,0.000000,444.123565,8956.491898
2567.287058,-1685.410096,-1332.370696,11399.171507
2567.287387,-2451.505594,-2664.741391,10510.924376
2567.287716,-1838.629195,-2960.823768,11695.253884
2567.288045,-1302.362347,-1332.370696,10955.047942
2567.288374,-689.485948,-1036.288319,10584.944971
2567.288703,-536.266849,444.123565,10214.842000
2567.289033,766.095498,1850.514855,10288.862594
2567.289362,2068.457845,1184.329507,8512.368333
2567.289691,4290.134789,222.061783,6735.874072
2567.290020,4903.011187,1776.494261,5773.606348
2567.290349,3753.867940,1406.391290,6365.771101
2567.290678,2987.772442,1776.494261,7698.141797
2567.291007,536.266849,814.226536,8142.265362
2567.291336,-842.705048,-0.000000,8956.491898
2567.291665,-2834.553343,-1776.494261,10732.986159
2567.291995,-2681.334243,-3256.906145,11547.212695
2567.292324,-2987.772442,-2664.741391,10288.862594
2567.292653,-2374.896044,-2812.782580,11843.295072
2567.292982,-2068.457845,-1924.535449,10362.883188
2567.293311,-1455.581446,-222.061783,10807.006753
2567.293640,-1225.752797,962.267725,9548.656652
2567.293969,-995.924147,666.185348,8660.409521
2567.294298,1991.848295,-1406.391290,11769.274478
2567.294627,2757.943793,370.102971,6217.729913
2567.294956,5439.278036,444.123565,7254.018232
2567.295286,3753.867940,1184.329507,4811.338623
2567.295615,3677.258390,2516.700203,6587.832884
2567.295944,1378.971896,1850.514855,8142.265362
2567.296273,0.000000,1184.329507,7328.038826
2567.296602,-995.924147,-814.226536,10140.821405
2567.296931,-2145.067394,-2886.803174,10436.903782
2567.297260,-2451.505594,-2368.659014,10658.965565
2567.297589,-2604.724693,-1850.514855,10362.883188
2567.297918,-1455.581446,-1332.370696,10436.903782
2567.298248,-1762.019645,-296.082377,10288.862594
2567.298577,0.000000,1554.432478,9548.656652
2567.298906,536.266849,592.164754,9326.594869
2567.299235,2451.505594,-962.267725,8216.285956
2567.299564,3677.258390,592.164754,7105.977043
2567.299893,3294.210641,2220.617826,5625.565159
2567.300222,2374.896044,1480.411884,7105.977043
2567.300551,1072.533697,1776.494261,8068.244768
2567.300880,-689.485948,888.247130,8882.471304
2567.301210,-1991.848295,-888.247130,10288.862594
2567.301539,-1838.629195,-2664.741391,11621.233289
2567.301868,-2068.457845,-3478.967927,9474.636058
2567.302197,-1915.238745,-2738.761985,11251.130318
2567.302526,-2221.676944,-1110.308913,10881.027347
2567.302855,-2145.067394,-1036.288319,10881.027347
2567.303184,-919.314598,-0.000000,11029.068536
2567.303513,-919.314598,1406.391290,9178.553681
2567.303842,612.876398,-592.164754,11177.109724
2567.304172,2757.943793,-1184.329507,7920.203579
2567.304501,4060.306139,1554.432478,6735.874072
2567.304830,3983.696590,1184.329507,6587.832884
2567.305159,2987.772442,2590.720797,6883.915261
2567.305488,1838.629195,1628.453072,9030.512492
2567.305817,0.000000,740.205942,8660.409521
2567.306146,-383.047749,-740.205942,9474.636058
2567.306475,-1685.410096,-3404.947333,10658.965565
2567.306804,-919.314598,-2738.761985,10584.944971
2567.307133,-1225.752797,-1628.453072,10658.965565
2567.307463,-1149.143247,-1036.288319,10214.842000
2567.307792,-689.485948,-0.000000,9770.718434
2567.308121,153.219100,962.267725,10584.944971
2567.308450,2528.115143,1332.370696,8882.471304
2567.308779,3370.820191,1184.329507,6143.709319
2567.309108,4749.792088,-148.041188,7624.121203
2567.309437,3753.867940,2368.659014,5551.544565
2567.309766,3677.258390,1776.494261,7772.162391
2567.310095,383.047749,1184.329507,8068.244768
2567.310425,-153.219100,222.061783,8512.368333
2567.310754,-2068.457845,-1110.308913,10436.903782
2567.311083,-2221.676944,-2738.761985,10510.924376
2567.311412,-1455.581446,-3701.029710,10288.862594
2567.311741,-1378.971896,-3478.967927,11325.150913
2567.312070,-995.924147,-888.247130,9918.759623
2567.312399,-689.485948,-296.082377,10288.862594
2567.312728,-842.705048,444.123565,9696.697840
2567.313057,612.876398,-0.000000,11325.150913
2567.313387,3524.039291,-222.061783,7624.121203
2567.313716,4903.011187,1110.308913,6587.832884
2567.314045,4903.011187,444.123565,5255.462188
2567.314374,4519.963438,1776.494261,6661.853478
2567.314703,2374.896044,2368.659014,7550.100608
2567.315032,0.000000,1258.350101,8290.306550
2567.315361,-1532.190996,-962.267725,9696.697840
2567.315690,-2528.115143,-2294.638420,11843.295072
2567.316019,-1991.848295,-3627.009116,10066.800811
2567.316349,-2681.334243,-3404.947333,10955.047942
2567.316678,-2145.067394,-2294.638420,10881.027347
2567.317007,-1762.019645,-1258.350101,10510.924376
2567.317336,-536.266849,1110.308913,10288.862594
2567.317665,-612.876398,1924.535449,8068.244768
2567.317994,1378.971896,-592.164754,10881.027347
2567.318323,2451.505594,-518.144159,7476.080014
2567.318652,4749.792088,2072.576638,6661.853478
2567.318981,3677.258390,1184.329507,6143.709319
2567.319310,2757.943793,2368.659014,6143.709319
2567.319640,1072.533697,1480.411884,8882.471304
2567.319969,-1225.752797,1332.370696,8290.306550
2567.320298,-1685.410096,-888.247130,9622.677246
2567.320627,-2298.286494,-2368.659014,11251.130318
2567.320956,-2374.896044,-2220.617826,9252.574275
2567.321285,-2145.067394,-2368.659014,11251.130318
2567.321614,-2374.896044,-1776.494261,10066.800811
2567.321943,-1302.362347,-888.247130,10807.006753
2567.322272,-1149.143247,740.205942,9622.677246
2567.322602,-919.314598,2146.597232,7994.224174
2567.322931,229.828649,-1776.494261,11029.068536
2567.323260,2068.457845,-666.185348,8364.327145
2567.323589,3217.601092,1480.411884,7031.956449
2567.323918,2298.286494,962.267725,7031.956449
2567.324247,1302.362347,1406.391290,7105.977043
2567.324576,842.705048,1480.411884,9252.574275
2567.324905,-1149.143247,814.226536,8586.388927
2567.325234,-1378.971896,-1554.432478,9622.677246
2567.325564,-1532.190996,-3478.967927,10955.047942
2567.325893,-1225.752797,-1554.432478,10362.883188
2567.326222,-1302.362347,-1184.329507,10584.944971
2567.326551,-1455.581446,-666.185348,9918.759623
2567.326880,-842.705048,-222.061783,10288.862594
2567.327209,536.266849,-0.000000,11325.150913
2567.327538,2451.505594,666.185348,7846.182985
2567.327867,3830.477490,592.164754,7698.141797
2567.328196,3907.087040,-444.123565,7328.038826
2567.328525,3140.991542,2590.720797,6365.771101
2567.328855,2221.676944,1554.432478,8364.327145
2567.329184,76.609550,740.205942,8586.388927
2567.329513,-383.047749,-0.000000,9474.636058
2567.329842,-1991.848295,-1110.308913,10510.924376
2567.330171,-2221.676944,-2812.782580,10362.883188
2567.330500,-1608.800546,-3404.947333,10436.903782
2567.330829,-919.314598,-2368.659014,10732.986159
2567.331158,-612.876398,-740.205942,10288.862594
2567.331487,-612.876398,-0.000000,9844.739029
2567.331817,-459.657299,296.082377,10066.800811
2567.332146,1608.800546,444.123565,10214.842000
2567.332475,3830.477490,1258.350101,6587.832884
2567.332804,4826.401637,962.267725,6735.874072
2567.333133,4366.744339,1036.288319,5847.626942
2567.333462,4903.011187,2368.659014,7402.059420
2567.333791,2451.505594,2072.576638,7402.059420
2567.334120,689.485948,814.226536,8216.285956
2567.334449,-1532.190996,-1184.329507,10584.944971
2567.334779,-2374.896044,-1776.494261,10510.924376
2567.335108,-1532.190996,-3997.112087,11251.130318
2567.335437,-1762.019645,-2516.700203,9992.780217
2567.335766,-766.095498,-2590.720797,11177.109724
2567.336095,-1455.581446,-1110.308913,10362.883188
2567.336424,-383.047749,1184.329507,9696.697840
2567.336753,612.876398,-0.000000,9400.615463
2567.337082,3294.210641,-518.144159,8734.430116
2567.337411,4749.792088,1406.391290,6291.750507
2567.337741,4596.572988,1554.432478,5847.626942
2567.338070,3677.258390,1554.432478,5995.668130
2567.338399,2451.505594,1850.514855,7624.121203
2567.338728,383.047749,1184.329507,8586.388927
2567.339057,-1838.629195,-296.082377,9326.594869
2567.339386,-3447.429741,-2886.803174,11769.274478
2567.339715,-3447.429741,-2368.659014,10510.924376
2567.340044,-2911.162892,-2886.803174,10732.986159
2567.340373,-2987.772442,-1850.514855,11103.089130
2567.340702,-2221.676944,-1332.370696,10288.862594
2567.341032,-1072.533697,370.102971,10732.986159
2567.341361,-612.876398,1628.453072,8808.450710
2567.341690,1455.581446,-0.000000,9400.615463
2567.342019,2987.772442,-962.267725,7624.121203
2567.342348,4366.744339,2220.617826,5625.565159
2567.342677,3830.477490,1554.432478,5477.523971
2567.343006,2834.553343,1850.514855,6291.750507
2567.343335,1532.190996,1702.473667,8216.285956
2567.343664,-689.485948,592.164754,8734.430116
2567.343994,-1532.190996,-962.267725,9918.759623
2567.344323,-2987.772442,-2442.679609,11251.130318
2567.344652,-2834.553343,-3478.967927,10955.047942
2567.344981,-2451.505594,-2442.679609,11251.130318
2567.345310,-2374.896044,-1480.411884,11029.068536
2567.345639,-1378.971896,-666.185348,10436.903782
2567.345968,-306.438199,1480.411884,9622.677246
2567.346297,383.047749,962.267725,10584.944971
2567.346626,2681.334243,-0.000000,6735.874072
2567.346956,4673.182538,296.082377,7254.018232
2567.347285,4903.011187,2368.659014,5403.503377
2567.347614,3830.477490,2368.659014,5625.565159
2567.347943,1685.410096,1554.432478,9104.533087
2567.348272,0.000000,592.164754,9252.574275
2567.348601,-2221.676944,370.102971,9548.656652
2567.348930,-3677.258390,-3478.967927,11103.089130
2567.349259,-2528.115143,-2812.782580,10658.965565
2567.349588,-3217.601092,-3775.050304,10881.027347
2567.349917,-2068.457845,-518.144159,11473.192101
2567.350247,-1225.752797,-1480.411884,10288.862594
2567.350576,-1225.752797,-0.000000,10881.027347
2567.350905,-383.047749,1258.350101,8290.306550
2567.351234,1685.410096,-222.061783,11103.089130
2567.351563,2528.115143,-0.000000,6587.832884
2567.351892,5439.278036,2294.638420,6587.832884
2567.352221,4290.134789,1332.370696,5773.606348
2567.352550,3830.477490,2220.617826,6661.853478
2567.352879,2604.724693,1628.453072,7624.121203
2567.353209,766.095498,888.247130,8364.327145
2567.353538,-612.876398,-592.164754,9548.656652
2567.353867,-1915.238745,-2368.659014,10362.883188
2567.354196,-2374.896044,-3923.091493,11399.171507
2567.354525,-2451.505594,-2442.679609,11177.109724
2567.354854,-1225.752797,-1406.391290,10584.944971
2567.355183,-1149.143247,-1184.329507,10140.821405
2567.355512,76.609550,518.144159,10510.924376
2567.355841,2068.457845,962.267725,8734.430116
2567.356171,4213.525239,370.102971,5847.626942
2567.356500,5898.935335,740.205942,6143.709319
2567.356829,4749.792088,2072.576638,5477.523971
2567.357158,4366.744339,2146.597232,6883.915261
2567.357487,1915.238745,814.226536,7624.121203
2567.357816,995.924147,518.144159,8364.327145
2567.358145,-1532.190996,-1776.494261,10436.903782
2567.358474,-3294.210641,-2368.659014,10881.027347
2567.358803,-2451.505594,-3849.070898,11769.274478
2567.359133,-3064.381992,-3256.906145,10214.842000
2567.359462,-1608.800546,-2516.700203,11251.130318
2567.359791,-1532.190996,-1036.288319,10807.006753
2567.360120,-689.485948,888.247130,10362.883188
2567.360449,-1149.143247,1184.329507,8734.430116
2567.360778,1991.848295,-592.164754,11029.068536
2567.361107,2604.724693,814.226536,5995.668130
2567.361436,5056.230287,1480.411884,6957.935855
2567.361765,3600.648841,1184.329507,5625.565159
2567.362094,3294.210641,2516.700203,6439.791695
2567.362424,1532.190996,1110.308913,7698.141797
2567.362753,-689.485948,1036.288319,8586.388927
2567.363082,-1608.800546,-1036.288319,11103.089130
2567.363411,-2834.553343,-2072.576638,11177.109724
2567.363740,-2528.115143,-2960.823768,9474.636058
2567.364069,-2528.115143,-1850.514855,11177.109724
2567.364398,-1378.971896,-1406.391290,10658.965565
2567.364727,-1302.362347,-518.144159,10955.047942
2567.365056,-459.657299,1332.370696,10436.903782
2567.365386,-383.047749,1924.535449,8364.327145
2567.365715,2451.505594,-1258.350101,9918.759623
2567.366044,2528.115143,1184.329507,5773.606348
2567.366373,3370.820191,1924.535449,7254.018232
2567.366702,3370.820191,1332.370696,7105.977043
2567.367031,2451.505594,1628.453072,6957.935855
2567.367360,-306.438199,1184.329507,9252.574275
2567.367689,-689.485948,370.102971,8808.450710
2567.368018,-2374.896044,-1184.329507,9918.759623
2567.368348,-2604.724693,-2812.782580,10807.006753
2567.368677,-2145.067394,-2442.679609,11251.130318
2567.369006,-2528.115143,-814.226536,11177.109724
2567.369335,-1455.581446,-2442.679609,10584.944971
2567.369664,-1608.800546,-518.144159,9992.780217
2567.369993,-383.047749,666.185348,9918.759623
2567.370322,1685.410096,666.185348,8956.491898
2567.370651,3064.381992,-222.061783,7105.977043
2567.370980,4060.306139,1110.308913,6735.874072
2567.371309,3064.381992,1628.453072,5995.668130
2567.371639,3064.381992,1776.494261,7328.038826
2567.371968,612.876398,1184.329507,8364.327145
2567.372297,-306.438199,296.082377,8586.388927
2567.372626,-2221.676944,-1184.329507,10584.944971
2567.372955,-2604.724693,-2590.720797,10955.047942
2567.373284,-1991.848295,-3627.009116,11399.171507
2567.373613,-1915.238745,-2220.617826,10584.944971
2567.373942,-1225.752797,-592.164754,9622.677246
2567.374271,-1072.533697,-1036.288319,9178.553681
2567.374601,-229.828649,1258.350101,9548.656652
2567.374930,919.314598,962.267725,10066.800811
2567.375259,2451.505594,-0.000000,6587.832884
2567.375588,4519.963438,814.226536,6957.935855
2567.375917,3600.648841,1258.350101,5403.503377
2567.376246,4136.915689,1776.494261,6439.791695
2567.376575,1378.971896,1850.514855,8290.306550
2567.376904,229.828649,148.041188,8660.409521
2567.377233,-919.314598,-518.144159,9548.656652
2567.377563,-2374.896044,-1406.391290,10214.842000
2567.377892,-2451.505594,-3108.864956,10881.027347
2567.378221,-2221.676944,-3330.926739,10436.903782
2567.378550,-2221.676944,-1850.514855,10510.924376
2567.378879,-766.095498,-888.247130,10658.965565
2567.379208,-306.438199,296.082377,9992.780217
2567.379537,612.876398,148.041188,10807.006753
2567.379867,2298.286494,222.061783,7624.121203
2567.380196,4903.011187,148.041188,7031.956449
2567.380525,4596.572988,1332.370696,5551.544565
2567.380854,4213.525239,1554.432478,6957.935855
2567.381183,3294.210641,1554.432478,8142.265362
2567.381512,1532.190996,1258.350101,8290.306550
2567.381841,229.828649,-296.082377,9326.594869
2567.382171,-1838.629195,-1554.432478,10362.883188
2567.382500,-2834.553343,-2590.720797,11103.089130
2567.382829,-2068.457845,-3701.029710,11621.233289
2567.383158,-1608.800546,-1924.535449,10140.821405
2567.383487,-995.924147,-1036.288319,10510.924376
2567.383816,-842.705048,-518.144159,10288.862594
2567.384146,-306.438199,1850.514855,10140.821405
2567.384475,1762.019645,518.144159,9622.677246
2567.384804,3524.039291,1554.432478,5625.565159
2567.385133,4979.620737,1554.432478,7254.018232
2567.385462,3677.258390,1554.432478,5773.606348
2567.385791,3983.696590,2146.597232,7624.121203
2567.386121,1378.971896,1480.411884,7550.100608
2567.386450,689.485948,370.102971,7328.038826
2567.386779,-1991.848295,-1184.329507,10214.842000
2567.387108,-2911.162892,-1702.473667,10436.903782
2567.387437,-2374.896044,-2812.782580,10436.903782
2567.387766,-2604.724693,-1998.556043,10510.924376
2567.388095,-1302.362347,-1924.535449,10732.986159
2567.388425,-1991.848295,-1036.288319,10288.862594
2567.388754,-1378.971896,740.205942,10658.965565
2567.389083,-1072.533697,1036.288319,8660.409521
2567.389412,1608.800546,-370.102971,10658.965565
2567.389741,2374.896044,-0.000000,7105.977043
2567.390070,4213.525239,296.082377,7105.977043
2567.390400,3600.648841,1332.370696,6587.832884
2567.390729,3140.991542,1850.514855,7105.977043
2567.391058,1532.190996,1702.473667,8438.347739
2567.391387,-612.876398,814.226536,8734.430116
2567.391716,-1302.362347,-740.205942,10066.800811
2567.392045,-2298.286494,-2220.617826,10658.965565
2567.392374,-1685.410096,-2960.823768,10955.047942
2567.392704,-2374.896044,-2220.617826,10436.903782
2567.393033,-1225.752797,-1480.411884,11251.130318
2567.393362,-1455.581446,-518.144159,10807.006753
2567.393691,-689.485948,1184.329507,9622.677246
2567.394020,689.485948,1258.350101,9474.636058
2567.394349,1762.019645,-0.000000,7550.100608
2567.394679,3600.648841,-0.000000,7328.038826
2567.395008,2911.162892,1258.350101,5773.606348
2567.395337,2451.505594,888.247130,7476.080014
2567.395666,842.705048,370.102971,8512.368333
2567.395995,-383.047749,666.185348,8660.409521
2567.396324,-1991.848295,-518.144159,9548.656652
2567.396653,-2604.724693,-1554.432478,10362.883188
2567.396983,-2604.724693,-2442.679609,10140.821405
2567.397312,-2145.067394,-2368.659014,10658.965565
2567.397641,-1608.800546,-1332.370696,9992.780217
2567.397970,-1838.629195,-592.164754,10066.800811
2567.398299,-766.095498,370.102971,9918.759623
2567.398628,1302.362347,1332.370696,8882.471304
2567.398958,2911.162892,1480.411884,6587.832884
2567.399287,4596.572988,592.164754,7105.977043
2567.399616,4136.915689,1554.432478,5477.523971
2567.399945,3830.477490,1110.308913,7328.038826
2567.400274,1685.410096,1036.288319,7772.162391
2567.400603,0.000000,-370.102971,8660.409521
2567.400932,-2298.286494,-1480.411884,10584.944971
2567.401262,-3064.381992,-2442.679609,11473.192101
2567.401591,-2528.115143,-3627.009116,11473.192101
2567.401920,-2987.772442,-2886.803174,10881.027347
2567.402249,-842.705048,-1924.535449,10214.842000
2567.402578,-995.924147,-518.144159,10140.821405
2567.402907,-459.657299,962.267725,9622.677246
2567.403237,1302.362347,1184.329507,11029.068536
2567.403566,2834.553343,1332.370696,6809.894666
2567.403895,5592.497135,666.185348,7476.080014
2567.404224,4136.915689,2220.617826,5477.523971
2567.404553,5439.278036,1702.473667,6957.935855
2567.404882,2987.772442,1702.473667,6735.874072
2567.405211,2298.286494,1850.514855,7550.100608
2567.405541,-459.657299,-962.267725,9844.739029
2567.405870,-2221.676944,-740.205942,10140.821405
2567.406199,-3140.991542,-3256.906145,11547.212695
2567.406528,-2451.505594,-4145.153275,11547.212695
2567.406857,-919.314598,-2072.576638,9918.759623
2567.407186,-1685.410096,-2220.617826,11547.212695
2567.407516,-1991.848295,-518.144159,10584.944971
2567.407845,-689.485948,1628.453072,9918.759623
2567.408174,842.705048,-518.144159,10066.800811
2567.408503,3370.820191,888.247130,7328.038826
2567.408832,5132.839837,1184.329507,6883.915261
2567.409161,4903.011187,1480.411884,5329.482782
2567.409490,4290.134789,1480.411884,6439.791695
2567.409820,3447.429741,1850.514855,7624.121203
2567.410149,1838.629195,1184.329507,7550.100608
2567.410478,76.609550,-0.000000,8734.430116
2567.410807,-1991.848295,-1628.453072,10362.883188
2567.411136,-2451.505594,-2960.823768,11473.192101
2567.411465,-2298.286494,-3256.906145,10955.047942
2567.411795,-2604.724693,-1480.411884,10955.047942
2567.412124,-1991.848295,-1776.494261,11029.068536
2567.412453,-1762.019645,-0.000000,10436.903782
2567.412782,-842.705048,1702.473667,9326.594869
2567.413111,1149.143247,296.082377,10510.924376
2567.413440,2298.286494,-0.000000,7994.224174
2567.413769,3524.039291,962.267725,7105.977043
2567.414099,3294.210641,1702.473667,5921.647536
2567.414428,2681.334243,1258.350101,6957.935855
2567.414757,1532.190996,1110.308913,8290.306550
2567.415086,76.609550,740.205942,8216.285956
2567.415415,-1378.971896,-666.185348,9696.697840
2567.415744,-3217.601092,-1776.494261,10732.986159
2567.416074,-1915.238745,-2590.720797,10658.965565
2567.416403,-2604.724693,-1998.556043,10658.965565
2567.416732,-2145.067394,-1332.370696,11177.109724
2567.417061,-2068.457845,-1258.350101,10214.842000
2567.417390,-1378.971896,814.226536,9548.656652
2567.417719,-612.876398,1480.411884,9696.697840
2567.418048,1915.238745,-0.000000,8882.471304
2567.418378,2987.772442,296.082377,7105.977043
2567.418707,3830.477490,1258.350101,6883.915261
2567.419036,2528.115143,1184.329507,6143.709319
2567.419365,2068.457845,1480.411884,7920.203579
2567.419694,536.266849,1258.350101,8142.265362
2567.420023,-229.828649,592.164754,8512.368333
2567.420353,-2221.676944,-592.164754,10510.924376
2567.420682,-1378.971896,-2368.659014,10362.883188
2567.421011,-1838.629195,-2590.720797,10584.944971
2567.421340,-1762.019645,-666.185348,9992.780217
2567.421669,-1455.581446,-1184.329507,9474.636058
2567.421998,-1378.971896,-370.102971,10584.944971
2567.422327,-1225.752797,740.205942,9770.718434
2567.422657,-383.047749,-222.061783,10362.883188
2567.422986,1838.629195,-962.267725,7846.182985
2567.423315,3140.991542,296.082377,6809.894666
2567.423644,2757.943793,962.267725,6069.688724
2567.423973,2757.943793,1406.391290,7624.121203
2567.424302,1838.629195,962.267725,8364.327145
2567.424632,306.438199,1110.308913,9178.553681
2567.424961,-459.657299,-0.000000,9548.656652
2567.425290,-1455.581446,-1036.288319,9696.697840
2567.425619,-2221.676944,-2590.720797,11251.130318
2567.425948,-2068.457845,-2516.700203,11399.171507
2567.426277,-689.485948,-1110.308913,10436.903782
2567.426606,-1072.533697,-1258.350101,10584.944971
2567.426936,0.000000,-592.164754,10288.862594
2567.427265,1455.581446,962.267725,9992.780217
2567.427594,2451.505594,222.061783,7698.141797
2567.427923,4979.620737,296.082377,7254.018232
2567.428252,4366.744339,1628.453072,6069.688724
2567.428581,3983.696590,2072.576638,7105.977043
2567.428911,2911.162892,1406.391290,7846.182985
2567.429240,1302.362347,1406.391290,8216.285956
2567.429569,0.000000,-444.123565,9770.718434
2567.429898,-1762.019645,-666.185348,10658.965565
2567.430227,-3064.381992,-3330.926739,11621.233289
2567.430556,-1762.019645,-2590.720797,11029.068536
2567.430885,-612.876398,-1776.494261,9696.697840
2567.431215,-919.314598,-962.267725,10066.800811
2567.431544,-995.924147,222.061783,9400.615463
2567.431873,766.095498,814.226536,10584.944971
2567.432202,1838.629195,-0.000000,7698.141797
2567.432531,4519.963438,1332.370696,6143.709319
2567.432860,4596.572988,1036.288319,6661.853478
2567.433190,3370.820191,1554.432478,6069.688724
2567.433519,2528.115143,1110.308913,7994.224174
2567.433848,689.485948,1332.370696,7772.162391
2567.434177,-919.314598,-740.205942,9326.594869
2567.434506,-2528.115143,-1332.370696,10362.883188
2567.434835,-2911.162892,-2294.638420,11547.212695
2567.435164,-2987.772442,-2738.761985,10362.883188
2567.435494,-1762.019645,-2368.659014,10584.944971
2567.435823,-1762.019645,-2368.659014,10362.883188
2567.436152,-1302.362347,-370.102971,10436.903782
2567.436481,-689.485948,592.164754,9918.759623
2567.436810,-766.095498,-0.000000,9770.718434
2567.437139,1991.848295,-370.102971,8660.409521
2567.437469,3370.820191,1406.391290,6735.874072
2567.437798,3753.867940,592.164754,6587.832884
2567.438127,3064.381992,1406.391290,6439.791695
2567.438456,2987.772442,1702.473667,7920.203579
2567.438785,842.705048,1480.411884,8364.327145
2567.439114,-612.876398,-0.000000,8734.430116
2567.439444,-1455.581446,-1406.391290,10436.903782
2567.439773,-2451.505594,-2368.659014,10584.944971
2567.440102,-1838.629195,-2442.679609,10584.944971
2567.440431,-1915.238745,-1702.473667,10362.883188
2567.440760,-1608.800546,-1924.535449,10436.903782
2567.441089,-1225.752797,-296.082377,9992.780217
2567.441418,-153.219100,1554.432478,8956.491898
2567.441748,0.000000,-0.000000,9400.615463
2567.442077,1685.410096,-592.164754,8142.265362
2567.442406,2834.553343,1184.329507,6809.894666
2567.442735,2681.334243,740.205942,6143.709319
2567.443064,1685.410096,740.205942,7031.956449
2567.443393,1225.752797,518.144159,8512.368333
2567.443723,-689.485948,814.226536,8882.471304
2567.444052,-1685.410096,-370.102971,9178.553681
2567.444381,-2068.457845,-1554.432478,9992.780217
2567.444710,-1762.019645,-2368.659014,9992.780217
2567.445039,-1838.629195,-1406.391290,10436.903782
2567.445368,-1149.143247,-1332.370696,10584.944971
2567.445697,-1225.752797,-1554.432478,10288.862594
2567.446027,-1455.581446,296.082377,9918.759623
2567.446356,229.828649,-0.000000,10881.027347
2567.446685,1455.581446,-148.041188,7550.100608
2567.447014,3677.258390,-444.123565,7920.203579
2567.447343,3677.258390,1480.411884,6217.729913
2567.447672,2834.553343,1110.308913,6661.853478
2567.448002,2145.067394,740.205942,8364.327145
2567.448331,919.314598,1258.350101,8216.285956
2567.448660,306.438199,-296.082377,9474.636058
2567.448989,-1608.800546,-1332.370696,10362.883188
2567.449318,-1915.238745,-2590.720797,10510.924376
2567.449647,-1532.190996,-3108.864956,11547.212695
2567.449976,-919.314598,-1110.308913,10214.842000
2567.450306,-842.705048,-1258.350101,10510.924376
2567.450635,-306.438199,-0.000000,10436.903782
2567.450964,1225.752797,1258.350101,9918.759623
2567.451293,2451.505594,1184.329507,7105.977043
2567.451622,4749.792088,518.144159,6735.874072
2567.451951,4213.525239,888.247130,6365.771101
2567.452281,3907.087040,1480.411884,7031.956449
2567.452610,2911.162892,888.247130,8142.265362
2567.452939,229.828649,148.041188,8364.327145
2567.453268,-612.876398,-814.226536,9400.615463
2567.453597,-2604.724693,-740.205942,10362.883188
2567.453926,-2451.505594,-2368.659014,11325.150913
2567.454255,-2451.505594,-2368.659014,10288.862594
2567.454585,-1302.362347,-1628.453072,10732.986159
2567.454914,-995.924147,-814.226536,10288.862594
2567.455243,-1072.533697,-0.000000,9622.677246
2567.455572,306.438199,444.123565,10658.965565
2567.455901,2068.457845,592.164754,8068.244768
2567.456230,4596.572988,1998.556043,6513.812290
2567.456560,4903.011187,1480.411884,5699.585753
2567.456889,4519.963438,1110.308913,5847.626942
2567.457218,3983.696590,1406.391290,7994.224174
2567.457547,1608.800546,1258.350101,7402.059420
2567.457876,-612.876398,-518.144159,9178.553681
2567.458205,-2681.334243,-1924.535449,11177.109724
2567.458534,-3524.039291,-2368.659014,11399.171507
2567.458864,-3064.381992,-3923.091493,11547.212695
2567.459193,-2451.505594,-2368.659014,10288.862594
2567.459522,-1225.752797,-2442.679609,10658.965565
2567.459851,-1608.800546,-592.164754,10510.924376
2567.460180,-1072.533697,1702.473667,9474.636058
2567.460509,-383.047749,592.164754,10436.903782
2567.460839,2681.334243,592.164754,7772.162391
2567.461168,3907.087040,1924.535449,6513.812290
2567.461497,3217.601092,222.061783,5625.565159
2567.461826,2987.772442,592.164754,6883.915261
2567.462155,1838.629195,1332.370696,8438.347739
2567.462484,229.828649,370.102971,8068.244768
2567.462813,-1302.362347,-0.000000,8882.471304
2567.463143,-2987.772442,-1628.453072,10732.986159
2567.463472,-2451.505594,-1850.514855,11103.089130
2567.463801,-2681.334243,-2442.679609,10436.903782
2567.464130,-2221.676944,-1406.391290,10955.047942
2567.464459,-1072.533697,-1776.494261,10362.883188
2567.464788,-1532.190996,370.102971,10510.924376
2567.465118,-1532.190996,1332.370696,9400.615463
2567.465447,229.828649,-0.000000,10510.924376
2567.465776,2221.676944,-518.144159,7698.141797
2567.466105,4213.525239,1850.514855,6883.915261
2567.466434,4290.134789,888.247130,6143.709319
2567.466763,3370.820191,1184.329507,7772.162391
2567.467092,1991.848295,1628.453072,8512.368333
2567.467422,842.705048,1628.453072,7698.141797
2567.467751,-383.047749,-0.000000,9474.636058
2567.468080,-2451.505594,-1184.329507,10288.862594
2567.468409,-2298.286494,-3034.844362,11769.274478
2567.468738,-2298.286494,-2886.803174,11695.253884
2567.469067,-1991.848295,-1776.494261,10214.842000
2567.469397,-766.095498,-1480.411884,10955.047942
2567.469726,-1072.533697,-296.082377,10584.944971
2567.470055,1225.752797,1628.453072,9770.718434
2567.470384,2987.772442,1110.308913,6513.812290
2567.470713,4596.572988,-296.082377,7105.977043
2567.471042,4060.306139,1850.514855,6439.791695
2567.471371,4443.353888,1628.453072,6513.812290
2567.471701,919.314598,814.226536,7624.121203
2567.472030,153.219100,888.247130,8290.306550
2567.472359,-766.095498,-370.102971,9992.780217
2567.472688,-3217.601092,-1332.370696,10732.986159
2567.473017,-2298.286494,-2812.782580,11991.336260
2567.473346,-2757.943793,-2886.803174,10510.924376
2567.473676,-1685.410096,-2294.638420,10881.027347
2567.474005,-2145.067394,-814.226536,9992.780217
2567.474334,-919.314598,-0.000000,10066.800811
2567.474663,-842.705048,-0.000000,8956.491898
2567.474992,2451.505594,-518.144159,10214.842000
2567.475321,3907.087040,962.267725,4885.359217
2567.475650,5592.497135,222.061783,7105.977043
2567.475980,4366.744339,1184.329507,5255.462188
2567.476309,4749.792088,2294.638420,6661.853478
2567.476638,2834.553343,1998.556043,6069.688724
2567.476967,1225.752797,1332.370696,7550.100608
2567.477296,-383.047749,-0.000000,9992.780217
2567.477625,-2298.286494,-1258.350101,10510.924376
2567.477955,-2221.676944,-3849.070898,12287.418637
2567.478284,-2757.943793,-2664.741391,10955.047942
2567.478613,-1302.362347,-2072.576638,10732.986159
2567.478942,-1532.190996,-1850.514855,10881.027347
2567.479271,-842.705048,1406.391290,9918.759623
2567.479600,-612.876398,1258.350101,10066.800811
2567.479929,2221.676944,-1110.308913,9474.636058
2567.480259,3677.258390,1110.308913,6217.729913
2567.480588,3753.867940,592.164754,7105.977043
2567.480917,2834.553343,740.205942,5921.647536
2567.481246,1838.629195,740.205942,8142.265362
2567.481575,153.219100,370.102971,8808.450710
2567.481904,-995.924147,-0.000000,8734.430116
2567.482233,-2221.676944,-1850.514855,11251.130318
2567.482562,-2221.676944,-1480.411884,10955.047942
2567.482891,-1991.848295,-3108.864956,11177.109724
2567.483220,-2451.505594,-1110.308913,10807.006753
2567.483549,-1991.848295,-1036.288319,10807.006753
2567.483878,-1378.971896,-74.020594,10436.903782
2567.484207,-612.876398,814.226536,11029.068536
2567.484536,1685.410096,1480.411884,8660.409521
2567.484865,3677.258390,740.205942,6661.853478
2567.485194,4596.572988,1480.411884,6365.771101
2567.485523,3753.867940,2146.597232,5995.668130
2567.485852,3447.429741,1036.288319,7772.162391
2567.486181,1455.581446,1480.411884,7328.038826
2567.486510,0.000000,1036.288319,8734.430116
2567.486839,-2374.896044,-1258.350101,10881.027347
2567.487168,-3064.381992,-1998.556043,10807.006753
2567.487497,-2374.896044,-3478.967927,11621.233289
2567.487826,-1685.410096,-2294.638420,10214.842000
2567.488155,-1072.533697,-1258.350101,10510.924376
2567.488484,-1225.752797,-444.123565,10658.965565
2567.488813,-1072.533697,1480.411884,9548.656652
2567.489142,689.485948,592.164754,10732.986159
2567.489471,2298.286494,518.144159,6587.832884
2567.489800,5132.839837,962.267725,6809.894666
2567.490129,4903.011187,1258.350101,5477.523971
2567.490459,3753.867940,1850.514855,6439.791695
2567.490788,2451.505594,1480.411884,7920.203579
2567.491117,0.000000,1184.329507,7550.100608
2567.491446,-1455.581446,-518.144159,9622.677246
2567.491775,-3064.381992,-1702.473667,10955.047942
2567.492104,-3217.601092,-3552.988522,11399.171507
2567.492433,-3524.039291,-3256.906145,10510.924376
2567.492762,-3217.601092,-2516.700203,12139.377449
2567.493091,-2145.067394,-2294.638420,11177.109724
2567.493420,-1225.752797,-296.082377,11029.068536
2567.493749,-1378.971896,1628.453072,8734.430116
2567.494078,306.438199,-814.226536,10140.821405
2567.494407,2757.943793,-814.226536,8068.244768
2567.494736,4366.744339,1776.494261,5773.606348
2567.495065,4443.353888,1480.411884,4811.338623
2567.495394,4366.744339,1776.494261,5329.482782
2567.495723,3217.601092,2146.597232,7254.018232
2567.496052,383.047749,1924.535449,7402.059420
2567.496381,-689.485948,-0.000000,8882.471304
2567.496710,-1838.629195,-1776.494261,10510.924376
2567.497039,-1915.238745,-3404.947333,11325.150913
2567.497368,-2221.676944,-3182.885551,11177.109724
2567.497697,-1149.143247,-1332.370696,10807.006753
2567.498026,-1685.410096,-1924.535449,11103.089130
2567.498355,-1455.581446,296.082377,10214.842000
2567.498684,229.828649,1258.350101,10288.862594
2567.499013,2374.896044,-444.123565,8660.409521
2567.499342,4213.525239,-222.061783,6661.853478
2567.499671,6281.983084,2072.576638,5773.606348
2567.500000,4366.744339,1480.411884,5403.503377
2567.500330,3677.258390,1258.350101,7920.203579
2567.500659,1455.581446,1998.556043,7698.141797
2567.500988,0.000000,740.205942,8660.409521
2567.501317,-1991.848295,-1184.329507,10362.883188
2567.501646,-2757.943793,-2368.659014,11399.171507
2567.501975,-2221.676944,-2738.761985,11843.295072
2567.502304,-2451.505594,-1628.453072,11029.068536
2567.502633,-1991.848295,-1628.453072,10955.047942
2567.502962,-1915.238745,-1184.329507,10955.047942
2567.503291,-1072.533697,1110.308913,10214.842000
2567.503620,689.485948,222.061783,11029.068536
2567.503949,2987.772442,-370.102971,6291.750507
2567.504278,5362.668486,1332.370696,7846.182985
2567.504607,4749.792088,1258.350101,5255.462188
2567.504936,4136.915689,2516.700203,6069.688724
2567.505265,2298.286494,2072.576638,7994.224174
2567.505594,689.485948,1628.453072,7846.182985
2567.505923,-766.095498,-0.000000,9844.739029
2567.506252,-2451.505594,-1554.432478,10955.047942
2567.506581,-2221.676944,-3330.926739,11547.212695
2567.506910,-2221.676944,-3034.844362,10436.903782
2567.507239,-1455.581446,-1332.370696,10955.047942
2567.507568,-1608.800546,-1406.391290,10362.883188
2567.507897,-1225.752797,740.205942,10066.800811
2567.508226,-536.266849,1702.473667,9474.636058
2567.508555,1915.238745,-444.123565,8734.430116
2567.508884,3753.867940,-0.000000,6439.791695
2567.509213,4673.182538,740.205942,6143.709319
2567.509542,3217.601092,1850.514855,5773.606348
2567.509871,2834.553343,2072.576638,7624.121203
2567.510200,766.095498,1776.494261,7698.141797
2567.510530,-612.876398,592.164754,8808.450710
2567.510859,-2145.067394,-1184.329507,10362.883188
2567.511188,-2757.943793,-2442.679609,10140.821405
2567.511517,-2374.896044,-3627.009116,11399.171507
2567.511846,-2451.505594,-1924.535449,10510.924376
2567.512175,-1991.848295,-1702.473667,10584.944971
2567.512504,-2451.505594,-962.267725,10584.944971
2567.512833,-1225.752797,1184.329507,9548.656652
2567.513162,-612.876398,814.226536,9400.615463
2567.513491,919.314598,-1480.411884,9326.594869
2567.513820,3217.601092,370.102971,5921.647536
2567.514149,3907.087040,1480.411884,6883.915261
2567.514478,2528.115143,1554.432478,6217.729913
2567.514807,1915.238745,1998.556043,7328.038826
2567.515136,0.000000,1480.411884,8734.430116
2567.515465,-1225.752797,-0.000000,9104.533087
2567.515794,-2145.067394,-1998.556043,10807.006753
2567.516123,-1915.238745,-2516.700203,11399.171507
2567.516452,-1532.190996,-3034.844362,10881.027347
2567.516781,-1991.848295,-1850.514855,10510.924376
2567.517110,-1532.190996,-1036.288319,10362.883188
2567.517439,-1302.362347,-0.000000,9992.780217
2567.517768,-612.876398,814.226536,9844.739029
2567.518097,1608.800546,-0.000000,9400.615463
2567.518426,2911.162892,-962.267725,6513.812290
2567.518755,4903.011187,740.205942,6809.894666
2567.519084,3140.991542,2072.576638,5403.503377
2567.519413,2374.896044,1258.350101,7328.038826
2567.519742,0.000000,1850.514855,8438.347739
2567.520071,-766.095498,1110.308913,8808.450710
2567.520400,-1685.410096,-592.164754,10140.821405
2567.520730,-1378.971896,-2294.638420,10140.821405
2567.521059,-1838.629195,-3182.885551,10436.903782
2567.521388,-1762.019645,-2146.597232,11547.212695
2567.521717,-766.095498,-1258.350101,10140.821405
2567.522046,-842.705048,-370.102971,10288.862594
2567.522375,-383.047749,888.247130,9326.594869
2567.522704,842.705048,-0.000000,10584.944971
2567.523033,3447.429741,-888.247130,7402.059420
2567.523362,5362.668486,740.205942,6217.729913
2567.523691,4366.744339,444.123565,6217.729913
2567.524020,4519.963438,1998.556043,7105.977043
2567.524349,3064.381992,3552.988522,7994.224174
2567.524678,1149.143247,1776.494261,7772.162391
2567.525007,995.924147,666.185348,8956.491898
2567.525336,-1225.752797,-2220.617826,10288.862594
2567.525665,-842.705048,-2590.720797,11251.130318
2567.525994,-1225.752797,-3923.091493,12065.356855
2567.526323,-1838.629195,-1998.556043,10807.006753
2567.526652,-766.095498,-1406.391290,11251.130318
2567.526981,-612.876398,370.102971,10584.944971
2567.527310,383.047749,296.082377,10066.800811
2567.527639,3064.381992,222.061783,7105.977043
2567.527968,4979.620737,444.123565,7179.997637
2567.528297,4596.572988,1406.391290,6661.853478
2567.528626,4213.525239,2368.659014,5995.668130
2567.528955,2451.505594,1850.514855,7105.977043
2567.529284,536.266849,2442.679609,7624.121203
2567.529613,0.000000,-0.000000,9178.553681
2567.529942,-2221.676944,-1036.288319,9696.697840
2567.530271,-2068.457845,-2738.761985,10955.047942
2567.530600,-2068.457845,-3701.029710,10807.006753
2567.530930,-1378.971896,-3108.864956,10066.800811
2567.531259,-1991.848295,-1702.473667,10362.883188
2567.531588,-1302.362347,-592.164754,10140.821405
2567.531917,-995.924147,814.226536,9252.574275
2567.532246,-612.876398,-0.000000,8956.491898
2567.532575,1532.190996,-1480.411884,10881.027347
2567.532904,1915.238745,-0.000000,6883.915261
2567.533233,4060.306139,888.247130,7105.977043
2567.533562,2911.162892,1628.453072,5551.544565
2567.533891,2528.115143,2886.803174,6291.750507
2567.534220,1149.143247,2072.576638,8290.306550
2567.534549,-536.266849,888.247130,8142.265362
2567.534878,-1072.533697,-1110.308913,10140.821405
2567.535207,-1608.800546,-2738.761985,10881.027347
2567.535536,-1838.629195,-2516.700203,9548.656652
2567.535865,-2374.896044,-2368.659014,11473.192101
2567.536194,-1685.410096,-1110.308913,10214.842000
2567.536523,-1072.533697,-222.061783,10510.924376
2567.536852,-612.876398,444.123565,9474.636058
2567.537181,-459.657299,-0.000000,9548.656652
2567.537510,1149.143247,-1998.556043,9178.553681
2567.537839,1991.848295,370.102971,6735.874072
2567.538168,2374.896044,1850.514855,7179.997637
2567.538497,1149.143247,1554.432478,7031.956449
2567.538826,459.657299,1998.556043,8586.388927
2567.539155,-842.705048,1110.308913,8734.430116
2567.539484,-1762.019645,-370.102971,9326.594869
2567.539813,-1072.533697,-1998.556043,10214.842000
2567.540142,-1455.581446,-1998.556043,8660.409521
2567.540471,-1302.362347,-2220.617826,10955.047942
2567.540801,-2068.457845,-1110.308913,9696.697840
2567.541130,-1532.190996,-666.185348,10288.862594
2567.541459,-1072.533697,-444.123565,9992.780217
2567.541788,-612.876398,370.102971,9622.677246
2567.542117,919.314598,-518.144159,9992.780217
2567.542446,1225.752797,-222.061783,7624.121203
2567.542775,2911.162892,1332.370696,7402.059420
2567.543104,2068.457845,2368.659014,6661.853478
2567.543433,919.314598,2886.803174,7328.038826
2567.543762,-612.876398,1702.473667,8512.368333
2567.544091,-1762.019645,1258.350101,8290.306550
2567.544420,-2451.505594,-814.226536,9696.697840
2567.544749,-1455.581446,-2220.617826,9326.594869
2567.545078,-2528.115143,-2294.638420,9104.533087
2567.545407,-2987.772442,-1924.535449,10732.986159
2567.545736,-3370.820191,-1702.473667,10362.883188
2567.546065,-2987.772442,-1110.308913,11029.068536
2567.546394,-2298.286494,-148.041188,10066.800811
2567.546723,-995.924147,666.185348,8216.285956
2567.547052,-1302.362347,-370.102971,8586.388927
2567.547381,-1762.019645,-962.267725,9474.636058
2567.547710,-1532.190996,-1258.350101,9844.739029
2567.548039,-1685.410096,444.123565,8364.327145
2567.548368,-2145.067394,962.267725,7994.224174
2567.548697,-2604.724693,296.082377,8512.368333
2567.549026,-2451.505594,296.082377,9178.553681
2567.549355,-2298.286494,-148.041188,8956.491898
2567.549684,-2221.676944,-888.247130,8660.409521
2567.550013,-1762.019645,-370.102971,9030.512492
2567.550342,-2145.067394,-888.247130,9178.553681
2567.550671,-2221.676944,-1554.432478,9918.759623
2567.551001,-2451.505594,-1628.453072,9918.759623
2567.551330,-1991.848295,-444.123565,8734.430116
2567.551659,-1302.362347,-666.185348,9400.615463
2567.551988,-229.828649,222.061783,9178.553681
2567.552317,383.047749,2220.617826,6439.791695
2567.552646,612.876398,1850.514855,6957.935855
2567.552975,-1072.533697,1850.514855,6661.853478
2567.553304,-1915.238745,814.226536,8586.388927
2567.553633,-4366.744339,-0.000000,9326.594869
2567.553962,-4673.182538,-1628.453072,10584.944971
2567.554291,-5056.230287,-2146.597232,9030.512492
2567.554620,-6588.421283,-2368.659014,9918.759623
2567.554949,-7890.783629,-4071.132681,11843.295072
2567.555278,-7660.954980,-2368.659014,11695.253884
2567.555607,-5515.887586,-1850.514855,11621.233289
2567.555936,-4290.134789,-518.144159,9844.739029
2567.556265,-1532.190996,814.226536,8734.430116
2567.556594,-1149.143247,3034.844362,6439.791695
2567.556923,-766.095498,962.267725,7994.224174
2567.557252,2298.286494,592.164754,9030.512492
2567.557581,2987.772442,4441.235652,3034.844362
2567.557910,3907.087040,2146.597232,6735.874072
2567.558239,-612.876398,2368.659014,5847.626942
2567.558568,0.000000,370.102971,10584.944971
2567.558897,-3983.696590,-1184.329507,9918.759623
2567.559226,-2604.724693,-2294.638420,10732.986159
2567.559555,-3753.867940,-2368.659014,11399.171507
2567.559884,-5439.278036,-370.102971,9326.594869
2567.560213,-7124.688131,-3108.864956,13101.645173
2567.560542,-8350.440928,-1406.391290,11843.295072
2567.560871,-4749.792088,-1110.308913,11547.212695
2567.561201,-4443.353888,-1110.308913,9400.615463
2567.561530,-1532.190996,740.205942,8512.368333
2567.561859,-1608.800546,1406.391290,7105.977043
2567.562188,-1915.238745,-518.144159,6735.874072
2567.562517,-1378.971896,-0.000000,9474.636058
2567.562846,-919.314598,-740.205942,8438.347739
2567.563175,-766.095498,-666.185348,8216.285956
2567.563504,-2221.676944,-0.000000,8142.265362
2567.563833,-2068.457845,-74.020594,8956.491898
2567.564162,-2911.162892,-444.123565,9474.636058
2567.564491,-1915.238745,370.102971,9400.615463
2567.564820,-1532.190996,1406.391290,9474.636058
2567.565149,-1991.848295,814.226536,9030.512492
2567.565478,-2221.676944,1480.411884,8068.244768
2567.565807,-2604.724693,1110.308913,7994.224174
2567.566136,-1762.019645,1628.453072,9030.512492
2567.566465,-1532.190996,-0.000000,7550.100608
2567.566794,-1455.581446,296.082377,7328.038826
2567.567123,-2221.676944,370.102971,7994.224174
2567.567452,-2834.553343,148.041188,7994.224174
2567.567781,-3447.429741,-296.082377,8734.430116
2567.568110,-3064.381992,814.226536,8808.450710
2567.568439,-2987.772442,1480.411884,9030.512492
2567.568768,-2681.334243,962.267725,9918.759623
2567.569097,-3064.381992,1332.370696,10214.842000
2567.569426,-3524.039291,1258.350101,9696.697840
2567.569755,-4290.134789,296.082377,10732.986159
2567.570084,-3217.601092,-0.000000,11251.130318
2567.570413,-2374.896044,-0.000000,10881.027347
2567.570742,-1378.971896,-74.020594,10436.903782
2567.571071,-536.266849,1628.453072,8956.491898
2567.571401,-1532.190996,740.205942,10140.821405
2567.571730,-1149.143247,1480.411884,9992.780217
2567.572059,1685.410096,1850.514855,8734.430116
2567.572388,2604.724693,3701.029710,5699.585753
2567.572717,3217.601092,3775.050304,7254.018232
2567.573046,2528.115143,4219.173869,6883.915261
2567.573375,2681.334243,3701.029710,8512.368333
2567.573704,766.095498,4663.297435,8068.244768
2567.574033,1149.143247,2516.700203,9030.512492
2567.574362,0.000000,2516.700203,10584.944971
2567.574691,-2068.457845,1924.535449,10362.883188
2567.575020,-1991.848295,1036.288319,11177.109724
2567.575349,-2298.286494,1480.411884,10658.965565
2567.575678,-995.924147,1480.411884,10140.821405
2567.576007,-306.438199,1776.494261,9770.718434
2567.576336,919.314598,2664.741391,8956.491898
2567.576665,842.705048,3108.864956,7402.059420
2567.576994,2681.334243,3404.947333,6883.915261
2567.577323,2068.457845,5033.400406,5181.441594
2567.577652,2451.505594,4811.338623,7105.977043
2567.577981,1838.629195,4515.256246,7550.100608
2567.578310,-306.438199,3330.926739,8290.306550
2567.578639,-2221.676944,2516.700203,9548.656652
2567.578968,-3524.039291,1554.432478,9548.656652
2567.579297,-3447.429741,814.226536,11843.295072
2567.579626,-3830.477490,2812.782580,10288.862594
2567.579955,-2987.772442,2146.597232,10436.903782
2567.580284,-4060.306139,2146.597232,10658.965565
2567.580613,-2528.115143,2664.741391,11325.150913
2567.580942,-1762.019645,3256.906145,10584.944971
2567.581271,-766.095498,3108.864956,8512.368333
2567.581601,-689.485948,3923.091493,7920.203579
2567.581930,-995.924147,2812.782580,10510.924376
2567.582259,2681.334243,1998.556043,12065.356855
2567.582588,2681.334243,5107.421000,5255.462188
2567.582917,4596.572988,3701.029710,9252.574275
2567.583246,3064.381992,5181.441594,6513.812290
2567.583575,4519.963438,7698.141797,6735.874072
2567.583904,2145.067394,6661.853478,7328.038826
2567.584233,1762.019645,6069.688724,7846.182985
2567.584562,2298.286494,5921.647536,9104.533087
2567.584891,919.314598,5551.544565,7179.997637
2567.585220,0.000000,3552.988522,9474.636058
2567.585549,-2221.676944,1332.370696,12435.459826
2567.585878,-919.314598,-1406.391290,11399.171507
2567.586207,-2068.457845,1184.329507,10584.944971
2567.586536,-1072.533697,-2072.576638,12583.501014
2567.586865,-1685.410096,3182.885551,7254.018232
2567.587194,1685.410096,1850.514855,11547.212695
2567.587523,2374.896044,5181.441594,7328.038826
2567.587852,2757.943793,4959.379811,7846.182985
2567.588181,3677.258390,4219.173869,7105.977043
2567.588510,3907.087040,5255.462188,7179.997637
2567.588839,2528.115143,5699.585753,7698.141797
2567.589168,1838.629195,3034.844362,6143.709319
2567.589497,-229.828649,1258.350101,9992.780217
2567.589826,-1838.629195,-592.164754,12731.542202
2567.590155,-2834.553343,1110.308913,10881.027347
2567.590484,-2604.724693,-222.061783,11843.295072
2567.590813,-3294.210641,740.205942,8438.347739
2567.591142,-1225.752797,1850.514855,11917.315666
2567.591471,-1072.533697,1480.411884,9030.512492
2567.591800,-995.924147,2220.617826,9030.512492
2567.592129,-536.266849,666.185348,9918.759623
2567.592458,3217.601092,592.164754,10288.862594
2567.592787,3140.991542,3552.988522,4959.379811
2567.593116,4749.792088,2368.659014,8882.471304
2567.593445,2604.724693,1480.411884,6735.874072
2567.593774,4826.401637,3404.947333,8364.327145
2567.594103,3370.820191,4071.132681,6143.709319
2567.594432,2681.334243,4145.153275,7105.977043
2567.594761,-229.828649,888.247130,10066.800811
2567.595090,-2451.505594,-814.226536,10510.924376
2567.595419,-4136.915689,-2294.638420,12361.439231
2567.595748,-3907.087040,-3775.050304,12731.542202
2567.596078,-3217.601092,-888.247130,9104.533087
2567.596407,-2834.553343,-1998.556043,11991.336260
2567.596736,-2451.505594,370.102971,9474.636058
2567.597065,-1149.143247,1850.514855,8734.430116
2567.597394,76.609550,370.102971,7550.100608
2567.597723,612.876398,1924.535449,7920.203579
2567.598052,3370.820191,592.164754,10140.821405
2567.598381,3753.867940,2516.700203,2590.720797
2567.598710,4443.353888,740.205942,8660.409521
2567.599039,4443.353888,1554.432478,6439.791695
2567.599368,5898.935335,2886.803174,5551.544565
2567.599697,3217.601092,1924.535449,6735.874072
2567.600026,2451.505594,3997.112087,4811.338623
2567.600355,1455.581446,1406.391290,9918.759623
2567.600684,-2757.943793,-1480.411884,9844.739029
2567.601013,-5439.278036,-3849.070898,12435.459826
2567.601342,-4979.620737,-2368.659014,12213.398043
2567.601671,-3830.477490,-4737.318029,10881.027347
2567.602000,-6128.763984,-2220.617826,10732.986159
2567.602329,-3217.601092,-2220.617826,10510.924376
2567.602658,-2374.896044,-888.247130,10807.006753
2567.602987,153.219100,-962.267725,8586.388927
2567.603316,459.657299,1332.370696,6365.771101
2567.603645,1072.533697,-2072.576638,15396.283594
2567.603974,2987.772442,2220.617826,6809.894666
2567.604303,6665.030833,1258.350101,7624.121203
2567.604632,5056.230287,2664.741391,3034.844362
2567.604961,5439.278036,3404.947333,4737.318029
2567.605290,4290.134789,2960.823768,10658.965565
2567.605619,1378.971896,3701.029710,7550.100608
2567.605948,383.047749,-0.000000,11103.089130
2567.606277,-3753.867940,-2368.659014,12731.542202
2567.606606,-4596.572988,-0.000000,10658.965565
2567.606935,-4979.620737,-4811.338623,12287.418637
2567.607264,-4903.011187,-1036.288319,8586.388927
2567.607593,-2681.334243,-3997.112087,13767.830521
2567.607922,-1302.362347,-2368.659014,10510.924376
2567.608251,-1072.533697,666.185348,9252.574275
2567.608580,-1302.362347,-1998.556043,7994.224174
2567.608909,5592.497135,-1776.494261,15988.448347
2567.609238,3217.601092,6143.709319,1998.556043
2567.609567,7660.954980,1702.473667,8734.430116
2567.609896,5056.230287,2812.782580,4663.297435
2567.610225,7354.516781,7698.141797,4959.379811
2567.610554,3140.991542,1998.556043,7994.224174
2567.610883,689.485948,7772.162391,5329.482782
2567.611213,1915.238745,1924.535449,11547.212695
2567.611542,-2757.943793,-0.000000,7254.018232
2567.611871,-5132.839837,-4885.359217,12731.542202
2567.612200,-4366.744339,-2368.659014,11769.274478
2567.612529,-1302.362347,-4367.215058,7698.141797
2567.612858,-2911.162892,-5625.565159,11695.253884
2567.613187,-1991.848295,-814.226536,11843.295072
2567.613516,-612.876398,518.144159,8512.368333
2567.613845,-1991.848295,-3627.009116,10214.842000
2567.614174,4749.792088,444.123565,6661.853478
2567.614503,4673.182538,5329.482782,4959.379811
2567.614832,5209.449386,1998.556043,8142.265362
2567.615161,2528.115143,3108.864956,5255.462188
2567.615490,4060.306139,2146.597232,9770.718434
