#time,accel_x,accel_y,accel_z
2725.470541,536.266849,-370.102971,9178.553681
2725.470870,0.000000,-296.082377,9178.553681
2725.471199,383.047749,-74.020594,9474.636058
2725.471528,229.828649,-444.123565,9326.594869
2725.471857,229.828649,-222.061783,8882.471304
2725.472187,306.438199,-0.000000,8882.471304
2725.472516,536.266849,-0.000000,8956.491898
2725.472845,383.047749,-0.000000,9030.512492
2725.473174,689.485948,-74.020594,9178.553681
2725.473503,383.047749,222.061783,9178.553681
2725.473832,842.705048,-296.082377,8956.491898
2725.474161,0.000000,-0.000000,9030.512492
2725.474490,306.438199,-296.082377,9030.512492
2725.474819,76.609550,-74.020594,8956.491898
2725.475148,229.828649,-74.020594,8438.347739
2725.475477,383.047749,-74.020594,9030.512492
2725.475806,153.219100,-592.164754,9104.533087
2725.476135,459.657299,-0.000000,8956.491898
2725.476464,612.876398,-0.000000,9030.512492
2725.476793,229.828649,-222.061783,9178.553681
2725.477123,459.657299,-74.020594,9104.533087
2725.477452,842.705048,-148.041188,9178.553681
2725.477781,153.219100,-148.041188,9178.553681
2725.478110,-153.219100,-444.123565,9326.594869
2725.478439,153.219100,-592.164754,9178.553681
2725.478768,229.828649,-296.082377,9030.512492
2725.479097,229.828649,-370.102971,9178.553681
2725.479426,229.828649,-222.061783,9326.594869
2725.479755,536.266849,-0.000000,9474.636058
2725.480084,-612.876398,-0.000000,9252.574275
2725.480413,306.438199,-370.102971,9252.574275
2725.480742,383.047749,-74.020594,9178.553681
2725.481071,459.657299,-74.020594,9178.553681
2725.481400,459.657299,-148.041188,9030.512492
2725.481729,229.828649,-74.020594,9030.512492
2725.482059,383.047749,-222.061783,9400.615463
2725.482388,842.705048,-518.144159,9252.574275
2725.482717,383.047749,-148.041188,9030.512492
2725.483046,76.609550,-0.000000,9400.615463
2725.483375,229.828649,-0.000000,8660.409521
2725.483704,306.438199,-74.020594,8882.471304
2725.484033,306.438199,-74.020594,8734.430116
2725.484362,612.876398,-296.082377,8734.430116
2725.484691,229.828649,-0.000000,8956.491898
2725.485020,-76.609550,-0.000000,9178.553681
2725.485349,0.000000,-296.082377,8882.471304
2725.485678,229.828649,-74.020594,9030.512492
2725.486007,229.828649,-222.061783,8882.471304
2725.486336,153.219100,-148.041188,9104.533087
2725.486665,153.219100,-370.102971,9104.533087
2725.486995,612.876398,-0.000000,9104.533087
2725.487324,612.876398,-148.041188,9326.594869
2725.487653,76.609550,-518.144159,8882.471304
2725.487982,459.657299,-74.020594,9030.512492
2725.488311,306.438199,-74.020594,8956.491898
2725.488640,612.876398,-222.061783,8956.491898
2725.488969,459.657299,-148.041188,9474.636058
2725.489298,842.705048,-296.082377,9474.636058
2725.489627,306.438199,-222.061783,9326.594869
2725.489956,536.266849,-814.226536,9474.636058
2725.490285,229.828649,-148.041188,9326.594869
2725.490614,383.047749,-370.102971,9252.574275
2725.490943,689.485948,-74.020594,9178.553681
2725.491272,689.485948,-444.123565,9252.574275
2725.491601,612.876398,-444.123565,9252.574275
2725.491931,689.485948,-444.123565,9178.553681
2725.492260,459.657299,-0.000000,9178.553681
2725.492589,459.657299,-296.082377,8956.491898
2725.492918,153.219100,-74.020594,8956.491898
2725.493247,306.438199,-0.000000,9104.533087
2725.493576,612.876398,-444.123565,9178.553681
2725.493905,536.266849,-222.061783,9178.553681
2725.494234,153.219100,-444.123565,8808.450710
2725.494563,306.438199,-0.000000,9030.512492
2725.494892,306.438199,-0.000000,9104.533087
2725.495221,459.657299,-0.000000,9104.533087
2725.495550,383.047749,-0.000000,8882.471304
2725.495879,459.657299,-148.041188,9030.512492
2725.496208,229.828649,-148.041188,9030.512492
2725.496537,306.438199,-148.041188,8660.409521
2725.496866,459.657299,-148.041188,9252.574275
2725.497196,459.657299,-0.000000,8956.491898
2725.497525,229.828649,-74.020594,9030.512492
2725.497854,459.657299,-148.041188,8882.471304
2725.498183,306.438199,-592.164754,8882.471304
2725.498512,689.485948,-518.144159,8808.450710
2725.498841,76.609550,-148.041188,9030.512492
2725.499170,229.828649,-148.041188,8882.471304
2725.499499,766.095498,-296.082377,9104.533087
2725.499828,306.438199,-518.144159,9030.512492
2725.500157,306.438199,-296.082377,9178.553681
2725.500486,229.828649,-296.082377,9326.594869
2725.500815,306.438199,-222.061783,9326.594869
2725.501144,383.047749,-444.123565,9474.636058
2725.501473,536.266849,-1110.308913,10066.800811
2725.501802,1608.800546,-1110.308913,9474.636058
2725.502132,1915.238745,-1036.288319,9622.677246
2725.502461,2145.067394,-444.123565,9474.636058
2725.502790,2528.115143,148.041188,8734.430116
2725.503119,3370.820191,370.102971,8882.471304
2725.503448,4136.915689,-74.020594,8734.430116
2725.503777,4060.306139,370.102971,8734.430116
2725.504106,3140.991542,592.164754,8882.471304
2725.504435,3217.601092,-0.000000,8512.368333
2725.504764,2834.553343,-148.041188,9400.615463
2725.505093,2604.724693,-222.061783,8882.471304
2725.505422,1302.362347,-740.205942,9400.615463
2725.505751,1685.410096,-1554.432478,9918.759623
2725.506080,2681.334243,-1628.453072,9474.636058
2725.506409,2451.505594,-0.000000,9326.594869
2725.506738,2911.162892,-1184.329507,10288.862594
2725.507068,3294.210641,-592.164754,8956.491898
2725.507397,3907.087040,518.144159,9326.594869
2725.507726,5209.449386,740.205942,7402.059420
2725.508055,4673.182538,1332.370696,7994.224174
2725.508384,4979.620737,814.226536,9104.533087
2725.508713,5439.278036,1036.288319,7328.038826
2725.509042,4290.134789,1184.329507,8734.430116
2725.509371,3600.648841,-0.000000,8956.491898
2725.509700,2528.115143,148.041188,8438.347739
2725.510029,1915.238745,-444.123565,9474.636058
2725.510358,1149.143247,-1332.370696,9622.677246
2725.510687,1685.410096,-888.247130,9770.718434
2725.511016,766.095498,-1776.494261,10140.821405
2725.511345,1991.848295,-814.226536,9696.697840
2725.511674,1378.971896,-666.185348,10362.883188
2725.512004,3064.381992,666.185348,8512.368333
2725.512333,3370.820191,-0.000000,9400.615463
2725.512662,4136.915689,1480.411884,8956.491898
2725.512991,4903.011187,518.144159,8438.347739
2725.513320,4596.572988,962.267725,7698.141797
2725.513649,4213.525239,518.144159,9030.512492
2725.513978,4213.525239,74.020594,8808.450710
2725.514307,3217.601092,-814.226536,9178.553681
2725.514636,2757.943793,-1258.350101,9622.677246
2725.514965,2451.505594,-1332.370696,10658.965565
2725.515294,1915.238745,-2072.576638,9770.718434
2725.515623,2145.067394,-1998.556043,9474.636058
2725.515952,2451.505594,-666.185348,10066.800811
2725.516281,3140.991542,-0.000000,9844.739029
2725.516610,3447.429741,518.144159,8512.368333
2725.516940,4136.915689,1702.473667,8882.471304
2725.517269,4290.134789,2368.659014,7920.203579
2725.517598,3983.696590,2516.700203,7624.121203
2725.517927,4596.572988,2368.659014,7698.141797
2725.518256,4443.353888,1702.473667,7254.018232
2725.518585,3524.039291,1036.288319,7698.141797
2725.518914,2987.772442,-296.082377,8808.450710
2725.519243,2681.334243,-1702.473667,9474.636058
2725.519572,2374.896044,-2590.720797,10140.821405
2725.519901,2145.067394,-3108.864956,10955.047942
2725.520230,2374.896044,-2664.741391,11103.089130
2725.520559,3524.039291,-2886.803174,10436.903782
2725.520888,3983.696590,-740.205942,9992.780217
2725.521217,4903.011187,444.123565,9622.677246
2725.521546,5745.716235,1924.535449,8512.368333
2725.521876,5286.058936,2664.741391,7920.203579
2725.522205,4826.401637,2664.741391,7920.203579
2725.522534,4366.744339,4071.132681,7105.977043
2725.522863,4213.525239,2442.679609,6957.935855
2725.523192,3600.648841,1406.391290,6735.874072
2725.523521,1991.848295,-666.185348,8808.450710
2725.523850,229.828649,-4071.132681,10658.965565
2725.524179,-1149.143247,-3552.988522,10955.047942
2725.524508,-919.314598,-5921.647536,13249.686362
2725.524837,-689.485948,-3627.009116,10658.965565
2725.525166,383.047749,-1850.514855,11325.150913
2725.525495,1072.533697,-444.123565,10584.944971
2725.525824,2451.505594,666.185348,10881.027347
2725.526153,5362.668486,1554.432478,9918.759623
2725.526482,7584.345430,1776.494261,8068.244768
2725.526811,6665.030833,1184.329507,8068.244768
2725.527141,5669.106685,962.267725,6365.771101
2725.527470,5592.497135,3256.906145,6661.853478
2725.527799,5592.497135,1554.432478,6883.915261
2725.528128,4903.011187,3034.844362,4663.297435
2725.528457,4903.011187,2368.659014,7031.956449
2725.528786,4290.134789,1332.370696,5403.503377
2725.529115,4290.134789,-740.205942,8364.327145
2725.529444,383.047749,-6587.832884,11547.212695
2725.529773,-1072.533697,-6291.750507,12435.459826
2725.530102,-1991.848295,-2442.679609,12287.418637
2725.530431,-689.485948,-7624.121203,14137.933492
2725.530760,-1378.971896,296.082377,9400.615463
2725.531089,2604.724693,592.164754,12361.439231
2725.531418,3907.087040,518.144159,10288.862594
2725.531747,5286.058936,2072.576638,9474.636058
2725.532077,7814.174080,-0.000000,9400.615463
2725.532406,7431.126331,2294.638420,7105.977043
2725.532735,7584.345430,4515.256246,6143.709319
2725.533064,7048.078582,2738.761985,5107.421000
2725.533393,6665.030833,1850.514855,5551.544565
2725.533722,6741.640382,1998.556043,6883.915261
2725.534051,5745.716235,518.144159,7031.956449
2725.534380,3524.039291,2294.638420,6069.688724
2725.534709,4136.915689,-1332.370696,8734.430116
2725.535038,536.266849,-4071.132681,12287.418637
2725.535367,-2145.067394,-5329.482782,12509.480420
2725.535696,-2451.505594,-962.267725,13101.645173
2725.536025,-919.314598,-7328.038826,13471.748144
2725.536354,-1378.971896,666.185348,10288.862594
2725.536683,2374.896044,592.164754,12509.480420
2725.537013,0.000000,2072.576638,10140.821405
2725.537342,2068.457845,-0.000000,14285.974681
2725.537671,7201.297681,-296.082377,7698.141797
2725.538000,9729.412825,1776.494261,7698.141797
2725.538329,6281.983084,1110.308913,7031.956449
2725.538658,6741.640382,666.185348,5255.462188
2725.538987,5286.058936,1406.391290,7105.977043
2725.539316,6128.763984,1184.329507,6439.791695
2725.539645,4979.620737,2368.659014,6069.688724
2725.539974,3294.210641,2442.679609,8512.368333
2725.540303,2987.772442,-222.061783,7994.224174
2725.540632,2681.334243,-0.000000,9326.594869
2725.540961,1532.190996,-2738.761985,10066.800811
2725.541290,1149.143247,-1554.432478,10288.862594
2725.541619,153.219100,-2886.803174,12879.583391
2725.541949,-153.219100,-2812.782580,10955.047942
2725.542278,689.485948,1184.329507,9918.759623
2725.542607,2451.505594,962.267725,10066.800811
2725.542936,2451.505594,1776.494261,8068.244768
2725.543265,3294.210641,444.123565,7846.182985
2725.543594,4213.525239,-148.041188,8512.368333
2725.543923,4136.915689,1110.308913,8068.244768
2725.544252,3600.648841,296.082377,7179.997637
2725.544581,2451.505594,-740.205942,7031.956449
2725.544910,2681.334243,-1628.453072,8808.450710
2725.545239,1991.848295,-2590.720797,9992.780217
2725.545568,842.705048,-1110.308913,11621.233289
2725.545897,1532.190996,-1480.411884,10066.800811
2725.546226,2451.505594,-444.123565,10214.842000
2725.546555,3294.210641,1184.329507,9104.533087
2725.546885,3753.867940,-148.041188,10214.842000
2725.547214,4903.011187,1628.453072,9030.512492
2725.547543,5515.887586,1776.494261,7920.203579
2725.547867,5822.325785,2368.659014,7624.121203
2725.548196,5286.058936,1702.473667,8438.347739
2725.548525,4596.572988,518.144159,7698.141797
2725.548854,4596.572988,518.144159,7328.038826
2725.549184,3983.696590,222.061783,7328.038826
2725.549513,1608.800546,-1110.308913,9770.718434
2725.549842,842.705048,-1850.514855,10510.924376
2725.550171,0.000000,-3108.864956,11177.109724
2725.550500,306.438199,-3034.844362,10732.986159
2725.550829,1149.143247,-1110.308913,9548.656652
2725.551158,459.657299,-1332.370696,10881.027347
2725.551487,1915.238745,296.082377,10362.883188
2725.551816,4136.915689,962.267725,9696.697840
2725.552145,7124.688131,1406.391290,8808.450710
2725.552474,6741.640382,1332.370696,8290.306550
2725.552803,5286.058936,1184.329507,8808.450710
2725.553132,4903.011187,370.102971,7698.141797
2725.553461,5822.325785,1998.556043,7031.956449
2725.553790,5669.106685,888.247130,6735.874072
2725.554119,5362.668486,2590.720797,8216.285956
2725.554448,5209.449386,-0.000000,7846.182985
2725.554777,4060.306139,518.144159,7846.182985
2725.555106,3370.820191,-3256.906145,9400.615463
2725.555435,1302.362347,-3256.906145,9844.739029
2725.555764,919.314598,-0.000000,11769.274478
2725.556093,0.000000,-2442.679609,10881.027347
2725.556422,612.876398,-296.082377,9622.677246
2725.556751,1608.800546,-1628.453072,11473.192101
2725.557080,3294.210641,-74.020594,9104.533087
2725.557409,4366.744339,-0.000000,8808.450710
2725.557738,3907.087040,1036.288319,7846.182985
2725.558067,4903.011187,1628.453072,8068.244768
2725.558396,5209.449386,1110.308913,8660.409521
2725.558725,3907.087040,-296.082377,6735.874072
2725.559054,3753.867940,444.123565,8216.285956
2725.559383,2681.334243,-962.267725,7920.203579
2725.559712,2911.162892,-592.164754,8956.491898
2725.560041,1915.238745,-518.144159,9030.512492
2725.560370,229.828649,-2146.597232,9030.512492
2725.560699,0.000000,-1110.308913,10288.862594
2725.561028,536.266849,-1332.370696,9400.615463
2725.561357,919.314598,-1184.329507,10140.821405
2725.561686,1455.581446,-370.102971,10214.842000
2725.562015,2374.896044,-0.000000,9474.636058
2725.562344,2681.334243,-444.123565,9474.636058
2725.562673,3064.381992,444.123565,8882.471304
2725.563002,4519.963438,1332.370696,7994.224174
2725.563331,5669.106685,1110.308913,7624.121203
2725.563660,5132.839837,962.267725,7920.203579
2725.563989,4826.401637,518.144159,8882.471304
2725.564318,5056.230287,666.185348,7402.059420
2725.564647,4136.915689,740.205942,7254.018232
2725.564976,2987.772442,148.041188,8808.450710
2725.565305,1991.848295,-0.000000,8660.409521
2725.565634,1455.581446,-148.041188,9178.553681
2725.565963,229.828649,-370.102971,9622.677246
2725.566292,0.000000,-814.226536,9548.656652
2725.566621,-766.095498,-962.267725,8956.491898
2725.566950,-1838.629195,-444.123565,9400.615463
2725.567279,-1838.629195,-0.000000,10510.924376
2725.567608,-1608.800546,-1258.350101,10214.842000
2725.567937,-1149.143247,-814.226536,9326.594869
2725.568266,-842.705048,-370.102971,9770.718434
2725.568595,-766.095498,-2072.576638,10066.800811
2725.568924,153.219100,-888.247130,9178.553681
2725.569253,76.609550,370.102971,8438.347739
2725.569582,76.609550,222.061783,10881.027347
2725.569911,919.314598,148.041188,8734.430116
2725.570240,995.924147,-0.000000,7846.182985
2725.570570,2451.505594,1036.288319,9770.718434
2725.570899,1762.019645,296.082377,6957.935855
2725.571228,1608.800546,222.061783,8290.306550
2725.571557,-766.095498,-666.185348,9918.759623
2725.571886,612.876398,1480.411884,8808.450710
2725.572215,153.219100,-1258.350101,7846.182985
2725.572544,-766.095498,-888.247130,9548.656652
2725.572873,-229.828649,-1332.370696,10436.903782
2725.573202,0.000000,-666.185348,8586.388927
2725.573531,-766.095498,-592.164754,8882.471304
2725.573860,689.485948,-1036.288319,11029.068536
2725.574189,919.314598,-666.185348,9178.553681
2725.574518,1991.848295,-0.000000,8734.430116
2725.574847,2681.334243,-1258.350101,10584.944971
2725.575176,3370.820191,1332.370696,9326.594869
2725.575505,4060.306139,814.226536,7698.141797
2725.575834,2528.115143,740.205942,7624.121203
2725.576163,3140.991542,2220.617826,9400.615463
2725.576492,2834.553343,1776.494261,7105.977043
2725.576821,2068.457845,888.247130,8142.265362
2725.577150,1762.019645,1480.411884,8734.430116
2725.577479,995.924147,-148.041188,7920.203579
2725.577808,-919.314598,370.102971,9178.553681
2725.578137,-2221.676944,-1776.494261,10362.883188
2725.578466,-2834.553343,-2368.659014,9992.780217
2725.578795,-2528.115143,-2220.617826,10362.883188
2725.579124,-2145.067394,-2146.597232,10436.903782
2725.579453,-1762.019645,-1036.288319,9400.615463
2725.579782,-1838.629195,-592.164754,9030.512492
2725.580111,76.609550,-370.102971,11177.109724
2725.580440,-612.876398,-222.061783,9696.697840
2725.580769,-1149.143247,-518.144159,11177.109724
2725.581098,76.609550,-1776.494261,10807.006753
2725.581427,459.657299,370.102971,8068.244768
2725.581756,1378.971896,1850.514855,7550.100608
2725.582085,2451.505594,1184.329507,7772.162391
2725.582414,1532.190996,1406.391290,7179.997637
2725.582743,612.876398,962.267725,7254.018232
2725.583072,536.266849,962.267725,7476.080014
2725.583401,0.000000,-1480.411884,8882.471304
2725.583730,-1302.362347,-814.226536,9252.574275
2725.584059,-1838.629195,-888.247130,9326.594869
2725.584388,-1532.190996,-1924.535449,10510.924376
2725.584717,-995.924147,-518.144159,9770.718434
2725.585046,0.000000,-518.144159,10288.862594
2725.585375,-153.219100,-222.061783,10732.986159
2725.585704,612.876398,592.164754,9400.615463
2725.586033,1838.629195,296.082377,8438.347739
2725.586362,1991.848295,1480.411884,8512.368333
2725.586691,2298.286494,2590.720797,7772.162391
2725.587020,2604.724693,1850.514855,7624.121203
2725.587349,2911.162892,1036.288319,7846.182985
2725.587678,1455.581446,296.082377,7920.203579
2725.588007,536.266849,-222.061783,8216.285956
2725.588336,-612.876398,-1554.432478,9104.533087
2725.588665,-1225.752797,-1850.514855,10140.821405
2725.588994,-1302.362347,-1406.391290,9622.677246
2725.589323,-2298.286494,-2220.617826,9474.636058
2725.589652,-766.095498,-1036.288319,10140.821405
2725.589981,-766.095498,-296.082377,9474.636058
2725.590310,-1225.752797,-74.020594,9326.594869
2725.590639,-919.314598,-592.164754,10436.903782
2725.590968,-459.657299,-222.061783,9918.759623
2725.591297,76.609550,-0.000000,9918.759623
2725.591627,76.609550,370.102971,9326.594869
2725.591956,1149.143247,-370.102971,8882.471304
2725.592285,1378.971896,148.041188,7624.121203
2725.592614,766.095498,222.061783,8734.430116
2725.592943,1225.752797,-666.185348,9104.533087
2725.593272,1685.410096,-0.000000,7031.956449
2725.593601,1378.971896,-518.144159,7772.162391
2725.593930,1302.362347,-0.000000,10214.842000
2725.594259,229.828649,-444.123565,8660.409521
2725.594588,-229.828649,-444.123565,9400.615463
2725.594917,229.828649,-222.061783,10362.883188
2725.595246,229.828649,222.061783,8956.491898
2725.595575,842.705048,-222.061783,9548.656652
2725.595904,1225.752797,-666.185348,10066.800811
2725.596233,1149.143247,-296.082377,9104.533087
2725.596562,2068.457845,-296.082377,9400.615463
2725.596891,919.314598,592.164754,8512.368333
2725.597220,1685.410096,148.041188,8808.450710
2725.597549,1532.190996,-148.041188,7698.141797
2725.597878,1915.238745,-518.144159,9104.533087
2725.598207,1608.800546,-0.000000,8660.409521
2725.598536,1455.581446,-370.102971,7254.018232
2725.598865,766.095498,-518.144159,8882.471304
2725.599194,0.000000,-74.020594,8216.285956
2725.599523,0.000000,-148.041188,8438.347739
2725.599852,-689.485948,-1998.556043,9622.677246
2725.600181,-1225.752797,-1110.308913,11843.295072
2725.600510,-1225.752797,-1480.411884,9178.553681
2725.600839,-459.657299,-148.041188,9104.533087
2725.601168,0.000000,-1332.370696,9918.759623
2725.601497,-306.438199,1480.411884,8512.368333
2725.601826,536.266849,-148.041188,9326.594869
2725.602155,1225.752797,1332.370696,7994.224174
2725.602484,1838.629195,444.123565,7920.203579
2725.602813,1455.581446,888.247130,8364.327145
2725.603142,229.828649,296.082377,9030.512492
2725.603471,-229.828649,444.123565,8808.450710
2725.603800,-766.095498,-370.102971,8290.306550
2725.604129,-1225.752797,-444.123565,9992.780217
2725.604458,-919.314598,-740.205942,10658.965565
2725.604787,-1149.143247,-592.164754,8956.491898
2725.605116,-1378.971896,-740.205942,9400.615463
2725.605445,-1072.533697,-666.185348,9992.780217
2725.605774,-383.047749,-74.020594,9178.553681
2725.606103,-612.876398,-518.144159,9548.656652
2725.606432,0.000000,148.041188,10214.842000
2725.606761,689.485948,222.061783,8364.327145
2725.607090,612.876398,740.205942,7550.100608
2725.607419,766.095498,-222.061783,8734.430116
2725.607748,1149.143247,1184.329507,7772.162391
2725.608077,2068.457845,592.164754,7031.956449
2725.608406,919.314598,-0.000000,8660.409521
2725.608735,536.266849,-518.144159,8734.430116
2725.609064,0.000000,-74.020594,8586.388927
2725.609393,-459.657299,-1332.370696,9992.780217
2725.609722,-612.876398,-296.082377,9696.697840
2725.610051,-459.657299,-1184.329507,9622.677246
2725.610380,-689.485948,-444.123565,10436.903782
2725.610709,459.657299,666.185348,10066.800811
2725.611038,229.828649,296.082377,8142.265362
2725.611367,459.657299,740.205942,7179.997637
2725.611696,842.705048,518.144159,10584.944971
2725.612025,919.314598,666.185348,9326.594869
2725.612354,689.485948,-296.082377,8734.430116
2725.612683,229.828649,-370.102971,10214.842000
2725.613013,0.000000,-222.061783,9696.697840
2725.613342,-306.438199,-1110.308913,8808.450710
2725.613671,306.438199,-1406.391290,9770.718434
2725.614000,0.000000,-518.144159,8882.471304
2725.614329,76.609550,-444.123565,8882.471304
2725.614658,995.924147,-0.000000,9770.718434
2725.614987,919.314598,-740.205942,9844.739029
2725.615316,306.438199,-296.082377,8512.368333
2725.615645,536.266849,-0.000000,9326.594869
2725.615974,459.657299,-296.082377,9104.533087
2725.616303,1838.629195,1184.329507,9178.553681
2725.616632,612.876398,1776.494261,6957.935855
2725.616961,1149.143247,-1628.453072,11029.068536
2725.617290,2145.067394,-1184.329507,8808.450710
2725.617619,1762.019645,814.226536,7105.977043
2725.617948,689.485948,-592.164754,8216.285956
2725.618277,1225.752797,-222.061783,8364.327145
2725.618606,612.876398,370.102971,9252.574275
2725.618935,995.924147,-1258.350101,9252.574275
2725.619264,1532.190996,-592.164754,9178.553681
2725.619593,0.000000,-888.247130,8290.306550
2725.619922,0.000000,666.185348,8586.388927
2725.620251,-153.219100,-222.061783,10288.862594
2725.620580,-536.266849,-148.041188,8290.306550
2725.620909,-383.047749,222.061783,9252.574275
2725.621238,-459.657299,-518.144159,10732.986159
2725.621567,-612.876398,-222.061783,8364.327145
2725.621896,-306.438199,-0.000000,9252.574275
2725.622225,-612.876398,-370.102971,9622.677246
2725.622554,-612.876398,-592.164754,8438.347739
2725.622883,-383.047749,-1258.350101,8364.327145
2725.623212,0.000000,-148.041188,9696.697840
2725.623541,612.876398,-814.226536,9992.780217
2725.623870,-995.924147,-814.226536,7994.224174
2725.624199,-153.219100,-222.061783,8734.430116
2725.624528,0.000000,888.247130,9104.533087
2725.624857,0.000000,222.061783,7994.224174
2725.625186,-229.828649,-296.082377,10288.862594
2725.625515,0.000000,-0.000000,9696.697840
2725.625844,0.000000,-444.123565,9326.594869
2725.626173,153.219100,-444.123565,9326.594869
2725.626502,536.266849,-666.185348,9992.780217
2725.626831,229.828649,-888.247130,8956.491898
2725.627160,1072.533697,-222.061783,9178.553681
2725.627489,1915.238745,-0.000000,9992.780217
2725.627818,1838.629195,296.082377,8586.388927
2725.628147,1838.629195,740.205942,8068.244768
2725.628476,1685.410096,592.164754,8438.347739
2725.628805,2068.457845,740.205942,8364.327145
2725.629134,1915.238745,-0.000000,8142.265362
2725.629463,1149.143247,444.123565,9474.636058
2725.629792,459.657299,-518.144159,10807.006753
2725.630121,0.000000,-222.061783,8808.450710
2725.630450,-459.657299,-592.164754,9844.739029
2725.630779,-306.438199,-666.185348,10362.883188
2725.631108,76.609550,-444.123565,8660.409521
2725.631437,383.047749,-814.226536,10140.821405
2725.631766,1302.362347,-1036.288319,9474.636058
2725.632095,766.095498,1110.308913,8734.430116
2725.632424,459.657299,-888.247130,8882.471304
2725.632753,842.705048,740.205942,9696.697840
2725.633082,1378.971896,518.144159,8068.244768
2725.633411,1225.752797,-0.000000,8290.306550
2725.633740,919.314598,-148.041188,8882.471304
2725.634070,1302.362347,296.082377,8956.491898
2725.634399,0.000000,-518.144159,9178.553681
2725.634728,0.000000,-814.226536,9918.759623
2725.635057,76.609550,-888.247130,9178.553681
2725.635386,-612.876398,-666.185348,9104.533087
2725.635715,0.000000,-444.123565,9400.615463
2725.636044,689.485948,-444.123565,9178.553681
2725.636373,1225.752797,-0.000000,8882.471304
2725.636702,842.705048,-518.144159,9178.553681
2725.637031,306.438199,-222.061783,9474.636058
2725.637360,919.314598,148.041188,7846.182985
2725.637689,1532.190996,-0.000000,8808.450710
2725.638018,76.609550,-222.061783,9696.697840
2725.638347,1149.143247,-666.185348,9104.533087
2725.638676,1455.581446,-888.247130,8068.244768
2725.639005,306.438199,370.102971,8882.471304
2725.639334,1455.581446,-1036.288319,8956.491898
2725.639663,766.095498,222.061783,7105.977043
2725.639992,766.095498,592.164754,10436.903782
2725.640321,842.705048,666.185348,9548.656652
2725.640650,76.609550,-0.000000,8364.327145
2725.640979,-306.438199,148.041188,10066.800811
2725.641308,229.828649,370.102971,9252.574275
2725.641637,-536.266849,296.082377,8734.430116
2725.641966,-459.657299,-1110.308913,9326.594869
2725.642295,229.828649,-518.144159,9474.636058
2725.642624,-383.047749,-666.185348,8882.471304
2725.642953,-1072.533697,-1110.308913,8364.327145
2725.643282,536.266849,-666.185348,10140.821405
2725.643611,76.609550,-1258.350101,8512.368333
2725.643940,536.266849,-0.000000,7772.162391
2725.644269,842.705048,-370.102971,9696.697840
2725.644598,0.000000,962.267725,7846.182985
2725.644927,-459.657299,1332.370696,9400.615463
2725.645256,995.924147,-0.000000,10288.862594
2725.645585,-536.266849,-222.061783,7476.080014
2725.645914,-1378.971896,222.061783,10881.027347
2725.646243,-383.047749,-2368.659014,11029.068536
2725.646572,-919.314598,-0.000000,9326.594869
2725.646901,-1532.190996,-1184.329507,8438.347739
2725.647230,-459.657299,-1036.288319,9844.739029
2725.647559,-689.485948,-1998.556043,10288.862594
2725.647888,229.828649,-74.020594,9030.512492
2725.648217,1072.533697,-814.226536,8290.306550
2725.648546,612.876398,148.041188,9918.759623
2725.648875,1225.752797,-148.041188,9030.512492
2725.649204,1762.019645,1850.514855,8068.244768
2725.649533,1302.362347,-0.000000,9474.636058
2725.649862,2068.457845,2072.576638,7476.080014
2725.650191,919.314598,592.164754,8882.471304
2725.650520,612.876398,-1258.350101,10955.047942
2725.650849,229.828649,370.102971,8290.306550
2725.651178,0.000000,-1184.329507,9178.553681
2725.651507,-1378.971896,-1184.329507,9104.533087
2725.651836,306.438199,370.102971,9474.636058
2725.652165,-766.095498,-962.267725,8142.265362
2725.652494,1149.143247,-962.267725,9104.533087
2725.652823,1532.190996,-814.226536,9992.780217
2725.653152,612.876398,296.082377,8068.244768
2725.653481,536.266849,-222.061783,8216.285956
2725.653810,842.705048,-0.000000,9696.697840
2725.654139,536.266849,370.102971,8512.368333
2725.654468,612.876398,592.164754,8586.388927
2725.654797,536.266849,-592.164754,10510.924376
2725.655126,76.609550,148.041188,9474.636058
2725.655455,229.828649,-296.082377,9030.512492
2725.655784,-306.438199,-666.185348,10214.842000
2725.656113,-842.705048,-666.185348,9104.533087
2725.656442,153.219100,-0.000000,8808.450710
2725.656771,306.438199,-518.144159,9548.656652
2725.657100,536.266849,296.082377,9104.533087
2725.657429,766.095498,-0.000000,9178.553681
2725.657758,383.047749,-74.020594,8882.471304
2725.658087,842.705048,-74.020594,9474.636058
2725.658416,842.705048,592.164754,8142.265362
2725.658744,1225.752797,-296.082377,8438.347739
2725.659073,1302.362347,-0.000000,9622.677246
2725.659402,1225.752797,-148.041188,9474.636058
2725.659731,842.705048,370.102971,8364.327145
2725.660060,1302.362347,-222.061783,9474.636058
2725.660389,612.876398,592.164754,9178.553681
2725.660718,842.705048,-222.061783,8290.306550
2725.661047,1302.362347,148.041188,9548.656652
2725.661376,842.705048,592.164754,9104.533087
2725.661705,689.485948,148.041188,7698.141797
2725.662034,0.000000,-0.000000,9326.594869
2725.662363,306.438199,-74.020594,8660.409521
2725.662692,-536.266849,-0.000000,8216.285956
2725.663021,-766.095498,-1406.391290,9326.594869
2725.663350,-536.266849,-592.164754,9696.697840
2725.663679,-689.485948,-370.102971,8364.327145
2725.664008,-536.266849,-518.144159,8882.471304
2725.664337,-689.485948,-888.247130,9326.594869
2725.664666,-229.828649,-444.123565,9326.594869
2725.664995,459.657299,-814.226536,8808.450710
2725.665324,766.095498,-0.000000,9548.656652
2725.665653,153.219100,370.102971,8808.450710
2725.665982,689.485948,-74.020594,9030.512492
2725.666311,229.828649,-0.000000,9178.553681
2725.666640,76.609550,-296.082377,8216.285956
2725.666969,0.000000,-0.000000,7328.038826
2725.667298,-383.047749,-1628.453072,9992.780217
2725.667627,0.000000,-666.185348,9992.780217
2725.667956,0.000000,-296.082377,8438.347739
2725.668285,-459.657299,-1110.308913,9770.718434
2725.668614,153.219100,-666.185348,10436.903782
2725.668943,536.266849,370.102971,8882.471304
2725.669272,842.705048,-0.000000,9548.656652
2725.669601,1378.971896,1036.288319,9696.697840
2725.669930,1149.143247,370.102971,9178.553681
2725.670259,459.657299,296.082377,9474.636058
2725.670588,229.828649,740.205942,9918.759623
2725.670917,612.876398,-74.020594,9622.677246
2725.671246,689.485948,-666.185348,9252.574275
2725.671575,1225.752797,-1184.329507,9400.615463
2725.671904,0.000000,-666.185348,9696.697840
2725.672233,153.219100,-444.123565,8364.327145
2725.672562,0.000000,-222.061783,8586.388927
2725.672891,995.924147,-222.061783,8882.471304
2725.673220,1378.971896,666.185348,7476.080014
2725.673549,536.266849,-1258.350101,9030.512492
2725.673878,459.657299,-0.000000,9918.759623
2725.674207,76.609550,148.041188,7994.224174
2725.674536,-229.828649,-814.226536,9178.553681
2725.674865,76.609550,148.041188,9622.677246
2725.675194,-153.219100,296.082377,9178.553681
2725.675523,-612.876398,-592.164754,8808.450710
2725.675852,229.828649,-666.185348,9918.759623
2725.676181,459.657299,-296.082377,8660.409521
2725.676510,689.485948,370.102971,8364.327145
2725.676839,229.828649,-518.144159,8882.471304
2725.677168,842.705048,518.144159,8290.306550
2725.677497,1225.752797,222.061783,7550.100608
2725.677826,1532.190996,-74.020594,8586.388927
2725.678155,842.705048,-0.000000,9030.512492
2725.678484,842.705048,148.041188,7920.203579
2725.678813,-1072.533697,-1332.370696,10807.006753
2725.679142,306.438199,-1332.370696,11473.192101
2725.679471,-229.828649,-444.123565,8808.450710
2725.679800,-995.924147,-2442.679609,9548.656652
2725.680128,459.657299,-1332.370696,10362.883188
2725.680457,1378.971896,-222.061783,10436.903782
2725.680786,153.219100,-740.205942,8660.409521
2725.681115,1455.581446,592.164754,9326.594869
2725.681444,536.266849,-1406.391290,8364.327145
2725.681773,2068.457845,1998.556043,7031.956449
2725.682102,2451.505594,148.041188,8586.388927
2725.682431,1302.362347,592.164754,9030.512492
2725.682760,842.705048,888.247130,8142.265362
2725.683089,153.219100,666.185348,10214.842000
2725.683418,-1378.971896,-74.020594,8290.306550
2725.683747,306.438199,-592.164754,9474.636058
2725.684076,-995.924147,-2368.659014,9770.718434
2725.684405,-1378.971896,-0.000000,10584.944971
2725.684734,-919.314598,-1924.535449,9992.780217
2725.685063,-1378.971896,-740.205942,8216.285956
2725.685392,76.609550,148.041188,10066.800811
2725.685721,536.266849,814.226536,8290.306550
2725.686050,1608.800546,592.164754,7328.038826
2725.686379,2451.505594,1406.391290,9474.636058
2725.686708,1991.848295,1850.514855,6735.874072
2725.687037,1532.190996,444.123565,7624.121203
2725.687366,459.657299,296.082377,9178.553681
2725.687695,153.219100,518.144159,8956.491898
2725.688024,-1149.143247,-814.226536,8956.491898
2725.688353,-1762.019645,-1998.556043,10584.944971
2725.688682,-1455.581446,-1258.350101,10658.965565
2725.689011,-1302.362347,-740.205942,10214.842000
2725.689340,-1455.581446,-1776.494261,9474.636058
2725.689669,-1225.752797,-1776.494261,9844.739029
2725.689998,-612.876398,-740.205942,9548.656652
2725.690327,229.828649,-740.205942,9104.533087
2725.690656,919.314598,-148.041188,9252.574275
2725.690985,1685.410096,296.082377,8216.285956
2725.691314,1915.238745,740.205942,7105.977043
2725.691643,2145.067394,1110.308913,9104.533087
2725.691972,842.705048,666.185348,7402.059420
2725.692301,383.047749,-0.000000,8216.285956
2725.692630,689.485948,-666.185348,9844.739029
2725.692959,0.000000,-74.020594,9400.615463
2725.693288,-842.705048,-814.226536,9326.594869
2725.693617,-919.314598,-1036.288319,9696.697840
2725.693946,-459.657299,-666.185348,9770.718434
2725.694275,0.000000,-0.000000,9178.553681
2725.694604,0.000000,-1406.391290,9400.615463
2725.694933,153.219100,592.164754,9400.615463
2725.695262,306.438199,888.247130,7994.224174
2725.695591,459.657299,444.123565,8512.368333
2725.695920,612.876398,-0.000000,10066.800811
2725.696249,842.705048,1184.329507,8438.347739
2725.696578,766.095498,-666.185348,8660.409521
2725.696907,229.828649,-74.020594,9918.759623
2725.697236,536.266849,-666.185348,9474.636058
2725.697565,0.000000,-222.061783,9104.533087
2725.697894,306.438199,-888.247130,9918.759623
2725.698223,153.219100,-74.020594,9030.512492
2725.698552,689.485948,-444.123565,8956.491898
2725.698881,842.705048,-740.205942,9622.677246
2725.699210,919.314598,-444.123565,9548.656652
2725.699539,919.314598,-222.061783,8290.306550
2725.699868,612.876398,-0.000000,8290.306550
2725.700197,1149.143247,-1184.329507,9844.739029
2725.700526,536.266849,-74.020594,8142.265362
2725.700855,612.876398,-666.185348,9030.512492
2725.701184,1455.581446,-740.205942,10955.047942
2725.701512,1072.533697,-1258.350101,9178.553681
2725.701841,766.095498,-0.000000,9178.553681
2725.702170,1915.238745,1110.308913,9474.636058
2725.702499,2068.457845,1480.411884,8438.347739
2725.702828,2528.115143,222.061783,8882.471304
2725.703157,2987.772442,962.267725,9104.533087
2725.703486,2451.505594,1036.288319,9030.512492
2725.703815,1225.752797,518.144159,8290.306550
2725.704144,1378.971896,-888.247130,9178.553681
2725.704473,-689.485948,-444.123565,9844.739029
2725.704802,-306.438199,-1036.288319,9178.553681
2725.705131,-1378.971896,-1332.370696,9030.512492
2725.705460,-1225.752797,-2516.700203,9548.656652
2725.705789,-459.657299,-1184.329507,8660.409521
2725.706118,-536.266849,-666.185348,10510.924376
2725.706447,-612.876398,-1406.391290,9400.615463
2725.706776,-229.828649,444.123565,7624.121203
2725.707105,612.876398,-148.041188,8142.265362
2725.707434,1762.019645,1258.350101,8290.306550
2725.707763,2451.505594,666.185348,7550.100608
2725.708092,1455.581446,1332.370696,6513.812290
2725.708421,1149.143247,814.226536,8808.450710
2725.708750,766.095498,1184.329507,9104.533087
2725.709079,-459.657299,-370.102971,8290.306550
2725.709408,-1072.533697,-666.185348,10658.965565
2725.709737,-1302.362347,-1702.473667,10288.862594
2725.710066,-1838.629195,-1628.453072,9178.553681
2725.710395,-2528.115143,-962.267725,9992.780217
2725.710724,-1225.752797,-1480.411884,11547.212695
2725.711053,-1072.533697,-666.185348,8438.347739
2725.711382,-766.095498,-888.247130,9622.677246
2725.711711,1302.362347,-0.000000,9474.636058
2725.712040,1915.238745,1258.350101,7994.224174
2725.712369,1455.581446,740.205942,7772.162391
2725.712698,2068.457845,814.226536,9326.594869
2725.713027,1072.533697,592.164754,9104.533087
2725.713356,1838.629195,1184.329507,7698.141797
2725.713685,1302.362347,-370.102971,10066.800811
2725.714014,-383.047749,740.205942,9474.636058
2725.714343,-229.828649,-1184.329507,9178.553681
2725.714672,-919.314598,-666.185348,10362.883188
2725.715001,-1608.800546,-296.082377,10584.944971
2725.715330,-842.705048,-1258.350101,9696.697840
2725.715659,-1149.143247,-148.041188,10362.883188
2725.715988,-383.047749,-592.164754,10584.944971
2725.716317,-153.219100,-0.000000,8290.306550
2725.716646,-306.438199,444.123565,8290.306550
2725.716975,76.609550,592.164754,8808.450710
2725.717304,612.876398,518.144159,8438.347739
2725.717633,459.657299,444.123565,8142.265362
2725.717962,612.876398,-74.020594,9548.656652
2725.718291,383.047749,-0.000000,9030.512492
2725.718620,0.000000,-370.102971,8660.409521
2725.718949,-383.047749,-1036.288319,8808.450710
2725.719278,76.609550,370.102971,8734.430116
2725.719607,689.485948,-1036.288319,8068.244768
2725.719936,536.266849,444.123565,8586.388927
2725.720265,1302.362347,-370.102971,10066.800811
2725.720594,0.000000,222.061783,8142.265362
2725.720923,459.657299,-74.020594,9104.533087
2725.721252,919.314598,296.082377,8808.450710
2725.721581,842.705048,-0.000000,8290.306550
2725.721910,612.876398,-296.082377,9770.718434
2725.722239,919.314598,-1406.391290,9770.718434
2725.722568,1302.362347,-222.061783,9178.553681
2725.722896,919.314598,-222.061783,8882.471304
2725.723225,1378.971896,-518.144159,9992.780217
2725.723554,1225.752797,370.102971,8512.368333
2725.723883,2068.457845,-222.061783,8512.368333
2725.724212,1532.190996,370.102971,9474.636058
2725.724541,2987.772442,370.102971,9696.697840
2725.724870,1685.410096,740.205942,7179.997637
2725.725199,766.095498,592.164754,9030.512492
2725.725528,0.000000,-740.205942,9030.512492
2725.725857,-383.047749,-296.082377,9178.553681
2725.726186,-995.924147,-1406.391290,10140.821405
2725.726515,-1378.971896,-1998.556043,9992.780217
2725.726844,-919.314598,-740.205942,8734.430116
2725.727173,-2068.457845,-592.164754,9326.594869
2725.727502,-536.266849,-518.144159,9844.739029
2725.727831,-842.705048,-148.041188,9696.697840
2725.728160,919.314598,-888.247130,7994.224174
2725.728489,1915.238745,370.102971,9104.533087
2725.728818,842.705048,1554.432478,8586.388927
2725.729147,919.314598,962.267725,7994.224174
2725.729476,766.095498,444.123565,8660.409521
2725.729805,-842.705048,518.144159,9400.615463
2725.730134,-383.047749,814.226536,8438.347739
2725.730463,-1225.752797,-1554.432478,10066.800811
2725.730792,-995.924147,-814.226536,10362.883188
2725.731121,-842.705048,-1406.391290,9030.512492
2725.731450,-1302.362347,-1110.308913,9104.533087
2725.731779,-1072.533697,-1036.288319,10510.924376
2725.732108,0.000000,-518.144159,8882.471304
2725.732437,995.924147,-740.205942,9178.553681
2725.732766,1991.848295,666.185348,8142.265362
2725.733095,2834.553343,962.267725,7254.018232
2725.733424,2451.505594,-0.000000,7624.121203
2725.733753,1915.238745,296.082377,7328.038826
2725.734082,1838.629195,1406.391290,8364.327145
2725.734411,919.314598,296.082377,9030.512492
2725.734740,383.047749,-814.226536,9696.697840
2725.735069,0.000000,-814.226536,10288.862594
2725.735398,-536.266849,-592.164754,9178.553681
2725.735727,-1915.238745,-1258.350101,10362.883188
2725.736056,-383.047749,-2146.597232,11843.295072
2725.736385,0.000000,-0.000000,8364.327145
2725.736714,0.000000,-666.185348,9178.553681
2725.737043,1072.533697,-0.000000,9992.780217
2725.737372,1225.752797,1184.329507,8142.265362
2725.737701,1378.971896,592.164754,8364.327145
2725.738030,2604.724693,1258.350101,7772.162391
2725.738359,1225.752797,296.082377,8586.388927
2725.738688,919.314598,-0.000000,9030.512492
2725.739017,1532.190996,-222.061783,9918.759623
2725.739346,-153.219100,-0.000000,9474.636058
2725.739675,-995.924147,-888.247130,9844.739029
2725.740004,-306.438199,-814.226536,10807.006753
2725.740333,-1072.533697,-1258.350101,9992.780217
2725.740662,-153.219100,-592.164754,8808.450710
2725.740991,153.219100,-888.247130,10214.842000
2725.741320,995.924147,444.123565,9104.533087
2725.741649,459.657299,1184.329507,7772.162391
2725.741978,995.924147,592.164754,9030.512492
2725.742307,995.924147,370.102971,8734.430116
2725.742636,2145.067394,1628.453072,7846.182985
2725.742965,1225.752797,-148.041188,8142.265362
2725.743294,383.047749,-518.144159,9474.636058
2725.743623,383.047749,-666.185348,9474.636058
2725.743952,153.219100,-1480.411884,9252.574275
2725.744280,-842.705048,-1110.308913,10140.821405
2725.744609,-459.657299,-1110.308913,10066.800811
2725.744938,-306.438199,-1406.391290,9104.533087
2725.745267,995.924147,-0.000000,9770.718434
2725.745596,1072.533697,-0.000000,9030.512492
2725.745925,612.876398,1406.391290,7772.162391
2725.746254,612.876398,222.061783,9178.553681
2725.746583,766.095498,1258.350101,8734.430116
2725.746912,1072.533697,296.082377,7402.059420
2725.747241,-919.314598,-518.144159,8216.285956
2725.747570,-995.924147,-444.123565,10510.924376
2725.747899,-1149.143247,-1702.473667,8882.471304
2725.748228,-1378.971896,-1036.288319,8364.327145
2725.748557,-1149.143247,-1480.411884,9030.512492
2725.748886,-1149.143247,-888.247130,9474.636058
2725.749215,-1149.143247,-814.226536,9326.594869
2725.749544,0.000000,-148.041188,9474.636058
2725.749873,383.047749,-148.041188,9548.656652
2725.750202,-229.828649,444.123565,8512.368333
2725.750531,0.000000,-222.061783,9474.636058
2725.750860,-153.219100,518.144159,9030.512492
2725.751189,0.000000,962.267725,7179.997637
2725.751518,229.828649,-814.226536,9474.636058
2725.751847,153.219100,296.082377,8660.409521
2725.752176,995.924147,-222.061783,8290.306550
2725.752505,153.219100,-1332.370696,8586.388927
2725.752834,0.000000,-222.061783,8660.409521
2725.753163,536.266849,-222.061783,8512.368333
2725.753492,689.485948,-888.247130,8956.491898
2725.753821,1225.752797,-0.000000,9918.759623
2725.754150,1455.581446,592.164754,8808.450710
2725.754479,2145.067394,370.102971,8586.388927
2725.754808,1532.190996,888.247130,9844.739029
2725.755137,1685.410096,1184.329507,8660.409521
2725.755465,1608.800546,962.267725,8956.491898
2725.755794,1455.581446,-296.082377,10140.821405
2725.756123,842.705048,296.082377,8808.450710
2725.756452,1072.533697,-148.041188,9030.512492
2725.756781,76.609550,-1406.391290,11325.150913
2725.757110,-536.266849,-592.164754,10214.842000
2725.757439,0.000000,-518.144159,8882.471304
2725.757768,995.924147,-1850.514855,8512.368333
2725.758097,383.047749,-74.020594,8882.471304
2725.758426,1302.362347,888.247130,9326.594869
2725.758755,919.314598,-814.226536,8586.388927
2725.759084,1149.143247,444.123565,8586.388927
2725.759413,1072.533697,148.041188,8882.471304
2725.759742,1302.362347,-222.061783,8882.471304
2725.760071,766.095498,-74.020594,8882.471304
2725.760400,995.924147,-666.185348,8808.450710
2725.760729,-153.219100,-740.205942,8660.409521
2725.761058,0.000000,-444.123565,9696.697840
2725.761387,-689.485948,-888.247130,8882.471304
2725.761716,-842.705048,-1036.288319,8734.430116
2725.762045,0.000000,-888.247130,9548.656652
2725.762374,0.000000,-0.000000,8808.450710
2725.762703,-612.876398,-296.082377,8734.430116
2725.763032,-153.219100,-1406.391290,9178.553681
2725.763361,-306.438199,740.205942,8364.327145
2725.763690,383.047749,-0.000000,8660.409521
2725.764019,0.000000,-1332.370696,8660.409521
2725.764347,1302.362347,370.102971,9918.759623
2725.764676,1149.143247,-0.000000,8438.347739
2725.765005,842.705048,888.247130,8290.306550
2725.765334,536.266849,-444.123565,9992.780217
2725.765663,1072.533697,-0.000000,8734.430116
2725.765992,1072.533697,-444.123565,8512.368333
2725.766321,1072.533697,222.061783,9400.615463
2725.766650,1149.143247,814.226536,9474.636058
2725.766979,153.219100,592.164754,8290.306550
2725.767308,-153.219100,222.061783,8956.491898
2725.767637,-536.266849,-666.185348,9474.636058
2725.767966,-689.485948,-814.226536,9326.594869
2725.768295,-995.924147,-666.185348,10214.842000
2725.768624,-1225.752797,-962.267725,10584.944971
2725.768953,-1762.019645,-888.247130,9474.636058
2725.769282,-995.924147,-370.102971,10288.862594
2725.769611,-229.828649,-296.082377,9548.656652
2725.769940,-842.705048,-148.041188,9326.594869
2725.770269,76.609550,-740.205942,8142.265362
2725.770598,1149.143247,-0.000000,10140.821405
2725.770927,1378.971896,962.267725,8808.450710
2725.771256,1149.143247,518.144159,7402.059420
2725.771585,459.657299,444.123565,9696.697840
2725.771914,153.219100,148.041188,8734.430116
2725.772243,383.047749,962.267725,7920.203579
2725.772572,0.000000,-814.226536,9400.615463
2725.772900,-919.314598,-888.247130,10066.800811
2725.773229,-766.095498,-1480.411884,9326.594869
2725.773558,-612.876398,-888.247130,8956.491898
2725.773887,76.609550,-1036.288319,8882.471304
2725.774216,383.047749,-148.041188,7994.224174
2725.774545,536.266849,148.041188,8882.471304
2725.774874,1532.190996,666.185348,9844.739029
2725.775203,2681.334243,962.267725,7994.224174
2725.775532,2604.724693,962.267725,7624.121203
2725.775861,1991.848295,814.226536,9178.553681
2725.776190,1838.629195,592.164754,9104.533087
2725.776519,1685.410096,518.144159,7624.121203
2725.776848,2068.457845,-0.000000,9178.553681
2725.777177,1149.143247,-370.102971,9622.677246
2725.777506,1149.143247,-444.123565,8882.471304
2725.777835,1072.533697,-592.164754,9252.574275
2725.778164,306.438199,-518.144159,10362.883188
2725.778493,383.047749,-148.041188,8216.285956
2725.778822,689.485948,-1406.391290,9696.697840
2725.779151,842.705048,370.102971,9548.656652
2725.779480,1072.533697,-666.185348,9548.656652
2725.779809,153.219100,370.102971,8438.347739
2725.780138,76.609550,-592.164754,9622.677246
2725.780467,689.485948,592.164754,9474.636058
2725.780796,229.828649,-666.185348,8660.409521
2725.781125,229.828649,-962.267725,10362.883188
2725.781454,153.219100,-518.144159,9474.636058
2725.781782,-919.314598,-888.247130,9178.553681
2725.782111,-612.876398,-74.020594,9770.718434
2725.782440,229.828649,-444.123565,9918.759623
2725.782769,-383.047749,296.082377,7846.182985
2725.783098,0.000000,-370.102971,9400.615463
2725.783427,229.828649,518.144159,9252.574275
2725.783756,-383.047749,-74.020594,8438.347739
2725.784085,-383.047749,444.123565,8956.491898
2725.784414,-153.219100,-592.164754,8734.430116
2725.784743,-459.657299,-0.000000,8734.430116
2725.785072,-536.266849,-888.247130,9696.697840
2725.785401,76.609550,-0.000000,9326.594869
2725.785730,-306.438199,-666.185348,7698.141797
2725.786059,76.609550,-370.102971,8586.388927
2725.786388,76.609550,-666.185348,8512.368333
2725.786717,76.609550,370.102971,8956.491898
2725.787046,153.219100,-592.164754,7698.141797
2725.787375,1149.143247,-740.205942,8142.265362
2725.787704,459.657299,740.205942,8882.471304
2725.788033,536.266849,-0.000000,8142.265362
2725.788362,-536.266849,740.205942,9030.512492
2725.788691,229.828649,-1036.288319,10214.842000
2725.789020,-306.438199,148.041188,7772.162391
2725.789349,-1915.238745,-444.123565,10362.883188
2725.789678,-383.047749,-1406.391290,11103.089130
2725.790007,-842.705048,-592.164754,8882.471304
2725.790335,-919.314598,-666.185348,9770.718434
2725.790664,-229.828649,-666.185348,10288.862594
2725.790993,0.000000,-1036.288319,8586.388927
2725.791322,1225.752797,888.247130,8734.430116
2725.791651,1608.800546,-296.082377,9844.739029
2725.791980,306.438199,1258.350101,8882.471304
2725.792309,1225.752797,296.082377,8512.368333
2725.792638,842.705048,444.123565,9326.594869
2725.792967,-306.438199,-0.000000,9178.553681
2725.793296,459.657299,-1184.329507,9696.697840
2725.793625,459.657299,-1332.370696,9400.615463
2725.793954,-383.047749,296.082377,10436.903782
2725.794283,-1072.533697,-962.267725,9252.574275
2725.794612,0.000000,-444.123565,9696.697840
2725.794941,153.219100,-74.020594,10140.821405
2725.795270,1072.533697,296.082377,8512.368333
2725.795599,1762.019645,296.082377,8364.327145
2725.795928,2221.676944,592.164754,9622.677246
2725.796257,2298.286494,1332.370696,8586.388927
2725.796586,2451.505594,814.226536,8290.306550
2725.796915,2374.896044,-0.000000,8142.265362
2725.797244,1915.238745,1480.411884,9252.574275
2725.797573,1762.019645,-0.000000,8290.306550
2725.797902,842.705048,-0.000000,9474.636058
2725.798231,995.924147,-1036.288319,10658.965565
2725.798560,229.828649,-1850.514855,10288.862594
2725.798888,-306.438199,-888.247130,8438.347739
2725.799217,766.095498,-518.144159,9252.574275
2725.799546,766.095498,222.061783,7698.141797
2725.799875,919.314598,148.041188,8660.409521
2725.800204,1608.800546,-0.000000,10066.800811
2725.800533,612.876398,444.123565,7994.224174
2725.800862,612.876398,-814.226536,8956.491898
2725.801191,0.000000,-296.082377,9326.594869
2725.801520,-1149.143247,-814.226536,8512.368333
2725.801849,-1302.362347,-1406.391290,9474.636058
2725.802178,0.000000,-1184.329507,10584.944971
2725.802507,-919.314598,-814.226536,9474.636058
2725.802836,-689.485948,-1258.350101,8734.430116
2725.803165,-229.828649,-740.205942,8438.347739
2725.803494,0.000000,-592.164754,8586.388927
2725.803823,153.219100,-148.041188,8216.285956
2725.804152,612.876398,-740.205942,8882.471304
2725.804481,842.705048,-148.041188,8364.327145
2725.804810,306.438199,518.144159,7328.038826
2725.805139,76.609550,-814.226536,8364.327145
2725.805468,-612.876398,-0.000000,8512.368333
2725.805797,-306.438199,-0.000000,9104.533087
2725.806126,-383.047749,-1480.411884,9252.574275
2725.806455,-689.485948,-1110.308913,10066.800811
2725.806784,-536.266849,-222.061783,9696.697840
2725.807113,0.000000,-148.041188,9474.636058
2725.807442,306.438199,-148.041188,9622.677246
2725.807770,459.657299,370.102971,8586.388927
2725.808099,1685.410096,518.144159,8438.347739
2725.808428,1991.848295,1184.329507,9104.533087
2725.808757,2221.676944,962.267725,8586.388927
2725.809086,1991.848295,1480.411884,7624.121203
2725.809415,1762.019645,-74.020594,9400.615463
2725.809744,612.876398,1184.329507,9474.636058
2725.810073,919.314598,-74.020594,8068.244768
2725.810402,-766.095498,-370.102971,9696.697840
2725.810731,-536.266849,-962.267725,10214.842000
2725.811060,-842.705048,-740.205942,10584.944971
2725.811389,-842.705048,-814.226536,10288.862594
2725.811718,842.705048,-962.267725,9474.636058
2725.812047,689.485948,-148.041188,9104.533087
2725.812376,536.266849,-814.226536,9474.636058
2725.812705,1532.190996,296.082377,9622.677246
2725.813034,1302.362347,1036.288319,8808.450710
2725.813363,1762.019645,814.226536,6809.894666
2725.813692,1225.752797,-0.000000,9770.718434
2725.814021,0.000000,1036.288319,9696.697840
2725.814350,689.485948,-740.205942,7846.182985
2725.814679,689.485948,-0.000000,8586.388927
2725.815008,-306.438199,-888.247130,8438.347739
2725.815337,-383.047749,-1258.350101,9474.636058
2725.815666,-459.657299,-962.267725,9548.656652
2725.815995,-919.314598,-1036.288319,9252.574275
2725.816323,153.219100,-518.144159,8734.430116
2725.816652,536.266849,-222.061783,9104.533087
2725.816981,1072.533697,148.041188,10214.842000
2725.817310,919.314598,2368.659014,8216.285956
2725.817639,689.485948,1036.288319,7254.018232
2725.817968,229.828649,1850.514855,8660.409521
2725.818297,-612.876398,1702.473667,8586.388927
2725.818626,-689.485948,444.123565,8142.265362
2725.818955,-1608.800546,-814.226536,8734.430116
2725.819284,-2604.724693,-814.226536,9400.615463
2725.819613,-2911.162892,-1406.391290,9104.533087
2725.819942,-4060.306139,-1110.308913,9178.553681
2725.820271,-3677.258390,-296.082377,8956.491898
2725.820600,-3677.258390,-962.267725,8808.450710
2725.820929,-3830.477490,-888.247130,8734.430116
2725.821258,-3600.648841,-222.061783,10066.800811
2725.821587,-3753.867940,-592.164754,9918.759623
2725.821916,-3830.477490,-296.082377,8956.491898
2725.822245,-4060.306139,-666.185348,9474.636058
2725.822574,-3830.477490,-296.082377,8734.430116
2725.822903,-3600.648841,-444.123565,9178.553681
2725.823232,-3064.381992,-1480.411884,9474.636058
2725.823561,-2451.505594,-1036.288319,9326.594869
2725.823890,-2145.067394,-1406.391290,9030.512492
2725.824219,-2681.334243,-962.267725,8660.409521
2725.824548,-3140.991542,-370.102971,9770.718434
2725.824877,-2221.676944,-962.267725,8364.327145
2725.825205,-2451.505594,-74.020594,8438.347739
2725.825534,-2451.505594,-1406.391290,9918.759623
2725.825863,-1378.971896,-888.247130,9326.594869
2725.826192,-1762.019645,-888.247130,8290.306550
2725.826521,-2528.115143,-0.000000,9326.594869
2725.826850,-1685.410096,518.144159,8660.409521
2725.827179,-1532.190996,1184.329507,7772.162391
2725.827508,-1915.238745,962.267725,7994.224174
2725.827837,-1915.238745,740.205942,9400.615463
2725.828166,-2298.286494,-148.041188,9400.615463
2725.828495,-2298.286494,-222.061783,8438.347739
2725.828824,-2987.772442,-74.020594,9030.512492
2725.829153,-3064.381992,-592.164754,10288.862594
2725.829482,-2911.162892,-0.000000,8364.327145
2725.829811,-2451.505594,-592.164754,8808.450710
2725.830140,-2451.505594,-444.123565,9474.636058
2725.830469,-2068.457845,-74.020594,8512.368333
2725.830798,-2145.067394,-370.102971,9252.574275
2725.831127,-2987.772442,296.082377,8660.409521
2725.831456,-3140.991542,-148.041188,9474.636058
2725.831785,-3140.991542,-0.000000,9104.533087
2725.832114,-2834.553343,666.185348,8882.471304
2725.832443,-2374.896044,296.082377,9030.512492
2725.832772,-2298.286494,-1332.370696,8882.471304
2725.833101,-2681.334243,-814.226536,9178.553681
2725.833430,-2298.286494,-962.267725,10140.821405
2725.833758,-2068.457845,370.102971,8882.471304
2725.834087,-2221.676944,-0.000000,8882.471304
2725.834416,-2374.896044,-0.000000,9622.677246
2725.834745,-1762.019645,592.164754,9178.553681
2725.835074,-842.705048,-0.000000,8956.491898
2725.835403,-1762.019645,-1406.391290,8808.450710
2725.835732,-2451.505594,-592.164754,10066.800811
2725.836061,-2374.896044,-0.000000,9400.615463
2725.836390,-1378.971896,666.185348,8660.409521
2725.836719,-2145.067394,-74.020594,8142.265362
2725.837048,-2528.115143,370.102971,9326.594869
2725.837377,-2451.505594,-0.000000,9474.636058
2725.837706,-2757.943793,888.247130,8586.388927
2725.838035,-2451.505594,-222.061783,8586.388927
2725.838364,-3447.429741,-1184.329507,9400.615463
2725.838693,-4290.134789,-1554.432478,9696.697840
2725.839022,-3753.867940,-222.061783,9844.739029
2725.839351,-2681.334243,-592.164754,8734.430116
2725.839680,-3217.601092,-518.144159,9326.594869
2725.840009,-2528.115143,-962.267725,10140.821405
2725.840338,-2987.772442,296.082377,8660.409521
2725.840667,-2145.067394,-444.123565,8734.430116
2725.840996,-1608.800546,-74.020594,8216.285956
2725.841325,-2221.676944,-518.144159,8512.368333
2725.841654,-2911.162892,-1332.370696,9622.677246
2725.841983,-2834.553343,-74.020594,8882.471304
2725.842312,-1378.971896,1406.391290,7698.141797
2725.842640,-1838.629195,296.082377,8512.368333
2725.842969,-2374.896044,296.082377,8586.388927
2725.843298,-2451.505594,-222.061783,9178.553681
2725.843627,-2451.505594,-370.102971,9030.512492
2725.843956,-2221.676944,-74.020594,7994.224174
2725.844285,-1685.410096,-740.205942,9178.553681
2725.844614,-3140.991542,-1184.329507,9474.636058
2725.844943,-2757.943793,-1406.391290,9918.759623
2725.845272,-2528.115143,-1628.453072,10066.800811
2725.845601,-2068.457845,-148.041188,9030.512492
2725.845930,-1532.190996,666.185348,9104.533087
2725.846259,-1762.019645,666.185348,8882.471304
2725.846588,-2451.505594,-0.000000,9326.594869
2725.846917,-2451.505594,-814.226536,9844.739029
2725.847246,-2145.067394,962.267725,8882.471304
2725.847575,-2068.457845,1110.308913,8290.306550
2725.847904,-2451.505594,592.164754,7476.080014
2725.848233,-2451.505594,-518.144159,8808.450710
2725.848562,-2987.772442,-2072.576638,9400.615463
2725.848891,-3983.696590,-1702.473667,9252.574275
2725.849220,-4596.572988,-592.164754,8956.491898
2725.849549,-4749.792088,-148.041188,8512.368333
2725.849878,-5132.839837,-592.164754,9844.739029
2725.850207,-4903.011187,-1702.473667,10732.986159
2725.850536,-4673.182538,-1258.350101,10881.027347
2725.850865,-3830.477490,-370.102971,10066.800811
2725.851194,-2604.724693,518.144159,9178.553681
2725.851523,-2221.676944,888.247130,8438.347739
2725.851852,-1149.143247,1258.350101,8660.409521
2725.852181,-1378.971896,1110.308913,8216.285956
2725.852510,-1455.581446,-0.000000,8808.450710
2725.852839,-1838.629195,222.061783,8734.430116
2725.853168,-1838.629195,518.144159,7994.224174
2725.853497,-1838.629195,-0.000000,7994.224174
2725.853826,-3524.039291,370.102971,8586.388927
2725.854155,-2374.896044,222.061783,9104.533087
2725.854484,-2451.505594,-0.000000,8808.450710
2725.854813,-1762.019645,-0.000000,9400.615463
2725.855142,-1991.848295,-148.041188,8882.471304
2725.855471,-2757.943793,-222.061783,9326.594869
2725.855800,-3140.991542,-444.123565,9992.780217
2725.856129,-2681.334243,-296.082377,9696.697840
2725.856458,-2298.286494,-666.185348,9474.636058
2725.856788,-1838.629195,-0.000000,9252.574275
2725.857117,-1915.238745,-222.061783,9474.636058
2725.857446,-2604.724693,-1332.370696,9326.594869
2725.857775,-2834.553343,-1184.329507,9178.553681
2725.858104,-3370.820191,-814.226536,8882.471304
2725.858433,-3370.820191,-148.041188,9326.594869
2725.858762,-3983.696590,-0.000000,9400.615463
2725.859091,-4060.306139,-888.247130,9326.594869
2725.859420,-4136.915689,-518.144159,9622.677246
2725.859749,-3677.258390,-888.247130,9474.636058
2725.860078,-2451.505594,-1480.411884,9326.594869
2725.860407,-2068.457845,-1628.453072,9844.739029
2725.860736,-383.047749,-370.102971,9400.615463
2725.861065,-995.924147,740.205942,7402.059420
2725.861394,-1149.143247,592.164754,9474.636058
2725.861723,459.657299,814.226536,7994.224174
2725.862052,1149.143247,2590.720797,5773.606348
2725.862381,995.924147,1554.432478,6957.935855
2725.862710,-766.095498,1258.350101,6513.812290
2725.863039,-766.095498,296.082377,8660.409521
2725.863368,-3370.820191,-296.082377,8364.327145
2725.863697,-3064.381992,-1628.453072,9770.718434
2725.864026,-4290.134789,-1776.494261,8808.450710
2725.864355,-5515.887586,-2220.617826,9474.636058
2725.864684,-7277.907231,-3552.988522,11695.253884
2725.865013,-6435.202183,-2590.720797,11769.274478
2725.865342,-5132.839837,-2072.576638,11325.150913
2725.865671,-4596.572988,-888.247130,10140.821405
2725.866000,-1762.019645,814.226536,9326.594869
2725.866329,-612.876398,2072.576638,7550.100608
2725.866658,-995.924147,1776.494261,6735.874072
2725.866987,2068.457845,740.205942,12139.377449
2725.867316,2068.457845,2886.803174,3775.050304
2725.867645,4903.011187,2516.700203,7698.141797
2725.867974,1225.752797,1924.535449,5255.462188
2725.868303,919.314598,1332.370696,7402.059420
2725.868632,-2298.286494,-1628.453072,10436.903782
2725.868961,-3217.601092,-666.185348,9548.656652
2725.869290,-1991.848295,-2442.679609,12287.418637
2725.869619,-4213.525239,-222.061783,8216.285956
2725.869948,-5822.325785,-2146.597232,11251.130318
2725.870277,-8273.831378,-2368.659014,12509.480420
2725.870606,-5515.887586,-888.247130,10658.965565
2725.870935,-5362.668486,-1702.473667,10732.986159
2725.871264,-3983.696590,-740.205942,9104.533087
2725.871593,-2987.772442,592.164754,8882.471304
2725.871922,-3140.991542,-1924.535449,7698.141797
2725.872251,-1608.800546,-592.164754,8142.265362
2725.872580,-1991.848295,-222.061783,8364.327145
2725.872909,-612.876398,-74.020594,8142.265362
2725.873238,-2068.457845,444.123565,8364.327145
2725.873567,-2528.115143,370.102971,9326.594869
2725.873896,-3140.991542,-0.000000,8660.409521
2725.874225,-3140.991542,-222.061783,8734.430116
2725.874554,-3600.648841,370.102971,9474.636058
2725.874883,-3294.210641,1258.350101,9696.697840
2725.875212,-3677.258390,1184.329507,8882.471304
2725.875541,-3447.429741,888.247130,8512.368333
2725.875870,-3294.210641,1702.473667,8586.388927
2725.876200,-2221.676944,962.267725,7772.162391
2725.876529,-1532.190996,1628.453072,6735.874072
2725.876858,-1532.190996,1406.391290,7772.162391
2725.877187,-1991.848295,592.164754,8290.306550
2725.877516,-2987.772442,444.123565,8660.409521
2725.877845,-3064.381992,1110.308913,8438.347739
2725.878174,-2604.724693,740.205942,8660.409521
2725.878503,-2834.553343,1110.308913,9400.615463
2725.878832,-2757.943793,888.247130,9548.656652
2725.879161,-3140.991542,1110.308913,10881.027347
2725.879490,-4366.744339,444.123565,11769.274478
2725.879819,-3370.820191,296.082377,11547.212695
2725.880148,-2451.505594,370.102971,10510.924376
2725.880477,-1302.362347,-0.000000,9918.759623
2725.880806,-919.314598,1184.329507,8882.471304
2725.881135,-689.485948,888.247130,10807.006753
2725.881464,153.219100,740.205942,11473.192101
2725.881793,3064.381992,3034.844362,7105.977043
2725.882122,4519.963438,2886.803174,7105.977043
2725.882451,3753.867940,3330.926739,5403.503377
2725.882780,3140.991542,4663.297435,7031.956449
2725.883109,2911.162892,4219.173869,8068.244768
2725.883438,2298.286494,4663.297435,7550.100608
2725.883767,3140.991542,2590.720797,9622.677246
2725.884096,153.219100,2072.576638,9474.636058
2725.884425,-1532.190996,1332.370696,10881.027347
2725.884754,-1991.848295,444.123565,11103.089130
2725.885083,-1685.410096,814.226536,10658.965565
2725.885412,-1378.971896,1554.432478,11251.130318
2725.885741,0.000000,1776.494261,10510.924376
2725.886070,153.219100,3182.885551,8586.388927
2725.886399,995.924147,2146.597232,7994.224174
2725.886728,2298.286494,4219.173869,7328.038826
2725.887057,1608.800546,4737.318029,5255.462188
2725.887386,2068.457845,4293.194464,7179.997637
2725.887715,1455.581446,4737.318029,6957.935855
2725.888044,229.828649,3552.988522,8142.265362
2725.888373,-1455.581446,2516.700203,9178.553681
2725.888702,-2911.162892,2146.597232,9770.718434
2725.889031,-2604.724693,-0.000000,12065.356855
2725.889360,-3064.381992,2294.638420,9622.677246
2725.889689,-2528.115143,2664.741391,9474.636058
2725.890018,-3064.381992,2146.597232,10362.883188
2725.890347,-3524.039291,2812.782580,11029.068536
2725.890676,-2604.724693,2368.659014,10807.006753
2725.891005,-842.705048,2738.761985,9326.594869
2725.891334,-842.705048,3256.906145,8290.306550
2725.891663,-766.095498,3034.844362,9474.636058
2725.891992,-995.924147,2516.700203,10362.883188
2725.892321,2068.457845,3108.864956,9622.677246
2725.892650,3907.087040,4959.379811,5847.626942
2725.892979,3907.087040,4737.318029,7994.224174
2725.893308,3140.991542,6291.750507,7328.038826
2725.893637,3447.429741,7550.100608,8290.306550
2725.893966,2374.896044,5551.544565,7920.203579
2725.894295,2068.457845,6439.791695,7031.956449
2725.894624,995.924147,5551.544565,9770.718434
2725.894953,-383.047749,5773.606348,7105.977043
2725.895283,153.219100,3627.009116,9326.594869
2725.895612,-2374.896044,814.226536,11473.192101
2725.895941,-995.924147,-2294.638420,12139.377449
2725.896270,-2145.067394,2072.576638,10214.842000
2725.896599,-1302.362347,-2368.659014,12435.459826
2725.896928,-2374.896044,2886.803174,7920.203579
2725.897257,766.095498,2442.679609,11769.274478
2725.897586,1838.629195,4515.256246,7772.162391
2725.897915,2451.505594,4589.276840,8216.285956
2725.898244,4060.306139,4515.256246,7179.997637
2725.898573,3524.039291,5255.462188,7550.100608
2725.898902,2145.067394,4441.235652,7698.141797
2725.899231,383.047749,2294.638420,7550.100608
2725.899560,-1762.019645,-0.000000,11547.212695
2725.899889,-2528.115143,370.102971,11473.192101
2725.900218,-2604.724693,814.226536,10732.986159
2725.900547,-2451.505594,592.164754,9992.780217
2725.900876,-2604.724693,740.205942,9178.553681
2725.901205,-1149.143247,2368.659014,10436.903782
2725.901534,-1532.190996,1924.535449,8364.327145
2725.901863,-536.266849,666.185348,10658.965565
2725.902192,2221.676944,1332.370696,8956.491898
2725.902521,4060.306139,2590.720797,6735.874072
2725.902850,3830.477490,2812.782580,7698.141797
2725.903179,2451.505594,2442.679609,6587.832884
2725.903508,3447.429741,3330.926739,8808.450710
2725.903837,2911.162892,4737.318029,7031.956449
2725.904166,2298.286494,4145.153275,6587.832884
2725.904495,995.924147,4737.318029,8068.244768
2725.904824,0.000000,2738.761985,9474.636058
2725.905153,-2298.286494,-2368.659014,12805.562797
2725.905482,-3140.991542,-1554.432478,11177.109724
2725.905811,-1915.238745,-370.102971,11769.274478
2725.906140,-2987.772442,-1998.556043,11177.109724
2725.906469,-2757.943793,2590.720797,9918.759623
2725.906798,-766.095498,1554.432478,8142.265362
2725.907127,-612.876398,2220.617826,8734.430116
2725.907456,3217.601092,3627.009116,9400.615463
2725.907785,3600.648841,3256.906145,5773.606348
2725.908114,3983.696590,3404.947333,8142.265362
2725.908443,2987.772442,7031.956449,4441.235652
2725.908772,4673.182538,2886.803174,6439.791695
2725.909101,2451.505594,4367.215058,5847.626942
2725.909430,3217.601092,3849.070898,7179.997637
2725.909759,2528.115143,3108.864956,7698.141797
2725.910088,153.219100,6217.729913,6069.688724
2725.910417,-2911.162892,-444.123565,9918.759623
2725.910746,-5898.935335,-3108.864956,12361.439231
2725.911075,-3600.648841,3849.070898,10362.883188
2725.911404,-3600.648841,-1480.411884,9548.656652
2725.911733,-4136.915689,-1258.350101,12879.583391
2725.912062,-3830.477490,2886.803174,13915.871710
2725.912391,0.000000,1480.411884,9474.636058
2725.912720,-3140.991542,5477.523971,7550.100608
2725.913049,-536.266849,1332.370696,11399.171507
2725.913378,3753.867940,3108.864956,9548.656652
2725.913707,2528.115143,7105.977043,4737.318029
2725.914036,2451.505594,3034.844362,8438.347739
2725.914366,995.924147,4219.173869,6513.812290
2725.914695,2681.334243,6661.853478,10436.903782
2725.915024,-536.266849,5181.441594,7476.080014
2725.915353,76.609550,8290.306550,8142.265362
2725.915682,-766.095498,4441.235652,9030.512492
2725.916011,-306.438199,4811.338623,7476.080014
2725.916340,-2145.067394,3330.926739,11991.336260
2725.916669,-3370.820191,-592.164754,13027.624579
2725.916998,-995.924147,-888.247130,10658.965565
2725.917327,0.000000,-0.000000,10584.944971
2725.917656,-995.924147,222.061783,9992.780217
2725.917985,-1149.143247,4293.194464,9104.533087
2725.918314,1225.752797,3256.906145,8438.347739
2725.918643,2298.286494,7105.977043,7624.121203
2725.918972,2528.115143,6661.853478,7402.059420
2725.919301,2221.676944,3552.988522,8734.430116
2725.919630,229.828649,5477.523971,9104.533087
2725.919959,306.438199,4737.318029,8216.285956
2725.920288,459.657299,3478.967927,6957.935855
2725.920617,2068.457845,2368.659014,9474.636058
2725.920946,1302.362347,740.205942,11399.171507
2725.921275,0.000000,740.205942,10955.047942
2725.921604,-919.314598,2368.659014,8216.285956
2725.921933,306.438199,-0.000000,9992.780217
2725.922262,306.438199,4071.132681,8734.430116
2725.922591,0.000000,4737.318029,9252.574275
2725.922920,0.000000,3256.906145,8438.347739
2725.923249,1455.581446,3330.926739,8364.327145
2725.923578,3217.601092,4219.173869,6957.935855
2725.923907,3140.991542,3552.988522,8364.327145
2725.924236,1302.362347,2590.720797,7994.224174
2725.924565,689.485948,1332.370696,9326.594869
2725.924894,-229.828649,2368.659014,9400.615463
2725.925223,-842.705048,2590.720797,10288.862594
2725.925552,-1225.752797,2812.782580,9622.677246
2725.925881,-2221.676944,2516.700203,10362.883188
2725.926210,-2221.676944,666.185348,11177.109724
2725.926539,-919.314598,-296.082377,10288.862594
2725.926868,0.000000,-0.000000,9770.718434
2725.927197,-612.876398,1998.556043,9992.780217
2725.927526,76.609550,2442.679609,9252.574275
2725.927855,2757.943793,2664.741391,7476.080014
2725.928184,3217.601092,3108.864956,7105.977043
2725.928513,1378.971896,4219.173869,7476.080014
2725.928842,306.438199,3404.947333,8068.244768
2725.929171,2145.067394,3478.967927,8512.368333
2725.929500,3064.381992,3775.050304,7179.997637
2725.929829,1455.581446,3034.844362,9030.512492
2725.930158,-995.924147,1110.308913,10584.944971
2725.930487,-1302.362347,-888.247130,11251.130318
2725.930816,-1455.581446,1258.350101,10658.965565
2725.931145,-2221.676944,-0.000000,10140.821405
2725.931474,-3524.039291,2590.720797,9622.677246
2725.931803,-2068.457845,888.247130,10732.986159
2725.932132,-995.924147,3034.844362,7772.162391
2725.932461,-383.047749,2960.823768,7402.059420
2725.932790,536.266849,2368.659014,7994.224174
2725.933119,1455.581446,3182.885551,7698.141797
2725.933448,1838.629195,3923.091493,7105.977043
2725.933778,1225.752797,2738.761985,6291.750507
2725.934107,995.924147,740.205942,9104.533087
2725.934436,306.438199,1776.494261,9474.636058
2725.934765,306.438199,1258.350101,9548.656652
2725.935094,-612.876398,2738.761985,9474.636058
2725.935423,0.000000,888.247130,10732.986159
2725.935752,0.000000,2442.679609,11103.089130
2725.936081,-1149.143247,2590.720797,9548.656652
2725.936410,-1378.971896,1702.473667,10955.047942
2725.936739,153.219100,2442.679609,10140.821405
2725.937068,995.924147,2960.823768,8290.306550
2725.937397,995.924147,2738.761985,9030.512492
2725.937726,1455.581446,1480.411884,8956.491898
2725.938055,1915.238745,2146.597232,8586.388927
2725.938384,1532.190996,3330.926739,7624.121203
2725.938713,1762.019645,2886.803174,7476.080014
2725.939042,1838.629195,2664.741391,8734.430116
2725.939371,2451.505594,2812.782580,9474.636058
2725.939700,2528.115143,2738.761985,8586.388927
2725.940029,1149.143247,1036.288319,9474.636058
2725.940358,919.314598,2664.741391,9622.677246
2725.940687,-612.876398,4293.194464,9400.615463
2725.941016,-919.314598,2812.782580,10732.986159
2725.941345,-306.438199,2220.617826,10362.883188
2725.941674,0.000000,2368.659014,9696.697840
2725.942003,-919.314598,1184.329507,9844.739029
2725.942332,-842.705048,148.041188,9400.615463
2725.942661,-459.657299,518.144159,9104.533087
2725.942990,-1072.533697,2368.659014,8142.265362
2725.943319,-153.219100,-0.000000,8734.430116
2725.943648,-612.876398,-592.164754,9178.553681
2725.943977,76.609550,-518.144159,9400.615463
2725.944306,1225.752797,-296.082377,8438.347739
2725.944635,842.705048,296.082377,8956.491898
2725.944964,153.219100,962.267725,9696.697840
2725.945293,459.657299,1628.453072,9548.656652
2725.945622,689.485948,1406.391290,9178.553681
2725.945951,766.095498,814.226536,9696.697840
2725.946280,919.314598,1554.432478,8438.347739
2725.946609,995.924147,222.061783,9844.739029
2725.946938,383.047749,444.123565,9178.553681
2725.947267,0.000000,-0.000000,8142.265362
2725.947596,-919.314598,-740.205942,8660.409521
2725.947925,-766.095498,-1776.494261,10066.800811
2725.948254,0.000000,-814.226536,9030.512492
2725.948583,0.000000,-1036.288319,7624.121203
2725.948912,612.876398,-888.247130,8586.388927
2725.949241,383.047749,-444.123565,9474.636058
2725.949570,612.876398,148.041188,8290.306550
2725.949900,919.314598,-0.000000,8734.430116
2725.950229,1302.362347,-0.000000,9178.553681
2725.950558,842.705048,1480.411884,9104.533087
2725.950887,995.924147,-0.000000,8734.430116
2725.951216,1225.752797,592.164754,9400.615463
2725.951545,536.266849,1110.308913,9104.533087
2725.951874,229.828649,-0.000000,8068.244768
2725.952203,-766.095498,370.102971,8512.368333
2725.952532,-383.047749,-740.205942,10214.842000
2725.952861,-229.828649,-1184.329507,8142.265362
2725.953190,-766.095498,-1110.308913,7920.203579
2725.953519,-1378.971896,-1850.514855,9844.739029
2725.953849,-1225.752797,-1776.494261,8882.471304
2725.954178,-919.314598,-1480.411884,9252.574275
2725.954507,-153.219100,-2220.617826,9474.636058
2725.954836,0.000000,-222.061783,9326.594869
2725.955165,306.438199,-0.000000,9474.636058
2725.955494,612.876398,370.102971,9030.512492
2725.955823,1225.752797,1184.329507,9622.677246
2725.956152,1072.533697,814.226536,7846.182985
2725.956481,1149.143247,-222.061783,9474.636058
2725.956810,689.485948,-518.144159,10362.883188
2725.957139,1149.143247,-1702.473667,8882.471304
2725.957468,0.000000,-1554.432478,9474.636058
2725.957797,-612.876398,-1702.473667,9992.780217
2725.958127,-536.266849,-1924.535449,9622.677246
2725.958456,-383.047749,-1036.288319,8512.368333
2725.958785,0.000000,-1554.432478,9400.615463
2725.959114,612.876398,-888.247130,9548.656652
2725.959443,153.219100,-1110.308913,8660.409521
2725.959772,766.095498,-222.061783,8512.368333
2725.960101,1149.143247,1702.473667,8068.244768
2725.960430,1378.971896,740.205942,8512.368333
2725.960759,1225.752797,1184.329507,8660.409521
2725.961088,1685.410096,-0.000000,9326.594869
2725.961417,1608.800546,-0.000000,8438.347739
2725.961746,919.314598,-592.164754,8882.471304
2725.962076,-153.219100,-666.185348,9918.759623
2725.962405,-229.828649,-1036.288319,9104.533087
2725.962734,-229.828649,-1036.288319,9400.615463
2725.963063,0.000000,-666.185348,8734.430116
2725.963392,0.000000,-1110.308913,8586.388927
2725.963721,0.000000,-888.247130,9548.656652
2725.964050,0.000000,222.061783,8364.327145
2725.964379,459.657299,888.247130,8068.244768
2725.964708,306.438199,370.102971,8290.306550
2725.965037,612.876398,592.164754,9474.636058
2725.965366,1608.800546,962.267725,8956.491898
2725.965695,919.314598,444.123565,8068.244768
2725.966024,383.047749,-0.000000,9844.739029
2725.966354,383.047749,1036.288319,9178.553681
2725.966683,-153.219100,-518.144159,9770.718434
2725.967012,0.000000,814.226536,9326.594869
2725.967341,0.000000,-666.185348,9622.677246
2725.967670,-689.485948,-1258.350101,9844.739029
2725.967999,-689.485948,-518.144159,9252.574275
2725.968328,-689.485948,-888.247130,9918.759623
2725.968657,153.219100,-962.267725,8808.450710
2725.968986,0.000000,-444.123565,9104.533087
2725.969315,383.047749,222.061783,9622.677246
2725.969644,842.705048,-0.000000,9030.512492
2725.969973,536.266849,666.185348,8734.430116
2725.970303,76.609550,-74.020594,9622.677246
2725.970632,689.485948,-0.000000,8734.430116
2725.970961,383.047749,-222.061783,8734.430116
2725.971290,153.219100,-74.020594,10510.924376
2725.971619,153.219100,-0.000000,9918.759623
2725.971948,383.047749,-518.144159,8808.450710
2725.972277,536.266849,-74.020594,8734.430116
2725.972606,459.657299,444.123565,9178.553681
2725.972935,612.876398,-0.000000,9548.656652
2725.973264,153.219100,-666.185348,8364.327145
2725.973593,229.828649,-592.164754,9030.512492
2725.973922,536.266849,-148.041188,9326.594869
2725.974251,0.000000,-518.144159,8734.430116
2725.974581,-612.876398,-814.226536,9992.780217
2725.974910,0.000000,296.082377,7698.141797
2725.975239,383.047749,-0.000000,8586.388927
2725.975568,153.219100,-666.185348,10732.986159
2725.975897,536.266849,518.144159,8808.450710
2725.976226,919.314598,-1332.370696,9474.636058
2725.976555,689.485948,370.102971,8808.450710
2725.976884,1455.581446,148.041188,8068.244768
2725.977213,1378.971896,-888.247130,8142.265362
2725.977542,995.924147,-0.000000,7698.141797
2725.977871,2145.067394,-222.061783,9548.656652
2725.978200,1302.362347,-370.102971,7179.997637
2725.978530,153.219100,-296.082377,8586.388927
2725.978859,0.000000,296.082377,9400.615463
2725.979188,0.000000,-1036.288319,8216.285956
2725.979517,-919.314598,-1110.308913,9474.636058
2725.979846,459.657299,-2294.638420,10584.944971
2725.980175,229.828649,-1258.350101,9178.553681
2725.980504,459.657299,-1184.329507,9030.512492
2725.980833,919.314598,-666.185348,10140.821405
2725.981162,1149.143247,518.144159,7772.162391
2725.981491,1532.190996,-0.000000,7476.080014
2725.981820,1608.800546,1776.494261,8586.388927
2725.982149,1838.629195,1628.453072,8364.327145
2725.982478,1685.410096,-0.000000,7772.162391
2725.982808,536.266849,-296.082377,8438.347739
2725.983137,-153.219100,-1184.329507,10140.821405
2725.983466,-1072.533697,-1554.432478,8586.388927
2725.983795,-1608.800546,-1406.391290,9474.636058
2725.984124,-1532.190996,-1554.432478,11029.068536
2725.984453,-1378.971896,-1406.391290,9770.718434
2725.984782,-536.266849,-1110.308913,9770.718434
2725.985111,0.000000,592.164754,9252.574275
2725.985440,153.219100,1110.308913,7920.203579
2725.985769,612.876398,1036.288319,9178.553681
2725.986098,1072.533697,888.247130,8808.450710
2725.986427,1838.629195,1036.288319,8512.368333
2725.986757,1225.752797,962.267725,7920.203579
2725.987086,1532.190996,148.041188,8808.450710
2725.987415,1378.971896,222.061783,9918.759623
2725.987744,306.438199,370.102971,8290.306550
2725.988073,-229.828649,-666.185348,9770.718434
2725.988402,-459.657299,-518.144159,10362.883188
2725.988731,-459.657299,-740.205942,9918.759623
2725.989060,-842.705048,-814.226536,9992.780217
2725.989389,459.657299,-0.000000,10214.842000
2725.989718,0.000000,-74.020594,9178.553681
2725.990047,383.047749,296.082377,9622.677246
2725.990376,1455.581446,1110.308913,9252.574275
2725.990705,1685.410096,370.102971,9252.574275
2725.991035,1685.410096,1406.391290,7624.121203
2725.991364,1378.971896,518.144159,9400.615463
2725.991693,1455.581446,518.144159,8438.347739
2725.992022,1302.362347,-0.000000,7846.182985
2725.992351,0.000000,-592.164754,10066.800811
2725.992680,229.828649,-592.164754,9622.677246
2725.993009,459.657299,-814.226536,9548.656652
2725.993338,0.000000,-1554.432478,9696.697840
2725.993667,-153.219100,-592.164754,8586.388927
2725.993996,0.000000,-962.267725,8882.471304
2725.994325,0.000000,-370.102971,9326.594869
2725.994654,536.266849,-0.000000,8882.471304
2725.994984,536.266849,-148.041188,7920.203579
2725.995313,0.000000,-0.000000,7846.182985
2725.995642,76.609550,222.061783,8364.327145
2725.995971,229.828649,-666.185348,8290.306550
2725.996300,-306.438199,-1258.350101,8364.327145
2725.996629,0.000000,-1480.411884,9918.759623
2725.996958,-153.219100,-1406.391290,8808.450710
2725.997287,0.000000,-1258.350101,8660.409521
2725.997616,0.000000,-222.061783,9696.697840
2725.997945,383.047749,-0.000000,8586.388927
2725.998274,459.657299,-222.061783,8290.306550
2725.998603,76.609550,-74.020594,9252.574275
2725.998932,1762.019645,444.123565,8068.244768
2725.999262,919.314598,-0.000000,8216.285956
2725.999591,536.266849,888.247130,7846.182985
2725.999920,76.609550,-370.102971,8882.471304
2726.000249,-229.828649,-518.144159,8956.491898
2726.000578,-536.266849,-1332.370696,9178.553681
2726.000907,-306.438199,-2368.659014,10955.047942
2726.001236,-689.485948,-888.247130,9326.594869
2726.001565,459.657299,-1332.370696,9474.636058
2726.001894,229.828649,666.185348,10066.800811
2726.002223,995.924147,222.061783,9400.615463
2726.002552,1762.019645,592.164754,8290.306550
2726.002881,2145.067394,1702.473667,8438.347739
2726.003211,2374.896044,2220.617826,8734.430116
2726.003540,1915.238745,518.144159,7994.224174
2726.003869,1455.581446,814.226536,8512.368333
2726.004198,842.705048,-74.020594,8808.450710
2726.004527,-229.828649,-592.164754,8808.450710
2726.004856,-1225.752797,-814.226536,10214.842000
2726.005185,-1149.143247,-1850.514855,11177.109724
2726.005514,-995.924147,-1406.391290,10140.821405
2726.005843,-766.095498,-1036.288319,9918.759623
2726.006172,-1149.143247,-518.144159,10510.924376
2726.006501,-689.485948,-148.041188,9474.636058
2726.006830,229.828649,-222.061783,8808.450710
2726.007159,919.314598,518.144159,9326.594869
2726.007489,1685.410096,148.041188,8882.471304
2726.007818,612.876398,518.144159,7846.182985
2726.008147,1608.800546,1332.370696,8290.306550
2726.008476,1608.800546,1998.556043,8068.244768
2726.008805,612.876398,592.164754,8068.244768
2726.009134,-536.266849,148.041188,8586.388927
2726.009463,-766.095498,-666.185348,10807.006753
2726.009792,-1149.143247,-1628.453072,9400.615463
2726.010121,-2145.067394,-2146.597232,9844.739029
2726.010450,-2068.457845,-1850.514855,10732.986159
2726.010779,-1149.143247,-2442.679609,9548.656652
2726.011108,-766.095498,-1258.350101,9548.656652
2726.011438,612.876398,-1110.308913,9622.677246
2726.011767,1455.581446,962.267725,7179.997637
2726.012096,1608.800546,1554.432478,7105.977043
2726.012425,2528.115143,1850.514855,8734.430116
2726.012754,2681.334243,1850.514855,7254.018232
2726.013083,2451.505594,888.247130,7846.182985
2726.013412,1838.629195,-0.000000,8364.327145
2726.013741,766.095498,-518.144159,9326.594869
2726.014070,0.000000,-1184.329507,9548.656652
2726.014399,-306.438199,-1184.329507,9400.615463
2726.014728,-766.095498,-592.164754,10214.842000
2726.015057,-995.924147,-814.226536,9622.677246
2726.015386,-995.924147,-222.061783,9918.759623
2726.015716,-383.047749,-518.144159,10362.883188
2726.016045,229.828649,-74.020594,8068.244768
2726.016374,306.438199,740.205942,8734.430116
2726.016703,919.314598,-0.000000,9326.594869
2726.017032,1149.143247,-148.041188,7994.224174
2726.017361,1149.143247,296.082377,8068.244768
2726.017690,689.485948,-740.205942,9400.615463
2726.018019,689.485948,1110.308913,8290.306550
2726.018348,536.266849,-444.123565,9178.553681
2726.018677,-229.828649,-74.020594,9474.636058
2726.019006,0.000000,444.123565,9770.718434
2726.019335,0.000000,-592.164754,8882.471304
2726.019665,-153.219100,-1110.308913,10214.842000
2726.019994,76.609550,296.082377,9696.697840
2726.020323,689.485948,-1036.288319,9104.533087
2726.020652,153.219100,370.102971,8808.450710
2726.020981,383.047749,148.041188,9548.656652
2726.021310,0.000000,518.144159,7846.182985
2726.021639,153.219100,518.144159,8216.285956
2726.021968,612.876398,-0.000000,9844.739029
2726.022297,306.438199,-148.041188,8956.491898
2726.022626,76.609550,-1332.370696,9918.759623
2726.022955,-229.828649,-666.185348,10362.883188
2726.023284,459.657299,-666.185348,8882.471304
2726.023613,536.266849,592.164754,8512.368333
2726.023943,842.705048,-74.020594,10214.842000
2726.024272,459.657299,-74.020594,9992.780217
2726.024601,1302.362347,592.164754,7920.203579
2726.024930,1149.143247,1702.473667,7920.203579
2726.025259,459.657299,1480.411884,9030.512492
2726.025588,612.876398,666.185348,8512.368333
2726.025917,459.657299,-592.164754,9474.636058
2726.026246,0.000000,-1036.288319,10881.027347
2726.026575,0.000000,-1110.308913,8882.471304
2726.026904,-842.705048,-1924.535449,9696.697840
2726.027233,-919.314598,-74.020594,9474.636058
2726.027562,-383.047749,-740.205942,9400.615463
2726.027892,0.000000,-666.185348,8734.430116
2726.028221,383.047749,888.247130,8808.450710
2726.028550,1225.752797,148.041188,9178.553681
2726.028879,689.485948,-74.020594,7846.182985
2726.029208,766.095498,-296.082377,8586.388927
2726.029537,995.924147,-592.164754,8438.347739
2726.029866,919.314598,-370.102971,7772.162391
2726.030195,229.828649,-0.000000,8808.450710
2726.030524,383.047749,-1036.288319,9030.512492
2726.030853,153.219100,-518.144159,9326.594869
2726.031182,0.000000,-962.267725,8882.471304
2726.031511,229.828649,444.123565,7698.141797
2726.031840,-459.657299,-814.226536,8882.471304
2726.032170,-153.219100,-1554.432478,9622.677246
2726.032499,383.047749,-1480.411884,9326.594869
2726.032828,1378.971896,-1258.350101,8438.347739
2726.033157,766.095498,-1036.288319,8512.368333
2726.033486,536.266849,518.144159,9252.574275
2726.033815,919.314598,-370.102971,8734.430116
2726.034144,919.314598,666.185348,7698.141797
2726.034473,919.314598,-148.041188,9474.636058
2726.034802,995.924147,740.205942,8660.409521
2726.035131,1378.971896,-0.000000,8882.471304
2726.035460,76.609550,222.061783,9326.594869
2726.035789,383.047749,-148.041188,10066.800811
2726.036119,-383.047749,-740.205942,9548.656652
2726.036448,-229.828649,-740.205942,9104.533087
2726.036777,306.438199,-0.000000,9770.718434
2726.037106,153.219100,-814.226536,9400.615463
2726.037435,229.828649,-296.082377,8734.430116
2726.037764,306.438199,222.061783,9400.615463
2726.038093,306.438199,592.164754,8512.368333
2726.038422,0.000000,-148.041188,8808.450710
2726.038751,229.828649,148.041188,9400.615463
2726.039080,842.705048,222.061783,8808.450710
2726.039409,842.705048,-888.247130,9030.512492
2726.039738,0.000000,-0.000000,9252.574275
2726.040067,153.219100,-444.123565,9474.636058
2726.040397,0.000000,-0.000000,8956.491898
2726.040726,612.876398,592.164754,8956.491898
2726.041055,383.047749,-222.061783,9474.636058
2726.041384,306.438199,-74.020594,8660.409521
2726.041713,536.266849,296.082377,8586.388927
2726.042042,383.047749,-740.205942,9474.636058
2726.042371,-153.219100,-148.041188,8808.450710
2726.042700,0.000000,-592.164754,9400.615463
2726.043029,383.047749,-518.144159,9252.574275
2726.043358,536.266849,1036.288319,8364.327145
2726.043687,612.876398,-222.061783,9622.677246
2726.044016,383.047749,814.226536,8660.409521
2726.044346,919.314598,814.226536,8142.265362
2726.044675,919.314598,-666.185348,9474.636058
2726.045004,306.438199,740.205942,8216.285956
2726.045333,459.657299,-296.082377,9548.656652
2726.045662,612.876398,-0.000000,8216.285956
2726.045991,0.000000,-222.061783,9770.718434
2726.046320,-153.219100,-296.082377,9918.759623
2726.046649,0.000000,-296.082377,8290.306550
2726.046978,306.438199,-148.041188,9770.718434
2726.047307,76.609550,-296.082377,8660.409521
2726.047636,-383.047749,-444.123565,8438.347739
2726.047965,-459.657299,-962.267725,10288.862594
2726.048294,0.000000,-0.000000,8882.471304
2726.048624,-306.438199,-888.247130,9104.533087
2726.048953,76.609550,-518.144159,8290.306550
2726.049282,383.047749,-0.000000,9474.636058
2726.049611,766.095498,-666.185348,9770.718434
2726.049940,459.657299,-222.061783,7624.121203
2726.050269,153.219100,370.102971,9178.553681
2726.050598,0.000000,-0.000000,9178.553681
2726.050927,459.657299,370.102971,8068.244768
2726.051256,229.828649,-0.000000,9770.718434
2726.051585,0.000000,-740.205942,9030.512492
2726.051914,153.219100,-1554.432478,9252.574275
2726.052243,-306.438199,-518.144159,9474.636058
2726.052572,229.828649,-370.102971,9178.553681
2726.052901,153.219100,-222.061783,8882.471304
2726.053230,0.000000,-666.185348,9030.512492
2726.053559,306.438199,-222.061783,9326.594869
2726.053888,919.314598,-444.123565,9030.512492
2726.054217,76.609550,-666.185348,8290.306550
2726.054546,153.219100,-0.000000,9474.636058
2726.054875,459.657299,444.123565,8586.388927
2726.055204,459.657299,-666.185348,8808.450710
2726.055533,459.657299,-444.123565,9474.636058
2726.055862,1149.143247,-888.247130,9844.739029
2726.056191,842.705048,-222.061783,8290.306550
2726.056520,306.438199,148.041188,9400.615463
2726.056849,919.314598,888.247130,9252.574275
2726.057178,76.609550,666.185348,7920.203579
2726.057507,306.438199,-74.020594,9696.697840
2726.057836,383.047749,222.061783,9104.533087
2726.058165,306.438199,-888.247130,8586.388927
2726.058494,229.828649,-0.000000,9992.780217
2726.058823,-229.828649,-740.205942,9696.697840
2726.059152,383.047749,-962.267725,10066.800811
2726.059481,229.828649,-444.123565,8808.450710
2726.059810,306.438199,-0.000000,9178.553681
2726.060139,766.095498,-222.061783,9696.697840
2726.060468,689.485948,148.041188,8734.430116
2726.060797,1608.800546,740.205942,8808.450710
2726.061126,1762.019645,1184.329507,8068.244768
2726.061455,689.485948,518.144159,8068.244768
2726.061784,306.438199,-0.000000,9548.656652
2726.062113,689.485948,-222.061783,9326.594869
2726.062442,306.438199,-296.082377,8586.388927
2726.062771,-306.438199,-666.185348,9622.677246
2726.063100,-919.314598,-370.102971,9770.718434
2726.063429,-1378.971896,-518.144159,9178.553681
2726.063758,-612.876398,-1184.329507,9770.718434
2726.064087,0.000000,-592.164754,9474.636058
2726.064416,-153.219100,-1110.308913,8882.471304
2726.064745,459.657299,-444.123565,9178.553681
2726.065074,995.924147,-0.000000,9030.512492
2726.065403,1072.533697,592.164754,8290.306550
2726.065732,1455.581446,1406.391290,7698.141797
2726.066061,1685.410096,888.247130,8364.327145
2726.066390,1455.581446,888.247130,8882.471304
2726.066719,1225.752797,592.164754,8290.306550
2726.067048,536.266849,-370.102971,8956.491898
2726.067377,-459.657299,-0.000000,8956.491898
2726.067706,-229.828649,-1258.350101,9474.636058
2726.068035,-689.485948,-1776.494261,10362.883188
2726.068364,-1072.533697,-1628.453072,10584.944971
2726.068693,-306.438199,-370.102971,9178.553681
2726.069022,-536.266849,-0.000000,9474.636058
2726.069351,-229.828649,592.164754,10436.903782
2726.069680,459.657299,666.185348,8512.368333
2726.070009,0.000000,-222.061783,8882.471304
2726.070338,1225.752797,666.185348,9696.697840
2726.070667,1608.800546,370.102971,8734.430116
2726.070996,1072.533697,-296.082377,9030.512492
2726.071325,612.876398,518.144159,8956.491898
2726.071654,995.924147,222.061783,9326.594869
2726.071983,0.000000,-0.000000,9178.553681
2726.072312,229.828649,666.185348,9326.594869
2726.072641,536.266849,-370.102971,10362.883188
2726.072970,0.000000,-444.123565,8956.491898
2726.073299,-153.219100,-222.061783,9918.759623
2726.073628,229.828649,-296.082377,8882.471304
2726.073957,0.000000,-74.020594,8438.347739
2726.074286,229.828649,148.041188,9622.677246
2726.074615,689.485948,-962.267725,9326.594869
2726.074944,536.266849,-148.041188,8882.471304
2726.075273,1149.143247,-814.226536,8068.244768
2726.075602,229.828649,-370.102971,9252.574275
2726.075931,76.609550,-0.000000,8512.368333
2726.076260,459.657299,-148.041188,8956.491898
2726.076589,536.266849,-518.144159,8660.409521
2726.076918,76.609550,-518.144159,9252.574275
2726.077247,995.924147,-740.205942,9474.636058
2726.077576,536.266849,-0.000000,8290.306550
2726.077905,612.876398,-222.061783,9104.533087
2726.078234,229.828649,-148.041188,8216.285956
2726.078563,0.000000,-0.000000,8734.430116
2726.078892,153.219100,-518.144159,9548.656652
2726.079221,153.219100,-0.000000,7994.224174
2726.079550,-842.705048,-666.185348,9548.656652
2726.079879,-766.095498,-518.144159,9178.553681
2726.080208,-689.485948,-740.205942,9104.533087
2726.080537,-919.314598,-518.144159,9474.636058
2726.080866,-383.047749,-666.185348,10066.800811
2726.081195,76.609550,-740.205942,9252.574275
2726.081524,383.047749,-1110.308913,8808.450710
2726.081853,229.828649,296.082377,9474.636058
2726.082182,1838.629195,370.102971,8142.265362
2726.082511,919.314598,962.267725,7994.224174
2726.082840,1072.533697,1702.473667,8438.347739
2726.083169,1378.971896,1184.329507,8364.327145
2726.083498,689.485948,888.247130,7846.182985
2726.083827,76.609550,-0.000000,9474.636058
2726.084156,-536.266849,-444.123565,9178.553681
2726.084485,-1302.362347,-1406.391290,8882.471304
2726.084814,-919.314598,-1480.411884,9918.759623
2726.085143,-459.657299,-2442.679609,10955.047942
2726.085472,-153.219100,-1110.308913,9622.677246
2726.085801,459.657299,-740.205942,9474.636058
2726.086130,689.485948,370.102971,9252.574275
2726.086459,1762.019645,592.164754,8734.430116
2726.086788,2451.505594,592.164754,8438.347739
2726.087117,2451.505594,1480.411884,8512.368333
2726.087446,2451.505594,1332.370696,8734.430116
2726.087775,1838.629195,1110.308913,7179.997637
2726.088104,919.314598,1258.350101,8512.368333
2726.088433,383.047749,-0.000000,9696.697840
2726.088762,-306.438199,-370.102971,9400.615463
2726.089091,-919.314598,-1184.329507,10066.800811
2726.089420,-1378.971896,-2220.617826,9548.656652
2726.089749,-1302.362347,-1332.370696,10140.821405
2726.090078,-1378.971896,-2294.638420,10658.965565
2726.090407,-1149.143247,-1184.329507,9474.636058
2726.090736,-383.047749,-222.061783,9474.636058
2726.091065,383.047749,518.144159,8734.430116
2726.091394,1455.581446,1258.350101,8364.327145
2726.091723,1838.629195,814.226536,9178.553681
2726.092052,1532.190996,296.082377,7994.224174
2726.092381,1072.533697,888.247130,9252.574275
2726.092710,919.314598,962.267725,7846.182985
2726.093039,153.219100,444.123565,8364.327145
2726.093368,-612.876398,-222.061783,9992.780217
2726.093697,-612.876398,-1628.453072,9474.636058
2726.094026,-612.876398,-1406.391290,9918.759623
2726.094355,-153.219100,-370.102971,9474.636058
2726.094684,76.609550,-592.164754,9104.533087
2726.095013,0.000000,-0.000000,9326.594869
2726.095342,1378.971896,-222.061783,8808.450710
2726.095671,1762.019645,1184.329507,8660.409521
2726.096000,2298.286494,1850.514855,7846.182985
2726.096329,1915.238745,1480.411884,8660.409521
2726.096658,1302.362347,1628.453072,8734.430116
2726.096987,1072.533697,1110.308913,8068.244768
2726.097316,689.485948,-0.000000,8956.491898
2726.097645,-383.047749,-592.164754,10510.924376
2726.097974,-536.266849,-1776.494261,10362.883188
2726.098303,0.000000,-1850.514855,9696.697840
2726.098632,-459.657299,-1332.370696,9992.780217
2726.098961,0.000000,-518.144159,9252.574275
2726.099290,76.609550,-0.000000,8586.388927
2726.099619,536.266849,-0.000000,9326.594869
2726.099948,995.924147,962.267725,9104.533087
2726.100277,1532.190996,222.061783,7846.182985
2726.100606,1302.362347,666.185348,7476.080014
2726.100935,383.047749,814.226536,8290.306550
2726.101264,0.000000,-444.123565,8956.491898
2726.101593,-766.095498,-1332.370696,8512.368333
2726.101922,-842.705048,-1480.411884,10436.903782
2726.102251,-689.485948,-2516.700203,10658.965565
2726.102580,-2451.505594,-1776.494261,9770.718434
2726.102909,-2298.286494,-962.267725,10066.800811
2726.103238,-995.924147,-518.144159,9400.615463
2726.103567,-306.438199,-0.000000,8068.244768
2726.103896,536.266849,-0.000000,9326.594869
2726.104225,1302.362347,370.102971,8438.347739
2726.104554,1838.629195,370.102971,8438.347739
2726.104883,1915.238745,370.102971,7698.141797
2726.105212,1532.190996,-518.144159,8216.285956
2726.105541,919.314598,-0.000000,9326.594869
2726.105870,76.609550,-518.144159,7772.162391
2726.106199,0.000000,-518.144159,9622.677246
2726.106528,0.000000,-592.164754,10140.821405
2726.106857,76.609550,-962.267725,9474.636058
2726.107186,-383.047749,-0.000000,10066.800811
2726.107515,-689.485948,-1406.391290,9696.697840
2726.107844,306.438199,-370.102971,9104.533087
2726.108173,1072.533697,296.082377,9474.636058
2726.108502,1225.752797,-518.144159,9030.512492
2726.108831,1455.581446,740.205942,7550.100608
2726.109160,1685.410096,518.144159,8586.388927
2726.109489,1378.971896,740.205942,7846.182985
2726.109818,919.314598,296.082377,8512.368333
2726.110147,0.000000,666.185348,9030.512492
2726.110476,76.609550,-518.144159,8956.491898
2726.110804,0.000000,-888.247130,10510.924376
2726.111133,-919.314598,-1480.411884,9992.780217
2726.111462,-612.876398,-2072.576638,10140.821405
2726.111791,-842.705048,-1628.453072,9844.739029
2726.112120,-306.438199,-1332.370696,9918.759623
2726.112449,153.219100,-0.000000,9474.636058
2726.112778,1072.533697,518.144159,8808.450710
2726.113107,1225.752797,1998.556043,7772.162391
2726.113436,1302.362347,1406.391290,8512.368333
2726.113765,1302.362347,1628.453072,7328.038826
2726.114094,536.266849,148.041188,8068.244768
2726.114423,459.657299,-0.000000,9696.697840
2726.114752,-459.657299,-962.267725,9178.553681
2726.115081,-306.438199,-1554.432478,9178.553681
2726.115410,-1302.362347,-1776.494261,10140.821405
2726.115739,-995.924147,-814.226536,9918.759623
2726.116068,-766.095498,-1480.411884,8956.491898
2726.116397,0.000000,-592.164754,8734.430116
2726.116726,229.828649,962.267725,9400.615463
2726.117055,842.705048,740.205942,8586.388927
2726.117384,842.705048,370.102971,8956.491898
2726.117713,1302.362347,1110.308913,8438.347739
2726.118042,1302.362347,222.061783,7328.038826
2726.118371,689.485948,296.082377,7550.100608
2726.118700,842.705048,-0.000000,9696.697840
2726.119029,459.657299,-222.061783,8956.491898
2726.119358,0.000000,-1110.308913,8364.327145
2726.119687,-383.047749,-0.000000,9400.615463
2726.120016,-689.485948,-666.185348,9326.594869
2726.120345,-612.876398,-0.000000,9030.512492
2726.120674,689.485948,-148.041188,9178.553681
2726.121003,612.876398,-0.000000,9400.615463
2726.121332,153.219100,296.082377,8956.491898
2726.121661,995.924147,-0.000000,8512.368333
2726.121990,689.485948,962.267725,8956.491898
2726.122319,612.876398,888.247130,8068.244768
2726.122648,0.000000,592.164754,8290.306550
2726.122977,0.000000,-222.061783,10510.924376
2726.123306,-1225.752797,-0.000000,10214.842000
2726.123635,-383.047749,-1702.473667,10066.800811
2726.123964,-766.095498,-74.020594,9326.594869
2726.124293,-459.657299,-1332.370696,9918.759623
2726.124622,0.000000,-1110.308913,9992.780217
2726.124951,-306.438199,-148.041188,9178.553681
2726.125280,766.095498,-370.102971,9326.594869
2726.125609,1149.143247,740.205942,8808.450710
2726.125938,1608.800546,962.267725,9178.553681
2726.126267,1915.238745,148.041188,7624.121203
2726.126596,995.924147,518.144159,8068.244768
2726.126925,1302.362347,1258.350101,8956.491898
2726.127254,1302.362347,-370.102971,9252.574275
2726.127583,536.266849,-592.164754,9474.636058
2726.127912,0.000000,-1776.494261,9992.780217
2726.128241,0.000000,-1110.308913,10214.842000
2726.128570,-229.828649,-1480.411884,8808.450710
2726.128899,0.000000,-1406.391290,9104.533087
2726.129228,459.657299,-0.000000,9104.533087
2726.129557,766.095498,-222.061783,9548.656652
2726.129886,1378.971896,888.247130,7994.224174
2726.130215,1225.752797,370.102971,8882.471304
2726.130544,1455.581446,740.205942,8512.368333
2726.130873,1149.143247,-222.061783,7698.141797
2726.131202,919.314598,-148.041188,9252.574275
2726.131531,612.876398,-1110.308913,8956.491898
2726.131860,459.657299,-666.185348,9104.533087
2726.132189,0.000000,-888.247130,10214.842000
2726.132518,306.438199,-370.102971,9252.574275
2726.132847,0.000000,-148.041188,8142.265362
2726.133176,153.219100,-518.144159,9548.656652
2726.133505,-306.438199,-296.082377,9622.677246
2726.133834,459.657299,-296.082377,8734.430116
2726.134163,612.876398,-0.000000,8734.430116
2726.134492,0.000000,-74.020594,8956.491898
2726.134821,0.000000,-740.205942,8290.306550
2726.135150,229.828649,-1258.350101,8586.388927
2726.135479,306.438199,-222.061783,9622.677246
2726.135808,612.876398,-444.123565,9104.533087
2726.136137,0.000000,-666.185348,8142.265362
2726.136466,153.219100,-296.082377,9326.594869
2726.136795,153.219100,-148.041188,8956.491898
2726.137124,0.000000,-1036.288319,8068.244768
2726.137453,919.314598,-740.205942,9844.739029
2726.137782,995.924147,-222.061783,9400.615463
2726.138111,1149.143247,-148.041188,8512.368333
2726.138440,1072.533697,-0.000000,8142.265362
2726.138769,459.657299,-740.205942,9326.594869
2726.139098,689.485948,740.205942,8290.306550
2726.139427,76.609550,-296.082377,8290.306550
2726.139756,306.438199,222.061783,9252.574275
2726.140085,0.000000,296.082377,8882.471304
2726.140414,-153.219100,-888.247130,9696.697840
2726.140743,-459.657299,-296.082377,9178.553681
2726.141072,-459.657299,-444.123565,8512.368333
2726.141401,-383.047749,-962.267725,9548.656652
2726.141730,-383.047749,-814.226536,9622.677246
2726.142059,-306.438199,-962.267725,10066.800811
2726.142388,229.828649,-740.205942,8882.471304
2726.142717,229.828649,1184.329507,8956.491898
2726.143046,459.657299,888.247130,9104.533087
2726.143375,76.609550,518.144159,8882.471304
2726.143704,229.828649,-0.000000,8956.491898
2726.144033,612.876398,296.082377,9400.615463
2726.144362,689.485948,-148.041188,9400.615463
2726.144691,-306.438199,-518.144159,9770.718434
2726.145020,0.000000,-0.000000,9844.739029
2726.145349,-229.828649,-592.164754,9548.656652
2726.145678,0.000000,740.205942,8660.409521
2726.146007,0.000000,-518.144159,9474.636058
2726.146336,383.047749,444.123565,9918.759623
2726.146665,383.047749,-0.000000,8882.471304
2726.146994,842.705048,-0.000000,8660.409521
2726.147323,153.219100,592.164754,8956.491898
2726.147652,459.657299,296.082377,8290.306550
2726.147981,459.657299,666.185348,9696.697840
2726.148310,842.705048,-0.000000,9844.739029
2726.148639,1072.533697,518.144159,8586.388927
2726.148968,1532.190996,-148.041188,9178.553681
2726.149297,1225.752797,518.144159,8364.327145
2726.149626,1302.362347,518.144159,8290.306550
2726.149955,766.095498,1258.350101,8290.306550
2726.150284,766.095498,592.164754,9548.656652
2726.150613,536.266849,222.061783,10214.842000
2726.150942,1072.533697,-74.020594,7772.162391
2726.151271,-459.657299,-370.102971,9326.594869
2726.151600,689.485948,-222.061783,9030.512492
2726.151929,306.438199,-888.247130,8142.265362
2726.152258,0.000000,-222.061783,9992.780217
2726.152587,76.609550,-74.020594,8882.471304
2726.152916,0.000000,370.102971,8364.327145
2726.153245,383.047749,370.102971,9326.594869
2726.153574,919.314598,-0.000000,7994.224174
2726.153903,536.266849,-666.185348,8438.347739
2726.154232,689.485948,-518.144159,8882.471304
2726.154561,766.095498,-1702.473667,9992.780217
2726.154890,306.438199,-444.123565,8734.430116
2726.155219,383.047749,-1702.473667,8882.471304
2726.155548,-153.219100,-148.041188,9326.594869
2726.155876,306.438199,-444.123565,9696.697840
2726.156205,153.219100,-0.000000,8882.471304
2726.156534,0.000000,296.082377,8734.430116
2726.156863,-306.438199,222.061783,10362.883188
2726.157192,-229.828649,-518.144159,9400.615463
2726.157521,-612.876398,-1702.473667,9474.636058
2726.157850,0.000000,-1406.391290,9992.780217
2726.158179,153.219100,-1850.514855,8512.368333
2726.158508,0.000000,-666.185348,8882.471304
2726.158837,689.485948,296.082377,9178.553681
2726.159166,1302.362347,222.061783,8956.491898
2726.159495,766.095498,592.164754,8808.450710
2726.159824,612.876398,1184.329507,8660.409521
2726.160153,459.657299,-0.000000,7920.203579
2726.160482,612.876398,148.041188,9104.533087
2726.160811,842.705048,-1184.329507,9992.780217
2726.161140,306.438199,-1776.494261,9030.512492
2726.161469,0.000000,-370.102971,9178.553681
2726.161798,229.828649,-666.185348,9400.615463
2726.162127,-383.047749,888.247130,8438.347739
2726.162456,0.000000,296.082377,8586.388927
2726.162785,0.000000,-0.000000,8882.471304
2726.163114,383.047749,740.205942,9548.656652
2726.163443,229.828649,-222.061783,8956.491898
2726.163772,76.609550,-1628.453072,9178.553681
2726.164101,-383.047749,222.061783,8808.450710
2726.164430,459.657299,-1924.535449,9400.615463
2726.164759,612.876398,-1702.473667,9474.636058
2726.165088,153.219100,-592.164754,9474.636058
2726.165417,1225.752797,-148.041188,8364.327145
2726.165746,689.485948,1258.350101,7920.203579
2726.166075,842.705048,1702.473667,9104.533087
2726.166404,536.266849,962.267725,7476.080014
2726.166732,766.095498,-370.102971,8216.285956
2726.167061,459.657299,-592.164754,9992.780217
2726.167390,153.219100,-1406.391290,9474.636058
2726.167719,0.000000,-1406.391290,9030.512492
2726.168048,-306.438199,-1924.535449,9770.718434
2726.168377,-229.828649,-222.061783,10214.842000
2726.168706,-306.438199,-814.226536,9252.574275
2726.169035,689.485948,444.123565,9474.636058
2726.169364,995.924147,1406.391290,9178.553681
2726.169693,1302.362347,1258.350101,9178.553681
2726.170022,1455.581446,-0.000000,9474.636058
2726.170351,1838.629195,-0.000000,9252.574275
2726.170680,2145.067394,-0.000000,8364.327145
2726.171009,1455.581446,296.082377,8734.430116
2726.171338,1072.533697,-0.000000,9770.718434
2726.171667,995.924147,296.082377,8882.471304
2726.171996,919.314598,444.123565,8290.306550
2726.172325,0.000000,-0.000000,9400.615463
2726.172654,-459.657299,-148.041188,9326.594869
2726.172983,-689.485948,-888.247130,8956.491898
2726.173312,-612.876398,-666.185348,9400.615463
2726.173641,-536.266849,-1184.329507,9548.656652
2726.173970,-306.438199,-2368.659014,10066.800811
2726.174299,306.438199,-1110.308913,9474.636058
2726.174628,1149.143247,-1258.350101,9178.553681
2726.174957,689.485948,518.144159,7550.100608
2726.175286,842.705048,1332.370696,7550.100608
2726.175615,995.924147,888.247130,8586.388927
2726.175944,1532.190996,1258.350101,8216.285956
2726.176273,842.705048,666.185348,7994.224174
2726.176602,-536.266849,-666.185348,9252.574275
2726.176931,-1072.533697,-740.205942,9104.533087
2726.177259,-612.876398,-1776.494261,9178.553681
2726.177588,-689.485948,-2220.617826,10732.986159
2726.177917,-1149.143247,-962.267725,9548.656652
2726.178246,-459.657299,-1850.514855,9326.594869
2726.178575,-612.876398,814.226536,8882.471304
2726.178904,612.876398,814.226536,9104.533087
2726.179233,689.485948,1702.473667,8142.265362
2726.179562,689.485948,1258.350101,8216.285956
2726.179891,1608.800546,222.061783,9104.533087
2726.180220,1762.019645,-0.000000,8068.244768
2726.180549,766.095498,-74.020594,9548.656652
2726.180878,689.485948,-444.123565,9992.780217
2726.181207,-76.609550,-222.061783,8586.388927
2726.181536,76.609550,-592.164754,9992.780217
2726.181865,76.609550,814.226536,9918.759623
2726.182194,76.609550,-0.000000,9400.615463
2726.182523,76.609550,-222.061783,9622.677246
2726.182852,1072.533697,592.164754,9104.533087
2726.183181,995.924147,-148.041188,8512.368333
2726.183510,612.876398,-444.123565,8068.244768
2726.183839,1149.143247,-814.226536,8956.491898
2726.184168,459.657299,-1036.288319,10214.842000
2726.184497,995.924147,-296.082377,7698.141797
2726.184826,1149.143247,-74.020594,8808.450710
2726.185155,0.000000,370.102971,8956.491898
2726.185484,-459.657299,-222.061783,8734.430116
2726.185813,-459.657299,-444.123565,9622.677246
2726.186142,-842.705048,-518.144159,9696.697840
2726.186471,-689.485948,-666.185348,9622.677246
2726.186800,-536.266849,-1628.453072,10807.006753
2726.187129,0.000000,-444.123565,8734.430116
2726.187458,689.485948,-0.000000,8290.306550
2726.187786,459.657299,-296.082377,8364.327145
2726.188115,306.438199,962.267725,9400.615463
2726.188444,1378.971896,370.102971,8734.430116
2726.188773,995.924147,518.144159,7105.977043
2726.189102,459.657299,1184.329507,9104.533087
2726.189431,229.828649,370.102971,8364.327145
2726.189760,-306.438199,-814.226536,8882.471304
2726.190089,0.000000,-814.226536,10510.924376
2726.190418,383.047749,-1850.514855,10214.842000
2726.190747,229.828649,-1776.494261,9474.636058
2726.191076,459.657299,-1628.453072,10214.842000
2726.191405,1302.362347,-962.267725,9992.780217
2726.191734,1072.533697,-296.082377,9104.533087
2726.192063,1608.800546,-0.000000,8512.368333
2726.192392,2068.457845,740.205942,8808.450710
2726.192721,1991.848295,518.144159,8512.368333
2726.193050,1225.752797,-592.164754,9252.574275
2726.193379,612.876398,-1776.494261,9178.553681
2726.193708,-306.438199,-2886.803174,9400.615463
2726.194037,-229.828649,-2220.617826,8438.347739
2726.194366,-383.047749,-3849.070898,10140.821405
2726.194695,-842.705048,-3330.926739,10436.903782
2726.195024,-612.876398,-3478.967927,9548.656652
2726.195353,153.219100,-3849.070898,9030.512492
2726.195682,306.438199,-1258.350101,9030.512492
2726.196011,1072.533697,-1628.453072,8216.285956
2726.196340,612.876398,-1628.453072,8142.265362
2726.196669,1685.410096,-2072.576638,8290.306550
2726.196998,1762.019645,-1776.494261,8216.285956
2726.197327,1072.533697,-2294.638420,7994.224174
2726.197656,536.266849,-2960.823768,8586.388927
2726.197985,0.000000,-2812.782580,8142.265362
2726.198313,-766.095498,-3256.906145,8808.450710
2726.198642,-1149.143247,-3923.091493,9992.780217
2726.198971,-1378.971896,-4293.194464,9030.512492
2726.199300,-1991.848295,-2960.823768,9326.594869
2726.199629,-995.924147,-4367.215058,10066.800811
2726.199958,-459.657299,-4441.235652,9548.656652
2726.200287,-306.438199,-2812.782580,8142.265362
2726.200616,0.000000,-2812.782580,8438.347739
2726.200945,1532.190996,-2664.741391,8808.450710
2726.201274,2834.553343,-2146.597232,8290.306550
2726.201603,2604.724693,-1110.308913,7031.956449
2726.201932,2145.067394,-2442.679609,8438.347739
2726.202261,1915.238745,-3108.864956,8808.450710
2726.202590,1685.410096,-2886.803174,8512.368333
2726.202919,-306.438199,-2960.823768,9844.739029
2726.203248,-612.876398,-4367.215058,10214.842000
2726.203577,-842.705048,-4515.256246,9548.656652
2726.203906,-1149.143247,-3478.967927,10436.903782
2726.204235,-1378.971896,-4589.276840,10510.924376
2726.204564,-536.266849,-5033.400406,9992.780217
2726.204893,842.705048,-2368.659014,8364.327145
2726.205222,1302.362347,-1406.391290,7550.100608
2726.205551,1378.971896,-814.226536,8290.306550
2726.205880,3140.991542,-2220.617826,7846.182985
2726.206209,3677.258390,-962.267725,7031.956449
2726.206538,2681.334243,-1184.329507,7328.038826
2726.206867,1378.971896,-2590.720797,8216.285956
2726.207196,1225.752797,-4145.153275,9548.656652
2726.207525,-153.219100,-3256.906145,9474.636058
2726.207854,-1378.971896,-4663.297435,9400.615463
2726.208183,-2757.943793,-5773.606348,10881.027347
2726.208512,-2451.505594,-5847.626942,11029.068536
2726.208841,-1378.971896,-4367.215058,9918.759623
2726.209169,-1838.629195,-4219.173869,9326.594869
2726.209498,-1149.143247,-3997.112087,9918.759623
2726.209827,229.828649,-3182.885551,9844.739029
2726.210156,1455.581446,-1702.473667,8216.285956
2726.210485,2298.286494,-2072.576638,7179.997637
2726.210814,2451.505594,-2294.638420,7179.997637
2726.211143,3217.601092,-2072.576638,8068.244768
2726.211472,4060.306139,-2886.803174,7994.224174
2726.211801,2374.896044,-2886.803174,7328.038826
2726.212130,0.000000,-3404.947333,9474.636058
2726.212459,-689.485948,-3923.091493,10732.986159
2726.212788,-995.924147,-4737.318029,10510.924376
2726.213117,-1149.143247,-4589.276840,10362.883188
2726.213446,-2451.505594,-4367.215058,10584.944971
2726.213775,-2911.162892,-4145.153275,11399.171507
2726.214104,-1532.190996,-4071.132681,10881.027347
2726.214433,306.438199,-3775.050304,9548.656652
2726.214762,1072.533697,-2442.679609,8734.430116
2726.215091,1608.800546,-2294.638420,8660.409521
2726.215420,2681.334243,-1998.556043,7476.080014
2726.215749,4290.134789,-1480.411884,7254.018232
2726.216078,4826.401637,-74.020594,6513.812290
2726.216407,3294.210641,-296.082377,6661.853478
2726.216736,1838.629195,-518.144159,7920.203579
2726.217065,3217.601092,-1110.308913,7402.059420
2726.217394,2604.724693,-2294.638420,7698.141797
2726.217723,612.876398,-4441.235652,9178.553681
2726.218052,-1685.410096,-4811.338623,9918.759623
2726.218381,-3140.991542,-6513.812290,12065.356855
2726.218710,-3064.381992,-4515.256246,10288.862594
2726.219039,-2374.896044,-4293.194464,9992.780217
2726.219368,-2145.067394,-3923.091493,10140.821405
2726.219696,-1685.410096,-2886.803174,9252.574275
2726.220025,-459.657299,-3108.864956,9104.533087
2726.220354,1455.581446,-2960.823768,7772.162391
2726.220683,2604.724693,-2960.823768,7402.059420
2726.221012,3140.991542,-2886.803174,7698.141797
2726.221341,2757.943793,-2960.823768,8142.265362
2726.221670,1991.848295,-2886.803174,8290.306550
2726.221999,1838.629195,-2442.679609,8068.244768
2726.222328,1838.629195,-1480.411884,8142.265362
2726.222657,842.705048,-2442.679609,9696.697840
2726.222986,0.000000,-3552.988522,10955.047942
2726.223315,-1608.800546,-3182.885551,10140.821405
2726.223644,-1532.190996,-3478.967927,9844.739029
2726.223973,-1685.410096,-3552.988522,9548.656652
2726.224302,-842.705048,-3552.988522,10288.862594
2726.224631,-842.705048,-3923.091493,10510.924376
2726.224960,-229.828649,-4737.318029,9918.759623
2726.225289,383.047749,-4367.215058,8512.368333
2726.225618,0.000000,-3256.906145,7846.182985
2726.225947,766.095498,-1184.329507,7994.224174
2726.226276,612.876398,-888.247130,7994.224174
2726.226605,842.705048,-1110.308913,8586.388927
2726.226934,1072.533697,-1850.514855,8882.471304
2726.227263,1455.581446,-2516.700203,9326.594869
2726.227592,919.314598,-3256.906145,8512.368333
2726.227921,842.705048,-3552.988522,9252.574275
2726.228250,919.314598,-3997.112087,9696.697840
2726.228579,306.438199,-3627.009116,9548.656652
2726.228908,689.485948,-3182.885551,9770.718434
2726.229237,689.485948,-2812.782580,8882.471304
2726.229566,536.266849,-2368.659014,8216.285956
2726.229895,689.485948,-2368.659014,8438.347739
2726.230223,0.000000,-3108.864956,8882.471304
2726.230552,-995.924147,-3478.967927,9474.636058
2726.230881,-842.705048,-3849.070898,9548.656652
2726.231210,-612.876398,-4737.318029,9400.615463
2726.231539,153.219100,-5033.400406,9696.697840
2726.231868,842.705048,-4737.318029,9474.636058
2726.232197,1455.581446,-3627.009116,8882.471304
2726.232526,2221.676944,-2516.700203,8216.285956
2726.232855,3600.648841,-592.164754,7179.997637
2726.233184,3830.477490,-518.144159,6957.935855
2726.233513,3677.258390,-888.247130,7402.059420
2726.233842,2451.505594,-2146.597232,7846.182985
2726.234171,995.924147,-3256.906145,8660.409521
2726.234500,-612.876398,-4441.235652,9622.677246
2726.234829,-2374.896044,-5107.421000,10362.883188
2726.235158,-3753.867940,-5625.565159,10510.924376
2726.235487,-3983.696590,-5329.482782,10732.986159
2726.235816,-3294.210641,-4515.256246,10288.862594
2726.236145,-2604.724693,-3775.050304,9622.677246
2726.236474,-1455.581446,-3330.926739,9326.594869
2726.236803,383.047749,-3923.091493,9252.574275
2726.237132,2298.286494,-3330.926739,8438.347739
2726.237461,4213.525239,-2886.803174,7476.080014
2726.237790,4596.572988,-2294.638420,7254.018232
2726.238119,5362.668486,-1332.370696,6735.874072
2726.238448,4903.011187,-222.061783,6957.935855
2726.238777,4366.744339,444.123565,7105.977043
2726.239106,3830.477490,370.102971,7328.038826
2726.239435,2221.676944,-1184.329507,8216.285956
2726.239764,-1302.362347,-2960.823768,10584.944971
2726.240093,-3140.991542,-6143.709319,10881.027347
2726.240422,-4979.620737,-6217.729913,12361.439231
2726.240750,-4290.134789,-9104.533087,13027.624579
2726.241079,-4979.620737,-5625.565159,9474.636058
2726.241408,-3753.867940,-5921.647536,11325.150913
2726.241737,-3677.258390,-4737.318029,9992.780217
2726.242066,-1225.752797,-2812.782580,9030.512492
2726.242395,-76.609550,-1998.556043,8660.409521
2726.242724,2451.505594,-3404.947333,13027.624579
2726.243053,3217.601092,-740.205942,7105.977043
2726.243382,6281.983084,-370.102971,7254.018232
2726.243711,4519.963438,-1628.453072,4663.297435
2726.244040,5132.839837,592.164754,5995.668130
2726.244369,4826.401637,1110.308913,8808.450710
2726.244698,2834.553343,1406.391290,6291.750507
2726.245027,3447.429741,814.226536,7328.038826
2726.245356,995.924147,-1036.288319,9770.718434
2726.245685,-3524.039291,-5773.606348,11695.253884
2726.246014,-4673.182538,-7476.080014,13027.624579
2726.246343,-2604.724693,-5403.503377,12953.603985
2726.246672,-2374.896044,-9622.677246,12361.439231
2726.247001,-3370.820191,-6809.894666,11473.192101
2726.247330,-2068.457845,-6291.750507,10881.027347
2726.247659,-459.657299,-6217.729913,9770.718434
2726.247988,2451.505594,-1332.370696,6587.832884
2726.248317,5056.230287,2072.576638,5699.585753
2726.248646,4903.011187,2442.679609,5403.503377
2726.248975,2987.772442,2146.597232,8364.327145
2726.249304,2068.457845,518.144159,5477.523971
2726.249633,2528.115143,-2072.576638,8216.285956
2726.249962,-842.705048,-5551.544565,10807.006753
2726.250291,-2374.896044,-7254.018232,10881.027347
2726.250620,-4519.963438,-6439.791695,13249.686362
2726.250949,-3907.087040,-9326.594869,13323.706956
2726.251277,-4060.306139,-4589.276840,8512.368333
2726.251606,-2221.676944,-4811.338623,10140.821405
2726.251935,-2145.067394,-1776.494261,8216.285956
2726.252264,-1225.752797,-1554.432478,8364.327145
2726.252594,1608.800546,-4367.215058,11695.253884
2726.252923,4060.306139,-1776.494261,5773.606348
2726.253252,5745.716235,-888.247130,7624.121203
2726.253581,3447.429741,-1036.288319,3849.070898
2726.253910,4366.744339,-0.000000,6661.853478
2726.254239,2604.724693,1554.432478,6661.853478
2726.254568,2145.067394,3182.885551,5773.606348
2726.254897,1225.752797,-0.000000,8216.285956
2726.255226,-3677.258390,-3108.864956,10658.965565
2726.255555,-4519.963438,-4663.297435,11325.150913
2726.255884,-5439.278036,-5477.523971,11695.253884
2726.256213,-5439.278036,-5255.462188,10807.006753
2726.256542,-5975.544884,-3330.926739,11399.171507
2726.256871,-4979.620737,-4219.173869,10955.047942
2726.257200,-4136.915689,-740.205942,9178.553681
2726.257529,-3064.381992,-1776.494261,8956.491898
2726.257858,-2451.505594,-148.041188,7550.100608
2726.258187,-3294.210641,1184.329507,8512.368333
2726.258516,-3217.601092,1406.391290,10362.883188
2726.258845,-2451.505594,-0.000000,8512.368333
2726.259174,-1532.190996,592.164754,7698.141797
2726.259503,229.828649,-222.061783,7772.162391
2726.259832,229.828649,-1332.370696,8216.285956
2726.260161,-306.438199,370.102971,8438.347739
2726.260490,-919.314598,-74.020594,9252.574275
2726.260819,-1608.800546,962.267725,9844.739029
2726.261148,-2911.162892,962.267725,9548.656652
2726.261477,-4136.915689,1258.350101,9844.739029
2726.261806,-3677.258390,-444.123565,9770.718434
2726.262135,-3064.381992,-1184.329507,9696.697840
2726.262464,-1685.410096,-2146.597232,8882.471304
2726.262793,-1762.019645,-2368.659014,9696.697840
2726.263122,-2221.676944,-1406.391290,9696.697840
2726.263451,-2451.505594,-1110.308913,9326.594869
2726.263780,-2528.115143,-0.000000,8142.265362
2726.264109,-1915.238745,518.144159,8142.265362
2726.264438,-1378.971896,-0.000000,9326.594869
2726.264767,-1225.752797,-962.267725,9178.553681
2726.265096,-2221.676944,-1110.308913,9326.594869
2726.265425,-3217.601092,-1702.473667,9918.759623
2726.265754,-3677.258390,-1850.514855,10362.883188
2726.266083,-4213.525239,-1702.473667,10658.965565
2726.266412,-3600.648841,-148.041188,9696.697840
2726.266741,-2298.286494,296.082377,8586.388927
2726.267070,-1915.238745,444.123565,8068.244768
2726.267399,-1838.629195,370.102971,7254.018232
2726.267728,-2298.286494,444.123565,7476.080014
2726.268057,-2604.724693,666.185348,7328.038826
2726.268386,-2451.505594,-0.000000,7698.141797
2726.268715,-3064.381992,-1110.308913,8364.327145
2726.269044,-4213.525239,-1924.535449,8808.450710
2726.269373,-4366.744339,-1628.453072,9400.615463
2726.269702,-3064.381992,-2590.720797,9770.718434
2726.270031,-2987.772442,-1258.350101,9030.512492
2726.270360,-3294.210641,-888.247130,9622.677246
2726.270689,-3983.696590,-518.144159,10288.862594
2726.271018,-4366.744339,-148.041188,10066.800811
2726.271347,-3677.258390,444.123565,9992.780217
2726.271676,-3447.429741,370.102971,8882.471304
2726.272005,-2987.772442,592.164754,8660.409521
2726.272334,-2451.505594,444.123565,8364.327145
2726.272663,-2374.896044,370.102971,7476.080014
2726.272992,-2528.115143,-148.041188,7846.182985
2726.273321,-2528.115143,-666.185348,7772.162391
2726.273650,-2374.896044,-1480.411884,8290.306550
2726.273979,-1762.019645,-2220.617826,8586.388927
2726.274308,-536.266849,-1924.535449,8068.244768
2726.274637,-459.657299,-1554.432478,8882.471304
2726.274966,-383.047749,-592.164754,8882.471304
2726.275295,-306.438199,1184.329507,8956.491898
2726.275624,-383.047749,1998.556043,8734.430116
2726.275953,-383.047749,1924.535449,9104.533087
2726.276282,-919.314598,1702.473667,8882.471304
2726.276611,-1455.581446,1332.370696,8586.388927
2726.276940,-2451.505594,888.247130,8808.450710
2726.277269,-2987.772442,296.082377,8808.450710
2726.277598,-3830.477490,-74.020594,8512.368333
2726.277927,-4136.915689,-888.247130,9400.615463
2726.278256,-3983.696590,-1332.370696,8734.430116
2726.278586,-3600.648841,-1850.514855,9252.574275
2726.278915,-4826.401637,-2664.741391,9548.656652
2726.279244,-3830.477490,-2146.597232,10140.821405
2726.279573,-4136.915689,-2368.659014,11769.274478
2726.279902,-3600.648841,-2368.659014,11843.295072
2726.280231,-2834.553343,-1998.556043,12065.356855
2726.280560,-3064.381992,-370.102971,11547.212695
2726.280889,-3294.210641,888.247130,11029.068536
2726.281218,-2451.505594,1480.411884,12361.439231
2726.281547,-306.438199,2886.803174,9252.574275
2726.281876,995.924147,4441.235652,5773.606348
2726.282205,689.485948,4737.318029,5107.421000
2726.282534,76.609550,4663.297435,4589.276840
2726.282863,0.000000,3627.009116,4885.359217
2726.283192,-1608.800546,1258.350101,5551.544565
2726.283521,-2604.724693,-1406.391290,7402.059420
2726.283850,-3983.696590,-3997.112087,10140.821405
2726.284179,-5439.278036,-3108.864956,8216.285956
2726.284508,-5745.716235,-3849.070898,10584.944971
2726.284837,-7354.516781,-4219.173869,11991.336260
2726.285166,-6741.640382,-4663.297435,14211.954086
2726.285495,-6281.983084,-2886.803174,15470.304188
2726.285824,-4290.134789,-74.020594,12287.418637
2726.286153,-2145.067394,592.164754,8956.491898
2726.286482,-1532.190996,3701.029710,6661.853478
2726.286811,-1455.581446,4071.132681,9474.636058
2726.287140,536.266849,2294.638420,7105.977043
2726.287469,2145.067394,4219.173869,3256.906145
2726.287798,2068.457845,2886.803174,4219.173869
2726.288127,536.266849,1850.514855,2072.576638
2726.288456,842.705048,-74.020594,6143.709319
2726.288785,-3294.210641,-3552.988522,7179.997637
2726.289114,-2757.943793,-5551.544565,10066.800811
2726.289443,-2757.943793,-4811.338623,12583.501014
2726.289772,-4213.525239,-3182.885551,8734.430116
2726.290101,-6052.154434,-3552.988522,13767.830521
2726.290430,-6205.373534,-1406.391290,13989.892304
2726.290759,-4443.353888,-296.082377,13027.624579
2726.291088,-3983.696590,-0.000000,12287.418637
2726.291417,-2834.553343,3108.864956,10436.903782
2726.291746,-3064.381992,3478.967927,9622.677246
2726.292075,-3064.381992,1850.514855,7994.224174
2726.292404,-3677.258390,1480.411884,7031.956449
2726.292733,-2834.553343,-1406.391290,7698.141797
2726.293062,-1838.629195,-518.144159,6069.688724
2726.293391,-1225.752797,-962.267725,6883.915261
2726.293720,-2911.162892,-740.205942,6365.771101
2726.294049,-3600.648841,-962.267725,8142.265362
2726.294378,-3064.381992,-3182.885551,9770.718434
2726.294707,-2451.505594,-1628.453072,10732.986159
2726.295036,-2987.772442,592.164754,10436.903782
2726.295365,-2834.553343,666.185348,9992.780217
2726.295694,-3217.601092,888.247130,11473.192101
2726.296023,-3217.601092,666.185348,11769.274478
2726.296352,-2374.896044,-0.000000,10288.862594
2726.296681,-1991.848295,592.164754,9918.759623
2726.297010,-1685.410096,1184.329507,8882.471304
2726.297339,-1762.019645,1628.453072,6291.750507
2726.297668,-1532.190996,1332.370696,6291.750507
2726.297997,-995.924147,-444.123565,5995.668130
2726.298326,-612.876398,-296.082377,6439.791695
2726.298655,-1915.238745,-1036.288319,6439.791695
2726.298984,-3294.210641,-2072.576638,7550.100608
2726.299313,-3370.820191,-3478.967927,10288.862594
