#time,accel_x,accel_y,accel_z
2578.334700,459.657299,-0.000000,9252.574275
2578.335029,229.828649,-296.082377,9030.512492
2578.335358,383.047749,-74.020594,9104.533087
2578.335688,306.438199,-74.020594,9104.533087
2578.336017,306.438199,-444.123565,8808.450710
2578.336347,383.047749,-0.000000,9474.636058
2578.336676,842.705048,-444.123565,9326.594869
2578.337005,229.828649,-222.061783,9326.594869
2578.337335,536.266849,-148.041188,9104.533087
2578.337664,306.438199,-222.061783,9252.574275
2578.337994,383.047749,-148.041188,9104.533087
2578.338323,689.485948,-518.144159,9252.574275
2578.338652,919.314598,-518.144159,9104.533087
2578.338982,76.609550,-0.000000,9326.594869
2578.339311,536.266849,-148.041188,9178.553681
2578.339641,536.266849,-0.000000,9104.533087
2578.339970,459.657299,-0.000000,9104.533087
2578.340300,612.876398,-74.020594,9252.574275
2578.340629,536.266849,-74.020594,8882.471304
2578.340958,153.219100,-74.020594,8586.388927
2578.341288,0.000000,-0.000000,9030.512492
2578.341617,153.219100,-0.000000,8882.471304
2578.341947,153.219100,-148.041188,8734.430116
2578.342276,229.828649,-74.020594,8882.471304
2578.342605,842.705048,-0.000000,9104.533087
2578.342935,459.657299,-296.082377,8882.471304
2578.343264,459.657299,-444.123565,9104.533087
2578.343594,229.828649,-222.061783,8882.471304
2578.343923,536.266849,-222.061783,8808.450710
2578.344252,306.438199,-74.020594,9104.533087
2578.344582,383.047749,-0.000000,8956.491898
2578.344911,306.438199,-222.061783,9104.533087
2578.345241,0.000000,-222.061783,9178.553681
2578.345570,153.219100,-444.123565,9400.615463
2578.345899,229.828649,-370.102971,9104.533087
2578.346229,229.828649,-74.020594,9030.512492
2578.346558,229.828649,-222.061783,9178.553681
2578.346888,536.266849,-222.061783,9178.553681
2578.347217,689.485948,-296.082377,9178.553681
2578.347546,766.095498,-444.123565,9252.574275
2578.347876,229.828649,-592.164754,9104.533087
2578.348205,536.266849,-444.123565,9326.594869
2578.348535,153.219100,-74.020594,9178.553681
2578.348864,306.438199,-148.041188,9178.553681
2578.349193,153.219100,-0.000000,9252.574275
2578.349523,383.047749,-592.164754,8956.491898
2578.349852,306.438199,-444.123565,9104.533087
2578.350182,612.876398,-370.102971,8290.306550
2578.350511,459.657299,-148.041188,9030.512492
2578.350840,383.047749,-74.020594,9030.512492
2578.351170,153.219100,-222.061783,9030.512492
2578.351499,306.438199,-0.000000,8882.471304
2578.351829,229.828649,-74.020594,8956.491898
2578.352158,689.485948,-296.082377,8956.491898
2578.352487,766.095498,-0.000000,8734.430116
2578.352817,766.095498,-0.000000,8956.491898
2578.353146,229.828649,-0.000000,8956.491898
2578.353476,383.047749,-0.000000,8956.491898
2578.353805,153.219100,-0.000000,8956.491898
2578.354134,229.828649,-74.020594,8956.491898
2578.354464,0.000000,-0.000000,9178.553681
2578.354793,919.314598,-296.082377,9400.615463
2578.355123,536.266849,-444.123565,9030.512492
2578.355452,153.219100,-148.041188,8808.450710
2578.355781,153.219100,-74.020594,9104.533087
2578.356111,229.828649,-148.041188,9104.533087
2578.356440,153.219100,-148.041188,8882.471304
2578.356770,306.438199,-296.082377,9030.512492
2578.357099,459.657299,-518.144159,8438.347739
2578.357428,919.314598,-222.061783,8882.471304
2578.357758,306.438199,-148.041188,8882.471304
2578.358087,306.438199,-370.102971,9030.512492
2578.358417,153.219100,-444.123565,9326.594869
2578.358746,459.657299,-370.102971,9252.574275
2578.359075,383.047749,-444.123565,9400.615463
2578.359405,383.047749,-296.082377,9326.594869
2578.359734,689.485948,-518.144159,9104.533087
2578.360064,536.266849,-296.082377,9030.512492
2578.360393,383.047749,-74.020594,9104.533087
2578.360722,383.047749,-0.000000,9252.574275
2578.361052,229.828649,-74.020594,9030.512492
2578.361381,536.266849,-74.020594,9326.594869
2578.361711,612.876398,-296.082377,9178.553681
2578.362040,459.657299,-148.041188,8956.491898
2578.362369,459.657299,-74.020594,9178.553681
2578.362699,306.438199,-0.000000,9178.553681
2578.363028,76.609550,-444.123565,8882.471304
2578.363358,76.609550,-74.020594,8882.471304
2578.363687,229.828649,-222.061783,8660.409521
2578.364016,306.438199,-0.000000,8808.450710
2578.364346,612.876398,-222.061783,8956.491898
2578.364675,229.828649,-148.041188,9252.574275
2578.365005,1149.143247,-444.123565,9548.656652
2578.365334,1532.190996,-666.185348,9474.636058
2578.365663,1378.971896,-444.123565,9326.594869
2578.365993,1838.629195,-370.102971,9252.574275
2578.366322,2068.457845,-222.061783,8882.471304
2578.366652,2911.162892,-0.000000,8734.430116
2578.366981,3677.258390,-148.041188,9030.512492
2578.367311,4519.963438,-296.082377,8808.450710
2578.367640,3370.820191,-0.000000,8586.388927
2578.367969,2911.162892,518.144159,8512.368333
2578.368299,2757.943793,-148.041188,8882.471304
2578.368628,2987.772442,-370.102971,9548.656652
2578.368958,2221.676944,-740.205942,9104.533087
2578.369287,766.095498,-962.267725,9918.759623
2578.369616,1838.629195,-2368.659014,9918.759623
2578.369946,2604.724693,-74.020594,9548.656652
2578.370275,2374.896044,-222.061783,9474.636058
2578.370605,3140.991542,-1332.370696,9622.677246
2578.370934,3217.601092,-148.041188,9178.553681
2578.371263,4749.792088,592.164754,9326.594869
2578.371593,5439.278036,592.164754,7550.100608
2578.371922,4443.353888,1702.473667,8808.450710
2578.372252,4903.011187,1110.308913,8956.491898
2578.372581,4673.182538,1036.288319,7254.018232
2578.372910,4213.525239,444.123565,9178.553681
2578.373240,2911.162892,148.041188,8734.430116
2578.373569,2451.505594,296.082377,9474.636058
2578.373899,1225.752797,-1110.308913,9770.718434
2578.374228,1685.410096,-1110.308913,9548.656652
2578.374557,1225.752797,-962.267725,9844.739029
2578.374887,689.485948,-1184.329507,9548.656652
2578.375216,1685.410096,-444.123565,9622.677246
2578.375546,2451.505594,-0.000000,9844.739029
2578.375875,2757.943793,222.061783,7550.100608
2578.376204,4213.525239,370.102971,9696.697840
2578.376534,5132.839837,1110.308913,7772.162391
2578.376863,4673.182538,740.205942,7772.162391
2578.377193,4443.353888,1036.288319,8660.409521
2578.377522,4136.915689,-0.000000,8882.471304
2578.377851,3140.991542,-148.041188,8956.491898
2578.378181,2681.334243,-1776.494261,9474.636058
2578.378510,2451.505594,-1628.453072,9696.697840
2578.378840,1915.238745,-2368.659014,10066.800811
2578.379169,2068.457845,-2072.576638,9696.697840
2578.379498,2221.676944,-1702.473667,10140.821405
2578.379828,2911.162892,-296.082377,9548.656652
2578.380157,3294.210641,370.102971,9030.512492
2578.380487,4749.792088,1110.308913,8586.388927
2578.380816,4290.134789,1776.494261,8216.285956
2578.381145,5056.230287,2220.617826,7624.121203
2578.381475,4366.744339,2590.720797,6957.935855
2578.381804,4213.525239,2146.597232,8068.244768
2578.382134,3907.087040,1628.453072,7698.141797
2578.382463,2911.162892,-0.000000,8216.285956
2578.382792,2451.505594,-1332.370696,9696.697840
2578.383122,1838.629195,-2812.782580,10436.903782
2578.383451,1455.581446,-2664.741391,10881.027347
2578.383781,1991.848295,-3182.885551,11177.109724
2578.384110,2604.724693,-2442.679609,10807.006753
2578.384439,3677.258390,-1036.288319,10214.842000
2578.384769,5056.230287,296.082377,9474.636058
2578.385098,6128.763984,1110.308913,8216.285956
2578.385428,6358.592633,2146.597232,8364.327145
2578.385757,5132.839837,2738.761985,7476.080014
2578.386086,4979.620737,3404.947333,6957.935855
2578.386416,4443.353888,3849.070898,6661.853478
2578.386745,3907.087040,2072.576638,7105.977043
2578.387075,2145.067394,222.061783,8068.244768
2578.387404,612.876398,-2886.803174,10362.883188
2578.387733,-229.828649,-4219.173869,10214.842000
2578.388063,-612.876398,-5033.400406,11917.315666
2578.388392,-919.314598,-4071.132681,10584.944971
2578.388722,-306.438199,-1628.453072,11177.109724
2578.389051,459.657299,-1258.350101,10807.006753
2578.389380,1149.143247,296.082377,10288.862594
2578.389710,4290.134789,296.082377,10584.944971
2578.390039,6894.859482,1702.473667,7920.203579
2578.390369,8197.221829,1332.370696,8512.368333
2578.390698,5592.497135,740.205942,7402.059420
2578.391027,5822.325785,1850.514855,7105.977043
2578.391357,5745.716235,2738.761985,7328.038826
2578.391686,5362.668486,2146.597232,5921.647536
2578.392016,4673.182538,2886.803174,6587.832884
2578.392345,3907.087040,2442.679609,6143.709319
2578.392674,4060.306139,-814.226536,7402.059420
2578.393004,306.438199,-4367.215058,10881.027347
2578.393333,-459.657299,-7550.100608,12731.542202
2578.393663,-2145.067394,-2812.782580,11547.212695
2578.393992,-1378.971896,-7328.038826,14211.954086
2578.394322,-2451.505594,-1628.453072,9548.656652
2578.394651,459.657299,296.082377,12213.398043
2578.394980,2145.067394,1628.453072,10584.944971
2578.395310,3830.477490,2738.761985,8956.491898
2578.395639,6588.421283,1998.556043,8438.347739
2578.395969,7354.516781,2812.782580,7772.162391
2578.396298,5822.325785,3034.844362,7254.018232
2578.396627,5209.449386,1998.556043,4811.338623
2578.396957,5132.839837,2886.803174,5403.503377
2578.397286,5209.449386,2294.638420,5329.482782
2578.397616,4596.572988,2368.659014,5107.421000
2578.397945,1532.190996,-1258.350101,8364.327145
2578.398274,-3140.991542,-6143.709319,10881.027347
2578.398604,-3064.381992,-3404.947333,11917.315666
2578.398933,-3217.601092,-5181.441594,11621.233289
2578.399263,-5209.449386,-2886.803174,10510.924376
2578.399592,-5132.839837,-962.267725,12731.542202
2578.399921,-3753.867940,-1184.329507,12583.501014
2578.400251,-2145.067394,444.123565,12139.377449
2578.400580,306.438199,1036.288319,9030.512492
2578.400910,1762.019645,1258.350101,7550.100608
2578.401239,76.609550,888.247130,11029.068536
2578.401568,3907.087040,-0.000000,8290.306550
2578.401898,4673.182538,2960.823768,3552.988522
2578.402227,6894.859482,1480.411884,6069.688724
2578.402557,5056.230287,2146.597232,3034.844362
2578.402886,4596.572988,-0.000000,8734.430116
2578.403215,-306.438199,-666.185348,7105.977043
2578.403545,-536.266849,-2368.659014,9474.636058
2578.403874,-1302.362347,-3997.112087,13989.892304
2578.404204,-2451.505594,370.102971,8216.285956
2578.404533,-1838.629195,-1924.535449,12953.603985
2578.404862,-2374.896044,-814.226536,10436.903782
2578.405192,0.000000,296.082377,10807.006753
2578.405521,-995.924147,-666.185348,11325.150913
2578.405851,0.000000,2442.679609,9178.553681
2578.406180,-153.219100,518.144159,10955.047942
2578.406509,0.000000,-814.226536,10140.821405
2578.406839,536.266849,444.123565,9178.553681
2578.407168,1838.629195,-518.144159,7846.182985
2578.407498,2987.772442,518.144159,5329.482782
2578.407827,2145.067394,666.185348,6217.729913
2578.408156,766.095498,2072.576638,5329.482782
2578.408486,-306.438199,222.061783,8364.327145
2578.408815,-1991.848295,-3182.885551,9696.697840
2578.409144,-1225.752797,-1776.494261,10066.800811
2578.409473,-1685.410096,-740.205942,9474.636058
2578.409803,-2528.115143,-1554.432478,9400.615463
2578.410132,-2604.724693,-1332.370696,10955.047942
2578.410461,-1378.971896,518.144159,11399.171507
2578.410791,-612.876398,666.185348,9548.656652
2578.411120,0.000000,444.123565,8512.368333
2578.411449,-153.219100,-296.082377,9918.759623
2578.411779,-842.705048,-518.144159,10362.883188
2578.412108,-1532.190996,-814.226536,9474.636058
2578.412437,229.828649,-296.082377,7624.121203
2578.412766,1149.143247,-592.164754,6883.915261
2578.413096,536.266849,814.226536,6809.894666
2578.413425,1302.362347,-222.061783,7994.224174
2578.413754,383.047749,-1480.411884,9030.512492
2578.414084,1072.533697,-1406.391290,9474.636058
2578.414413,842.705048,-666.185348,9178.553681
2578.414742,0.000000,-74.020594,9918.759623
2578.415072,153.219100,-74.020594,10510.924376
2578.415401,995.924147,444.123565,9918.759623
2578.415730,3524.039291,222.061783,9696.697840
2578.416059,2757.943793,666.185348,8808.450710
2578.416389,2987.772442,1258.350101,8068.244768
2578.416718,2374.896044,1776.494261,7994.224174
2578.417047,1378.971896,1110.308913,8142.265362
2578.417377,459.657299,740.205942,8586.388927
2578.417706,-383.047749,-666.185348,9622.677246
2578.418035,-766.095498,-2294.638420,10288.862594
2578.418365,-306.438199,-2294.638420,9400.615463
2578.418694,0.000000,-2368.659014,9104.533087
2578.419023,-766.095498,-2442.679609,10214.842000
2578.419352,0.000000,-962.267725,10214.842000
2578.419682,0.000000,148.041188,10140.821405
2578.420011,383.047749,-222.061783,9844.739029
2578.420340,1378.971896,-0.000000,10436.903782
2578.420670,1915.238745,888.247130,9252.574275
2578.420999,2681.334243,1850.514855,6809.894666
2578.421328,3217.601092,2220.617826,7031.956449
2578.421658,3140.991542,3182.885551,6661.853478
2578.421987,2911.162892,1480.411884,8142.265362
2578.422316,612.876398,-0.000000,8734.430116
2578.422646,0.000000,-1184.329507,9770.718434
2578.422975,-1149.143247,-2442.679609,10584.944971
2578.423304,-1302.362347,-1924.535449,8734.430116
2578.423633,-995.924147,-1258.350101,9474.636058
2578.423963,-459.657299,-962.267725,9918.759623
2578.424292,0.000000,-1036.288319,9696.697840
2578.424621,-766.095498,-444.123565,10288.862594
2578.424951,-383.047749,-74.020594,9400.615463
2578.425280,-1072.533697,-222.061783,9696.697840
2578.425609,-1378.971896,370.102971,10140.821405
2578.425939,-1302.362347,1850.514855,8586.388927
2578.426268,-842.705048,1480.411884,8290.306550
2578.426597,76.609550,740.205942,7254.018232
2578.426926,306.438199,-148.041188,8438.347739
2578.427256,-383.047749,-370.102971,8660.409521
2578.427585,-306.438199,-1406.391290,8956.491898
2578.427914,-612.876398,-1702.473667,9252.574275
2578.428244,-919.314598,-1036.288319,9474.636058
2578.428573,0.000000,-0.000000,8882.471304
2578.428902,153.219100,-592.164754,8660.409521
2578.429232,153.219100,-444.123565,9992.780217
2578.429561,459.657299,-370.102971,10214.842000
2578.429890,76.609550,370.102971,8808.450710
2578.430219,383.047749,1036.288319,8660.409521
2578.430549,306.438199,2294.638420,8586.388927
2578.430878,-689.485948,1628.453072,9030.512492
2578.431207,-1072.533697,296.082377,9400.615463
2578.431537,76.609550,-740.205942,9178.553681
2578.431866,-306.438199,-1332.370696,8660.409521
2578.432195,-383.047749,-1036.288319,8808.450710
2578.432525,-689.485948,-1628.453072,8808.450710
2578.432854,-306.438199,-592.164754,9400.615463
2578.433183,842.705048,-962.267725,9178.553681
2578.433512,689.485948,-518.144159,9252.574275
2578.433842,306.438199,-740.205942,9548.656652
2578.434171,689.485948,-222.061783,9770.718434
2578.434500,919.314598,-0.000000,8734.430116
2578.434830,1608.800546,1406.391290,8660.409521
2578.435159,1532.190996,2072.576638,7846.182985
2578.435488,1149.143247,1998.556043,8290.306550
2578.435818,383.047749,814.226536,9548.656652
2578.436147,612.876398,-74.020594,8734.430116
2578.436476,536.266849,-1332.370696,9030.512492
2578.436806,-995.924147,-888.247130,9252.574275
2578.437135,306.438199,-1480.411884,8956.491898
2578.437464,306.438199,-1036.288319,8882.471304
2578.437793,612.876398,-814.226536,9548.656652
2578.438123,2374.896044,-2146.597232,10436.903782
2578.438452,2451.505594,-222.061783,8808.450710
2578.438781,2068.457845,592.164754,7624.121203
2578.439111,3294.210641,1036.288319,8364.327145
2578.439440,2374.896044,1332.370696,8512.368333
2578.439769,2145.067394,2146.597232,8734.430116
2578.440099,1685.410096,444.123565,9326.594869
2578.440428,383.047749,-148.041188,9326.594869
2578.440757,383.047749,-962.267725,9770.718434
2578.441086,0.000000,-1332.370696,9696.697840
2578.441416,-766.095498,-1628.453072,9474.636058
2578.441745,76.609550,-592.164754,9474.636058
2578.442074,842.705048,-888.247130,9104.533087
2578.442404,1225.752797,-814.226536,8438.347739
2578.442733,1685.410096,-592.164754,8808.450710
2578.443062,1302.362347,-0.000000,7994.224174
2578.443392,1685.410096,518.144159,7920.203579
2578.443721,1608.800546,1258.350101,8142.265362
2578.444050,689.485948,1406.391290,8438.347739
2578.444379,0.000000,592.164754,9400.615463
2578.444709,-689.485948,-296.082377,9474.636058
2578.445038,-1378.971896,-666.185348,9918.759623
2578.445367,-1838.629195,-1480.411884,9474.636058
2578.445697,-1378.971896,-666.185348,9918.759623
2578.446026,-1378.971896,-666.185348,10066.800811
2578.446355,-536.266849,-592.164754,9178.553681
2578.446685,76.609550,-962.267725,9030.512492
2578.447014,76.609550,-1258.350101,9030.512492
2578.447343,-536.266849,-888.247130,8882.471304
2578.447672,229.828649,-1480.411884,9474.636058
2578.448002,76.609550,-0.000000,8512.368333
2578.448331,536.266849,666.185348,9178.553681
2578.448660,0.000000,740.205942,7994.224174
2578.448990,-153.219100,222.061783,9030.512492
2578.449319,-459.657299,-0.000000,9326.594869
2578.449648,-842.705048,-0.000000,8660.409521
2578.449978,-689.485948,-1036.288319,9474.636058
2578.450307,-995.924147,-222.061783,9400.615463
2578.450636,-766.095498,222.061783,9696.697840
2578.450966,-306.438199,-222.061783,9474.636058
2578.451295,306.438199,-814.226536,8956.491898
2578.451624,0.000000,-518.144159,9252.574275
2578.451953,0.000000,-296.082377,9474.636058
2578.452283,-229.828649,-0.000000,9030.512492
2578.452612,-306.438199,-148.041188,9178.553681
2578.452941,76.609550,592.164754,8956.491898
2578.453271,-459.657299,592.164754,8290.306550
2578.453600,-383.047749,-74.020594,9474.636058
2578.453929,0.000000,-666.185348,9326.594869
2578.454259,76.609550,-444.123565,9474.636058
2578.454588,-612.876398,-962.267725,8660.409521
2578.454917,306.438199,-74.020594,9474.636058
2578.455246,612.876398,-296.082377,9474.636058
2578.455576,1149.143247,-0.000000,9400.615463
2578.455905,2145.067394,-814.226536,9252.574275
2578.456234,1838.629195,-0.000000,8438.347739
2578.456564,2068.457845,370.102971,8364.327145
2578.456893,1915.238745,666.185348,8734.430116
2578.457222,1225.752797,370.102971,9178.553681
2578.457552,1302.362347,370.102971,9104.533087
2578.457881,919.314598,-370.102971,9252.574275
2578.458210,383.047749,-592.164754,9696.697840
2578.458539,383.047749,-1036.288319,9326.594869
2578.458869,153.219100,-1110.308913,9548.656652
2578.459198,306.438199,-888.247130,10214.842000
2578.459527,842.705048,-0.000000,9918.759623
2578.459857,2221.676944,-296.082377,9474.636058
2578.460186,2221.676944,-0.000000,9178.553681
2578.460515,2451.505594,370.102971,8956.491898
2578.460845,2528.115143,592.164754,8438.347739
2578.461174,2298.286494,1036.288319,8142.265362
2578.461503,1915.238745,1036.288319,8586.388927
2578.461833,689.485948,1258.350101,8734.430116
2578.462162,536.266849,-74.020594,8734.430116
2578.462491,-459.657299,-1332.370696,9992.780217
2578.462820,-229.828649,-1702.473667,9770.718434
2578.463150,-919.314598,-1628.453072,9548.656652
2578.463479,-1149.143247,-1332.370696,9844.739029
2578.463808,-842.705048,-518.144159,9622.677246
2578.464138,383.047749,148.041188,8882.471304
2578.464467,2068.457845,-296.082377,8364.327145
2578.464796,2068.457845,-666.185348,8290.306550
2578.465126,1915.238745,296.082377,7550.100608
2578.465455,2374.896044,518.144159,7254.018232
2578.465784,1915.238745,1110.308913,7254.018232
2578.466113,1225.752797,1036.288319,8364.327145
2578.466443,-153.219100,444.123565,8586.388927
2578.466772,-383.047749,-592.164754,9400.615463
2578.467101,-995.924147,-1628.453072,9844.739029
2578.467431,-1302.362347,-1406.391290,9400.615463
2578.467760,-1838.629195,-1110.308913,9474.636058
2578.468089,-1685.410096,-888.247130,9992.780217
2578.468419,-1532.190996,-222.061783,9696.697840
2578.468748,0.000000,-74.020594,9030.512492
2578.469077,76.609550,-222.061783,9178.553681
2578.469406,-229.828649,-370.102971,9326.594869
2578.469736,-766.095498,-592.164754,9548.656652
2578.470065,-536.266849,-222.061783,8882.471304
2578.470394,-306.438199,370.102971,8660.409521
2578.470724,76.609550,370.102971,8586.388927
2578.471053,0.000000,444.123565,8808.450710
2578.471382,-459.657299,-222.061783,9252.574275
2578.471712,-306.438199,-592.164754,9104.533087
2578.472041,-612.876398,-666.185348,9030.512492
2578.472370,-919.314598,-962.267725,9622.677246
2578.472699,-766.095498,-296.082377,9474.636058
2578.473029,-766.095498,-222.061783,9696.697840
2578.473358,1378.971896,-518.144159,9326.594869
2578.473687,1608.800546,-444.123565,9178.553681
2578.474017,1072.533697,370.102971,8438.347739
2578.474346,1378.971896,814.226536,8068.244768
2578.474675,995.924147,814.226536,8660.409521
2578.475005,459.657299,962.267725,8956.491898
2578.475334,-229.828649,666.185348,8734.430116
2578.475663,-995.924147,222.061783,9918.759623
2578.475993,-1072.533697,-1258.350101,9622.677246
2578.476322,-1225.752797,-814.226536,9548.656652
2578.476651,-1149.143247,-740.205942,9400.615463
2578.476980,-612.876398,-740.205942,9844.739029
2578.477310,0.000000,518.144159,9696.697840
2578.477639,1225.752797,-74.020594,9474.636058
2578.477968,1532.190996,666.185348,9622.677246
2578.478298,2298.286494,-0.000000,8956.491898
2578.478627,2374.896044,444.123565,7402.059420
2578.478956,2374.896044,1184.329507,7846.182985
2578.479286,1991.848295,1258.350101,7846.182985
2578.479615,1378.971896,1702.473667,8438.347739
2578.479944,1149.143247,222.061783,9178.553681
2578.480273,229.828649,-888.247130,9622.677246
2578.480603,-842.705048,-888.247130,9104.533087
2578.480932,-1225.752797,-1924.535449,10436.903782
2578.481261,-995.924147,-1554.432478,9770.718434
2578.481591,-306.438199,-666.185348,9622.677246
2578.481920,76.609550,-518.144159,9622.677246
2578.482249,1225.752797,-592.164754,9844.739029
2578.482579,2068.457845,-148.041188,9548.656652
2578.482908,3140.991542,296.082377,7772.162391
2578.483237,2987.772442,1184.329507,7772.162391
2578.483566,2451.505594,1110.308913,7772.162391
2578.483896,2451.505594,1850.514855,7920.203579
2578.484225,1532.190996,1406.391290,8586.388927
2578.484554,383.047749,-370.102971,9178.553681
2578.484884,0.000000,-1110.308913,9696.697840
2578.485213,-612.876398,-1924.535449,9770.718434
2578.485542,-1149.143247,-1850.514855,9918.759623
2578.485872,-1149.143247,-1036.288319,9844.739029
2578.486201,-689.485948,-296.082377,9548.656652
2578.486530,306.438199,-0.000000,8956.491898
2578.486859,1149.143247,-518.144159,9474.636058
2578.487189,995.924147,-518.144159,8512.368333
2578.487518,1991.848295,-74.020594,7402.059420
2578.487847,1455.581446,1258.350101,7179.997637
2578.488177,1072.533697,1332.370696,7846.182985
2578.488506,0.000000,1480.411884,8142.265362
2578.488835,-689.485948,370.102971,8956.491898
2578.489165,-919.314598,-1036.288319,9992.780217
2578.489494,-995.924147,-1554.432478,9622.677246
2578.489823,-1685.410096,-1110.308913,9622.677246
2578.490153,-1991.848295,-1036.288319,10066.800811
2578.490482,-1608.800546,-592.164754,9622.677246
2578.490811,-612.876398,296.082377,9696.697840
2578.491140,0.000000,-222.061783,9400.615463
2578.491470,689.485948,-592.164754,9622.677246
2578.491799,995.924147,-370.102971,9326.594869
2578.492128,766.095498,592.164754,7772.162391
2578.492458,1455.581446,1184.329507,8438.347739
2578.492787,383.047749,1480.411884,8808.450710
2578.493116,766.095498,592.164754,9104.533087
2578.493446,-383.047749,592.164754,9178.553681
2578.493775,-919.314598,-1036.288319,9622.677246
2578.494104,-1072.533697,-1998.556043,9918.759623
2578.494433,-1225.752797,-1332.370696,10066.800811
2578.494763,-1302.362347,-1554.432478,9696.697840
2578.495092,-919.314598,-0.000000,9622.677246
2578.495421,0.000000,-814.226536,9104.533087
2578.495751,229.828649,-74.020594,9178.553681
2578.496080,766.095498,-1036.288319,9844.739029
2578.496409,919.314598,-222.061783,7476.080014
2578.496739,1302.362347,-0.000000,8290.306550
2578.497068,766.095498,1110.308913,8512.368333
2578.497397,612.876398,1332.370696,8068.244768
2578.497726,0.000000,518.144159,8956.491898
2578.498056,-536.266849,-740.205942,9030.512492
2578.498385,-383.047749,-1110.308913,9030.512492
2578.498714,-612.876398,-1554.432478,9326.594869
2578.499044,-842.705048,-1554.432478,9918.759623
2578.499373,-612.876398,-1110.308913,9992.780217
2578.499702,536.266849,-222.061783,9178.553681
2578.500032,1532.190996,-444.123565,8956.491898
2578.500361,2221.676944,-74.020594,8512.368333
2578.500690,2987.772442,962.267725,8068.244768
2578.501019,2911.162892,592.164754,7476.080014
2578.501349,2604.724693,814.226536,8068.244768
2578.501678,1838.629195,1258.350101,8364.327145
2578.502007,1532.190996,888.247130,8512.368333
2578.502337,536.266849,-444.123565,9030.512492
2578.502666,76.609550,-1332.370696,9992.780217
2578.502995,-536.266849,-1702.473667,10140.821405
2578.503325,-536.266849,-1702.473667,9992.780217
2578.503654,-306.438199,-1702.473667,10362.883188
2578.503983,229.828649,-592.164754,9770.718434
2578.504313,1302.362347,-0.000000,9326.594869
2578.504642,2298.286494,-370.102971,9178.553681
2578.504971,2681.334243,-74.020594,8290.306550
2578.505300,3064.381992,962.267725,8068.244768
2578.505630,2451.505594,1184.329507,7624.121203
2578.505959,2834.553343,1258.350101,8364.327145
2578.506288,1149.143247,1258.350101,9178.553681
2578.506618,153.219100,740.205942,9104.533087
2578.506947,-306.438199,-1110.308913,10140.821405
2578.507276,-995.924147,-1258.350101,10140.821405
2578.507606,-1072.533697,-1554.432478,9474.636058
2578.507935,-689.485948,-1184.329507,10066.800811
2578.508264,-995.924147,-1110.308913,9104.533087
2578.508593,229.828649,-666.185348,9770.718434
2578.508923,459.657299,-222.061783,9252.574275
2578.509252,76.609550,-1036.288319,9178.553681
2578.509581,306.438199,-888.247130,9474.636058
2578.509910,766.095498,-296.082377,8512.368333
2578.510239,1225.752797,592.164754,8512.368333
2578.510569,1455.581446,1924.535449,7402.059420
2578.510898,1302.362347,1554.432478,8142.265362
2578.511227,995.924147,814.226536,8586.388927
2578.511556,689.485948,-222.061783,8734.430116
2578.511885,0.000000,-0.000000,8734.430116
2578.512214,-1302.362347,-1184.329507,9696.697840
2578.512543,-1762.019645,-444.123565,10288.862594
2578.512872,-995.924147,-444.123565,10214.842000
2578.513201,153.219100,-444.123565,9474.636058
2578.513530,0.000000,-1110.308913,9104.533087
2578.513859,-229.828649,-1036.288319,9844.739029
2578.514188,-612.876398,-740.205942,9474.636058
2578.514517,-689.485948,-888.247130,8882.471304
2578.514846,-612.876398,-518.144159,9696.697840
2578.515175,-1685.410096,888.247130,8734.430116
2578.515504,-612.876398,-0.000000,8882.471304
2578.515833,-919.314598,-222.061783,9030.512492
2578.516163,-383.047749,-148.041188,8808.450710
2578.516492,-383.047749,-592.164754,8956.491898
2578.516821,-612.876398,-1036.288319,8438.347739
2578.517150,-306.438199,-740.205942,9326.594869
2578.517479,306.438199,-0.000000,9178.553681
2578.517808,1072.533697,-0.000000,9548.656652
2578.518137,1608.800546,-518.144159,8216.285956
2578.518466,1762.019645,592.164754,8364.327145
2578.518795,1149.143247,1036.288319,8660.409521
2578.519124,1608.800546,-0.000000,8586.388927
2578.519453,1608.800546,1258.350101,8290.306550
2578.519782,383.047749,518.144159,8882.471304
2578.520111,612.876398,-296.082377,9252.574275
2578.520440,-766.095498,-888.247130,9992.780217
2578.520769,-1302.362347,-1110.308913,9326.594869
2578.521098,-995.924147,-1480.411884,9474.636058
2578.521427,-842.705048,-1110.308913,9400.615463
2578.521757,-306.438199,-518.144159,9696.697840
2578.522086,1532.190996,-740.205942,9474.636058
2578.522415,1378.971896,-592.164754,8586.388927
2578.522744,2528.115143,-0.000000,8290.306550
2578.523073,2221.676944,962.267725,8142.265362
2578.523402,2145.067394,1406.391290,7920.203579
2578.523731,2374.896044,888.247130,8142.265362
2578.524060,1608.800546,1110.308913,8660.409521
2578.524389,612.876398,-0.000000,8956.491898
2578.524718,-306.438199,-1406.391290,9770.718434
2578.525047,-766.095498,-1628.453072,10362.883188
2578.525376,-1378.971896,-1924.535449,9992.780217
2578.525705,-1302.362347,-1850.514855,9622.677246
2578.526034,-383.047749,-1480.411884,10436.903782
2578.526363,1225.752797,-888.247130,9696.697840
2578.526692,2451.505594,-370.102971,8586.388927
2578.527021,2834.553343,-518.144159,9030.512492
2578.527351,3064.381992,666.185348,7994.224174
2578.527680,3140.991542,1702.473667,7698.141797
2578.528009,2451.505594,2072.576638,7846.182985
2578.528338,2068.457845,1924.535449,8586.388927
2578.528667,1455.581446,1258.350101,8808.450710
2578.528996,536.266849,-518.144159,9104.533087
2578.529325,-766.095498,-1110.308913,9918.759623
2578.529654,-1225.752797,-1702.473667,10214.842000
2578.529983,-1532.190996,-1258.350101,9844.739029
2578.530312,-1608.800546,-962.267725,9770.718434
2578.530641,-383.047749,-518.144159,10066.800811
2578.530970,229.828649,-222.061783,9030.512492
2578.531299,766.095498,-1184.329507,9252.574275
2578.531628,995.924147,-666.185348,8956.491898
2578.531957,1149.143247,-222.061783,8068.244768
2578.532286,1149.143247,592.164754,7994.224174
2578.532615,689.485948,962.267725,7846.182985
2578.532945,612.876398,1332.370696,8068.244768
2578.533274,-383.047749,296.082377,8660.409521
2578.533603,-1149.143247,-518.144159,9326.594869
2578.533932,-995.924147,-1184.329507,9696.697840
2578.534261,-1225.752797,-1110.308913,9548.656652
2578.534590,-1762.019645,-1332.370696,9622.677246
2578.534919,-1378.971896,-370.102971,9696.697840
2578.535248,-306.438199,-74.020594,9104.533087
2578.535577,0.000000,-74.020594,8882.471304
2578.535906,0.000000,-666.185348,9400.615463
2578.536235,76.609550,-962.267725,10140.821405
2578.536564,0.000000,-666.185348,8512.368333
2578.536893,306.438199,518.144159,8808.450710
2578.537222,766.095498,740.205942,8068.244768
2578.537551,229.828649,1480.411884,7772.162391
2578.537880,0.000000,592.164754,9844.739029
2578.538209,0.000000,-518.144159,9400.615463
2578.538539,-229.828649,-370.102971,9696.697840
2578.538868,-919.314598,-1184.329507,9844.739029
2578.539197,-306.438199,-1110.308913,9474.636058
2578.539526,-919.314598,-74.020594,9622.677246
2578.539855,0.000000,-222.061783,9178.553681
2578.540184,995.924147,-740.205942,9474.636058
2578.540513,919.314598,-444.123565,9474.636058
2578.540842,1225.752797,222.061783,8068.244768
2578.541171,0.000000,296.082377,8438.347739
2578.541500,842.705048,888.247130,8364.327145
2578.541829,383.047749,1554.432478,8364.327145
2578.542158,-229.828649,592.164754,8734.430116
2578.542487,-766.095498,-296.082377,9400.615463
2578.542816,-842.705048,-888.247130,9252.574275
2578.543145,-842.705048,-1480.411884,9474.636058
2578.543474,-1532.190996,-1406.391290,9474.636058
2578.543803,0.000000,-740.205942,9474.636058
2578.544133,76.609550,-0.000000,9400.615463
2578.544462,536.266849,-296.082377,9326.594869
2578.544791,536.266849,-592.164754,9918.759623
2578.545120,1455.581446,-592.164754,9252.574275
2578.545449,1608.800546,370.102971,7994.224174
2578.545778,2298.286494,666.185348,8586.388927
2578.546107,2528.115143,1480.411884,8142.265362
2578.546436,2374.896044,1776.494261,7698.141797
2578.546765,1685.410096,370.102971,8586.388927
2578.547094,919.314598,-74.020594,8660.409521
2578.547423,536.266849,-666.185348,9770.718434
2578.547752,-612.876398,-1554.432478,9400.615463
2578.548081,383.047749,-1258.350101,10288.862594
2578.548410,-153.219100,-1776.494261,10362.883188
2578.548739,536.266849,-518.144159,9400.615463
2578.549068,1072.533697,-1184.329507,9474.636058
2578.549397,1072.533697,-0.000000,9252.574275
2578.549727,995.924147,-0.000000,8512.368333
2578.550056,1378.971896,-0.000000,8956.491898
2578.550385,1378.971896,1184.329507,8068.244768
2578.550714,995.924147,2442.679609,8734.430116
2578.551043,-459.657299,888.247130,9030.512492
2578.551372,-306.438199,-222.061783,9622.677246
2578.551701,0.000000,-518.144159,9400.615463
2578.552030,-766.095498,-1258.350101,9326.594869
2578.552359,-1378.971896,-1406.391290,9696.697840
2578.552688,-229.828649,-962.267725,9622.677246
2578.553017,-383.047749,-296.082377,9178.553681
2578.553346,536.266849,-518.144159,8808.450710
2578.553675,1378.971896,-1110.308913,9326.594869
2578.554004,1532.190996,-222.061783,8142.265362
2578.554333,1762.019645,814.226536,7846.182985
2578.554662,1915.238745,518.144159,7624.121203
2578.554991,1532.190996,1628.453072,7846.182985
2578.555321,1225.752797,962.267725,8734.430116
2578.555650,229.828649,-0.000000,8882.471304
2578.555979,-306.438199,-888.247130,9548.656652
2578.556308,-842.705048,-962.267725,9622.677246
2578.556637,-919.314598,-1036.288319,9400.615463
2578.556966,-842.705048,-888.247130,9696.697840
2578.557295,-919.314598,-592.164754,9992.780217
2578.557624,229.828649,-666.185348,9030.512492
2578.557953,536.266849,-1036.288319,9770.718434
2578.558282,995.924147,-814.226536,9030.512492
2578.558611,919.314598,-74.020594,8142.265362
2578.558940,842.705048,296.082377,7846.182985
2578.559269,919.314598,1036.288319,8068.244768
2578.559598,459.657299,1110.308913,8512.368333
2578.559927,-536.266849,888.247130,9178.553681
2578.560256,-306.438199,-518.144159,9622.677246
2578.560585,-689.485948,-666.185348,9918.759623
2578.560915,-1225.752797,-1332.370696,9030.512492
2578.561244,-1608.800546,-1628.453072,10288.862594
2578.561573,-1532.190996,-1110.308913,9992.780217
2578.561902,-536.266849,-592.164754,9178.553681
2578.562231,919.314598,-148.041188,8882.471304
2578.562560,0.000000,-444.123565,9400.615463
2578.562889,-306.438199,-962.267725,9400.615463
2578.563218,0.000000,-222.061783,9992.780217
2578.563547,229.828649,-0.000000,8216.285956
2578.563876,612.876398,962.267725,8512.368333
2578.564205,919.314598,1480.411884,7920.203579
2578.564534,383.047749,1110.308913,8438.347739
2578.564863,383.047749,148.041188,9178.553681
2578.565192,229.828649,-444.123565,9178.553681
2578.565521,0.000000,-740.205942,9326.594869
2578.565850,-229.828649,-444.123565,9474.636058
2578.566179,-536.266849,-444.123565,9178.553681
2578.566509,842.705048,-444.123565,9326.594869
2578.566838,1991.848295,-370.102971,9104.533087
2578.567167,1685.410096,-518.144159,9030.512492
2578.567496,1455.581446,-0.000000,8068.244768
2578.567825,842.705048,370.102971,8142.265362
2578.568154,536.266849,222.061783,8734.430116
2578.568483,153.219100,1258.350101,8512.368333
2578.568812,0.000000,-0.000000,9326.594869
2578.569141,-842.705048,-888.247130,10140.821405
2578.569470,-842.705048,-962.267725,9992.780217
2578.569799,-766.095498,-1332.370696,9696.697840
2578.570128,-1072.533697,-1110.308913,9770.718434
2578.570457,-536.266849,-1036.288319,9622.677246
2578.570786,153.219100,-666.185348,9622.677246
2578.571115,1378.971896,-518.144159,9548.656652
2578.571444,2451.505594,-666.185348,8734.430116
2578.571773,3140.991542,296.082377,8290.306550
2578.572103,3064.381992,814.226536,7846.182985
2578.572432,3217.601092,1332.370696,7328.038826
2578.572761,2987.772442,2072.576638,7920.203579
2578.573090,2834.553343,1480.411884,8142.265362
2578.573419,1532.190996,888.247130,8808.450710
2578.573748,459.657299,-370.102971,9474.636058
2578.574077,0.000000,-814.226536,9400.615463
2578.574406,-1455.581446,-1406.391290,9992.780217
2578.574735,-995.924147,-1110.308913,9992.780217
2578.575064,-689.485948,-814.226536,9918.759623
2578.575393,229.828649,-370.102971,9770.718434
2578.575722,766.095498,-888.247130,9326.594869
2578.576051,1378.971896,-666.185348,9326.594869
2578.576380,1532.190996,222.061783,8068.244768
2578.576709,2221.676944,444.123565,7846.182985
2578.577038,1991.848295,740.205942,7846.182985
2578.577367,1455.581446,1554.432478,7698.141797
2578.577697,383.047749,888.247130,8512.368333
2578.578026,153.219100,-74.020594,8808.450710
2578.578355,-612.876398,-666.185348,9400.615463
2578.578684,-612.876398,-1480.411884,9622.677246
2578.579013,-1149.143247,-1480.411884,9548.656652
2578.579342,-1532.190996,-1036.288319,10288.862594
2578.579671,-766.095498,-666.185348,9474.636058
2578.580000,76.609550,-888.247130,9326.594869
2578.580329,383.047749,-740.205942,9548.656652
2578.580658,766.095498,-666.185348,9030.512492
2578.580987,1455.581446,296.082377,8290.306550
2578.581316,1225.752797,740.205942,8512.368333
2578.581645,1455.581446,666.185348,8216.285956
2578.581974,689.485948,814.226536,8512.368333
2578.582303,0.000000,148.041188,8808.450710
2578.582632,0.000000,-518.144159,9400.615463
2578.582961,-536.266849,-1036.288319,9622.677246
2578.583291,-1532.190996,-1258.350101,9622.677246
2578.583620,-1149.143247,-814.226536,9770.718434
2578.583949,-459.657299,-518.144159,9474.636058
2578.584278,0.000000,-148.041188,8882.471304
2578.584607,459.657299,-370.102971,8808.450710
2578.584936,536.266849,-74.020594,8956.491898
2578.585265,459.657299,222.061783,8290.306550
2578.585594,1302.362347,666.185348,7624.121203
2578.585923,766.095498,888.247130,8512.368333
2578.586252,-306.438199,1110.308913,8660.409521
2578.586581,-995.924147,370.102971,8956.491898
2578.586910,-1378.971896,-740.205942,9400.615463
2578.587239,-1149.143247,-1184.329507,9548.656652
2578.587568,-1149.143247,-1406.391290,9178.553681
2578.587897,-766.095498,-1332.370696,9474.636058
2578.588226,-842.705048,-814.226536,9844.739029
2578.588555,-536.266849,-222.061783,9400.615463
2578.588885,459.657299,-0.000000,9030.512492
2578.589214,1072.533697,-444.123565,9474.636058
2578.589543,1455.581446,-0.000000,9178.553681
2578.589872,2451.505594,814.226536,8660.409521
2578.590201,1991.848295,1036.288319,7920.203579
2578.590530,1915.238745,1110.308913,8216.285956
2578.590859,1378.971896,740.205942,9178.553681
2578.591188,459.657299,296.082377,9104.533087
2578.591517,229.828649,-666.185348,9770.718434
2578.591846,0.000000,-1258.350101,9548.656652
2578.592175,-689.485948,-1332.370696,9844.739029
2578.592504,-459.657299,-1628.453072,9622.677246
2578.592833,76.609550,-814.226536,10362.883188
2578.593162,919.314598,-962.267725,9474.636058
2578.593491,1915.238745,-814.226536,9030.512492
2578.593820,2604.724693,296.082377,8364.327145
2578.594149,2528.115143,666.185348,8290.306550
2578.594479,2987.772442,1110.308913,7772.162391
2578.594808,2834.553343,1998.556043,8142.265362
2578.595137,1532.190996,1924.535449,8734.430116
2578.595466,612.876398,740.205942,9474.636058
2578.595795,-306.438199,-1110.308913,9992.780217
2578.596124,-689.485948,-1184.329507,9992.780217
2578.596453,-842.705048,-2072.576638,10066.800811
2578.596782,-1608.800546,-2146.597232,9696.697840
2578.597111,-689.485948,-1110.308913,9548.656652
2578.597440,0.000000,-666.185348,8734.430116
2578.597769,1455.581446,-666.185348,8808.450710
2578.598098,2068.457845,-444.123565,8216.285956
2578.598427,2451.505594,-0.000000,7402.059420
2578.598756,2604.724693,666.185348,7105.977043
2578.599085,1915.238745,1258.350101,7105.977043
2578.599414,1608.800546,740.205942,8364.327145
2578.599743,459.657299,814.226536,9178.553681
2578.600073,0.000000,-0.000000,8882.471304
2578.600402,-536.266849,-888.247130,9474.636058
2578.600731,-1149.143247,-1184.329507,9622.677246
2578.601060,-1378.971896,-592.164754,9696.697840
2578.601389,-1225.752797,-962.267725,9770.718434
2578.601718,-689.485948,-444.123565,9548.656652
2578.602047,0.000000,-74.020594,9030.512492
2578.602376,459.657299,-1110.308913,9474.636058
2578.602705,1149.143247,-1110.308913,8882.471304
2578.603034,1225.752797,-370.102971,7772.162391
2578.603363,1302.362347,740.205942,7920.203579
2578.603692,1149.143247,1480.411884,7994.224174
2578.604021,842.705048,1332.370696,8290.306550
2578.604350,0.000000,1110.308913,9030.512492
2578.604679,-306.438199,-74.020594,9770.718434
2578.605008,-1225.752797,-1110.308913,10214.842000
2578.605337,-2068.457845,-1184.329507,9992.780217
2578.605667,-1991.848295,-1628.453072,10584.944971
2578.605996,-1685.410096,-444.123565,9992.780217
2578.606325,-919.314598,-74.020594,9548.656652
2578.606654,383.047749,-444.123565,9178.553681
2578.606983,-229.828649,-518.144159,9178.553681
2578.607312,0.000000,-740.205942,9474.636058
2578.607641,306.438199,-222.061783,8364.327145
2578.607970,306.438199,296.082377,7772.162391
2578.608299,383.047749,888.247130,8512.368333
2578.608628,383.047749,1184.329507,8734.430116
2578.608957,-689.485948,222.061783,9326.594869
2578.609286,-153.219100,-0.000000,9548.656652
2578.609615,0.000000,-0.000000,9104.533087
2578.609944,-689.485948,-296.082377,9400.615463
2578.610273,-612.876398,-296.082377,9696.697840
2578.610602,0.000000,-0.000000,9770.718434
2578.610931,766.095498,-0.000000,9474.636058
2578.611261,1532.190996,-518.144159,8512.368333
2578.611590,2298.286494,-296.082377,8956.491898
2578.611919,1915.238745,740.205942,7624.121203
2578.612248,1532.190996,296.082377,7772.162391
2578.612577,1455.581446,444.123565,8290.306550
2578.612906,612.876398,1184.329507,8438.347739
2578.613235,459.657299,-0.000000,9030.512492
2578.613564,-459.657299,-518.144159,9770.718434
2578.613893,-689.485948,-1998.556043,9992.780217
2578.614222,-995.924147,-1776.494261,10214.842000
2578.614551,-766.095498,-1776.494261,10140.821405
2578.614880,-459.657299,-592.164754,10658.965565
2578.615209,229.828649,-0.000000,9622.677246
2578.615538,1532.190996,-0.000000,9474.636058
2578.615867,2298.286494,-0.000000,8660.409521
2578.616196,2834.553343,444.123565,8068.244768
2578.616525,2451.505594,1036.288319,7846.182985
2578.616854,2681.334243,1184.329507,6883.915261
2578.617183,2987.772442,1332.370696,7994.224174
2578.617512,1685.410096,666.185348,8734.430116
2578.617841,612.876398,-518.144159,8956.491898
2578.618170,-383.047749,-1184.329507,9696.697840
2578.618499,-919.314598,-1850.514855,9770.718434
2578.618828,-612.876398,-1850.514855,9992.780217
2578.619157,-689.485948,-1036.288319,9548.656652
2578.619486,76.609550,-444.123565,9696.697840
2578.619815,306.438199,-222.061783,9400.615463
2578.620144,1455.581446,-444.123565,9252.574275
2578.620473,1838.629195,-0.000000,8290.306550
2578.620802,2298.286494,740.205942,7994.224174
2578.621131,2298.286494,888.247130,7550.100608
2578.621460,2145.067394,1258.350101,8142.265362
2578.621789,1685.410096,1258.350101,8290.306550
2578.622118,229.828649,666.185348,8290.306550
2578.622447,-766.095498,-888.247130,9400.615463
2578.622776,-1072.533697,-1406.391290,10140.821405
2578.623105,-1302.362347,-1184.329507,9400.615463
2578.623434,-1915.238745,-1628.453072,9992.780217
2578.623763,-1762.019645,-962.267725,11251.130318
2578.624092,-1225.752797,-444.123565,9696.697840
2578.624421,-536.266849,-370.102971,9622.677246
2578.624750,-536.266849,-814.226536,9252.574275
2578.625079,-383.047749,-370.102971,9400.615463
2578.625408,0.000000,-592.164754,9326.594869
2578.625737,536.266849,-0.000000,9326.594869
2578.626066,1608.800546,1110.308913,8586.388927
2578.626395,1608.800546,666.185348,7698.141797
2578.626724,842.705048,888.247130,8586.388927
2578.627053,612.876398,-0.000000,10436.903782
2578.627382,0.000000,-592.164754,9326.594869
2578.627711,-459.657299,-1332.370696,9326.594869
2578.628040,-1149.143247,-370.102971,9178.553681
2578.628369,-995.924147,-592.164754,8290.306550
2578.628698,76.609550,-1036.288319,9696.697840
2578.629027,612.876398,-1036.288319,9474.636058
2578.629356,459.657299,-0.000000,9178.553681
2578.629685,612.876398,74.020594,8290.306550
2578.630014,76.609550,-0.000000,8142.265362
2578.630343,306.438199,1110.308913,8660.409521
2578.630672,306.438199,962.267725,8882.471304
2578.631001,-766.095498,518.144159,9030.512492
2578.631330,-1149.143247,-296.082377,9474.636058
2578.631659,-995.924147,-1110.308913,9696.697840
2578.631988,-1149.143247,-1332.370696,9474.636058
2578.632317,-1302.362347,-1702.473667,9548.656652
2578.632646,-459.657299,-1110.308913,9548.656652
2578.632975,536.266849,-0.000000,9696.697840
2578.633304,1302.362347,-0.000000,9030.512492
2578.633633,2298.286494,-0.000000,8512.368333
2578.633962,2374.896044,370.102971,8216.285956
2578.634291,2681.334243,1036.288319,7550.100608
2578.634620,2451.505594,1406.391290,7402.059420
2578.634949,1455.581446,1258.350101,8660.409521
2578.635278,2145.067394,370.102971,9178.553681
2578.635607,919.314598,-222.061783,9400.615463
2578.635936,-536.266849,-1036.288319,10140.821405
2578.636265,-919.314598,-1924.535449,10288.862594
2578.636594,-995.924147,-1776.494261,9992.780217
2578.636923,-995.924147,-1628.453072,10362.883188
2578.637252,0.000000,-1480.411884,10288.862594
2578.637581,1378.971896,-740.205942,9252.574275
2578.637910,2681.334243,-74.020594,9104.533087
2578.638239,3294.210641,370.102971,8438.347739
2578.638568,3447.429741,888.247130,7476.080014
2578.638897,3524.039291,1702.473667,7254.018232
2578.639226,3064.381992,2442.679609,7624.121203
2578.639555,2451.505594,2220.617826,7402.059420
2578.639884,383.047749,740.205942,9400.615463
2578.640213,0.000000,-1110.308913,10288.862594
2578.640542,-1149.143247,-1258.350101,9844.739029
2578.640871,-1915.238745,-2368.659014,10584.944971
2578.641200,-1991.848295,-2072.576638,9992.780217
2578.641529,-1991.848295,-1184.329507,10066.800811
2578.641858,-612.876398,-222.061783,9548.656652
2578.642187,536.266849,-296.082377,9178.553681
2578.642516,1149.143247,-740.205942,10140.821405
2578.642845,1608.800546,-0.000000,8290.306550
2578.643174,2451.505594,666.185348,7920.203579
2578.643503,2145.067394,1406.391290,6883.915261
2578.643832,1838.629195,1924.535449,7328.038826
2578.644161,1455.581446,1702.473667,9104.533087
2578.644490,459.657299,-0.000000,8512.368333
2578.644819,536.266849,-1036.288319,9252.574275
2578.645148,-919.314598,-814.226536,8882.471304
2578.645477,-1149.143247,-1258.350101,10214.842000
2578.645807,-1608.800546,-1850.514855,9696.697840
2578.646136,-1685.410096,-962.267725,9844.739029
2578.646465,-766.095498,-1184.329507,10066.800811
2578.646794,0.000000,-1036.288319,9030.512492
2578.647123,689.485948,-148.041188,9178.553681
2578.647452,76.609550,-0.000000,8290.306550
2578.647781,919.314598,888.247130,7698.141797
2578.648110,536.266849,1258.350101,8142.265362
2578.648439,229.828649,1702.473667,8438.347739
2578.648768,-612.876398,666.185348,9548.656652
2578.649097,-1378.971896,-592.164754,9622.677246
2578.649426,-536.266849,-740.205942,10066.800811
2578.649755,-1225.752797,-1480.411884,10658.965565
2578.650084,-2145.067394,-1258.350101,9474.636058
2578.650413,-1149.143247,-814.226536,10066.800811
2578.650742,-689.485948,-148.041188,9400.615463
2578.651071,229.828649,-0.000000,9030.512492
2578.651400,1149.143247,-888.247130,9696.697840
2578.651729,1149.143247,222.061783,8438.347739
2578.652058,1608.800546,592.164754,8142.265362
2578.652387,1225.752797,1036.288319,7254.018232
2578.652716,1072.533697,1480.411884,8216.285956
2578.653045,536.266849,1184.329507,8956.491898
2578.653374,0.000000,-0.000000,8734.430116
2578.653703,-459.657299,-592.164754,9696.697840
2578.654032,-766.095498,-1554.432478,9474.636058
2578.654361,-1149.143247,-1480.411884,9696.697840
2578.654690,-1378.971896,-1406.391290,9992.780217
2578.655019,-383.047749,-740.205942,9696.697840
2578.655348,76.609550,-296.082377,9252.574275
2578.655677,1072.533697,-592.164754,9474.636058
2578.656006,1608.800546,-0.000000,8290.306550
2578.656335,2451.505594,444.123565,7920.203579
2578.656664,2068.457845,962.267725,6883.915261
2578.656993,2145.067394,1480.411884,7550.100608
2578.657322,1455.581446,1924.535449,8512.368333
2578.657651,229.828649,592.164754,8882.471304
2578.657980,0.000000,-1110.308913,9622.677246
2578.658309,-1225.752797,-1850.514855,10807.006753
2578.658638,-1072.533697,-2442.679609,10214.842000
2578.658967,-995.924147,-2368.659014,10288.862594
2578.659296,-766.095498,-1480.411884,10066.800811
2578.659625,459.657299,-666.185348,9622.677246
2578.659954,1455.581446,-74.020594,9030.512492
2578.660283,2911.162892,-0.000000,8290.306550
2578.660612,2528.115143,444.123565,8142.265362
2578.660941,3524.039291,1258.350101,7550.100608
2578.661270,3294.210641,1628.453072,7328.038826
2578.661599,2681.334243,2146.597232,7920.203579
2578.661928,1608.800546,1332.370696,8586.388927
2578.662257,153.219100,-0.000000,9326.594869
2578.662586,-612.876398,-1184.329507,9622.677246
2578.662915,-766.095498,-2220.617826,10732.986159
2578.663244,-995.924147,-1998.556043,10510.924376
2578.663573,-1225.752797,-1406.391290,9770.718434
2578.663902,-536.266849,-740.205942,10584.944971
2578.664231,0.000000,-370.102971,9326.594869
2578.664560,459.657299,-370.102971,9548.656652
2578.664889,1378.971896,-148.041188,9400.615463
2578.665218,1915.238745,1110.308913,7105.977043
2578.665547,1915.238745,1184.329507,7328.038826
2578.665876,2068.457845,1924.535449,6735.874072
2578.666205,1762.019645,1554.432478,8364.327145
2578.666534,689.485948,370.102971,8290.306550
2578.666863,0.000000,-444.123565,8808.450710
2578.667192,-919.314598,-1036.288319,9696.697840
2578.667521,-1608.800546,-1850.514855,9770.718434
2578.667850,-2221.676944,-1332.370696,9770.718434
2578.668179,-1532.190996,-1776.494261,10510.924376
2578.668508,-383.047749,-444.123565,9474.636058
2578.668837,153.219100,-370.102971,9474.636058
2578.669166,-612.876398,-222.061783,9548.656652
2578.669495,-306.438199,-592.164754,9918.759623
2578.669824,536.266849,-814.226536,8956.491898
2578.670153,766.095498,666.185348,7772.162391
2578.670482,919.314598,1036.288319,8438.347739
2578.670811,612.876398,1628.453072,7846.182985
2578.671140,995.924147,814.226536,8956.491898
2578.671469,0.000000,222.061783,8882.471304
2578.671798,-229.828649,-592.164754,9030.512492
2578.672127,-995.924147,-1110.308913,9696.697840
2578.672456,-1149.143247,-1184.329507,9622.677246
2578.672785,-689.485948,-444.123565,9844.739029
2578.673114,-689.485948,-666.185348,9030.512492
2578.673443,766.095498,-666.185348,9548.656652
2578.673772,536.266849,-666.185348,9474.636058
2578.674101,612.876398,222.061783,8142.265362
2578.674430,612.876398,222.061783,7772.162391
2578.674759,536.266849,444.123565,7994.224174
2578.675088,229.828649,1480.411884,7846.182985
2578.675417,-459.657299,518.144159,8882.471304
2578.675746,-1302.362347,-1036.288319,9474.636058
2578.676075,-689.485948,-1332.370696,10288.862594
2578.676404,-1149.143247,-1184.329507,9030.512492
2578.676733,-1302.362347,-1184.329507,10066.800811
2578.677062,-1149.143247,-888.247130,9696.697840
2578.677391,0.000000,-148.041188,9474.636058
2578.677720,689.485948,-444.123565,9474.636058
2578.678049,2451.505594,-148.041188,8808.450710
2578.678378,2298.286494,222.061783,8512.368333
2578.678707,2987.772442,814.226536,7254.018232
2578.679036,2604.724693,1702.473667,6735.874072
2578.679365,2451.505594,1406.391290,7846.182985
2578.679694,1762.019645,1332.370696,8142.265362
2578.680023,919.314598,-814.226536,8956.491898
2578.680352,-229.828649,-1480.411884,9696.697840
2578.680681,-995.924147,-1702.473667,10214.842000
2578.681010,-1378.971896,-2146.597232,10732.986159
2578.681339,-1455.581446,-1554.432478,10658.965565
2578.681668,-612.876398,-1036.288319,10807.006753
2578.681997,1149.143247,-1184.329507,10066.800811
2578.682326,2068.457845,-296.082377,9400.615463
2578.682655,3064.381992,518.144159,8882.471304
2578.682985,3064.381992,740.205942,7254.018232
2578.683314,3294.210641,1998.556043,7476.080014
2578.683643,3064.381992,1998.556043,7994.224174
2578.683972,2528.115143,2072.576638,7920.203579
2578.684301,1072.533697,518.144159,8586.388927
2578.684630,76.609550,-962.267725,9178.553681
2578.684959,-612.876398,-1554.432478,9622.677246
2578.685288,-1302.362347,-2516.700203,10140.821405
2578.685617,-1608.800546,-2368.659014,9918.759623
2578.685946,-1455.581446,-1110.308913,9770.718434
2578.686275,-766.095498,-666.185348,10732.986159
2578.686604,383.047749,-1258.350101,9844.739029
2578.686933,306.438199,-444.123565,9770.718434
2578.687262,2757.943793,-0.000000,8512.368333
2578.687591,2374.896044,1332.370696,6587.832884
2578.687920,2451.505594,1480.411884,7846.182985
2578.688249,1991.848295,1776.494261,8290.306550
2578.688578,1378.971896,1702.473667,7846.182985
2578.688907,0.000000,-0.000000,8882.471304
2578.689236,-689.485948,-814.226536,8290.306550
2578.689565,-766.095498,-1554.432478,9622.677246
2578.689894,-1532.190996,-1924.535449,10066.800811
2578.690223,-2221.676944,-1332.370696,9474.636058
2578.690552,-1455.581446,-1406.391290,9918.759623
2578.690881,-1072.533697,-888.247130,9178.553681
2578.691210,76.609550,-814.226536,8660.409521
2578.691539,766.095498,-1184.329507,10140.821405
2578.691868,842.705048,-444.123565,8808.450710
2578.692197,1685.410096,444.123565,8068.244768
2578.692526,1225.752797,1332.370696,7402.059420
2578.692855,1225.752797,1924.535449,7994.224174
2578.693184,306.438199,1258.350101,8438.347739
2578.693513,-459.657299,-0.000000,9326.594869
2578.693842,-612.876398,-740.205942,9622.677246
2578.694171,-842.705048,-1480.411884,9770.718434
2578.694500,-1685.410096,-1406.391290,9474.636058
2578.694829,-1608.800546,-1332.370696,10066.800811
2578.695158,-1149.143247,-518.144159,9474.636058
2578.695487,-306.438199,-666.185348,9104.533087
2578.695816,536.266849,-666.185348,9622.677246
2578.696145,995.924147,1036.288319,9326.594869
2578.696474,1378.971896,518.144159,7772.162391
2578.696803,1149.143247,888.247130,7994.224174
2578.697132,1302.362347,1628.453072,8216.285956
2578.697461,842.705048,1554.432478,8512.368333
2578.697790,229.828649,888.247130,8882.471304
2578.698119,0.000000,-148.041188,9104.533087
2578.698448,-1072.533697,-740.205942,9770.718434
2578.698777,-612.876398,-1702.473667,9474.636058
2578.699106,-1455.581446,-1628.453072,9548.656652
2578.699435,-1149.143247,-518.144159,10288.862594
2578.699764,0.000000,-370.102971,9474.636058
2578.700093,689.485948,-370.102971,9030.512492
2578.700422,1608.800546,-0.000000,9474.636058
2578.700751,2374.896044,370.102971,8364.327145
2578.701080,2451.505594,666.185348,6957.935855
2578.701409,1915.238745,1776.494261,7550.100608
2578.701738,1378.971896,1554.432478,8586.388927
2578.702067,766.095498,444.123565,9326.594869
2578.702396,-153.219100,-370.102971,9178.553681
2578.702725,-766.095498,-1480.411884,11029.068536
2578.703054,-1302.362347,-2664.741391,10436.903782
2578.703383,-1302.362347,-1850.514855,10140.821405
2578.703712,-919.314598,-1702.473667,10288.862594
2578.704041,153.219100,148.041188,9992.780217
2578.704370,919.314598,-1110.308913,9400.615463
2578.704699,2834.553343,592.164754,8660.409521
2578.705028,3370.820191,148.041188,8068.244768
2578.705357,2834.553343,1332.370696,7402.059420
2578.705686,3217.601092,1628.453072,7550.100608
2578.706015,2451.505594,1850.514855,8290.306550
2578.706344,1838.629195,962.267725,8290.306550
2578.706673,689.485948,-222.061783,9252.574275
2578.707002,-459.657299,-1258.350101,9844.739029
2578.707331,-1302.362347,-1554.432478,10288.862594
2578.707660,-1378.971896,-2146.597232,9844.739029
2578.707989,-1685.410096,-1998.556043,9918.759623
2578.708318,-1072.533697,-962.267725,9918.759623
2578.708647,-153.219100,-592.164754,9770.718434
2578.708976,766.095498,-888.247130,9400.615463
2578.709305,1302.362347,-222.061783,8660.409521
2578.709634,2145.067394,592.164754,7328.038826
2578.709963,1838.629195,1036.288319,7031.956449
2578.710292,1532.190996,1258.350101,7402.059420
2578.710621,919.314598,1332.370696,8290.306550
2578.710950,0.000000,888.247130,8586.388927
2578.711279,-766.095498,-518.144159,9252.574275
2578.711608,-1149.143247,-1406.391290,9844.739029
2578.711937,-1762.019645,-1850.514855,9770.718434
2578.712266,-2068.457845,-1406.391290,9770.718434
2578.712595,-1532.190996,-1110.308913,9770.718434
2578.712924,-995.924147,-888.247130,9474.636058
2578.713253,-766.095498,-370.102971,9178.553681
2578.713582,766.095498,-962.267725,9474.636058
2578.713911,995.924147,-444.123565,8586.388927
2578.714240,1915.238745,518.144159,8216.285956
2578.714569,1762.019645,962.267725,7624.121203
2578.714898,1455.581446,1998.556043,8586.388927
2578.715227,229.828649,1258.350101,9400.615463
2578.715556,536.266849,444.123565,8882.471304
2578.715885,76.609550,-296.082377,9696.697840
2578.716215,-919.314598,-1406.391290,9770.718434
2578.716544,-1608.800546,-1036.288319,9548.656652
2578.716873,-1608.800546,-1480.411884,10288.862594
2578.717202,-1225.752797,-888.247130,9918.759623
2578.717531,76.609550,-148.041188,9474.636058
2578.717860,536.266849,-296.082377,9474.636058
2578.718189,1302.362347,370.102971,8364.327145
2578.718518,1072.533697,592.164754,8068.244768
2578.718847,1225.752797,814.226536,7920.203579
2578.719176,612.876398,1184.329507,8290.306550
2578.719505,0.000000,1406.391290,9178.553681
2578.719834,-766.095498,592.164754,9326.594869
2578.720163,-383.047749,-296.082377,10140.821405
2578.720492,-1149.143247,-1702.473667,10362.883188
2578.720821,-1455.581446,-1406.391290,9918.759623
2578.721150,-1455.581446,-1480.411884,9918.759623
2578.721479,-995.924147,-888.247130,9696.697840
2578.721808,-383.047749,-0.000000,9474.636058
2578.722137,842.705048,-370.102971,9696.697840
2578.722466,1762.019645,-444.123565,9178.553681
2578.722795,2604.724693,666.185348,7920.203579
2578.723124,2834.553343,814.226536,7402.059420
2578.723453,2221.676944,1776.494261,6809.894666
2578.723782,2145.067394,1702.473667,8586.388927
2578.724111,1455.581446,592.164754,8438.347739
2578.724440,229.828649,-0.000000,8882.471304
2578.724769,-383.047749,-1036.288319,9770.718434
2578.725098,-995.924147,-1850.514855,10288.862594
2578.725427,-1378.971896,-2072.576638,10510.924376
2578.725756,-1378.971896,-1850.514855,10510.924376
2578.726085,-229.828649,-1110.308913,10214.842000
2578.726414,919.314598,-444.123565,9474.636058
2578.726743,1915.238745,-444.123565,8438.347739
2578.727072,2528.115143,444.123565,8882.471304
2578.727401,2987.772442,-0.000000,7846.182985
2578.727730,2604.724693,1406.391290,7254.018232
2578.728059,2145.067394,1554.432478,7994.224174
2578.728388,1378.971896,1702.473667,7994.224174
2578.728717,459.657299,592.164754,9030.512492
2578.729046,-459.657299,-814.226536,9548.656652
2578.729375,-842.705048,-1998.556043,9992.780217
2578.729704,-2145.067394,-2220.617826,10584.944971
2578.730033,-1838.629195,-1850.514855,10584.944971
2578.730362,-1225.752797,-1036.288319,9844.739029
2578.730691,-689.485948,-222.061783,9178.553681
2578.731020,612.876398,-518.144159,9400.615463
2578.731349,2068.457845,-666.185348,8808.450710
2578.731678,3064.381992,370.102971,7994.224174
2578.732007,3370.820191,1036.288319,7031.956449
2578.732336,2757.943793,1258.350101,6883.915261
2578.732665,2528.115143,1924.535449,7994.224174
2578.732994,1915.238745,1850.514855,7772.162391
2578.733323,995.924147,740.205942,8808.450710
2578.733652,229.828649,-1036.288319,9474.636058
2578.733981,-995.924147,-1184.329507,9918.759623
2578.734310,-2221.676944,-1480.411884,10584.944971
2578.734639,-1991.848295,-1554.432478,10436.903782
2578.734968,-1608.800546,-1110.308913,9770.718434
2578.735297,-612.876398,-962.267725,9548.656652
2578.735626,0.000000,-518.144159,9326.594869
2578.735955,919.314598,-370.102971,9400.615463
2578.736284,766.095498,-370.102971,8364.327145
2578.736613,2374.896044,962.267725,7994.224174
2578.736942,1378.971896,1258.350101,7772.162391
2578.737271,1072.533697,1554.432478,8216.285956
2578.737601,459.657299,1332.370696,8586.388927
2578.737930,76.609550,-0.000000,9548.656652
2578.738259,-919.314598,-444.123565,9548.656652
2578.738588,-1532.190996,-1998.556043,10807.006753
2578.738917,-2374.896044,-1998.556043,10658.965565
2578.739246,-1838.629195,-1110.308913,10066.800811
2578.739575,-1302.362347,-888.247130,9474.636058
2578.739904,-459.657299,-592.164754,9400.615463
2578.740233,1302.362347,-74.020594,9548.656652
2578.740562,1378.971896,-74.020594,8734.430116
2578.740891,2068.457845,296.082377,7920.203579
2578.741220,1991.848295,1480.411884,7105.977043
2578.741549,1838.629195,2146.597232,7772.162391
2578.741878,1532.190996,1924.535449,8290.306550
2578.742207,383.047749,888.247130,8734.430116
2578.742536,0.000000,-740.205942,9622.677246
2578.742865,-536.266849,-1036.288319,9622.677246
2578.743194,-1608.800546,-1702.473667,9918.759623
2578.743523,-2528.115143,-1480.411884,10658.965565
2578.743852,-1302.362347,-1110.308913,9918.759623
2578.744181,-689.485948,-370.102971,9474.636058
2578.744510,153.219100,-592.164754,8808.450710
2578.744839,1225.752797,-370.102971,8734.430116
2578.745168,1302.362347,-0.000000,8216.285956
2578.745497,1072.533697,740.205942,7476.080014
2578.745826,1915.238745,1332.370696,7328.038826
2578.746155,612.876398,1110.308913,8364.327145
2578.746484,76.609550,370.102971,9104.533087
2578.746813,-536.266849,-0.000000,9400.615463
2578.747142,-1302.362347,-2220.617826,9844.739029
2578.747471,-1378.971896,-1702.473667,10288.862594
2578.747800,-536.266849,-1480.411884,11843.295072
2578.748129,-1302.362347,-2072.576638,10510.924376
2578.748458,612.876398,-592.164754,9696.697840
2578.748787,1838.629195,-888.247130,8882.471304
2578.749116,3294.210641,518.144159,8142.265362
2578.749445,3753.867940,-0.000000,7698.141797
2578.749774,3907.087040,1332.370696,7105.977043
2578.750103,2911.162892,1480.411884,7254.018232
2578.750432,2911.162892,1702.473667,8068.244768
2578.750761,1608.800546,1184.329507,8068.244768
2578.751090,229.828649,-0.000000,9178.553681
2578.751419,-689.485948,-1480.411884,10510.924376
2578.751748,-1072.533697,-2220.617826,10214.842000
2578.752077,-1608.800546,-2072.576638,10510.924376
2578.752406,-1838.629195,-1998.556043,10658.965565
2578.752735,-1225.752797,-888.247130,10510.924376
2578.753064,229.828649,-148.041188,9030.512492
2578.753393,1991.848295,-148.041188,8512.368333
2578.753722,3370.820191,592.164754,8068.244768
2578.754051,2987.772442,1406.391290,7031.956449
2578.754380,2757.943793,2368.659014,8216.285956
2578.754709,1838.629195,1258.350101,7624.121203
2578.755038,1225.752797,1554.432478,8438.347739
2578.755367,-153.219100,740.205942,8734.430116
2578.755696,-1762.019645,-1110.308913,9770.718434
2578.756025,-1915.238745,-2294.638420,11029.068536
2578.756354,-2298.286494,-2590.720797,10288.862594
2578.756683,-2221.676944,-2294.638420,9696.697840
2578.757012,-1762.019645,-1776.494261,9844.739029
2578.757341,-1072.533697,-888.247130,9252.574275
2578.757670,0.000000,-222.061783,9252.574275
2578.757999,1072.533697,-444.123565,10288.862594
2578.758328,2068.457845,370.102971,7179.997637
2578.758657,2987.772442,1332.370696,7772.162391
2578.758986,2221.676944,1998.556043,7179.997637
2578.759316,2068.457845,2294.638420,8290.306550
2578.759645,1072.533697,1850.514855,8882.471304
2578.759974,306.438199,814.226536,8956.491898
2578.760303,-766.095498,-444.123565,10066.800811
2578.760632,-1915.238745,-1480.411884,9992.780217
2578.760961,-1378.971896,-1850.514855,10510.924376
2578.761290,-2451.505594,-2072.576638,10288.862594
2578.761619,-1302.362347,-592.164754,9622.677246
2578.761948,-842.705048,-1036.288319,9178.553681
2578.762277,-153.219100,-740.205942,9696.697840
2578.762606,0.000000,-74.020594,9474.636058
2578.762935,153.219100,-518.144159,8734.430116
2578.763264,919.314598,-0.000000,7772.162391
2578.763593,1455.581446,1554.432478,8068.244768
2578.763922,689.485948,1702.473667,8142.265362
2578.764251,383.047749,1702.473667,8586.388927
2578.764580,-689.485948,-296.082377,9326.594869
2578.764909,-919.314598,-370.102971,9474.636058
2578.765238,-1072.533697,-1850.514855,9770.718434
2578.765567,-2221.676944,-2146.597232,9400.615463
2578.765896,-1532.190996,-1628.453072,10140.821405
2578.766225,-536.266849,-1110.308913,9104.533087
2578.766554,536.266849,-592.164754,8290.306550
2578.766883,1455.581446,-296.082377,9326.594869
2578.767212,2145.067394,296.082377,8216.285956
2578.767541,1838.629195,296.082377,7105.977043
2578.767870,1991.848295,1258.350101,7846.182985
2578.768199,2374.896044,1332.370696,8142.265362
2578.768528,1608.800546,1480.411884,9178.553681
2578.768857,0.000000,296.082377,9474.636058
2578.769186,-383.047749,-1036.288319,10288.862594
2578.769515,-383.047749,-1776.494261,10362.883188
2578.769844,-919.314598,-1628.453072,9844.739029
2578.770173,-919.314598,-2368.659014,10214.842000
2578.770502,-229.828649,-1406.391290,10584.944971
2578.770831,1225.752797,-666.185348,9474.636058
2578.771160,2604.724693,222.061783,8734.430116
2578.771489,3294.210641,296.082377,8068.244768
2578.771818,2987.772442,666.185348,7328.038826
2578.772147,3217.601092,1480.411884,7328.038826
2578.772476,2451.505594,1480.411884,7920.203579
2578.772805,1608.800546,1406.391290,8364.327145
2578.773134,459.657299,1258.350101,9548.656652
2578.773463,-536.266849,-518.144159,10658.965565
2578.773792,-1532.190996,-1628.453072,10510.924376
2578.774121,-1532.190996,-2220.617826,10658.965565
2578.774450,-1915.238745,-1998.556043,10658.965565
2578.774779,-1762.019645,-1554.432478,10140.821405
2578.775108,0.000000,-962.267725,9474.636058
2578.775437,1378.971896,-518.144159,9104.533087
2578.775766,1762.019645,-222.061783,8734.430116
2578.776095,3140.991542,518.144159,7550.100608
2578.776424,3447.429741,1332.370696,6809.894666
2578.776753,2757.943793,1850.514855,7254.018232
2578.777082,2451.505594,1776.494261,7698.141797
2578.777411,1762.019645,1998.556043,8290.306550
2578.777740,612.876398,444.123565,8882.471304
2578.778069,-612.876398,-1110.308913,10140.821405
2578.778398,-1532.190996,-1850.514855,10214.842000
2578.778727,-2068.457845,-2146.597232,10732.986159
2578.779056,-1991.848295,-1924.535449,10140.821405
2578.779385,-1838.629195,-814.226536,9918.759623
2578.779714,-459.657299,-1406.391290,10066.800811
2578.780043,0.000000,-740.205942,9400.615463
2578.780372,919.314598,-370.102971,9696.697840
2578.780702,1072.533697,-0.000000,8512.368333
2578.781031,1991.848295,1258.350101,7550.100608
2578.781360,1225.752797,1702.473667,7179.997637
2578.781689,459.657299,1998.556043,8660.409521
2578.782018,0.000000,1184.329507,8808.450710
2578.782347,-995.924147,-592.164754,9400.615463
2578.782676,-1991.848295,-1480.411884,10066.800811
2578.783005,-2221.676944,-2220.617826,10732.986159
2578.783334,-2604.724693,-2294.638420,10436.903782
2578.783663,-2451.505594,-888.247130,10066.800811
2578.783992,-1072.533697,-814.226536,9548.656652
2578.784321,-1072.533697,-0.000000,9474.636058
2578.784650,76.609550,-444.123565,9844.739029
2578.784979,1302.362347,-222.061783,9104.533087
2578.785308,1762.019645,370.102971,7476.080014
2578.785637,1685.410096,1036.288319,7254.018232
2578.785966,1762.019645,1998.556043,7105.977043
2578.786295,1225.752797,1850.514855,8734.430116
2578.786624,-306.438199,666.185348,8586.388927
2578.786953,-459.657299,-592.164754,9400.615463
2578.787282,-842.705048,-1110.308913,9918.759623
2578.787611,-1685.410096,-1184.329507,10066.800811
2578.787940,-1838.629195,-2146.597232,10214.842000
2578.788269,-1532.190996,-962.267725,9918.759623
2578.788598,-383.047749,-444.123565,9326.594869
2578.788927,536.266849,-814.226536,9400.615463
2578.789256,1685.410096,296.082377,8956.491898
2578.789585,2451.505594,814.226536,7846.182985
2578.789914,2911.162892,1628.453072,7105.977043
2578.790243,2528.115143,1850.514855,7328.038826
2578.790572,2221.676944,1702.473667,8142.265362
2578.790901,612.876398,1776.494261,8882.471304
2578.791230,0.000000,-74.020594,9474.636058
2578.791559,-766.095498,-1924.535449,10140.821405
2578.791888,-1225.752797,-2442.679609,10584.944971
2578.792217,-1915.238745,-2516.700203,10807.006753
2578.792546,-1455.581446,-2072.576638,10881.027347
2578.792875,-689.485948,-1110.308913,10140.821405
2578.793204,1225.752797,-0.000000,9474.636058
2578.793533,2528.115143,-74.020594,9400.615463
2578.793862,3677.258390,370.102971,7994.224174
2578.794191,4060.306139,1110.308913,7846.182985
2578.794520,4060.306139,2072.576638,6957.935855
2578.794849,3140.991542,2072.576638,7920.203579
2578.795178,3217.601092,2072.576638,8364.327145
2578.795507,1532.190996,740.205942,8882.471304
2578.795836,383.047749,-888.247130,9770.718434
2578.796165,-612.876398,-1924.535449,10288.862594
2578.796494,-1455.581446,-2442.679609,10584.944971
2578.796823,-1685.410096,-2368.659014,10955.047942
2578.797152,-1072.533697,-1184.329507,10288.862594
2578.797481,0.000000,-666.185348,9474.636058
2578.797810,1149.143247,-296.082377,8660.409521
2578.798139,1838.629195,444.123565,8364.327145
2578.798468,2528.115143,666.185348,7846.182985
2578.798797,3294.210641,1924.535449,7031.956449
2578.799126,2298.286494,2368.659014,7328.038826
2578.799455,1455.581446,2442.679609,8068.244768
2578.799784,0.000000,1110.308913,8216.285956
2578.800113,-995.924147,-444.123565,9474.636058
2578.800442,-1608.800546,-1850.514855,9992.780217
2578.800771,-2451.505594,-2664.741391,10362.883188
2578.801100,-2451.505594,-2886.803174,10288.862594
2578.801429,-1608.800546,-1776.494261,9992.780217
2578.801758,-1608.800546,-1184.329507,9844.739029
2578.802088,-842.705048,-518.144159,9104.533087
2578.802417,-459.657299,-444.123565,9326.594869
2578.802746,689.485948,-1036.288319,10288.862594
2578.803075,689.485948,444.123565,7624.121203
2578.803404,2298.286494,962.267725,8216.285956
2578.803733,1838.629195,1702.473667,7328.038826
2578.804062,919.314598,2072.576638,8068.244768
2578.804391,1149.143247,962.267725,9030.512492
2578.804720,383.047749,-0.000000,8808.450710
2578.805049,0.000000,-888.247130,9326.594869
2578.805378,-995.924147,-1406.391290,9918.759623
2578.805707,-2145.067394,-2072.576638,9696.697840
2578.806036,-1762.019645,-2294.638420,10807.006753
2578.806365,-383.047749,-814.226536,9622.677246
2578.806694,689.485948,-666.185348,8956.491898
2578.807023,766.095498,-296.082377,8808.450710
2578.807352,1225.752797,814.226536,8068.244768
2578.807681,1072.533697,814.226536,7772.162391
2578.808010,995.924147,1628.453072,7772.162391
2578.808339,-229.828649,2072.576638,8290.306550
2578.808668,-229.828649,1036.288319,9474.636058
2578.808997,-1072.533697,-666.185348,9474.636058
2578.809326,-1378.971896,-1406.391290,9770.718434
2578.809655,-1608.800546,-2294.638420,9918.759623
2578.809984,-1838.629195,-2146.597232,9548.656652
2578.810313,-2145.067394,-1554.432478,10140.821405
2578.810642,-536.266849,-518.144159,9622.677246
2578.810971,383.047749,-296.082377,9548.656652
2578.811300,1225.752797,-0.000000,9104.533087
2578.811629,2451.505594,222.061783,8364.327145
2578.811958,2834.553343,740.205942,7402.059420
2578.812287,2604.724693,1554.432478,7031.956449
2578.812616,3064.381992,1850.514855,7846.182985
2578.812945,2221.676944,1554.432478,8660.409521
2578.813274,689.485948,1924.535449,9030.512492
2578.813603,76.609550,-814.226536,10288.862594
2578.813932,-842.705048,-2072.576638,10288.862594
2578.814261,-1532.190996,-2146.597232,10807.006753
2578.814590,-1915.238745,-2368.659014,10658.965565
2578.814919,-1149.143247,-2072.576638,10732.986159
2578.815247,0.000000,-518.144159,9696.697840
2578.815576,2145.067394,-888.247130,9474.636058
2578.815905,2604.724693,-518.144159,8068.244768
2578.816234,2911.162892,888.247130,7328.038826
2578.816563,3600.648841,1332.370696,7328.038826
2578.816892,2681.334243,2146.597232,6883.915261
2578.817221,1991.848295,2368.659014,8290.306550
2578.817550,842.705048,1628.453072,9104.533087
2578.817879,0.000000,-1036.288319,9770.718434
2578.818208,-1838.629195,-1036.288319,10881.027347
2578.818537,-1225.752797,-2368.659014,10436.903782
2578.818866,-2451.505594,-2368.659014,10881.027347
2578.819195,-1838.629195,-1628.453072,10140.821405
2578.819524,-766.095498,-518.144159,9918.759623
2578.819853,383.047749,-1036.288319,9474.636058
2578.820182,1532.190996,-222.061783,9030.512492
2578.820511,2298.286494,222.061783,7994.224174
2578.820839,3140.991542,1110.308913,7328.038826
2578.821168,2681.334243,2072.576638,6735.874072
2578.821497,2374.896044,2072.576638,7550.100608
2578.821826,1762.019645,2294.638420,8512.368333
2578.822155,536.266849,296.082377,9400.615463
2578.822484,-842.705048,-592.164754,9474.636058
2578.822813,-1608.800546,-1702.473667,10658.965565
2578.823142,-1915.238745,-2368.659014,10436.903782
2578.823471,-2145.067394,-1776.494261,9992.780217
2578.823800,-1455.581446,-1332.370696,9918.759623
2578.824129,-306.438199,-518.144159,9474.636058
2578.824458,766.095498,-592.164754,9030.512492
2578.824787,1302.362347,-1110.308913,9474.636058
2578.825116,1378.971896,518.144159,7105.977043
2578.825445,2298.286494,1110.308913,7328.038826
2578.825774,1685.410096,2072.576638,7105.977043
2578.826103,1378.971896,2220.617826,8364.327145
2578.826431,306.438199,1480.411884,9104.533087
2578.826760,-919.314598,-0.000000,9622.677246
2578.827089,-842.705048,-1258.350101,10140.821405
2578.827418,-1455.581446,-2516.700203,10288.862594
2578.827747,-2374.896044,-2072.576638,9918.759623
2578.828076,-1991.848295,-1554.432478,10510.924376
2578.828405,-1072.533697,-740.205942,9770.718434
2578.828734,-536.266849,-296.082377,9104.533087
2578.829063,383.047749,-444.123565,9548.656652
2578.829392,842.705048,-370.102971,9918.759623
2578.829721,1149.143247,-0.000000,7550.100608
2578.830050,1915.238745,1110.308913,7994.224174
2578.830379,1225.752797,1702.473667,7031.956449
2578.830708,1685.410096,2072.576638,8142.265362
2578.831037,229.828649,1406.391290,9104.533087
2578.831366,0.000000,-74.020594,9178.553681
2578.831695,-383.047749,-1554.432478,10436.903782
2578.832023,-995.924147,-1628.453072,9474.636058
2578.832352,-1225.752797,-1628.453072,9992.780217
2578.832681,-1532.190996,-1184.329507,10140.821405
2578.833010,-536.266849,-370.102971,9178.553681
2578.833339,612.876398,-1036.288319,9252.574275
2578.833668,2068.457845,-0.000000,8364.327145
2578.833997,2298.286494,1036.288319,8216.285956
2578.834326,2145.067394,740.205942,7254.018232
2578.834655,1915.238745,1258.350101,7402.059420
2578.834984,1225.752797,1554.432478,8290.306550
2578.835313,153.219100,592.164754,8882.471304
2578.835642,-1149.143247,-888.247130,10066.800811
2578.835971,-1225.752797,-1480.411884,11103.089130
2578.836300,-1838.629195,-2664.741391,10584.944971
2578.836629,-2145.067394,-1850.514855,10584.944971
2578.836958,-1991.848295,-1406.391290,10584.944971
2578.837287,0.000000,-444.123565,10955.047942
2578.837615,995.924147,-74.020594,8956.491898
2578.837944,2528.115143,296.082377,8882.471304
2578.838273,3753.867940,592.164754,7550.100608
2578.838602,3753.867940,1332.370696,6957.935855
2578.838931,4136.915689,1702.473667,7476.080014
2578.839260,2757.943793,1554.432478,7254.018232
2578.839589,2451.505594,1332.370696,8660.409521
2578.839918,766.095498,740.205942,8808.450710
2578.840247,-383.047749,-444.123565,10066.800811
2578.840576,-1225.752797,-2368.659014,11251.130318
2578.840905,-1685.410096,-2294.638420,10658.965565
2578.841234,-1838.629195,-1924.535449,10955.047942
2578.841563,-842.705048,-1554.432478,10584.944971
2578.841892,153.219100,-296.082377,9178.553681
2578.842221,1685.410096,296.082377,8586.388927
2578.842550,2681.334243,740.205942,8216.285956
2578.842879,3064.381992,1554.432478,7179.997637
2578.843208,3140.991542,2294.638420,6735.874072
2578.843536,2068.457845,2072.576638,7105.977043
2578.843865,1608.800546,1850.514855,8142.265362
2578.844194,0.000000,1332.370696,8808.450710
2578.844523,-1072.533697,-1184.329507,9622.677246
2578.844852,-2298.286494,-1924.535449,10510.924376
2578.845181,-2145.067394,-2590.720797,11473.192101
2578.845510,-2451.505594,-2072.576638,10066.800811
2578.845839,-2374.896044,-1480.411884,10362.883188
2578.846168,-1302.362347,-888.247130,10214.842000
2578.846497,153.219100,-296.082377,9326.594869
2578.846826,689.485948,-814.226536,9474.636058
2578.847155,1608.800546,592.164754,7624.121203
2578.847484,2987.772442,814.226536,7105.977043
2578.847813,2298.286494,1702.473667,6809.894666
2578.848142,2068.457845,2146.597232,7402.059420
2578.848471,1455.581446,1406.391290,8734.430116
2578.848800,0.000000,592.164754,8438.347739
2578.849128,-766.095498,-1110.308913,9844.739029
2578.849457,-1838.629195,-2146.597232,10288.862594
2578.849786,-2374.896044,-2812.782580,10214.842000
2578.850115,-2528.115143,-2072.576638,10436.903782
2578.850444,-1378.971896,-2072.576638,9474.636058
2578.850773,-766.095498,-814.226536,9474.636058
2578.851102,459.657299,-518.144159,9104.533087
2578.851431,1685.410096,666.185348,8364.327145
2578.851760,2374.896044,962.267725,7846.182985
2578.852089,2681.334243,1998.556043,6513.812290
2578.852418,1915.238745,2368.659014,7105.977043
2578.852747,1072.533697,1998.556043,8290.306550
2578.853076,0.000000,2072.576638,8660.409521
2578.853405,-919.314598,-592.164754,9548.656652
2578.853734,-1685.410096,-1998.556043,9474.636058
2578.854063,-2374.896044,-2738.761985,10214.842000
2578.854392,-2604.724693,-2590.720797,10510.924376
2578.854720,-2221.676944,-2072.576638,9992.780217
2578.855049,-1915.238745,-1184.329507,10288.862594
2578.855378,-1149.143247,-296.082377,9400.615463
2578.855707,459.657299,-222.061783,9548.656652
2578.856036,1455.581446,-0.000000,8660.409521
2578.856365,2451.505594,1184.329507,7105.977043
2578.856694,2911.162892,1628.453072,7402.059420
2578.857023,2528.115143,2146.597232,7698.141797
2578.857352,1762.019645,1850.514855,8512.368333
2578.857681,689.485948,962.267725,9252.574275
2578.858010,459.657299,-444.123565,10066.800811
2578.858339,-1072.533697,-1258.350101,10362.883188
2578.858668,-1072.533697,-1628.453072,10362.883188
2578.858997,-1762.019645,-2886.803174,10732.986159
2578.859326,-1302.362347,-1480.411884,10807.006753
2578.859655,842.705048,-1480.411884,10140.821405
2578.859984,995.924147,-1110.308913,8290.306550
2578.860312,2987.772442,-74.020594,8364.327145
2578.860641,2834.553343,740.205942,8364.327145
2578.860970,2911.162892,888.247130,7254.018232
2578.861299,3217.601092,2516.700203,7994.224174
2578.861628,2681.334243,2368.659014,7846.182985
2578.861957,1072.533697,1776.494261,8956.491898
2578.862286,153.219100,-296.082377,9770.718434
2578.862615,-1149.143247,-888.247130,10066.800811
2578.862944,-1302.362347,-2368.659014,10362.883188
2578.863273,-1532.190996,-2664.741391,10436.903782
2578.863602,-1455.581446,-1924.535449,10214.842000
2578.863931,-306.438199,-962.267725,9622.677246
2578.864260,536.266849,-74.020594,8660.409521
2578.864589,2221.676944,-666.185348,8882.471304
2578.864918,2681.334243,296.082377,7105.977043
2578.865247,2604.724693,1480.411884,7105.977043
2578.865576,2911.162892,1184.329507,6957.935855
2578.865904,2221.676944,1554.432478,7402.059420
2578.866233,1149.143247,1850.514855,8290.306550
2578.866562,76.609550,444.123565,9178.553681
2578.866891,-2298.286494,-962.267725,10584.944971
2578.867220,-1532.190996,-1924.535449,10807.006753
2578.867549,-1991.848295,-1924.535449,10362.883188
2578.867878,-2145.067394,-2220.617826,10732.986159
2578.868207,-1838.629195,-1480.411884,9844.739029
2578.868536,-842.705048,-592.164754,9696.697840
2578.868865,766.095498,-666.185348,9178.553681
2578.869194,1149.143247,-0.000000,7920.203579
2578.869523,3140.991542,666.185348,7328.038826
2578.869852,2145.067394,1998.556043,7105.977043
2578.870181,1685.410096,1924.535449,7476.080014
2578.870510,1149.143247,1776.494261,8142.265362
2578.870839,-383.047749,1406.391290,8512.368333
2578.871168,-1378.971896,-814.226536,10066.800811
2578.871497,-2298.286494,-1406.391290,10807.006753
2578.871825,-2528.115143,-2368.659014,11547.212695
2578.872154,-2987.772442,-2220.617826,10436.903782
2578.872483,-2298.286494,-1184.329507,10584.944971
2578.872812,-1838.629195,-1184.329507,10140.821405
2578.873141,-766.095498,-0.000000,9474.636058
2578.873470,153.219100,-0.000000,9030.512492
2578.873799,689.485948,-814.226536,10214.842000
2578.874128,1685.410096,-148.041188,7328.038826
2578.874457,1762.019645,1850.514855,7624.121203
2578.874786,1225.752797,1480.411884,7328.038826
2578.875115,1225.752797,2294.638420,7772.162391
2578.875444,1072.533697,1628.453072,8660.409521
2578.875773,-459.657299,518.144159,8808.450710
2578.876102,-383.047749,-592.164754,9474.636058
2578.876431,-1302.362347,-1184.329507,10214.842000
2578.876760,-1302.362347,-1480.411884,9770.718434
2578.877089,-1225.752797,-1184.329507,10362.883188
2578.877417,-383.047749,-518.144159,9622.677246
2578.877746,383.047749,-1110.308913,8882.471304
2578.878075,1762.019645,-296.082377,9030.512492
2578.878404,1991.848295,148.041188,7994.224174
2578.878733,2298.286494,296.082377,7550.100608
2578.879062,1991.848295,1184.329507,7624.121203
2578.879391,1532.190996,1924.535449,8142.265362
2578.879720,766.095498,1184.329507,8364.327145
2578.880049,229.828649,-370.102971,9104.533087
2578.880378,-383.047749,-1480.411884,10140.821405
2578.880707,-766.095498,-2072.576638,10510.924376
2578.881036,-1225.752797,-2590.720797,10436.903782
2578.881365,-766.095498,-1924.535449,10362.883188
2578.881694,0.000000,-888.247130,9918.759623
2578.882023,1302.362347,-148.041188,9326.594869
2578.882352,2374.896044,-0.000000,8808.450710
2578.882681,3217.601092,444.123565,8734.430116
2578.883009,2757.943793,888.247130,7698.141797
2578.883338,3294.210641,962.267725,7105.977043
2578.883667,3140.991542,2072.576638,7179.997637
2578.883996,1762.019645,1850.514855,8438.347739
2578.884325,612.876398,444.123565,9178.553681
2578.884654,-153.219100,-666.185348,10510.924376
2578.884983,-612.876398,-1998.556043,10732.986159
2578.885312,-1072.533697,-2146.597232,10658.965565
2578.885641,-1225.752797,-2294.638420,10510.924376
2578.885970,-1225.752797,-1258.350101,10140.821405
2578.886299,229.828649,-296.082377,9474.636058
2578.886628,1532.190996,-148.041188,8512.368333
2578.886957,2374.896044,444.123565,8364.327145
2578.887286,2681.334243,1258.350101,7402.059420
2578.887615,3217.601092,1110.308913,7105.977043
2578.887944,2834.553343,1998.556043,7105.977043
2578.888273,2298.286494,1850.514855,7179.997637
2578.888601,153.219100,1850.514855,8438.347739
2578.888930,-383.047749,-148.041188,9474.636058
2578.889259,-1455.581446,-1036.288319,9696.697840
2578.889588,-2451.505594,-2368.659014,10955.047942
2578.889917,-1991.848295,-2516.700203,10584.944971
2578.890246,-2604.724693,-2072.576638,10362.883188
2578.890575,-1762.019645,-1036.288319,10436.903782
2578.890904,-766.095498,-888.247130,9030.512492
2578.891233,-459.657299,-518.144159,9474.636058
2578.891562,842.705048,-740.205942,9548.656652
2578.891891,1991.848295,666.185348,7254.018232
2578.892220,1915.238745,1184.329507,7772.162391
2578.892549,1762.019645,2146.597232,7105.977043
2578.892878,1915.238745,2368.659014,8660.409521
2578.893207,459.657299,1184.329507,8660.409521
2578.893536,-153.219100,222.061783,8734.430116
2578.893865,-919.314598,-1184.329507,9770.718434
2578.894193,-1915.238745,-1776.494261,9770.718434
2578.894522,-2221.676944,-2146.597232,10658.965565
2578.894851,-2221.676944,-1776.494261,10658.965565
2578.895180,-1608.800546,-666.185348,9622.677246
2578.895509,-306.438199,-962.267725,9326.594869
2578.895838,153.219100,-444.123565,9696.697840
2578.896167,0.000000,592.164754,8438.347739
2578.896496,842.705048,444.123565,7624.121203
2578.896825,1149.143247,1480.411884,7402.059420
2578.897154,459.657299,1702.473667,8216.285956
2578.897483,-383.047749,1184.329507,8882.471304
2578.897812,-995.924147,-0.000000,9104.533087
2578.898141,-689.485948,-1036.288319,9696.697840
2578.898470,-459.657299,-1184.329507,9326.594869
2578.898799,-536.266849,-2072.576638,9770.718434
2578.899128,-995.924147,-1332.370696,9400.615463
2578.899457,383.047749,-370.102971,9770.718434
2578.899786,536.266849,-0.000000,9474.636058
2578.900114,1378.971896,-296.082377,8882.471304
2578.900443,2145.067394,-296.082377,8586.388927
2578.900772,1225.752797,222.061783,7772.162391
2578.901101,2145.067394,1036.288319,8290.306550
2578.901430,1685.410096,1036.288319,8586.388927
2578.901759,1072.533697,518.144159,9104.533087
2578.902088,-153.219100,666.185348,9474.636058
2578.902417,-536.266849,-1110.308913,10436.903782
2578.902746,-842.705048,-2220.617826,10362.883188
2578.903075,-383.047749,-2368.659014,9770.718434
2578.903404,0.000000,-1850.514855,10288.862594
2578.903733,306.438199,-1184.329507,9992.780217
2578.904062,1685.410096,-444.123565,9178.553681
2578.904391,2987.772442,296.082377,8512.368333
2578.904720,3830.477490,518.144159,7994.224174
2578.905049,3524.039291,1110.308913,7179.997637
2578.905378,3370.820191,1628.453072,7254.018232
2578.905706,2681.334243,1406.391290,7846.182985
2578.906035,1532.190996,1480.411884,8512.368333
2578.906364,0.000000,814.226536,9696.697840
2578.906693,-1455.581446,-962.267725,10510.924376
2578.907022,-1838.629195,-2220.617826,10436.903782
2578.907351,-1838.629195,-2368.659014,10584.944971
2578.907680,-1762.019645,-2368.659014,10510.924376
2578.908009,-1915.238745,-1184.329507,10066.800811
2578.908338,-383.047749,-370.102971,10066.800811
2578.908667,153.219100,-370.102971,9104.533087
2578.908996,2298.286494,444.123565,8142.265362
2578.909325,3524.039291,814.226536,7254.018232
2578.909654,3447.429741,1110.308913,6587.832884
2578.909983,2911.162892,2516.700203,7328.038826
2578.910312,3294.210641,1480.411884,8068.244768
2578.910641,1838.629195,1702.473667,7846.182985
2578.910970,536.266849,888.247130,9474.636058
2578.911298,-766.095498,-1110.308913,9918.759623
2578.911627,-1991.848295,-1924.535449,10436.903782
2578.911956,-2681.334243,-2220.617826,10955.047942
2578.912285,-2451.505594,-1998.556043,9918.759623
2578.912614,-2221.676944,-1406.391290,10955.047942
2578.912943,-995.924147,-814.226536,9918.759623
2578.913272,-383.047749,-222.061783,9474.636058
2578.913601,612.876398,-296.082377,9252.574275
2578.913930,1608.800546,592.164754,8290.306550
2578.914259,2145.067394,1702.473667,7920.203579
2578.914588,1838.629195,1554.432478,7772.162391
2578.914917,1302.362347,2368.659014,8586.388927
2578.915246,306.438199,1332.370696,9252.574275
2578.915575,-306.438199,-296.082377,9252.574275
2578.915904,-1532.190996,-1036.288319,9992.780217
2578.916232,-1915.238745,-1776.494261,10140.821405
2578.916561,-2451.505594,-2072.576638,10436.903782
2578.916890,-2451.505594,-1628.453072,10362.883188
2578.917219,-1302.362347,-1406.391290,9770.718434
2578.917548,-153.219100,-666.185348,8734.430116
2578.917877,459.657299,-74.020594,9474.636058
2578.918206,1532.190996,-0.000000,8734.430116
2578.918535,1685.410096,666.185348,7624.121203
2578.918864,1685.410096,1184.329507,6957.935855
2578.919193,1455.581446,1998.556043,7698.141797
2578.919522,1455.581446,1480.411884,8586.388927
2578.919851,76.609550,370.102971,8734.430116
2578.920180,-1072.533697,-1110.308913,10066.800811
2578.920509,-995.924147,-2294.638420,10362.883188
2578.920837,-1762.019645,-1850.514855,9918.759623
2578.921166,-2145.067394,-1924.535449,9918.759623
2578.921495,-995.924147,-1184.329507,9770.718434
2578.921824,0.000000,-592.164754,9326.594869
2578.922153,1455.581446,-0.000000,8364.327145
2578.922482,2528.115143,-518.144159,8216.285956
2578.922811,2374.896044,296.082377,7624.121203
2578.923140,2451.505594,1554.432478,6735.874072
2578.923469,2451.505594,1628.453072,7105.977043
2578.923798,1149.143247,1406.391290,7994.224174
2578.924127,229.828649,1110.308913,8882.471304
2578.924456,-153.219100,-814.226536,9844.739029
2578.924785,-1378.971896,-1998.556043,10584.944971
2578.925113,-1225.752797,-2664.741391,10807.006753
2578.925442,-1762.019645,-2294.638420,10881.027347
2578.925771,-1532.190996,-1998.556043,11177.109724
2578.926100,-383.047749,-740.205942,10510.924376
2578.926429,1225.752797,-74.020594,9622.677246
2578.926758,2911.162892,222.061783,8808.450710
2578.927087,3677.258390,962.267725,7328.038826
2578.927416,3983.696590,1110.308913,7920.203579
2578.927745,3830.477490,1036.288319,7031.956449
2578.928074,2681.334243,2368.659014,7476.080014
2578.928403,2298.286494,1406.391290,8660.409521
2578.928732,766.095498,740.205942,9178.553681
2578.929061,-229.828649,-1184.329507,9992.780217
2578.929389,-919.314598,-1702.473667,10732.986159
2578.929718,-2145.067394,-2960.823768,11325.150913
2578.930047,-1915.238745,-1776.494261,10881.027347
2578.930376,-1225.752797,-1184.329507,10436.903782
2578.930705,-612.876398,148.041188,9622.677246
2578.931034,1455.581446,-0.000000,9178.553681
2578.931363,2528.115143,-0.000000,8586.388927
2578.931692,2681.334243,888.247130,7772.162391
2578.932021,3524.039291,1480.411884,7105.977043
2578.932350,2451.505594,1850.514855,7105.977043
2578.932679,1915.238745,2294.638420,7624.121203
2578.933008,612.876398,1924.535449,7772.162391
2578.933337,-383.047749,-0.000000,9104.533087
2578.933665,-1149.143247,-814.226536,9844.739029
2578.933994,-1302.362347,-2072.576638,10955.047942
2578.934323,-2451.505594,-2442.679609,11103.089130
2578.934652,-2451.505594,-2220.617826,9992.780217
2578.934981,-1915.238745,-1406.391290,10288.862594
2578.935310,-842.705048,-148.041188,9400.615463
2578.935639,-383.047749,-592.164754,9326.594869
2578.935968,1072.533697,-814.226536,9622.677246
2578.936297,2451.505594,1184.329507,7328.038826
2578.936626,2374.896044,1184.329507,7402.059420
2578.936955,1838.629195,1702.473667,7031.956449
2578.937284,2068.457845,1776.494261,8216.285956
2578.937613,612.876398,1110.308913,8660.409521
2578.937941,0.000000,148.041188,8956.491898
2578.938270,-766.095498,-1406.391290,9696.697840
2578.938599,-1149.143247,-1998.556043,10140.821405
2578.938928,-2145.067394,-2072.576638,10658.965565
2578.939257,-2528.115143,-1850.514855,10881.027347
2578.939586,-1225.752797,-1036.288319,9844.739029
2578.939915,-842.705048,-740.205942,9548.656652
2578.940244,0.000000,-370.102971,9400.615463
2578.940573,536.266849,370.102971,8512.368333
2578.940902,1149.143247,888.247130,7994.224174
2578.941231,1378.971896,1184.329507,7550.100608
2578.941560,766.095498,2146.597232,7550.100608
2578.941889,229.828649,1702.473667,8216.285956
2578.942218,-383.047749,592.164754,9104.533087
2578.942546,-995.924147,-962.267725,9770.718434
2578.942875,-1225.752797,-2146.597232,9992.780217
2578.943204,-1378.971896,-2072.576638,10066.800811
2578.943533,-1455.581446,-2516.700203,10288.862594
2578.943862,-1072.533697,-1110.308913,9992.780217
2578.944191,153.219100,-814.226536,9104.533087
2578.944520,1225.752797,-518.144159,8734.430116
2578.944849,2298.286494,-0.000000,8364.327145
2578.945178,3064.381992,740.205942,7550.100608
2578.945507,2911.162892,1184.329507,7031.956449
2578.945836,2681.334243,1998.556043,7550.100608
2578.946165,2145.067394,1850.514855,7920.203579
2578.946494,612.876398,666.185348,9030.512492
2578.946822,-459.657299,-518.144159,9992.780217
2578.947151,-842.705048,-2146.597232,10288.862594
2578.947480,-1072.533697,-2516.700203,10510.924376
2578.947809,-1302.362347,-3034.844362,10658.965565
2578.948138,-1302.362347,-2294.638420,11103.089130
2578.948467,-383.047749,-1258.350101,10140.821405
2578.948796,1532.190996,-666.185348,9474.636058
2578.949125,2604.724693,-74.020594,8586.388927
2578.949454,3524.039291,592.164754,7698.141797
2578.949783,4060.306139,1628.453072,7031.956449
2578.950112,3600.648841,2146.597232,7476.080014
2578.950441,2451.505594,2220.617826,7994.224174
2578.950770,1532.190996,2294.638420,8068.244768
2578.951098,76.609550,518.144159,9326.594869
2578.951427,-1149.143247,-1036.288319,10288.862594
2578.951756,-1608.800546,-2442.679609,10955.047942
2578.952085,-2298.286494,-2812.782580,10584.944971
2578.952414,-1991.848295,-2072.576638,10362.883188
2578.952743,-995.924147,-1258.350101,10214.842000
2578.953072,-766.095498,-518.144159,9400.615463
2578.953401,0.000000,-518.144159,9474.636058
2578.953730,1532.190996,-814.226536,9918.759623
2578.954059,2221.676944,1184.329507,6661.853478
2578.954388,3677.258390,1776.494261,7846.182985
2578.954717,2834.553343,2368.659014,6809.894666
2578.955046,3447.429741,2442.679609,7994.224174
2578.955374,1915.238745,1998.556043,8438.347739
2578.955703,689.485948,666.185348,8660.409521
2578.956032,0.000000,-1110.308913,9696.697840
2578.956361,-1608.800546,-1332.370696,9548.656652
2578.956690,-2451.505594,-2072.576638,10807.006753
2578.957019,-2987.772442,-2294.638420,10955.047942
2578.957348,-689.485948,-1258.350101,9918.759623
2578.957677,-612.876398,-1184.329507,9474.636058
2578.958006,0.000000,-814.226536,9252.574275
2578.958335,766.095498,-0.000000,8586.388927
2578.958664,1302.362347,-0.000000,7698.141797
2578.958993,1455.581446,1406.391290,7476.080014
2578.959322,1378.971896,1998.556043,7846.182985
2578.959650,536.266849,1628.453072,8734.430116
2578.959979,-766.095498,518.144159,8882.471304
2578.960308,-1149.143247,-666.185348,9844.739029
2578.960637,-1532.190996,-1776.494261,9696.697840
2578.960966,-2145.067394,-2368.659014,9992.780217
2578.961295,-1915.238745,-2220.617826,10584.944971
2578.961624,-766.095498,-888.247130,9474.636058
2578.961953,0.000000,-1110.308913,9326.594869
2578.962282,766.095498,-888.247130,8586.388927
2578.962611,1072.533697,-0.000000,8734.430116
2578.962940,2604.724693,1406.391290,7624.121203
2578.963269,2451.505594,1406.391290,6883.915261
2578.963598,2221.676944,2220.617826,7772.162391
2578.963926,2145.067394,1702.473667,8290.306550
2578.964255,-306.438199,1332.370696,9030.512492
2578.964584,-536.266849,-518.144159,9770.718434
2578.964913,-1225.752797,-1258.350101,10362.883188
2578.965242,-1685.410096,-2294.638420,10214.842000
2578.965571,-1915.238745,-1554.432478,10436.903782
2578.965900,-1149.143247,-1258.350101,10214.842000
2578.966229,-766.095498,-518.144159,10288.862594
2578.966558,1225.752797,-370.102971,8586.388927
2578.966887,1991.848295,370.102971,8586.388927
2578.967216,2298.286494,370.102971,7772.162391
2578.967545,2681.334243,1332.370696,7476.080014
2578.967874,2451.505594,1850.514855,7698.141797
2578.968203,1302.362347,1702.473667,8290.306550
2578.968531,1072.533697,1110.308913,8734.430116
2578.968860,-383.047749,-0.000000,9696.697840
2578.969189,-1225.752797,-1850.514855,11029.068536
2578.969518,-1838.629195,-2590.720797,10881.027347
2578.969847,-2145.067394,-1702.473667,10732.986159
2578.970176,-1608.800546,-2442.679609,10288.862594
2578.970505,-919.314598,-962.267725,10140.821405
2578.970834,995.924147,-444.123565,10288.862594
2578.971163,2681.334243,-592.164754,8068.244768
2578.971492,3830.477490,1110.308913,8142.265362
2578.971821,3370.820191,888.247130,7698.141797
2578.972150,3677.258390,2146.597232,6883.915261
2578.972479,2987.772442,1924.535449,7624.121203
2578.972807,2068.457845,2072.576638,8586.388927
2578.973136,689.485948,814.226536,8956.491898
2578.973465,0.000000,-814.226536,10288.862594
2578.973794,-1455.581446,-1776.494261,10732.986159
2578.974123,-1302.362347,-2294.638420,10584.944971
2578.974452,-1532.190996,-2072.576638,10510.924376
2578.974781,-1302.362347,-1554.432478,9918.759623
2578.975110,-153.219100,-518.144159,9548.656652
2578.975439,1455.581446,-370.102971,8438.347739
2578.975768,2451.505594,518.144159,7846.182985
2578.976097,2604.724693,1258.350101,7105.977043
2578.976426,2451.505594,1554.432478,6809.894666
2578.976755,2145.067394,2220.617826,6957.935855
2578.977083,1455.581446,1998.556043,7328.038826
2578.977412,229.828649,1184.329507,8364.327145
2578.977741,-1225.752797,-592.164754,9992.780217
2578.978070,-2145.067394,-2072.576638,10436.903782
2578.978399,-2451.505594,-2960.823768,10955.047942
2578.978728,-2757.943793,-2590.720797,10732.986159
2578.979057,-2604.724693,-1998.556043,10140.821405
2578.979386,-1608.800546,-1036.288319,10214.842000
2578.979715,-612.876398,-296.082377,9474.636058
2578.980044,1608.800546,-444.123565,9326.594869
2578.980373,2757.943793,666.185348,7402.059420
2578.980702,2757.943793,1776.494261,6957.935855
2578.981031,2911.162892,2368.659014,6809.894666
2578.981359,2528.115143,1998.556043,7105.977043
2578.981688,919.314598,2220.617826,7994.224174
2578.982017,0.000000,-0.000000,9030.512492
2578.982346,-1225.752797,-1628.453072,10066.800811
2578.982675,-2298.286494,-2590.720797,11103.089130
2578.983004,-2987.772442,-3034.844362,11547.212695
2578.983333,-2911.162892,-2146.597232,10510.924376
2578.983662,-1762.019645,-1480.411884,10955.047942
2578.983991,-1072.533697,-74.020594,9548.656652
2578.984320,-612.876398,-0.000000,8956.491898
2578.984649,1302.362347,-518.144159,9770.718434
2578.984978,1991.848295,666.185348,7179.997637
2578.985307,2911.162892,2220.617826,7994.224174
2578.985635,1991.848295,1776.494261,7031.956449
2578.985964,1608.800546,2664.741391,7179.997637
2578.986293,383.047749,2368.659014,8808.450710
2578.986622,-306.438199,814.226536,8586.388927
2578.986951,-1149.143247,-1332.370696,10288.862594
2578.987280,-1991.848295,-2442.679609,10584.944971
2578.987609,-2834.553343,-2590.720797,11103.089130
2578.987938,-2987.772442,-2516.700203,10732.986159
2578.988267,-1532.190996,-1406.391290,10288.862594
2578.988596,-766.095498,-592.164754,9474.636058
2578.988925,1149.143247,-444.123565,9696.697840
2578.989254,2068.457845,148.041188,8808.450710
2578.989583,2451.505594,518.144159,7254.018232
2578.989912,3907.087040,1702.473667,6439.791695
2578.990240,3217.601092,2146.597232,6587.832884
2578.990569,2757.943793,2146.597232,7550.100608
2578.990898,1302.362347,1776.494261,8438.347739
2578.991227,919.314598,-0.000000,9252.574275
2578.991556,-766.095498,-1406.391290,10288.862594
2578.991885,-995.924147,-2442.679609,10214.842000
2578.992214,-1455.581446,-2516.700203,10658.965565
2578.992543,-1302.362347,-2294.638420,10881.027347
2578.992872,-536.266849,-1628.453072,10066.800811
2578.993201,459.657299,-1184.329507,9474.636058
2578.993530,1685.410096,-148.041188,9252.574275
2578.993859,2451.505594,518.144159,8364.327145
2578.994188,3294.210641,962.267725,7328.038826
2578.994516,3447.429741,1628.453072,7031.956449
2578.994845,2528.115143,2368.659014,7772.162391
2578.995174,1532.190996,2220.617826,8216.285956
2578.995503,229.828649,444.123565,8956.491898
2578.995832,-1072.533697,-1110.308913,9622.677246
2578.996161,-1762.019645,-2368.659014,10732.986159
2578.996490,-1532.190996,-3182.885551,11029.068536
2578.996819,-1838.629195,-2368.659014,10362.883188
2578.997148,-1225.752797,-1258.350101,9992.780217
2578.997477,0.000000,-962.267725,9400.615463
2578.997806,1378.971896,-370.102971,8882.471304
2578.998135,2374.896044,-0.000000,8660.409521
2578.998464,3217.601092,1036.288319,6883.915261
2578.998792,3140.991542,1924.535449,6587.832884
2578.999121,3064.381992,2072.576638,7179.997637
2578.999450,1915.238745,2368.659014,7846.182985
2578.999779,919.314598,1110.308913,8438.347739
2579.000108,-306.438199,-0.000000,9326.594869
2579.000437,-919.314598,-1480.411884,10362.883188
2579.000766,-1762.019645,-2368.659014,10436.903782
2579.001095,-1915.238745,-2368.659014,10510.924376
2579.001424,-1991.848295,-2146.597232,10362.883188
2579.001753,-1378.971896,-1184.329507,10140.821405
2579.002082,0.000000,-814.226536,9548.656652
2579.002411,842.705048,-666.185348,9326.594869
2579.002740,1685.410096,740.205942,9178.553681
2579.003068,1762.019645,1110.308913,7698.141797
2579.003397,2221.676944,2220.617826,7476.080014
2579.003726,2145.067394,2516.700203,7846.182985
2579.004055,612.876398,2146.597232,8364.327145
2579.004384,-536.266849,1110.308913,9252.574275
2579.004713,-919.314598,-888.247130,10140.821405
2579.005042,-2221.676944,-1776.494261,10288.862594
2579.005371,-2604.724693,-3034.844362,11029.068536
2579.005700,-2911.162892,-2294.638420,10362.883188
2579.006029,-2451.505594,-1628.453072,10214.842000
2579.006358,-1302.362347,-888.247130,9252.574275
2579.006687,-766.095498,-740.205942,9326.594869
2579.007016,229.828649,-296.082377,9696.697840
2579.007344,919.314598,222.061783,7846.182985
2579.007673,2451.505594,1480.411884,7624.121203
2579.008002,2604.724693,1924.535449,7105.977043
2579.008331,1991.848295,1924.535449,8142.265362
2579.008660,842.705048,1702.473667,8290.306550
2579.008989,383.047749,444.123565,8734.430116
2579.009318,-306.438199,-518.144159,9326.594869
2579.009647,-536.266849,-1554.432478,9474.636058
2579.009976,-1532.190996,-1702.473667,10214.842000
2579.010305,-2298.286494,-1702.473667,9918.759623
2579.010634,-689.485948,-1406.391290,9548.656652
2579.010963,153.219100,-1036.288319,8808.450710
2579.011292,995.924147,-592.164754,8882.471304
2579.011621,1378.971896,222.061783,7994.224174
2579.011949,1072.533697,740.205942,7550.100608
2579.012278,1685.410096,962.267725,7476.080014
2579.012607,1149.143247,1776.494261,8808.450710
2579.012936,-459.657299,888.247130,9326.594869
2579.013265,-842.705048,-296.082377,9622.677246
2579.013594,-919.314598,-1406.391290,10066.800811
2579.013923,-689.485948,-2072.576638,10066.800811
2579.014252,-1378.971896,-1924.535449,9992.780217
2579.014581,-536.266849,-1998.556043,10658.965565
2579.014911,76.609550,-1258.350101,9548.656652
2579.015240,1455.581446,-74.020594,9178.553681
2579.015569,2834.553343,-0.000000,8364.327145
2579.015898,3294.210641,370.102971,8216.285956
2579.016227,3447.429741,962.267725,7624.121203
2579.016556,3907.087040,1554.432478,7772.162391
2579.016885,3217.601092,1702.473667,7698.141797
2579.017214,2528.115143,1554.432478,8512.368333
2579.017543,766.095498,370.102971,9622.677246
2579.017872,0.000000,-1036.288319,10436.903782
2579.018201,-919.314598,-2294.638420,10658.965565
2579.018530,-1149.143247,-1776.494261,10732.986159
2579.018859,-919.314598,-1184.329507,10658.965565
2579.019188,-536.266849,-1110.308913,10214.842000
2579.019517,842.705048,-0.000000,9918.759623
2579.019846,2221.676944,-296.082377,9178.553681
2579.020175,3140.991542,222.061783,8068.244768
2579.020504,3370.820191,962.267725,7846.182985
2579.020833,3294.210641,1110.308913,7031.956449
2579.021163,2681.334243,1924.535449,7476.080014
2579.021492,1915.238745,1332.370696,8290.306550
2579.021821,612.876398,1184.329507,8364.327145
2579.022150,-766.095498,-0.000000,9474.636058
2579.022479,-1532.190996,-1258.350101,10214.842000
2579.022808,-1991.848295,-2146.597232,10658.965565
2579.023137,-2604.724693,-2220.617826,10510.924376
2579.023466,-2145.067394,-1850.514855,9770.718434
2579.023795,-1455.581446,-1110.308913,9992.780217
2579.024124,-383.047749,-666.185348,8586.388927
2579.024453,612.876398,-518.144159,9326.594869
2579.024782,1685.410096,-0.000000,8142.265362
2579.025111,2221.676944,444.123565,7624.121203
2579.025440,2145.067394,1480.411884,7402.059420
2579.025769,1685.410096,1554.432478,7624.121203
2579.026098,919.314598,1850.514855,8364.327145
2579.026427,306.438199,740.205942,8956.491898
2579.026756,-383.047749,-444.123565,9918.759623
2579.027085,-1302.362347,-1480.411884,10510.924376
2579.027415,-2145.067394,-1850.514855,10584.944971
2579.027744,-2298.286494,-1924.535449,10362.883188
2579.028073,-2451.505594,-1036.288319,10288.862594
2579.028402,-1225.752797,-444.123565,10140.821405
2579.028731,-536.266849,-370.102971,9622.677246
2579.029060,1072.533697,-222.061783,8660.409521
2579.029389,1378.971896,-0.000000,7994.224174
2579.029718,1838.629195,518.144159,7179.997637
2579.030047,1455.581446,1628.453072,6883.915261
2579.030376,1225.752797,1332.370696,7772.162391
2579.030705,-306.438199,1554.432478,8364.327145
2579.031034,-1225.752797,592.164754,9178.553681
2579.031363,-1762.019645,-814.226536,10214.842000
2579.031692,-2528.115143,-1406.391290,9918.759623
2579.032021,-2911.162892,-2146.597232,10066.800811
2579.032350,-3140.991542,-1480.411884,10066.800811
2579.032679,-2834.553343,-1110.308913,9474.636058
2579.033008,-2604.724693,-296.082377,8734.430116
2579.033337,-1762.019645,-370.102971,7994.224174
2579.033667,-1685.410096,-370.102971,8734.430116
2579.033996,-2145.067394,-592.164754,8660.409521
2579.034325,-2298.286494,-518.144159,8216.285956
2579.034654,-2145.067394,-0.000000,8512.368333
2579.034983,-2451.505594,-0.000000,8660.409521
2579.035312,-2681.334243,518.144159,9326.594869
2579.035641,-2757.943793,-444.123565,9918.759623
2579.035970,-2145.067394,-1110.308913,9474.636058
2579.036299,-1915.238745,-444.123565,9030.512492
2579.036628,-2374.896044,-962.267725,9548.656652
2579.036957,-2145.067394,-296.082377,9770.718434
2579.037286,-2221.676944,-0.000000,9770.718434
2579.037615,-1762.019645,296.082377,9326.594869
2579.037944,-229.828649,148.041188,9400.615463
2579.038273,-383.047749,-296.082377,8734.430116
2579.038602,-229.828649,-0.000000,7328.038826
2579.038931,-153.219100,-296.082377,8438.347739
2579.039260,-1072.533697,-740.205942,8068.244768
2579.039590,-1532.190996,444.123565,9104.533087
2579.039919,-2068.457845,-222.061783,9474.636058
2579.040248,-2987.772442,-0.000000,9178.553681
2579.040577,-2681.334243,-0.000000,9474.636058
2579.040906,-2604.724693,296.082377,9326.594869
2579.041235,-2221.676944,-222.061783,9474.636058
2579.041564,-2068.457845,-740.205942,9622.677246
2579.041893,-1455.581446,-666.185348,9622.677246
2579.042222,-2451.505594,-370.102971,9400.615463
2579.042551,-1608.800546,1184.329507,9696.697840
2579.042880,-2145.067394,296.082377,8882.471304
2579.043209,-1915.238745,296.082377,9030.512492
2579.043538,-1225.752797,518.144159,8290.306550
2579.043867,-995.924147,962.267725,7328.038826
2579.044196,-1532.190996,-0.000000,7846.182985
2579.044525,-2604.724693,-0.000000,8290.306550
2579.044854,-3600.648841,-1628.453072,9326.594869
2579.045183,-3907.087040,-1924.535449,9474.636058
2579.045512,-3677.258390,-1850.514855,9178.553681
2579.045842,-4749.792088,-1332.370696,9252.574275
2579.046171,-5209.449386,-1406.391290,10362.883188
2579.046500,-5209.449386,-1184.329507,10881.027347
2579.046829,-4366.744339,-296.082377,10436.903782
2579.047158,-3217.601092,-0.000000,9178.553681
2579.047487,-2604.724693,444.123565,8512.368333
2579.047816,-1532.190996,1554.432478,7846.182985
2579.048145,-1838.629195,1702.473667,7476.080014
2579.048474,-1532.190996,296.082377,9178.553681
2579.048803,-1838.629195,296.082377,8216.285956
2579.049132,-1302.362347,-222.061783,8512.368333
2579.049461,-1378.971896,-222.061783,8586.388927
2579.049790,-2221.676944,-888.247130,8882.471304
2579.050119,-2451.505594,-1258.350101,9548.656652
2579.050448,-2374.896044,-222.061783,9030.512492
2579.050777,-1762.019645,-0.000000,9474.636058
2579.051106,-1915.238745,296.082377,9252.574275
2579.051435,-2221.676944,592.164754,8660.409521
2579.051764,-3370.820191,592.164754,9178.553681
2579.052094,-3217.601092,740.205942,8438.347739
2579.052423,-2681.334243,370.102971,8364.327145
2579.052752,-2834.553343,-0.000000,9030.512492
2579.053081,-2834.553343,-74.020594,8512.368333
2579.053410,-3524.039291,-1628.453072,8956.491898
2579.053739,-3983.696590,-2368.659014,9400.615463
2579.054068,-4136.915689,-2072.576638,9474.636058
2579.054397,-4366.744339,-2368.659014,10288.862594
2579.054726,-4290.134789,-1998.556043,9992.780217
2579.055055,-3600.648841,-1184.329507,10807.006753
2579.055384,-3370.820191,-740.205942,9918.759623
2579.055713,-2451.505594,518.144159,9400.615463
2579.056042,-1991.848295,1110.308913,8512.368333
2579.056371,-1838.629195,1480.411884,8438.347739
2579.056700,-919.314598,3182.885551,7772.162391
2579.057029,-1762.019645,2220.617826,8290.306550
2579.057358,-1762.019645,1406.391290,8068.244768
2579.057687,-1302.362347,1036.288319,7476.080014
2579.058016,-1072.533697,444.123565,7846.182985
2579.058346,-1762.019645,1036.288319,7105.977043
2579.058675,-1762.019645,-0.000000,8290.306550
2579.059004,-2681.334243,592.164754,8142.265362
2579.059333,-2604.724693,1332.370696,9252.574275
2579.059662,-2834.553343,1110.308913,9252.574275
2579.059991,-2757.943793,1110.308913,9030.512492
2579.060320,-2604.724693,1850.514855,10140.821405
2579.060649,-3753.867940,1110.308913,9770.718434
2579.060978,-3370.820191,444.123565,12065.356855
2579.061307,-3370.820191,-592.164754,12065.356855
2579.061636,-2374.896044,222.061783,10510.924376
2579.061965,-1532.190996,-0.000000,10584.944971
2579.062294,-612.876398,1110.308913,8660.409521
2579.062623,-1072.533697,1554.432478,8956.491898
2579.062952,-689.485948,2368.659014,9992.780217
2579.063281,612.876398,814.226536,10362.883188
2579.063610,2374.896044,3182.885551,6883.915261
2579.063939,3830.477490,3997.112087,5773.606348
2579.064269,3983.696590,4071.132681,5921.647536
2579.064598,2987.772442,4663.297435,6809.894666
2579.064927,2681.334243,4663.297435,8142.265362
2579.065256,1838.629195,3108.864956,8956.491898
2579.065585,842.705048,3627.009116,10066.800811
2579.065914,-459.657299,2294.638420,10362.883188
2579.066243,-1915.238745,2294.638420,9548.656652
2579.066572,-2145.067394,666.185348,11695.253884
2579.066901,-995.924147,1480.411884,9918.759623
2579.067230,-459.657299,1628.453072,9844.739029
2579.067559,-842.705048,2146.597232,9696.697840
2579.067888,153.219100,3034.844362,8068.244768
2579.068217,1072.533697,2516.700203,7254.018232
2579.068546,842.705048,3552.988522,7105.977043
2579.068875,1072.533697,4959.379811,7402.059420
2579.069204,383.047749,3330.926739,8142.265362
2579.069533,-995.924147,3256.906145,9030.512492
2579.069862,-1685.410096,2886.803174,9400.615463
2579.070191,-2987.772442,1480.411884,9178.553681
2579.070521,-2604.724693,1628.453072,10362.883188
2579.070850,-2451.505594,2146.597232,10658.965565
2579.071179,-2221.676944,2664.741391,11103.089130
2579.071508,-1991.848295,3256.906145,9474.636058
2579.071837,-1915.238745,2738.761985,9992.780217
2579.072166,-1072.533697,2812.782580,10362.883188
2579.072495,-1149.143247,3034.844362,9326.594869
2579.072824,-919.314598,2516.700203,9326.594869
2579.073153,-842.705048,2516.700203,9252.574275
2579.073482,1608.800546,2368.659014,10362.883188
2579.073811,1991.848295,4885.359217,6143.709319
2579.074140,3907.087040,4589.276840,8660.409521
2579.074469,1915.238745,4885.359217,7476.080014
2579.074798,3447.429741,6143.709319,7254.018232
2579.075127,2068.457845,6957.935855,7179.997637
2579.075456,1838.629195,5551.544565,7994.224174
2579.075785,536.266849,5699.585753,8586.388927
2579.076114,306.438199,6365.771101,7772.162391
2579.076443,766.095498,2738.761985,10584.944971
2579.076773,-1915.238745,740.205942,12139.377449
2579.077102,-842.705048,740.205942,11251.130318
2579.077431,-995.924147,1480.411884,11621.233289
2579.077760,-536.266849,-370.102971,11399.171507
2579.078089,-842.705048,3182.885551,8808.450710
2579.078418,1762.019645,2294.638420,9400.615463
2579.078747,1455.581446,4959.379811,7476.080014
2579.079076,2374.896044,4737.318029,8290.306550
2579.079405,3140.991542,4515.256246,7624.121203
2579.079734,2451.505594,4589.276840,7402.059420
2579.080063,2221.676944,4441.235652,8142.265362
2579.080392,0.000000,1850.514855,7920.203579
2579.080721,-1532.190996,296.082377,11325.150913
2579.081050,-2221.676944,666.185348,11251.130318
2579.081379,-1915.238745,-0.000000,12287.418637
2579.081708,-2834.553343,814.226536,8660.409521
2579.082037,-1915.238745,1554.432478,10732.986159
2579.082366,-1378.971896,2368.659014,10066.800811
2579.082695,-1608.800546,1998.556043,9474.636058
2579.083025,-612.876398,2220.617826,9548.656652
2579.083354,2145.067394,666.185348,12065.356855
2579.083683,2374.896044,2146.597232,6883.915261
2579.084012,4903.011187,3256.906145,9030.512492
2579.084341,2987.772442,2368.659014,5403.503377
2579.084670,3677.258390,3330.926739,6587.832884
2579.084999,3370.820191,4515.256246,7698.141797
2579.085328,2451.505594,4145.153275,6513.812290
2579.085657,2145.067394,3108.864956,7698.141797
2579.085986,-1838.629195,1628.453072,9474.636058
2579.086315,-2528.115143,-3182.885551,11917.315666
2579.086644,-4136.915689,-1702.473667,12435.459826
2579.086973,-2451.505594,-2960.823768,11029.068536
2579.087302,-3294.210641,-1332.370696,10362.883188
2579.087631,-2451.505594,-0.000000,11695.253884
2579.087960,-1072.533697,2146.597232,9030.512492
2579.088289,-229.828649,1702.473667,8586.388927
2579.088618,995.924147,2738.761985,7254.018232
2579.088947,2068.457845,-74.020594,11103.089130
2579.089277,3830.477490,962.267725,8882.471304
2579.089606,4673.182538,2294.638420,5181.441594
2579.089935,5056.230287,1110.308913,6069.688724
2579.090264,3830.477490,3256.906145,4885.359217
2579.090593,5362.668486,1406.391290,8660.409521
2579.090922,2298.286494,4367.215058,5477.523971
2579.091251,3370.820191,3404.947333,6217.729913
2579.091580,-2451.505594,-0.000000,9104.533087
2579.091909,-4596.572988,-2516.700203,11547.212695
2579.092238,-4519.963438,-1110.308913,12287.418637
2579.092567,-6128.763984,-2738.761985,8734.430116
2579.092896,-5286.058936,-4293.194464,12139.377449
2579.093225,-5515.887586,-2738.761985,13693.809927
2579.093554,-1225.752797,-1850.514855,12879.583391
2579.093883,-2145.067394,-814.226536,9104.533087
2579.094212,689.485948,-814.226536,6143.709319
2579.094541,-383.047749,2146.597232,9474.636058
2579.094870,4443.353888,888.247130,13545.768739
2579.095200,3753.867940,5255.462188,-1036.288319
2579.095529,6205.373534,518.144159,11325.150913
2579.095858,3907.087040,4219.173869,4885.359217
2579.096187,5286.058936,4737.318029,5551.544565
2579.096516,1225.752797,1332.370696,8512.368333
2579.096845,-459.657299,6957.935855,4219.173869
2579.097174,-459.657299,-740.205942,13175.665768
2579.097503,-4136.915689,-666.185348,9400.615463
2579.097832,-2987.772442,-962.267725,11325.150913
2579.098161,-2834.553343,-3849.070898,10881.027347
2579.098490,-689.485948,-2664.741391,9548.656652
2579.098819,-3294.210641,-1258.350101,12583.501014
2579.099148,-689.485948,-1702.473667,8734.430116
2579.099477,-2757.943793,1110.308913,10807.006753
2579.099806,1532.190996,-4367.215058,12065.356855
2579.100135,4136.915689,2738.761985,6735.874072
2579.100464,4596.572988,3775.050304,7105.977043
2579.100793,5592.497135,1702.473667,4959.379811
2579.101122,3600.648841,3108.864956,6957.935855
2579.101452,2987.772442,4145.153275,9548.656652
2579.101781,229.828649,4515.256246,5773.606348
2579.102110,995.924147,1332.370696,11473.192101
2579.102439,-3064.381992,-1702.473667,10881.027347
2579.102768,-1991.848295,-2886.803174,11547.212695
2579.103097,-2451.505594,-962.267725,10584.944971
2579.103426,-2604.724693,-4367.215058,10732.986159
2579.103755,-3064.381992,-2294.638420,10955.047942
2579.104084,-1532.190996,-1850.514855,9400.615463
2579.104413,0.000000,-814.226536,10066.800811
2579.104742,1838.629195,-1332.370696,6143.709319
2579.105071,5056.230287,-740.205942,8216.285956
2579.105400,3600.648841,3775.050304,6069.688724
2579.105729,4060.306139,3997.112087,7624.121203
2579.106058,1915.238745,2146.597232,8438.347739
2579.106387,1149.143247,3404.947333,7772.162391
2579.106716,612.876398,962.267725,9104.533087
2579.107045,-1149.143247,-1554.432478,10732.986159
2579.107374,-1762.019645,-2294.638420,11547.212695
2579.107704,-1762.019645,-4145.153275,12583.501014
2579.108033,-2298.286494,-1036.288319,9622.677246
2579.108362,-2604.724693,-1850.514855,10288.862594
2579.108691,-1225.752797,-2738.761985,9844.739029
2579.109020,1302.362347,-740.205942,8216.285956
2579.109349,3370.820191,-296.082377,6143.709319
2579.109678,5209.449386,-0.000000,5995.668130
2579.110007,4060.306139,1480.411884,6513.812290
2579.110336,3524.039291,1776.494261,7920.203579
2579.110665,1455.581446,2442.679609,7624.121203
2579.110994,153.219100,444.123565,9252.574275
2579.111323,-689.485948,-222.061783,10881.027347
2579.111652,-1302.362347,-592.164754,11029.068536
2579.111981,-1838.629195,-2590.720797,12139.377449
2579.112310,-1991.848295,-1998.556043,11473.192101
2579.112640,-2528.115143,-1998.556043,10362.883188
2579.112969,-2604.724693,-1480.411884,10955.047942
2579.113298,-1532.190996,-2368.659014,11029.068536
2579.113627,766.095498,-2072.576638,9696.697840
2579.113956,2834.553343,-888.247130,7402.059420
2579.114285,4826.401637,-0.000000,5995.668130
2579.114614,3677.258390,1110.308913,5477.523971
2579.114943,2757.943793,1702.473667,7105.977043
2579.115272,1149.143247,1998.556043,7624.121203
2579.115602,689.485948,444.123565,9326.594869
2579.115931,-689.485948,-1776.494261,10807.006753
2579.116260,-995.924147,-2368.659014,10955.047942
2579.116589,-1608.800546,-3034.844362,11917.315666
2579.116918,-2298.286494,-2220.617826,11769.274478
2579.117247,-2068.457845,-1406.391290,10955.047942
2579.117576,-1378.971896,-518.144159,10214.842000
2579.117905,153.219100,370.102971,9400.615463
2579.118235,1302.362347,296.082377,8216.285956
2579.118564,2757.943793,-0.000000,7105.977043
2579.118893,2834.553343,592.164754,6217.729913
2579.119222,2911.162892,888.247130,5329.482782
2579.119551,1608.800546,1110.308913,6439.791695
2579.119880,0.000000,814.226536,7550.100608
2579.120209,-842.705048,-444.123565,9178.553681
2579.120538,-1302.362347,-2220.617826,9474.636058
2579.120868,-1608.800546,-3182.885551,10584.944971
2579.121197,-2068.457845,-2516.700203,10658.965565
2579.121526,-1915.238745,-1998.556043,10955.047942
2579.121855,-1685.410096,-814.226536,10362.883188
2579.122184,0.000000,370.102971,9770.718434
2579.122513,1302.362347,1258.350101,9178.553681
2579.122842,2451.505594,1776.494261,7254.018232
2579.123171,3294.210641,1850.514855,7105.977043
2579.123501,2911.162892,1850.514855,6883.915261
2579.123830,1915.238745,1332.370696,7031.956449
2579.124159,919.314598,1332.370696,7624.121203
2579.124488,153.219100,-592.164754,8142.265362
2579.124817,-1608.800546,-814.226536,9696.697840
2579.125146,-1302.362347,-1924.535449,10288.862594
2579.125475,-1762.019645,-1924.535449,10584.944971
2579.125804,-1762.019645,-2220.617826,10362.883188
2579.126133,-1225.752797,-888.247130,10807.006753
2579.126463,0.000000,296.082377,10510.924376
2579.126792,1532.190996,1554.432478,9844.739029
2579.127121,2681.334243,2368.659014,8956.491898
2579.127450,3294.210641,3034.844362,8290.306550
2579.127779,3217.601092,3182.885551,8216.285956
2579.128108,2757.943793,3182.885551,8142.265362
2579.128437,1072.533697,2146.597232,7994.224174
2579.128766,76.609550,1850.514855,8882.471304
2579.129096,-612.876398,-0.000000,9918.759623
2579.129425,-1225.752797,-1628.453072,10658.965565
2579.129754,-1532.190996,-2368.659014,10288.862594
2579.130083,-1762.019645,-2812.782580,10214.842000
2579.130412,-1685.410096,-2442.679609,9992.780217
2579.130741,-536.266849,-1258.350101,9696.697840
2579.131070,995.924147,-74.020594,9252.574275
2579.131399,2145.067394,1258.350101,8364.327145
2579.131729,2987.772442,2294.638420,7994.224174
2579.132058,3294.210641,2072.576638,7920.203579
2579.132387,2911.162892,2220.617826,7772.162391
2579.132716,2068.457845,2220.617826,8364.327145
2579.133045,842.705048,518.144159,9104.533087
2579.133374,-919.314598,-370.102971,9252.574275
2579.133703,-995.924147,-1924.535449,10584.944971
2579.134032,-995.924147,-2738.761985,10140.821405
2579.134361,-1608.800546,-2368.659014,9622.677246
2579.134691,-1915.238745,-2220.617826,9326.594869
2579.135020,-766.095498,-1776.494261,8660.409521
2579.135349,689.485948,-1702.473667,8290.306550
2579.135678,1455.581446,-592.164754,8586.388927
2579.136007,2145.067394,-740.205942,7698.141797
2579.136336,2834.553343,296.082377,7550.100608
2579.136665,2298.286494,740.205942,7550.100608
2579.136994,1532.190996,962.267725,8364.327145
2579.137324,0.000000,518.144159,8808.450710
2579.137653,-919.314598,666.185348,9252.574275
2579.137982,-995.924147,-518.144159,10362.883188
2579.138311,-1302.362347,-1702.473667,10510.924376
2579.138640,-1149.143247,-1998.556043,10140.821405
2579.138969,-1762.019645,-1628.453072,10066.800811
2579.139298,-2145.067394,-1998.556043,9622.677246
2579.139627,-919.314598,-1924.535449,9030.512492
2579.139957,536.266849,-1258.350101,8068.244768
2579.140286,1455.581446,-666.185348,7476.080014
2579.140615,2374.896044,-1036.288319,7550.100608
2579.140944,3370.820191,-296.082377,7328.038826
2579.141273,2145.067394,370.102971,7624.121203
2579.141602,766.095498,814.226536,8438.347739
2579.141931,-689.485948,592.164754,9104.533087
2579.142260,-1225.752797,-0.000000,9844.739029
2579.142589,-919.314598,-1184.329507,10362.883188
2579.142919,-1378.971896,-1776.494261,10510.924376
2579.143248,-1302.362347,-1406.391290,10584.944971
2579.143577,-1838.629195,-1628.453072,9992.780217
2579.143906,-612.876398,-814.226536,9178.553681
2579.144235,383.047749,-148.041188,8290.306550
2579.144564,1532.190996,-0.000000,7624.121203
2579.144893,2451.505594,222.061783,7328.038826
2579.145222,2834.553343,444.123565,7254.018232
2579.145552,2451.505594,814.226536,7772.162391
2579.145881,1225.752797,-0.000000,7994.224174
2579.146210,-459.657299,370.102971,9178.553681
2579.146539,-1302.362347,-0.000000,10214.842000
2579.146868,-1455.581446,-444.123565,10510.924376
2579.147197,-1225.752797,-1110.308913,10955.047942
2579.147526,-1302.362347,-2368.659014,11399.171507
2579.147855,-842.705048,-1406.391290,10658.965565
2579.148185,-766.095498,-592.164754,10362.883188
2579.148514,689.485948,222.061783,9326.594869
2579.148843,2068.457845,888.247130,7920.203579
2579.149172,2834.553343,1258.350101,7476.080014
2579.149501,3370.820191,1036.288319,7328.038826
2579.149830,3370.820191,1406.391290,7624.121203
2579.150159,2528.115143,666.185348,7254.018232
2579.150488,612.876398,1110.308913,8216.285956
2579.150818,-766.095498,666.185348,9178.553681
2579.151147,-1608.800546,-0.000000,9918.759623
2579.151476,-1532.190996,-1110.308913,10510.924376
2579.151805,-1302.362347,-1554.432478,10955.047942
2579.152134,-1378.971896,-1258.350101,10362.883188
2579.152463,-1378.971896,-1480.411884,10140.821405
2579.152792,-383.047749,-0.000000,9992.780217
2579.153121,1532.190996,1628.453072,8586.388927
2579.153450,2451.505594,1628.453072,7846.182985
2579.153780,3524.039291,2072.576638,7402.059420
2579.154109,3983.696590,1924.535449,7105.977043
2579.154438,3447.429741,2072.576638,7328.038826
2579.154767,2451.505594,1036.288319,7105.977043
2579.155096,229.828649,1332.370696,8882.471304
2579.155425,-1838.629195,-0.000000,9400.615463
2579.155754,-1838.629195,-1554.432478,10881.027347
2579.156083,-1991.848295,-2368.659014,10955.047942
